Time [s],Acc_x [m/s^2],Acc_y [m/s^2],Acc_z [m/s^2],Gyro_x [1/s],Gyro_y [1/s],Gyro_z [1/s]
0.0,0.02365584298968315,0.12787725031375885,-0.000869434152264148,-0.0036255766171962023,-0.0024107382632791996,0.009880118072032928
0.05,-0.1024193987250328,0.10314276069402695,0.010736885480582714,-0.002016570884734392,0.001117382082156837,0.020028192549943924
0.1,-0.1633351594209671,0.06527616083621979,-0.00545862689614296,-0.008782776072621346,-0.005412244237959385,0.009057806804776192
0.15,-0.08101996779441833,0.12407305091619492,0.004351973533630371,-0.006938282400369644,-0.022497305646538734,-0.006303409114480019
0.2,-0.10543467849493027,0.2323026955127716,0.0006402683211490512,-0.0024866010062396526,-0.02417956292629242,-0.005964627023786306
0.25,-0.15978123247623444,0.1722717583179474,0.075465127825737,0.001953274942934513,-0.015802348032593727,-0.009130953811109066
0.3,-0.09391238540410995,0.14727307856082916,0.02798847295343876,-0.010230934247374535,-0.007289220113307238,-0.007982088252902031
0.35,-0.1543702632188797,0.12401678413152695,0.05785287544131279,-0.003070342820137739,0.004255867563188076,-0.017591336742043495
0.4,-0.09508921951055527,0.10735323280096054,0.08266084641218185,-0.022671697661280632,-0.028635554015636444,-0.017394090071320534
0.45,0.009792424738407135,0.09892179071903229,-0.08420315384864807,-0.06488843262195587,-0.055759407579898834,-0.03945622220635414
0.5,0.055641353130340576,0.05339336767792702,-0.08673477172851562,-0.05282929539680481,-0.07043296843767166,-0.018172334879636765
0.55,-0.030636068433523178,0.03415584936738014,-0.1057848334312439,-0.043547142297029495,-0.05671892315149307,0.005164086353033781
0.6,-0.013664036989212036,0.053689006716012955,-0.16668598353862762,-0.031688012182712555,-0.04843322932720184,0.01079632993787527
0.65,-0.06732793897390366,0.16635896265506744,-0.09148278832435608,0.004318584688007832,-0.03176901862025261,0.03238440677523613
0.7,-0.14707039296627045,0.13849927484989166,-0.10756056755781174,0.012199407443404198,-0.02429593726992607,0.033069901168346405
0.75,-0.22392317652702332,0.15708068013191223,-0.0401371531188488,0.013422016054391861,-0.02213416062295437,0.028998788446187973
0.8,-0.284475177526474,0.2247353047132492,-0.03354513645172119,0.023106103762984276,-0.010678354650735855,0.005605184007436037
0.85,-0.2008957862854004,0.15540030598640442,0.10680711269378662,0.03018615022301674,-0.02502496913075447,-0.016584312543272972
0.9,-0.39181292057037354,0.15224365890026093,0.09193632751703262,0.0201488696038723,0.004775326699018478,-0.009383779019117355
0.95,-0.15695051848888397,0.12056829780340195,0.06448236107826233,0.003128497861325741,0.0019477206515148282,-0.03380430117249489
1.0,0.013206582516431808,0.12919045984745026,0.0015335532370954752,0.00420492235571146,-0.0045770565047860146,-0.02803497016429901
1.05,0.010201593860983849,0.1088571697473526,0.011877915821969509,-0.01276432815939188,-0.006078906357288361,-0.01715662144124508
1.1,-0.0692981705069542,0.08947373181581497,-0.04593290388584137,-0.006154597736895084,0.023430390283465385,0.007191224955022335
1.15,-0.13873548805713654,0.01693630963563919,-0.03749355673789978,0.0043530212715268135,0.02105703204870224,0.005718435626477003
1.2,-0.5279167294502258,0.20417314767837524,-0.08374239504337311,0.009744023904204369,-0.024502187967300415,0.04673793911933899
1.25,-0.807059109210968,1.6664289236068726,1.8045817613601685,0.07722779363393784,-0.601179301738739,0.3203809857368469
1.3,0.431044340133667,4.406005382537842,7.359920501708984,-0.09361442923545837,-1.5513921976089478,0.7690776586532593
1.35,1.6551690101623535,10.213226318359375,8.743040084838867,-1.9692713022232056,-1.5952725410461426,1.1039714813232422
1.4,2.2007195949554443,12.020844459533691,1.9603370428085327,-5.251293659210205,-0.9552283883094788,0.8643224835395813
1.45,-0.08863520622253418,3.6304256916046143,-5.4168524742126465,-7.18885612487793,-1.0529510974884033,0.926402747631073
1.5,-0.8300769329071045,-3.664904832839966,-6.298457622528076,-5.796124458312988,0.24774298071861267,0.11101223528385162
1.55,-1.1371614933013916,-8.6766357421875,-4.558242321014404,-4.471514701843262,0.37576112151145935,-0.627714991569519
1.6,-1.0713307857513428,-8.550152778625488,-2.9654293060302734,-2.9306693077087402,0.1213156133890152,-0.11700057238340378
1.65,-0.6944022178649902,-6.1988019943237305,-2.349222183227539,-1.3614044189453125,0.25914281606674194,-0.022309347987174988
1.7,1.053863525390625,-4.378920555114746,-1.8488266468048096,-0.4435553252696991,0.022397013381123543,-0.33240190148353577
1.75,0.9718964099884033,-4.0137434005737305,-1.3314177989959717,0.23609483242034912,0.11323335766792297,-0.45016181468963623
1.8,-0.8009823560714722,-3.238156318664551,-1.661449909210205,0.8355365991592407,0.4272371828556061,0.11557429283857346
1.85,-1.4562236070632935,-6.821384429931641,-1.9739160537719727,0.9491458535194397,-0.260528028011322,0.0048668826930224895
1.9,-2.0701487064361572,-10.78006362915039,-6.504071235656738,1.756956934928894,-0.8010702729225159,-0.7547658681869507
1.95,-0.32578206062316895,-3.974008321762085,-9.901507377624512,4.756919860839844,0.7786569595336914,-4.217998504638672
2.0,0.0830998420715332,1.0683925151824951,-14.354355812072754,8.810001373291016,4.741460800170898,-6.959723949432373
2.05,-3.5066940784454346,15.978106498718262,-12.291871070861816,10.550874710083008,4.507727146148682,-2.98748517036438
2.1,7.907848834991455,15.56942081451416,5.785234451293945,5.610955238342285,-6.0091071128845215,0.16137516498565674
2.15,5.545036315917969,5.31129789352417,13.156886100769043,4.886853218078613,-1.7598074674606323,-0.20986197888851166
2.2,-0.45388269424438477,1.0687249898910522,8.620260238647461,2.861264705657959,0.5197170376777649,1.4806036949157715
2.25,-1.3991107940673828,-2.4688220024108887,7.88685941696167,0.8611082434654236,-3.0459346771240234,-0.33713752031326294
2.3,-2.2893121242523193,-2.3018903732299805,5.159425258636475,0.2616073489189148,-3.0022828578948975,-0.8322026133537292
2.35,-2.235137462615967,-2.550049304962158,6.525537014007568,0.2777208089828491,-3.569983959197998,-1.3763618469238281
2.4,-4.489681720733643,-2.816439390182495,7.9114789962768555,-0.3676278293132782,-3.219294548034668,-1.1527892351150513
2.45,-5.966338634490967,-0.9129406213760376,4.883162021636963,-1.5191445350646973,-0.9204829931259155,-0.1069030687212944
2.5,-4.301883220672607,0.4561542570590973,3.7778162956237793,-2.268278121948242,0.5291556715965271,-0.6555801630020142
2.55,-2.7017500400543213,3.6138646602630615,1.7072052955627441,-2.979743480682373,0.9169753789901733,-1.25571870803833
2.6,-0.6239044666290283,6.036293029785156,-0.5542356371879578,-3.5122880935668945,0.8787387013435364,-1.6868280172348022
2.65,0.3296780586242676,6.26917839050293,-3.555166482925415,-3.7749364376068115,1.1953575611114502,-1.7378482818603516
2.7,0.3576486110687256,5.530089855194092,-6.524719715118408,-3.9929699897766113,1.4811043739318848,-1.8471006155014038
2.75,0.5805509090423584,2.4962825775146484,-8.701539039611816,-3.7262721061706543,1.9492961168289185,-2.2932393550872803
2.8,0.8821744918823242,-1.34524667263031,-8.345733642578125,-3.005199432373047,1.6611051559448242,-2.8687238693237305
2.85,0.7425308227539062,-5.199600696563721,-7.388545513153076,-2.6408603191375732,0.8053941130638123,-3.006915807723999
2.9,0.6639096736907959,-7.331763744354248,-6.694053649902344,-2.385607957839966,-0.30443379282951355,-2.2665467262268066
2.95,1.9883055686950684,-9.608789443969727,-6.100090980529785,-1.7937644720077515,-1.9216240644454956,-0.5875238180160522
3.0,5.435280799865723,-11.047866821289062,-4.316798686981201,-2.0532259941101074,-3.4806454181671143,2.007991075515747
3.05,9.528265953063965,-7.434301376342773,-0.4659719169139862,-1.938439130783081,-4.346297264099121,3.8112905025482178
3.1,9.093969345092773,-2.4988324642181396,1.5402659177780151,0.5742157697677612,-3.473146677017212,4.202622413635254
3.15,5.538763523101807,2.86916446685791,0.09228675812482834,1.681908130645752,-1.5890686511993408,5.174670696258545
3.2,2.8811933994293213,4.5838303565979,-2.879474401473999,2.3098652362823486,-0.46041339635849,4.9581475257873535
3.25,2.419053554534912,7.713531494140625,-2.893099308013916,3.131639003753662,-0.6714154481887817,4.292723655700684
3.3,0.5628553032875061,12.089364051818848,3.2913310527801514,3.9601104259490967,-2.7847025394439697,3.482924461364746
3.35,-7.524198532104492,5.289615154266357,13.260612487792969,5.146010875701904,-5.228277683258057,2.281181573867798
3.4,-8.1876802444458,-5.660380840301514,10.483250617980957,4.338322639465332,-5.331259250640869,0.027715245261788368
3.45,-6.823545932769775,-0.8415732979774475,5.603282928466797,0.068248450756073,-4.6927337646484375,-2.2005436420440674
3.5,-3.4905776977539062,2.250993251800537,2.5157151222229004,-1.934768557548523,-2.6816141605377197,-1.6782127618789673
3.55,-2.029589891433716,1.3061097860336304,3.0035605430603027,-0.32075175642967224,-1.8563263416290283,-0.81376713514328
3.6,-2.642935276031494,-0.034357763826847076,4.499753952026367,1.542873740196228,-2.022966146469116,0.24813401699066162
3.65,-4.355344772338867,-2.5217461585998535,3.08538556098938,0.5482559204101562,-2.169938564300537,1.308112621307373
3.7,-8.16983413696289,-0.9873311519622803,-2.4569931030273438,-2.939720630645752,-2.6326544284820557,1.4596868753433228
3.75,-9.225473403930664,-1.4001940488815308,-9.952332496643066,-5.220418453216553,-0.474820077419281,-0.8195101022720337
3.8,1.0045216083526611,2.7061233520507812,-6.967443466186523,-3.965337038040161,2.7466936111450195,-4.6077070236206055
3.85,2.888460159301758,0.531413733959198,-6.54718017578125,-0.37918370962142944,0.5260837078094482,-2.7164101600646973
3.9,3.2831790447235107,-0.24450995028018951,-1.7485319375991821,3.3712987899780273,-1.3609015941619873,-1.1248124837875366
3.95,3.774473190307617,-2.136603832244873,2.5722944736480713,4.895969390869141,-2.6773295402526855,-1.1156054735183716
4.0,1.6016433238983154,-4.059240341186523,3.2752890586853027,3.4977269172668457,-3.3915750980377197,-0.6014378070831299
4.05,-0.026237964630126953,-3.3972744941711426,1.8988878726959229,1.0497852563858032,-2.7689578533172607,-0.09994213283061981
4.1,1.8114489316940308,-0.2734452486038208,0.49451056122779846,-0.5956484079360962,-0.9651182889938354,-0.2507108449935913
4.15,6.449511528015137,0.6177260279655457,0.032168902456760406,-1.2159100770950317,0.42123889923095703,0.01145374309271574
4.2,4.038876056671143,1.619277000427246,-0.7431106567382812,-2.2787280082702637,0.1492130607366562,-0.18255315721035004
4.25,1.9960687160491943,4.039469242095947,-1.855987310409546,-2.8145828247070312,0.11857534199953079,-0.25044333934783936
4.3,0.9087976813316345,4.904580593109131,-2.656628370285034,-2.030463695526123,0.18193525075912476,0.9980737566947937
4.35,-3.244028091430664,0.3944110870361328,-8.48641586303711,-1.9441521167755127,-0.28206583857536316,2.0003015995025635
4.4,-3.766267776489258,0.5817356705665588,-7.5175862312316895,-0.9925076961517334,1.7848304510116577,0.517073392868042
4.45,-2.7326741218566895,3.484452724456787,-3.9311773777008057,1.1070144176483154,2.031301498413086,0.23291796445846558
4.5,-3.0727007389068604,3.1208646297454834,0.7921475172042847,3.399265766143799,-0.23250047862529755,0.6569303274154663
4.55,-3.4111344814300537,1.4606527090072632,2.9236419200897217,4.701457977294922,-2.46732234954834,-0.23296979069709778
4.6,-2.384814739227295,1.3849653005599976,4.390353202819824,4.542959690093994,-2.098109722137451,-1.5309009552001953
4.65,-1.2577040195465088,0.0705425813794136,6.073354244232178,3.754727363586426,-0.29734984040260315,-1.29764723777771
4.7,-0.2770040035247803,-1.8617844581604004,6.682747840881348,2.630030870437622,0.7727288603782654,-0.673356294631958
4.75,1.3856878280639648,-2.99853777885437,6.627901554107666,1.8167203664779663,0.7828682065010071,-1.2018954753875732
4.8,2.382157564163208,-3.891024112701416,6.166665554046631,1.006065011024475,0.3698839247226715,-1.9635306596755981
4.85,1.9014759063720703,-4.012804985046387,4.606228828430176,0.05164968967437744,-0.5045533776283264,-2.660691022872925
4.9,0.9967741966247559,-1.774155855178833,3.0789833068847656,-0.7197669744491577,-1.6411478519439697,-3.344268798828125
4.95,-0.2645708918571472,2.2264177799224854,-0.9071409702301025,-1.0846412181854248,-2.7661421298980713,-2.7465157508850098
5.0,-1.2857469320297241,2.4350321292877197,-2.569145917892456,-0.41724759340286255,-3.242536783218384,-1.270590901374817
5.05,-0.9928797483444214,2.7576544284820557,-3.5437538623809814,0.29225954413414,-2.9454729557037354,-1.365836501121521
5.1,0.7375319004058838,2.9966506958007812,-3.1279032230377197,0.921107292175293,-2.292433977127075,-1.3383877277374268
5.15,0.7505427002906799,1.4903650283813477,-1.8101435899734497,1.3555567264556885,-1.4100170135498047,-0.2902895212173462
5.2,0.9954351186752319,1.0382710695266724,-0.03288852795958519,1.6385672092437744,-0.5824876427650452,-0.18014129996299744
5.25,4.243597984313965,2.419135332107544,3.936593770980835,2.14678955078125,-0.383649080991745,-1.1763325929641724
5.3,28.373252868652344,8.668549537658691,21.582542419433594,2.625027894973755,-1.7866625785827637,-1.8450572490692139
5.35,-1.5786144733428955,-3.1473257541656494,7.258537769317627,0.3599746525287628,-4.09255838394165,0.6347211599349976
5.4,-4.1827311515808105,-2.1394057273864746,3.8818676471710205,0.5625739097595215,-4.523653507232666,-0.9242224097251892
5.45,-4.7690629959106445,-2.550961494445801,-0.304633766412735,0.920201301574707,-4.508101940155029,0.03489011526107788
5.5,-2.703261613845825,0.8319953083992004,1.3279006481170654,1.6390621662139893,-3.8957161903381348,0.09129197150468826
5.55,-1.6251130104064941,0.6019794344902039,2.201544761657715,-0.15362662076950073,-2.4610495567321777,1.1902211904525757
5.6,-2.6880509853363037,-3.4412646293640137,-1.1520159244537354,-1.8167295455932617,-1.6399017572402954,1.5096255540847778
5.65,-1.548630714416504,-3.6409754753112793,0.8808985948562622,-1.325661540031433,-0.9429561495780945,0.08564537763595581
5.7,-0.8991065621376038,-1.48939049243927,-0.7938771843910217,-0.8629010915756226,0.4893689751625061,-1.2604453563690186
5.75,0.6490418910980225,1.1708698272705078,-1.5196878910064697,0.28275877237319946,0.48241227865219116,-1.0021568536758423
5.8,1.6041908264160156,2.599810838699341,1.4234950542449951,0.33926448225975037,0.7327876687049866,-0.3729008436203003
5.85,2.886443853378296,4.678715229034424,2.1787331104278564,-0.5535562038421631,0.7361116409301758,0.035519689321517944
5.9,2.1637511253356934,3.1726717948913574,1.4115266799926758,-2.3607728481292725,0.7081876993179321,0.3984333574771881
5.95,1.629013180732727,4.34385347366333,0.8061631917953491,-1.724612832069397,0.35365793108940125,0.7728908658027649
6.0,0.5243386030197144,0.7219409346580505,-2.5286574363708496,-2.202679395675659,0.9351135492324829,1.2618674039840698
6.05,0.020193278789520264,-1.1715939044952393,-2.388699769973755,-1.3942488431930542,1.022987961769104,0.9124511480331421
6.1,-0.4711483120918274,-1.7474806308746338,-2.594204902648926,-0.9645381569862366,1.1988879442214966,0.4522894322872162
6.15,-0.7217500805854797,-0.9787369966506958,-0.3961028754711151,-0.8752135038375854,1.134055495262146,0.37781280279159546
6.2,-2.1434733867645264,-0.2797697186470032,3.1384050846099854,-1.2940794229507446,0.053047459572553635,0.8154852390289307
6.25,-2.415130615234375,-0.35666725039482117,5.757850646972656,-0.8433530330657959,-1.426863670349121,0.6845323443412781
6.3,-3.1476030349731445,-5.315997123718262,3.0444443225860596,-0.16842764616012573,-2.8773531913757324,1.0822738409042358
6.35,-2.7090847492218018,-6.679757595062256,-0.3529781401157379,1.2705351114273071,-4.010711669921875,0.7695731520652771
6.4,-1.700944423675537,-4.546663284301758,-3.1283655166625977,2.7372848987579346,-4.692299842834473,0.6504713296890259
6.45,-0.29512178897857666,-3.8315811157226562,-3.8463470935821533,2.1670217514038086,-4.544051170349121,0.0739729106426239
6.5,0.08082211017608643,-4.749683856964111,-4.644959449768066,1.0123847723007202,-3.2369606494903564,-1.2466626167297363
6.55,-0.772376298904419,-2.6156537532806396,-4.265995979309082,1.8626816272735596,-1.9808014631271362,-1.9546959400177002
6.6,-1.4675366878509521,1.2427903413772583,-2.6649651527404785,2.3785009384155273,-1.2597531080245972,-2.706688404083252
6.65,-0.0708622932434082,3.552462100982666,-3.111725091934204,1.4234766960144043,-0.7738820910453796,-4.146435737609863
6.7,0.8242075443267822,4.4131951332092285,-1.753403663635254,1.293736457824707,0.05624916031956673,-4.69439697265625
6.75,0.09840762615203857,6.44917106628418,-2.3586647510528564,1.194284439086914,1.4131063222885132,-4.758693695068359
6.8,4.550503730773926,7.814523696899414,0.3643019199371338,1.7834701538085938,2.843684434890747,-5.644106864929199
6.85,6.657810211181641,2.711437225341797,2.265833616256714,3.8323817253112793,4.88466739654541,-5.0739593505859375
6.9,4.3730292320251465,2.4887125492095947,4.528398513793945,4.221580982208252,1.7409870624542236,-1.3891955614089966
6.95,5.472228050231934,-0.5748493075370789,6.533441066741943,1.3262872695922852,-3.3037497997283936,-0.16124702990055084
7.0,4.324605941772461,-2.491774797439575,5.176190376281738,-0.7630157470703125,-3.5803029537200928,-0.14067888259887695
7.05,3.138608455657959,-2.9118707180023193,3.1099050045013428,-2.056884288787842,-2.248366355895996,-0.08699382841587067
7.1,2.5884242057800293,-3.2029614448547363,1.6495683193206787,-2.0196759700775146,-1.0510809421539307,-0.011558773927390575
7.15,1.60196852684021,-2.696098566055298,1.1520452499389648,-1.0414984226226807,-0.3593699038028717,0.3529540002346039
7.2,0.3110535144805908,-0.5712957382202148,1.9980418682098389,-0.0642915666103363,-0.47259488701820374,0.9535393118858337
7.25,-0.6545659303665161,1.312551736831665,4.300046920776367,0.4930271506309509,-0.4743182063102722,1.3222999572753906
7.3,-2.2453596591949463,2.308533191680908,4.167994499206543,0.4643840193748474,0.692901611328125,1.4010015726089478
7.35,-3.6957054138183594,2.8789868354797363,1.5837322473526,-0.6527656316757202,1.086164951324463,0.8515585064888
7.4,-2.5895042419433594,2.1687941551208496,-0.38894861936569214,-1.6373788118362427,-0.09855755418539047,-0.10030043870210648
7.45,-0.8766249418258667,2.075749635696411,-1.2686567306518555,-1.5993101596832275,-0.9057295918464661,-0.5834537744522095
7.5,1.910545825958252,-0.1231432780623436,1.1949903964996338,-0.2832799553871155,-0.5295976996421814,-0.7242608666419983
7.55,2.146437883377075,0.8675890564918518,1.8461302518844604,0.899139940738678,1.4187390804290771,-0.28326937556266785
7.6,0.4955551028251648,2.656028985977173,0.5985012054443359,0.12287303060293198,2.745126485824585,0.05559574440121651
7.65,1.1041494607925415,1.0031938552856445,-0.5210011005401611,-0.8207525014877319,2.593596935272217,-0.5433566570281982
7.7,1.8889083862304688,-0.007279542740434408,-1.66830575466156,-1.3489525318145752,1.6092747449874878,-0.6324043869972229
7.75,1.9416788816452026,-0.48131299018859863,-2.7669312953948975,-1.8182399272918701,0.3920709192752838,0.13415750861167908
7.8,1.3575329780578613,-1.2077629566192627,-3.4891905784606934,-1.8735512495040894,-0.31407567858695984,0.9526017308235168
7.85,-0.10716652870178223,-1.7114909887313843,-3.9896271228790283,-1.6407886743545532,-0.35709348320961,1.530550241470337
7.9,-1.2375943660736084,-1.9032385349273682,-3.991809129714966,-1.2746469974517822,-0.1754130870103836,1.6307868957519531
7.95,-2.9762260913848877,-1.8652369976043701,-4.225682735443115,-0.7196282148361206,0.44365745782852173,1.166316032409668
8.0,-4.884432792663574,-1.3160858154296875,-4.3362932205200195,-0.11652083694934845,0.6655702590942383,0.5575569868087769
8.05,-6.458589553833008,-0.7292678952217102,-4.360782623291016,0.556403636932373,0.28215765953063965,0.13123871386051178
8.1,-5.222207546234131,0.6597749590873718,-4.97314977645874,1.1621882915496826,-0.9636242985725403,-0.39516255259513855
8.15,-0.008245766162872314,-0.37683117389678955,-1.8812763690948486,1.8724565505981445,-1.9175217151641846,-1.6308856010437012
8.2,0.5502883791923523,0.9497634172439575,0.08175729215145111,2.7800257205963135,-0.47114625573158264,-1.7416903972625732
8.25,-0.09445005655288696,3.4220595359802246,1.7372310161590576,2.88728928565979,0.6022520065307617,-1.1899523735046387
8.3,1.0883270502090454,2.0406620502471924,2.128049612045288,1.9527162313461304,0.13086116313934326,-1.250423550605774
8.35,2.8999252319335938,-1.4056618213653564,0.9021555185317993,0.063667893409729,-1.8509646654129028,-1.2875734567642212
8.4,3.8461241722106934,-2.4445037841796875,2.0645694732666016,-0.6503431797027588,-3.2448313236236572,-0.6940459609031677
8.45,3.490029811859131,-1.1525156497955322,3.299697160720825,0.46116572618484497,-1.874817132949829,-0.06944190710783005
8.5,3.0437445640563965,-0.789071261882782,4.1135573387146,1.1427916288375854,0.1394616663455963,0.05813697725534439
8.55,2.4180023670196533,-0.2205982208251953,5.685830116271973,1.3493483066558838,1.2205690145492554,0.4784741699695587
8.6,0.7966365814208984,1.0251190662384033,6.362371921539307,1.1962056159973145,1.5441489219665527,1.2883764505386353
8.65,-0.6955907344818115,2.146605968475342,6.129631042480469,0.2872540354728699,1.220441222190857,1.3010317087173462
8.7,-0.2655658721923828,2.38328218460083,3.8646633625030518,-0.897810161113739,0.941493570804596,0.48360973596572876
8.75,0.858920156955719,2.8145229816436768,1.3508645296096802,-1.8164892196655273,0.5838191509246826,-0.2616921365261078
8.8,3.394063949584961,0.20191848278045654,0.9107657670974731,-1.7217860221862793,0.3176855146884918,-0.5211853981018066
8.85,2.6329264640808105,0.9673089981079102,0.1839277148246765,-0.8830375671386719,1.2150800228118896,0.27873969078063965
8.9,0.7279635667800903,2.4696733951568604,-0.8258579969406128,-1.1370372772216797,1.7546639442443848,0.8980532288551331
8.95,0.10859239101409912,1.8631516695022583,-3.0452423095703125,-1.7010184526443481,2.176645040512085,0.3228837251663208
9.0,-0.6411420106887817,0.7302102446556091,-4.9123101234436035,-2.10434627532959,1.8544028997421265,0.12806753814220428
9.05,-0.6374592781066895,-0.5370609164237976,-5.785620212554932,-1.9035718441009521,0.37821921706199646,0.5872703790664673
9.1,0.02157449722290039,-1.336376428604126,-5.657097816467285,-1.3047634363174438,-0.7370430827140808,1.5576729774475098
9.15,-0.8602540493011475,-1.1943790912628174,-5.337225914001465,-0.7887609601020813,-0.3705824017524719,1.9820094108581543
9.2,-2.599301815032959,-1.5456011295318604,-4.723931789398193,-0.6082402467727661,0.6123172640800476,1.7801225185394287
9.25,-4.352259635925293,-2.3921852111816406,-3.838050603866577,-0.3626892566680908,1.234174132347107,1.483709454536438
9.3,-5.578157424926758,-3.3433878421783447,-2.559833288192749,-0.022206753492355347,1.2993419170379639,1.0013328790664673
9.35,-6.58195686340332,-4.139581680297852,-1.6541869640350342,0.3441488742828369,1.1708064079284668,0.30944186449050903
9.4,-8.492249488830566,-3.7484350204467773,-2.0930230617523193,0.5996974110603333,0.4010443687438965,-0.627066433429718
9.45,-6.095828533172607,-0.11888575553894043,-2.555950403213501,1.322374939918518,-1.5691124200820923,-1.3133448362350464
9.5,-2.74835205078125,4.503438472747803,-1.7358996868133545,2.2320446968078613,-1.7366487979888916,-3.03409743309021
9.55,3.6697869300842285,7.671499252319336,2.4854953289031982,3.41343092918396,-1.6467266082763672,-3.747019052505493
9.6,8.783512115478516,3.5707552433013916,6.9606523513793945,3.316042423248291,-0.9339498281478882,-2.907132148742676
9.65,4.71328067779541,-0.17988213896751404,6.220341682434082,1.4301270246505737,-0.4104221761226654,-0.8758236765861511
9.7,2.0284335613250732,-0.26044657826423645,3.6147499084472656,-1.4688187837600708,-0.966112494468689,0.11756402254104614
9.75,0.9576095342636108,-1.7768404483795166,0.10124646127223969,-2.8536016941070557,-1.2866244316101074,0.2609769403934479
9.8,1.5086398124694824,-2.2394134998321533,-0.5841717720031738,-1.803614616394043,-1.6996086835861206,0.1364159733057022
9.85,1.6910209655761719,-2.180429697036743,0.6110955476760864,-0.31409066915512085,-1.5778234004974365,0.34410426020622253
9.9,1.0767909288406372,-1.1834269762039185,1.8681403398513794,0.5564855933189392,-0.8075015544891357,0.6318830251693726
9.95,0.21097368001937866,-0.32337185740470886,2.430286169052124,0.7374006509780884,0.20690816640853882,0.7448636293411255
10.0,-0.7913734912872314,0.1710568517446518,1.8870153427124023,0.6915149092674255,0.9564343690872192,0.8619934320449829
10.05,-2.001224994659424,1.9600919485092163,1.410703182220459,0.30756503343582153,0.1800607591867447,1.0507392883300781
10.1,-2.13926100730896,4.4770121574401855,1.0520466566085815,-0.41079437732696533,-1.6136564016342163,0.8124610185623169
10.15,1.5655298233032227,0.16013142466545105,1.2104840278625488,-0.8930022716522217,-2.2455339431762695,0.036966338753700256
10.2,0.7650769948959351,0.4245453476905823,0.9770469665527344,-0.7132834196090698,-1.022297978401184,-0.005016358103603125
10.25,0.27314627170562744,0.6668863892555237,-0.41041314601898193,-0.3508055508136749,1.073166847229004,-0.405723512172699
10.3,-0.4244615435600281,1.0698100328445435,-2.2669835090637207,-0.24708303809165955,1.8135721683502197,-0.06520839035511017
10.35,1.0844441652297974,0.7686223983764648,-2.5817880630493164,-0.8806632161140442,1.4524861574172974,0.30997028946876526
10.4,0.8521305322647095,0.08754903078079224,-5.04986047744751,-2.004450559616089,1.9516316652297974,1.3016961812973022
10.45,-1.0872384309768677,-0.5286961793899536,-5.125542163848877,-1.624110460281372,1.9682215452194214,2.55259370803833
10.5,-2.908120632171631,-0.8742781281471252,-3.0643150806427,-0.17450356483459473,1.3957548141479492,2.6578128337860107
10.55,-6.711434364318848,-2.127058267593384,0.533023476600647,0.5846115946769714,0.7927380800247192,2.0296630859375
10.6,-2.783050537109375,-2.554443359375,0.9168724417686462,-0.4531829357147217,-1.2537788152694702,0.8583200573921204
10.65,1.3683505058288574,-1.3220875263214111,-1.566575288772583,-1.3822004795074463,-1.757967472076416,0.8044511079788208
10.7,2.5116357803344727,-0.08781636506319046,0.4179283380508423,-1.7996772527694702,-1.3413116931915283,0.6445284485816956
10.75,0.28820234537124634,1.3085795640945435,1.9422413110733032,-2.1731200218200684,-1.1398694515228271,0.7664771676063538
10.8,-1.8484666347503662,-0.4396086037158966,-1.9301795959472656,-1.8783185482025146,-0.8686561584472656,0.6013652682304382
10.85,-5.142587661743164,0.8049729466438293,-2.941861152648926,-0.9808700680732727,-0.2707127630710602,0.3464404046535492
10.9,-1.4665746688842773,2.5974771976470947,0.7872400283813477,-0.7656850814819336,-1.5227360725402832,0.42509493231773376
10.95,-1.4967091083526611,0.8520099520683289,-0.49545419216156006,-0.13743647933006287,-1.4089447259902954,-0.2176065593957901
11.0,-1.8084564208984375,-1.3740262985229492,1.2311396598815918,-0.28414878249168396,-1.3015778064727783,-0.23891404271125793
11.05,-0.893402099609375,-1.1515674591064453,2.3387184143066406,-0.2938377261161804,-1.2618776559829712,-0.09666194766759872
11.1,-1.1691296100616455,-0.30286306142807007,1.461857557296753,-0.12065256386995316,-0.6670845746994019,-0.04977750405669212
11.15,-2.193333148956299,-0.8723030090332031,0.09833402186632156,-0.22285319864749908,-0.5884279012680054,-0.03076351247727871
11.2,-0.5511563420295715,1.0723105669021606,-0.7587233781814575,-0.39893385767936707,-0.8373029232025146,0.35762059688568115
11.25,-0.4115180969238281,0.2903023362159729,-0.04762008413672447,-0.35465121269226074,-0.7072644829750061,0.2341049164533615
11.3,-0.21643346548080444,0.19776827096939087,0.8896667957305908,-0.03529300540685654,-0.35869643092155457,-0.02461586706340313
11.35,-0.4234338402748108,-0.05572981759905815,1.1745131015777588,0.10218276083469391,-0.21254074573516846,-0.007176303770393133
11.4,-0.46646642684936523,-0.0868959128856659,0.5820778608322144,0.12190903723239899,-0.12353147566318512,0.060093775391578674
11.45,-0.5519111752510071,0.18155960738658905,0.1509251445531845,0.1462356597185135,-0.06698647141456604,0.06541071087121964
11.5,-0.42408275604248047,-0.09805487096309662,0.28125670552253723,0.09605257213115692,-0.08120837807655334,0.05351034179329872
11.55,-0.15104298293590546,0.0004034136945847422,0.0513358935713768,0.1287963092327118,-0.12272663414478302,0.058271754533052444
11.6,-0.21242694556713104,0.11463263630867004,0.15375585854053497,0.0270996131002903,-0.10897364467382431,0.015102731063961983
11.65,-0.22565339505672455,0.04566480591893196,0.047257255762815475,-0.04220234230160713,-0.07705703377723694,-0.0013195638312026858
11.7,-0.06274301558732986,0.14029599726200104,-0.07631274312734604,-0.029220538213849068,-0.057430487126111984,-0.0010694038355723023
11.75,-0.26377004384994507,0.02837277762591839,-0.14947907626628876,-0.006414847448468208,-0.04582791402935982,-0.022256774827837944
11.8,-0.3337189853191376,0.015571615658700466,0.054838649928569794,0.002748965285718441,-0.05523870885372162,-0.004322418477386236
11.85,-0.35093796253204346,-0.08743952214717865,0.14750710129737854,0.009851951152086258,-0.045988861471414566,0.0027269788552075624
11.9,-0.37725770473480225,0.03600885719060898,0.010212214663624763,0.01640279032289982,-0.011483264155685902,0.0048944586887955666
11.95,-0.3260641098022461,-0.03353879973292351,0.19396226108074188,-0.015349074266850948,-0.02250252105295658,0.0024887463077902794
12.0,-0.3948361873626709,0.05642417073249817,0.09983763098716736,-0.00757877342402935,0.010062715969979763,-0.005531216971576214
12.05,-0.31094425916671753,0.05743315443396568,0.07988610118627548,-0.01957668736577034,0.011967768892645836,-0.0010363936889916658
12.1,-0.37154242396354675,0.038112666457891464,0.05123252794146538,-0.010099964216351509,0.017280660569667816,-0.014355502091348171
12.15,-0.5483799576759338,0.1878405213356018,-0.06610473990440369,0.024622414261102676,-0.010510474443435669,0.00031258101807907224
12.2,-0.7941800355911255,0.591863751411438,0.3730999231338501,0.13995730876922607,-0.06784228980541229,-0.0022528322879225016
12.25,-0.056096792221069336,0.7689315676689148,1.018409252166748,0.341632217168808,-0.16081936657428741,-0.05274466052651405
12.3,0.595098078250885,0.02309991978108883,1.825294017791748,0.34178808331489563,-0.2001640647649765,-0.10044915974140167
12.35,0.19247561693191528,-0.09850022941827774,1.711248517036438,0.38711851835250854,0.02997671812772751,-0.1798579841852188
12.4,0.3586837351322174,0.1375885307788849,1.3077857494354248,0.4998265206813812,0.30226320028305054,-0.3662799894809723
12.45,0.7899051904678345,1.1237441301345825,-0.2501894235610962,0.6435827612876892,0.6934449672698975,-0.41979143023490906
12.5,-0.8589390516281128,1.1383353471755981,-0.4757883846759796,0.8563873767852783,1.2785111665725708,-0.8998993039131165
12.55,-1.4702123403549194,-1.2958422899246216,-1.5172816514968872,1.691489815711975,1.6713125705718994,-1.7580567598342896
12.6,-1.3471906185150146,0.7364606857299805,-3.7321693897247314,4.795820236206055,1.6473190784454346,-2.482084035873413
12.65,-0.14178690314292908,1.2804585695266724,-1.0037970542907715,5.464824676513672,0.867299497127533,-1.7270679473876953
12.7,-3.057558059692383,0.4774906635284424,0.4140605032444,2.453831195831299,-0.7100034356117249,0.07197423279285431
12.75,-2.555723190307617,2.1890060901641846,-0.9358282089233398,0.6325021982192993,-1.611459493637085,-0.4440914988517761
12.8,1.1046779155731201,2.798569679260254,-2.599480390548706,0.30863481760025024,-1.8483115434646606,-2.0062155723571777
12.85,4.2500433921813965,0.560260534286499,-2.3494162559509277,-0.42226505279541016,-2.822252035140991,-2.467440128326416
12.9,4.72604513168335,-1.7374855279922485,-1.7751542329788208,-1.6827118396759033,-3.2897815704345703,-1.6398019790649414
12.95,1.5237529277801514,-3.6360981464385986,-2.1880838871002197,-1.5732789039611816,-2.6815004348754883,-0.4616067111492157
13.0,-0.07529515027999878,-3.8248443603515625,-1.9721980094909668,-0.20838460326194763,-1.7368474006652832,0.4284442961215973
13.05,-1.4068419933319092,-5.100600719451904,-0.040294893085956573,1.6971538066864014,-0.43014708161354065,0.9270122051239014
13.1,-1.9340734481811523,-1.9785863161087036,-0.05841153860092163,2.5960254669189453,0.3416784405708313,2.1693832874298096
13.15,-2.6977744102478027,2.345949649810791,2.098104238510132,2.3653512001037598,-0.41862350702285767,2.102067470550537
13.2,-0.9453338384628296,2.778684139251709,4.034002304077148,1.3072025775909424,-0.7898495197296143,-0.30633652210235596
13.25,3.8702402114868164,1.6789389848709106,2.0641279220581055,-0.5638479590415955,-1.7208011150360107,-2.9632561206817627
13.3,5.626705169677734,-1.669593334197998,2.2393922805786133,-2.834691047668457,-4.5072021484375,-4.1002936363220215
13.35,2.879340648651123,-4.121890544891357,3.308124542236328,-3.158041000366211,-5.017726421356201,-2.1981279850006104
13.4,1.9863152503967285,-2.1092522144317627,1.7216109037399292,-2.3642256259918213,-2.50441312789917,0.6424819827079773
13.45,3.0054931640625,-0.2027418315410614,-0.5696142911911011,-1.1745858192443848,0.044155802577733994,1.5449111461639404
13.5,3.5477683544158936,1.4330557584762573,-1.5341190099716187,0.18994390964508057,0.8439103364944458,1.3549057245254517
13.55,3.531529426574707,1.7799615859985352,-1.568833351135254,0.3971514105796814,-0.20350775122642517,1.3516501188278198
13.6,5.143644332885742,0.3363117575645447,-10.760168075561523,-0.5921205282211304,-3.2124345302581787,1.9316340684890747
13.65,-13.323822021484375,5.968135833740234,-3.436985731124878,-1.9476550817489624,-13.076431274414062,1.7159045934677124
13.7,-2.3507795333862305,3.4404666423797607,0.7886254191398621,1.0802791118621826,-2.6561896800994873,-0.5308732390403748
13.75,2.7032034397125244,-0.35236650705337524,4.198164939880371,3.507925510406494,0.7386599779129028,0.5166837573051453
13.8,-1.8473832607269287,-0.706127941608429,4.340249061584473,1.5346249341964722,-3.450315237045288,0.7562512159347534
13.85,-6.4471211433410645,-0.05481398105621338,0.8704993724822998,-0.09723090380430222,-5.386539459228516,-0.1308775544166565
13.9,-5.6999993324279785,1.4595617055892944,-2.520367383956909,-0.12440741062164307,-2.877657890319824,-0.4287627637386322
13.95,-3.153195381164551,3.0273919105529785,-3.5055651664733887,-0.7507614493370056,0.3440708518028259,0.13816775381565094
14.0,-0.9500501155853271,5.6618828773498535,-6.069971084594727,-0.4087163805961609,0.569495677947998,-0.11146774142980576
14.05,0.4512580633163452,6.410636901855469,-3.838698625564575,1.7419512271881104,0.5788273811340332,0.3269332945346832
14.1,1.0494834184646606,5.0758442878723145,-0.17686083912849426,3.3557004928588867,0.4083338677883148,1.0475802421569824
14.15,1.4740056991577148,2.3352978229522705,-0.2396782487630844,3.6233160495758057,-0.12954971194267273,1.1154261827468872
14.2,-0.04100305959582329,1.3055049180984497,0.04345317557454109,3.283426284790039,0.03981570899486542,1.9972598552703857
14.25,-0.19618439674377441,0.3266250193119049,3.8159449100494385,3.365246295928955,0.29948633909225464,3.4220216274261475
14.3,-0.7320353984832764,-0.1394718587398529,4.495625972747803,2.8516106605529785,0.05718964710831642,3.1498987674713135
14.35,-2.929257869720459,1.3409703969955444,5.136223793029785,2.0306882858276367,-0.008784211240708828,2.58388090133667
14.4,1.192360758781433,2.339707612991333,6.461733818054199,2.1882925033569336,0.4273653030395508,2.7745769023895264
14.45,2.6555514335632324,0.03080851025879383,7.155083179473877,3.1673731803894043,0.10659170895814896,1.348225474357605
14.5,1.7973566055297852,-6.822434425354004,3.076902151107788,4.642224311828613,-0.10510862618684769,0.44510626792907715
14.55,0.8742716908454895,-8.925008773803711,-1.6458415985107422,3.9603559970855713,-0.27259767055511475,0.15463803708553314
14.6,1.7961667776107788,-9.310916900634766,-3.5757968425750732,2.013993740081787,-0.5063483119010925,0.08064582943916321
14.65,0.9785616397857666,-9.679521560668945,-3.7962229251861572,0.5727707147598267,-0.23303446173667908,-0.3919932544231415
14.7,1.5882899761199951,-9.705451965332031,-2.6891446113586426,-1.1990809440612793,-0.9833006262779236,-0.8166332840919495
14.75,-0.006399095058441162,-12.502764701843262,0.4617234170436859,-3.0296149253845215,-1.082854151725769,-2.1557834148406982
14.8,14.918551445007324,-89.8520736694336,-2.4902215003967285,-0.5729895234107971,-0.229216068983078,-0.7979810833930969
14.85,3.5929062366485596,-11.136241912841797,2.2829344272613525,-1.9609994888305664,0.6088371872901917,-0.28452280163764954
14.9,-1.8662337064743042,-0.9578906297683716,-4.5957932472229,0.39209872484207153,0.7511742115020752,0.549075722694397
14.95,-1.7538349628448486,2.084778070449829,-2.116319417953491,-0.6596410274505615,0.4539912939071655,0.5620740652084351
15.0,-0.656303346157074,-2.7817389965057373,0.3414369523525238,-2.0088748931884766,-0.45765846967697144,0.10221979022026062
15.05,2.5002927780151367,-1.627941608428955,-1.716196894645691,-0.42206430435180664,0.01563708670437336,-1.1850489377975464
15.1,-1.1454881429672241,-0.9408149719238281,1.8014273643493652,0.21268819272518158,-0.11776525527238846,-0.43575555086135864
15.15,-0.9541423320770264,0.9661456942558289,-0.1572902798652649,0.8667104244232178,-0.30521225929260254,0.6423174738883972
15.2,-0.6594151854515076,1.888484239578247,0.37899985909461975,0.2586062550544739,-0.3092224895954132,-0.043043140321969986
15.25,0.44574639201164246,0.6653671860694885,0.6041479110717773,-0.21260932087898254,-0.20847110450267792,-0.4915710687637329
15.3,0.5160671472549438,-0.23290830850601196,-0.1211639940738678,-0.6860014796257019,0.023616235703229904,-0.9080292582511902
15.35,-0.017858905717730522,0.8803483247756958,-0.002312979893758893,-0.7220879793167114,0.2159278392791748,-0.6628773212432861
15.4,-2.1809921264648438,9.479238510131836,-1.4886327981948853,-1.797975778579712,0.7596108913421631,-2.3168814182281494
15.45,-4.3184733390808105,9.4764404296875,-6.1447529792785645,-2.667276382446289,0.6605907678604126,-2.6253256797790527
15.5,-5.376293659210205,4.735297203063965,4.448045253753662,2.6888110637664795,1.6039851903915405,-0.11491718143224716
15.55,1.2380870580673218,-7.136569023132324,2.3661084175109863,8.75192642211914,1.5894662141799927,2.3079240322113037
15.6,8.09298324584961,-9.602188110351562,-18.22018814086914,9.58683967590332,0.2213132530450821,4.590339660644531
15.65,6.593136787414551,-7.605700969696045,-10.889715194702148,0.5569531321525574,-1.751438856124878,1.709108829498291
15.7,2.2544665336608887,-11.362200736999512,-2.9919240474700928,-3.843263864517212,-1.9187800884246826,-0.9614993333816528
15.75,-5.978555679321289,-8.876737594604492,10.53125286102295,-5.454972267150879,-2.550740957260132,-1.4272992610931396
15.8,-22.81767463684082,36.57027053833008,49.684505462646484,-5.0204758644104,-0.4042714834213257,-3.0344486236572266
15.85,-1.5607571601867676,2.3765130043029785,6.172981262207031,0.8263025283813477,0.7841594815254211,0.3229690492153168
15.9,0.05367346107959747,0.46658334136009216,0.656732439994812,0.40598416328430176,-0.5069774985313416,0.257805734872818
15.95,-0.7887916564941406,-0.5153169631958008,1.0990605354309082,-0.5530469417572021,-0.23722422122955322,-0.17825455963611603
16.0,-1.1118797063827515,0.209968701004982,1.4064885377883911,-0.19507496058940887,-0.2059721052646637,-0.014745582826435566
16.05,-0.8190188407897949,0.9032995104789734,0.39528515934944153,-0.08281147480010986,-0.14945057034492493,0.05534294992685318
16.1,-0.25152233242988586,0.23737910389900208,-0.2947409749031067,-0.21588289737701416,0.006951889023184776,-0.10577879101037979
16.15,-0.8936624526977539,-0.14930914342403412,-0.6576776504516602,-0.4329356551170349,0.02485104650259018,-0.3947342336177826
16.2,-0.4388040006160736,0.7728235125541687,1.0684458017349243,-0.6853750944137573,-0.017973802983760834,-0.594754695892334
16.25,-4.328850746154785,3.925283193588257,1.1549973487854004,-1.0971819162368774,-0.12022054940462112,-1.0002001523971558
16.3,-1.3139621019363403,-0.029926231130957603,0.14489531517028809,-0.9599367380142212,0.014785323292016983,-0.70013827085495
16.35,-0.5665940046310425,0.05809599161148071,0.8246370553970337,-0.819517970085144,0.04883870482444763,-0.3607094883918762
16.4,0.3169371783733368,-0.33304980397224426,0.5371193885803223,-0.3031468391418457,0.06547979265451431,-0.1247926577925682
16.45,-0.9372542500495911,-0.02295299991965294,-0.5039815902709961,0.22654467821121216,0.038035109639167786,-0.025867408141493797
16.5,-1.3339697122573853,0.3376189172267914,-0.12634722888469696,0.1471935361623764,0.06481548398733139,0.0049630217254161835
16.55,-1.1194385290145874,0.6656333208084106,0.28353843092918396,0.10739180445671082,-0.2372610718011856,-0.2197859138250351
16.6,-6.416182518005371,1.8005319833755493,-1.017687439918518,0.05832676589488983,-0.7557145357131958,-0.5408958792686462
16.65,-7.978839874267578,5.7213029861450195,1.839811086654663,-1.0945813655853271,-1.5786163806915283,2.815281867980957
16.7,-7.995325088500977,-6.725405216217041,1.6605256795883179,3.1681630611419678,1.7644230127334595,3.203624725341797
16.75,5.887937545776367,-19.727476119995117,-0.4721932113170624,6.695391654968262,5.298923492431641,2.042357921600342
16.8,5.7076005935668945,-12.122913360595703,-6.253503799438477,4.143401622772217,10.005669593811035,-3.1676504611968994
16.85,15.185620307922363,-7.864859580993652,-2.539978504180908,-6.417705535888672,3.034738779067993,-0.2538617253303528
16.9,13.769562721252441,4.693899154663086,1.751039743423462,-9.12844181060791,-2.2583670616149902,3.2779781818389893
16.95,-1.4501503705978394,11.658334732055664,3.3859684467315674,-5.763010501861572,-4.57573127746582,3.0970754623413086
17.0,-8.26279354095459,2.830138921737671,2.1667368412017822,-0.7641000747680664,-3.9657938480377197,0.7408079504966736
17.05,-9.16042423248291,2.340768575668335,0.8507238626480103,-0.2666351795196533,-3.083962917327881,-1.4880356788635254
17.1,-3.205157518386841,23.551733016967773,-4.893864631652832,0.08176666498184204,-1.4204915761947632,-1.3678070306777954
17.15,6.331463813781738,1.388150930404663,-1.1524313688278198,1.9529811143875122,0.10636129230260849,1.770253300666809
17.2,-2.602153778076172,-0.8090124130249023,-1.3685157299041748,1.5883513689041138,-0.9234448671340942,-0.2761349380016327
17.25,-0.6949695348739624,2.0081446170806885,0.42007359862327576,1.3111598491668701,-0.24291011691093445,0.2096455842256546
17.3,0.27803272008895874,-0.4173126816749573,0.8583920001983643,0.9959534406661987,-0.07863818109035492,0.018649572506546974
17.35,1.4857927560806274,-0.33784598112106323,-2.5364556312561035,1.0754588842391968,-0.3337914049625397,0.42229074239730835
17.4,-6.136330604553223,9.081438064575195,-4.263086795806885,0.28907233476638794,-0.5560537576675415,0.519816517829895
17.45,-0.4486464262008667,0.8567029237747192,-0.10333842784166336,0.6447048187255859,-0.3114190697669983,0.5115355849266052
17.5,0.26010268926620483,0.037144653499126434,0.05594495311379433,0.44266724586486816,-0.06539581716060638,0.4025827646255493
17.55,0.045766428112983704,-0.14203549921512604,-0.09044084697961807,0.348589688539505,0.028677279129624367,0.32234904170036316
17.6,0.5666645169258118,-0.15801911056041718,-0.08368872851133347,0.37944597005844116,-0.08746116608381271,0.38924384117126465
17.65,0.18398767709732056,0.09899044781923294,0.17760926485061646,0.393868088722229,-0.10606411099433899,0.4191867411136627
17.7,-0.19161705672740936,0.09664729237556458,0.18273165822029114,0.39994311332702637,-0.044072557240724564,0.4351726472377777
17.75,0.1447882354259491,0.2103119045495987,-0.3419402241706848,0.3437471389770508,-0.06241276487708092,0.4500761926174164
17.8,0.6616981625556946,0.05153653398156166,0.07986593246459961,0.006785742938518524,-0.10010124742984772,0.17094148695468903
17.85,0.37854403257369995,0.27440646290779114,0.7203087210655212,-0.2181272655725479,-0.10292157530784607,0.03916574642062187
17.9,0.5934439301490784,-0.028101012110710144,-0.31890469789505005,-0.46460238099098206,-0.057611193507909775,-0.29579076170921326
17.95,1.751021146774292,-0.18345558643341064,-0.3231915831565857,-0.4473038911819458,0.09610021859407425,-0.5300218462944031
18.0,-0.35016489028930664,-0.0031394886318594217,-0.39168792963027954,-0.6380451321601868,0.18483665585517883,-0.8817503452301025
18.05,0.3681947588920593,-0.24625496566295624,-0.09106519818305969,-0.22028377652168274,0.018587864935398102,-0.34692272543907166
18.1,0.3678346276283264,-0.16568663716316223,0.2565271854400635,0.11993527412414551,-0.07600457221269608,0.0778161883354187
18.15,0.39856258034706116,0.06831550598144531,0.5078985095024109,0.08807003498077393,-0.12404125928878784,0.12049287557601929
18.2,0.25285863876342773,0.14090922474861145,1.0339263677597046,0.008246222510933876,-0.07817230373620987,0.08755037933588028
18.25,-0.07189583778381348,0.15601161122322083,0.5847632884979248,0.27283740043640137,-0.026489075273275375,0.28411296010017395
18.3,-0.48650407791137695,0.22802263498306274,-0.05815058946609497,0.5245574712753296,-0.02036016620695591,0.4058126211166382
18.35,0.6796189546585083,0.3523988723754883,0.29549387097358704,0.6032041311264038,-0.04883348569273949,0.5492323637008667
18.4,-0.19979171454906464,0.07992462068796158,0.7107065916061401,0.49200689792633057,0.0520508699119091,0.5004808902740479
18.45,-0.4926750063896179,-0.2877407371997833,-1.4478669166564941,0.02017509937286377,0.09661656618118286,0.7270883321762085
18.5,-0.1328246295452118,0.2363453358411789,0.2762886881828308,0.0008527785539627075,0.06143220141530037,0.39296120405197144
18.55,-0.054316937923431396,0.18849854171276093,0.35513049364089966,0.289301335811615,0.11310837417840958,0.28197580575942993
18.6,0.16886450350284576,0.17519284784793854,0.330098420381546,0.443136066198349,0.19917137920856476,0.2701452374458313
18.65,-0.5506524443626404,0.3757830560207367,0.4549161195755005,0.4653947353363037,0.23387376964092255,0.2142128348350525
18.7,-0.17908474802970886,0.3283434510231018,0.7585760951042175,0.5591007471084595,0.25889456272125244,0.3775905668735504
18.75,0.4998772144317627,-0.21455295383930206,-0.502764105796814,0.38509052991867065,0.12420138716697693,0.2960752844810486
18.8,-0.2902434468269348,0.15825562179088593,0.35285335779190063,-0.019715430215001106,0.02216123417019844,-0.09878426790237427
18.85,0.5342766046524048,0.11620710790157318,-0.08240310102701187,-0.2759183645248413,-0.009564210660755634,-0.2664685845375061
18.9,0.05897168815135956,0.005973827559500933,0.4954502582550049,-0.4075433015823364,0.034096453338861465,-0.5683571100234985
18.95,0.13871368765830994,0.31666189432144165,0.9508209228515625,-0.2138485610485077,0.015592443756759167,-0.33795514702796936
19.0,-0.5247355103492737,-0.18808649480342865,0.6017776727676392,0.0675857737660408,0.052835989743471146,-0.14422109723091125
19.05,-0.27800458669662476,0.44003593921661377,1.4770164489746094,0.4722929894924164,0.016190191730856895,0.20998471975326538
19.1,-2.915370225906372,0.3359397053718567,3.761915922164917,1.9615768194198608,0.21900330483913422,0.4676406979560852
19.15,-2.8610901832580566,-0.3429897427558899,1.762447476387024,3.6372342109680176,1.0528167486190796,1.2915996313095093
19.2,-4.1960859298706055,-3.8145973682403564,-0.6447311639785767,4.680963516235352,1.9994478225708008,2.6714959144592285
19.25,3.4526195526123047,-19.4128475189209,34.24510192871094,-0.008980154991149902,0.787428081035614,0.844458281993866
19.3,-12.129457473754883,-6.5327582359313965,4.625370979309082,-0.20222055912017822,0.32056352496147156,-2.626106023788452
19.35,-3.6420304775238037,-15.161890029907227,-7.005887985229492,0.387506902217865,2.491105318069458,1.47774338722229
19.4,-5.126604080200195,-18.82002067565918,-6.487666130065918,-1.6655688285827637,4.948397636413574,-4.008378505706787
19.45,-19.441356658935547,-9.532508850097656,14.113547325134277,-7.733644962310791,4.8662495613098145,-11.911396026611328
19.5,-2.0255298614501953,20.813188552856445,18.33732032775879,-14.623189926147461,5.2506256103515625,-8.335371971130371
19.55,16.064716339111328,20.4761905670166,0.6361629962921143,-11.518811225891113,11.30405044555664,-0.21690063178539276
19.6,14.574642181396484,15.092700958251953,-19.112098693847656,-5.051200866699219,9.793770790100098,2.047863006591797
19.65,7.923887252807617,8.96599292755127,-8.400425910949707,2.6963696479797363,6.939123153686523,1.933287262916565
19.7,1.418792724609375,4.08044958114624,-3.6217963695526123,3.42080020904541,3.7904889583587646,1.1465667486190796
19.75,3.562147617340088,2.0790719985961914,-0.8162514567375183,2.5260047912597656,1.5056649446487427,0.0006640854990109801
19.8,1.2076849937438965,1.508291482925415,1.45189368724823,1.6566840410232544,-1.9131271839141846,-0.5535348057746887
19.85,-0.3247830867767334,0.28073039650917053,3.2847304344177246,1.8632997274398804,-1.9839743375778198,-0.620340883731842
19.9,-0.5913419723510742,-0.8018302321434021,4.428821563720703,2.000943660736084,-0.2504168748855591,-0.015191987156867981
19.95,-0.6160769462585449,-2.3357162475585938,4.4316864013671875,1.3316314220428467,0.921665370464325,0.8561333417892456
20.0,-2.1197683811187744,-2.0298705101013184,3.691624879837036,0.07211670279502869,0.8206683993339539,1.3018665313720703
20.05,-3.126150131225586,-1.114695429801941,2.886265754699707,-0.7080029249191284,1.2197102308273315,1.6123822927474976
20.1,-2.6817750930786133,-0.7334755659103394,2.3323755264282227,-0.6762433052062988,1.825526237487793,1.3129571676254272
20.15,-1.7090984582901,-0.956634521484375,2.1085314750671387,-0.4512597918510437,1.6301814317703247,0.43985825777053833
20.2,-0.7087797522544861,-0.36240190267562866,2.1795103549957275,-0.511257529258728,1.0055694580078125,-0.3403674364089966
20.25,0.8083664774894714,1.7032816410064697,2.10195255279541,-0.571990966796875,0.8175770044326782,-0.45400863885879517
20.3,-0.05393719673156738,-0.3318881392478943,3.2635860443115234,-0.6557185649871826,0.9750387668609619,0.871276319026947
20.35,-3.47291898727417,1.7818903923034668,2.632023334503174,-1.0505434274673462,1.9595263004302979,2.3373031616210938
20.4,-3.195521593093872,2.5345969200134277,2.7318785190582275,-0.4998282194137573,3.7740700244903564,1.204955816268921
20.45,-0.3890240788459778,2.632673501968384,1.7572237253189087,-0.17706216871738434,4.671084403991699,-0.28924253582954407
20.5,0.3802858591079712,2.606459856033325,0.13635577261447906,-0.8012567758560181,2.7872278690338135,-0.8856746554374695
20.55,0.3628323972225189,2.9159061908721924,-0.4119832217693329,-1.506718397140503,0.7416766881942749,-1.1649360656738281
20.6,1.6998275518417358,1.8843508958816528,-2.4752111434936523,-1.8802521228790283,0.5283781886100769,-1.5477194786071777
20.65,2.762115240097046,0.18350575864315033,-4.170599937438965,-2.0755927562713623,0.2861552834510803,-1.6955890655517578
20.7,3.1475658416748047,-1.7241016626358032,-5.002156734466553,-1.9194433689117432,0.08030111342668533,-1.4906363487243652
20.75,3.0849194526672363,-3.2950541973114014,-5.282617568969727,-1.3863437175750732,0.03442622721195221,-1.191673994064331
20.8,2.842684268951416,-3.961031675338745,-5.375640392303467,-0.7254511117935181,-0.06495263427495956,-0.7450817227363586
20.85,2.446610450744629,-3.8493363857269287,-5.582430839538574,0.0219852477312088,-0.25756070017814636,-0.2411746382713318
20.9,2.0463316440582275,-2.2899718284606934,-5.92570161819458,0.7587956190109253,-0.5361908674240112,0.3294808566570282
20.95,3.6240453720092773,0.09454882889986038,-6.246997833251953,1.3391742706298828,-1.136208415031433,0.5949466824531555
21.0,3.019381523132324,1.3664807081222534,-3.068068027496338,2.100696563720703,-1.652068853378296,1.2690068483352661
21.05,2.8437459468841553,3.34209942817688,-0.8602425456047058,2.1898484230041504,-2.1936023235321045,1.5552680492401123
21.1,2.0986618995666504,4.1639180183410645,2.9231865406036377,2.4774022102355957,-2.41986346244812,1.4129506349563599
21.15,-0.7798259258270264,2.0395054817199707,7.088163375854492,2.717557907104492,-1.914922833442688,1.7231276035308838
21.2,-4.100589752197266,-0.07442527264356613,7.7248029708862305,2.002542018890381,-0.9752694368362427,1.8246040344238281
21.25,-4.457521438598633,-1.697229266166687,6.256162643432617,1.034480333328247,-0.13066311180591583,1.2851022481918335
21.3,-5.24301815032959,-2.2937357425689697,5.304933547973633,0.37869513034820557,0.09534793347120285,1.272979974746704
21.35,-6.747821807861328,-2.5615785121917725,4.397014141082764,-0.20195895433425903,0.09877923876047134,0.8642598390579224
21.4,-8.327282905578613,-2.3050997257232666,3.218919038772583,-0.7056155800819397,0.9145123362541199,0.8151658773422241
21.45,-8.508354187011719,-0.9770885109901428,2.922886371612549,-1.0213139057159424,1.952172875404358,0.2814674973487854
21.5,-5.902387619018555,0.8585047721862793,2.592763662338257,-1.3165266513824463,2.7566680908203125,-0.7829262018203735
21.55,-2.4368278980255127,1.6728767156600952,1.678968906402588,-1.7007379531860352,2.546546697616577,-1.690237045288086
21.6,0.49487829208374023,2.159364938735962,0.5736891627311707,-1.7894203662872314,1.7992849349975586,-1.9746356010437012
21.65,3.44394850730896,3.9321701526641846,-0.5265939235687256,-1.7338831424713135,1.1907153129577637,-1.9958723783493042
21.7,6.469692230224609,2.6259374618530273,1.0579558610916138,-1.6422232389450073,1.1076291799545288,-1.941051959991455
21.75,7.504134654998779,-0.08497857302427292,-2.496792793273926,-1.3917627334594727,2.4653267860412598,-1.3315140008926392
21.8,4.749305248260498,-1.354724407196045,-3.009939193725586,-1.7955584526062012,1.7370201349258423,-0.27303382754325867
21.85,2.946463108062744,-1.8946208953857422,-3.2098493576049805,-1.3882888555526733,1.6317967176437378,0.3452482223510742
21.9,2.530909538269043,-2.2419772148132324,-4.555230140686035,-1.0028680562973022,1.1386387348175049,0.4529668390750885
21.95,3.9253885746002197,-4.222115516662598,-4.58514928817749,-1.2885421514511108,-0.8916134238243103,0.5731750726699829
22.0,6.190699100494385,-2.0477468967437744,-1.2144379615783691,-1.0418332815170288,-2.8317360877990723,1.4738870859146118
22.05,4.985626697540283,1.0686863660812378,1.8094371557235718,-0.033286333084106445,-1.9960532188415527,2.163612127304077
22.1,3.512468099594116,1.1523962020874023,0.3385435938835144,0.664930522441864,0.7872723340988159,1.6392154693603516
22.15,1.6675398349761963,1.6267768144607544,0.5439862012863159,0.7273951172828674,1.4115835428237915,1.8617608547210693
22.2,0.13969963788986206,2.988480806350708,2.342148780822754,0.625546932220459,1.2074662446975708,2.2498037815093994
22.25,1.6636004447937012,3.6056456565856934,3.7887818813323975,-0.06967383623123169,1.7589733600616455,1.5466753244400024
22.3,1.1075947284698486,2.5589239597320557,1.1259838342666626,-1.306274175643921,2.6340928077697754,1.49099862575531
22.35,-0.9225609302520752,1.0191928148269653,0.04562881588935852,-1.2570538520812988,2.8290114402770996,1.9096633195877075
22.4,-2.890395164489746,-0.11610875278711319,0.08333265036344528,-1.0244148969650269,2.741899251937866,1.793897271156311
22.45,-4.214226722717285,-0.8712805509567261,-0.11033635586500168,-1.030928373336792,2.5577123165130615,1.3534501791000366
22.5,-4.922208786010742,-1.060907244682312,0.410869300365448,-0.7609537243843079,1.886292815208435,0.9395810961723328
22.55,-4.876193046569824,-0.9823664426803589,0.20518523454666138,-0.8335302472114563,1.4245821237564087,0.36260807514190674
22.6,-4.273042678833008,-0.9628514051437378,-0.30369263887405396,-0.7662063837051392,0.8085371851921082,0.045353520661592484
22.65,-4.318532466888428,-1.1021946668624878,-0.30495399236679077,-0.4526362419128418,0.21851077675819397,0.04235517606139183
22.7,-4.256038665771484,-1.8848633766174316,-0.8083896636962891,-0.31600436568260193,-0.11356444656848907,-0.06850865483283997
22.75,-3.789767265319824,-1.6342097520828247,-1.032361388206482,0.304796040058136,-0.8285658955574036,-0.13709327578544617
22.8,-3.1263811588287354,-0.47371476888656616,-1.3350608348846436,0.6837508082389832,-1.389373540878296,-0.47206565737724304
22.85,-1.1574379205703735,1.0653916597366333,-1.2577769756317139,0.8568434119224548,-1.6726429462432861,-0.8357716798782349
22.9,0.4623841345310211,1.5800211429595947,-0.34299567341804504,0.9763035774230957,-1.950620174407959,-0.685596227645874
22.95,1.2851717472076416,1.2397241592407227,0.28055670857429504,0.6082087755203247,-1.5137046575546265,-0.6625910997390747
23.0,1.5530246496200562,0.9893427491188049,-0.013816596008837223,0.20714884996414185,-0.9161901473999023,-0.8074957728385925
23.05,1.7616825103759766,0.5550708174705505,-0.14696785807609558,0.07752881944179535,-0.8165388703346252,-0.635840654373169
23.1,1.8648746013641357,0.40412038564682007,-0.21396782994270325,0.06227555125951767,-0.8687883615493774,-0.2622065544128418
23.15,1.3067758083343506,0.9597788453102112,-0.45103347301483154,-0.053596191108226776,-0.8010605573654175,-0.027422264218330383
23.2,0.7864951491355896,0.32537171244621277,-1.0779633522033691,-0.2497982382774353,-0.4854848086833954,0.12071464210748672
23.25,-0.10432907938957214,-0.7467909455299377,-1.2099900245666504,-0.17228183150291443,-0.1164228767156601,0.426713228225708
23.3,-0.762137770652771,-2.3388864994049072,-0.9255257844924927,-0.024140313267707825,0.4614981710910797,0.5305253267288208
23.35,-1.9800628423690796,-2.013409376144409,-0.7870283722877502,0.19810432195663452,0.7263838052749634,0.43374204635620117
23.4,-2.183614492416382,-0.6454591155052185,-0.6979156732559204,0.4715442657470703,0.7911971807479858,-0.003679213346913457
23.45,-1.1501379013061523,1.0100452899932861,1.14792001247406,0.8961349725723267,0.144780695438385,-0.006819805596023798
23.5,-0.8803467750549316,1.6012367010116577,2.558335304260254,0.7946321964263916,-0.04114614054560661,0.1422099769115448
23.55,-0.44330471754074097,-0.049958158284425735,1.9908747673034668,0.18460378050804138,-0.055290769785642624,0.1548723429441452
23.6,0.7871237993240356,-0.7504597902297974,2.3325018882751465,0.11003848910331726,-0.48763036727905273,0.18027596175670624
23.65,1.876342535018921,-0.4546442925930023,2.7447562217712402,-0.06083805859088898,-0.8159902691841125,0.26771289110183716
23.7,2.4124674797058105,-0.5088425874710083,1.9751818180084229,-0.6184792518615723,-0.9753022789955139,0.39072105288505554
23.75,1.6465740203857422,-0.5438719987869263,1.1593211889266968,-0.8591341972351074,-0.9925163984298706,0.9349972605705261
23.8,0.3272193372249603,0.6243687272071838,1.4983577728271484,-0.92854905128479,-0.5326553583145142,1.3377141952514648
23.85,-1.4213933944702148,-0.22218219935894012,1.2297602891921997,-1.4727814197540283,-0.17959685623645782,1.4158453941345215
23.9,-3.525294303894043,-1.633244514465332,0.6518226861953735,-2.14371919631958,0.5974053144454956,1.051085352897644
23.95,-3.0449111461639404,-2.0040621757507324,-0.41537392139434814,-2.2096450328826904,0.6812894940376282,0.18731151521205902
24.0,-0.6124690771102905,1.2173939943313599,-1.4559911489486694,-1.3621307611465454,-1.0865299701690674,0.8862420916557312
24.05,0.7527614831924438,2.8510591983795166,-2.775286912918091,-1.4364984035491943,-1.1604915857315063,1.7001219987869263
24.1,0.7873871326446533,-0.7226726412773132,-3.543104648590088,-2.0806374549865723,0.6053512096405029,1.4005968570709229
24.15,-0.17148244380950928,-2.2102091312408447,-2.1023058891296387,-1.5683021545410156,1.7964364290237427,1.5093404054641724
24.2,-1.1124773025512695,-3.309840202331543,-1.3129223585128784,-1.0752673149108887,2.6840953826904297,1.0808066129684448
24.25,-1.2603559494018555,-5.411399841308594,0.6615445017814636,-0.5676102638244629,1.3891109228134155,0.23054341971874237
24.3,-1.5308430194854736,1.9230855703353882,0.12317519634962082,0.8350199460983276,1.4047398567199707,0.5185908079147339
24.35,0.7055829167366028,3.22617769241333,-2.66056752204895,-0.05567340552806854,0.9340616464614868,-0.22933582961559296
24.4,0.8158865571022034,2.217170000076294,-2.263415575027466,-0.6868946552276611,0.08341428637504578,-0.23003171384334564
24.45,-0.9605045914649963,-0.22554297745227814,0.742634654045105,-0.6643819212913513,-0.14994904398918152,-0.5087175965309143
24.5,-1.4927141666412354,0.6710978746414185,-1.4372999668121338,-0.014557287096977234,-0.03984362259507179,-0.19273340702056885
24.55,-1.219210147857666,2.7046663761138916,-1.9722765684127808,0.5068132877349854,-0.04105197638273239,0.003351357998326421
24.6,-0.20911474525928497,1.3311492204666138,-0.9155823588371277,0.5600612163543701,-0.4670466184616089,0.046164799481630325
24.65,0.3098156452178955,0.7420168519020081,0.06544791907072067,1.2186089754104614,-0.8438940644264221,0.46644848585128784
24.7,-0.3915256857872009,-0.9498968720436096,0.5830833911895752,1.6734271049499512,-1.3303608894348145,0.7967682480812073
24.75,-0.5201348066329956,-0.38951969146728516,0.8702130317687988,2.0756044387817383,-1.7455545663833618,0.6596901416778564
24.8,-1.0184378623962402,1.119187593460083,1.1870499849319458,2.058943271636963,-1.648682951927185,0.1526327282190323
24.85,-1.2789514064788818,3.549537420272827,2.6071693897247314,1.7935723066329956,-1.2043734788894653,-0.40006038546562195
24.9,-1.02350652217865,6.312955856323242,-0.02587730810046196,0.7355621457099915,-0.3752366304397583,-0.8957870006561279
24.95,1.2080368995666504,5.933866024017334,-0.13213461637496948,0.3398990035057068,-0.2792797088623047,-0.7511687278747559
25.0,0.9808961749076843,5.349785327911377,-0.1148025169968605,-0.406317800283432,0.034094832837581635,-0.048173438757658005
25.05,1.5372159481048584,3.4366612434387207,-0.5745620727539062,-0.8785708546638489,0.033203039318323135,0.44605064392089844
25.1,1.173593282699585,3.4622244834899902,-0.5466086864471436,-0.4765562415122986,0.2023034393787384,1.3206489086151123
25.15,-0.37202250957489014,2.5307018756866455,-0.6334696412086487,-0.3569066524505615,0.5671541094779968,2.034193515777588
25.2,-2.0570409297943115,-0.576748788356781,-0.07123563438653946,-1.0086727142333984,1.2991188764572144,1.9089709520339966
25.25,-1.482987880706787,-1.1072912216186523,0.40305277705192566,-1.8612165451049805,1.3348195552825928,1.1026148796081543
25.3,-2.0498905181884766,-3.259157419204712,1.094874382019043,-2.274519443511963,0.925907552242279,0.24483132362365723
25.35,-3.658677339553833,-1.8425168991088867,0.9163922667503357,-0.6404706835746765,0.10991355776786804,-0.6529492139816284
25.4,-3.389577865600586,-3.58606219291687,-0.4876933991909027,0.4681463837623596,-0.6391823291778564,-0.3159533739089966
25.45,-0.7836431860923767,-5.5305562019348145,-2.9270081520080566,0.7950811386108398,-2.5050289630889893,0.5258070826530457
25.5,0.9796290993690491,-5.550593852996826,-2.325730085372925,1.3574647903442383,-2.0201668739318848,0.23890602588653564
25.55,1.0081770420074463,-5.871089458465576,-2.8227128982543945,1.2945269346237183,-0.6165955066680908,-0.5734338164329529
25.6,0.8097380995750427,-4.070492744445801,-2.046332597732544,1.837709903717041,0.1735759973526001,-1.239611268043518
25.65,0.9564445614814758,-2.0772807598114014,-0.36185991764068604,2.0566999912261963,0.5395588874816895,-1.605391025543213
25.7,-0.05293554067611694,-0.9285441040992737,1.7598133087158203,1.4652554988861084,1.8576864004135132,-1.4798800945281982
25.75,-0.8766642808914185,-0.8549747467041016,3.1260619163513184,0.8518036603927612,3.14943528175354,-0.5957383513450623
25.8,-2.033907890319824,1.512010097503662,5.324197769165039,0.8370124697685242,3.5512776374816895,-0.28644177317619324
25.85,-1.3617876768112183,3.2182748317718506,4.528761386871338,0.3017798662185669,2.2656009197235107,-1.0526453256607056
25.9,-0.060521721839904785,3.1287550926208496,2.56799054145813,-0.07740962505340576,-0.005515433847904205,-1.4685313701629639
25.95,0.3037923574447632,1.4603739976882935,2.6046454906463623,-0.29094067215919495,0.20394137501716614,-0.5371564626693726
26.0,-1.3550326824188232,-0.24496164917945862,1.6263455152511597,-0.8621607422828674,1.830475926399231,0.5629525780677795
26.05,-1.2757359743118286,-1.2045583724975586,1.2492256164550781,-0.9092926383018494,1.4514251947402954,0.7004042267799377
26.1,-0.5785055160522461,-1.2481986284255981,-0.17197830975055695,-0.9015131592750549,0.057069096714258194,0.2791508436203003
26.15,0.42576539516448975,-0.5712062120437622,-1.5448840856552124,-0.44196200370788574,-1.2492313385009766,-0.1054353415966034
26.2,0.8573291301727295,0.5330438613891602,-0.7926739454269409,0.43627819418907166,-1.8868637084960938,-0.0044516706839203835
26.25,0.8314820528030396,0.6070108413696289,-0.48204299807548523,0.20392155647277832,-1.2906380891799927,-0.07255599647760391
26.3,0.6616822481155396,0.18078038096427917,-0.3323906362056732,-0.021730490028858185,-0.4029535949230194,-0.1550251543521881
26.35,0.09269163012504578,-0.7984687089920044,0.8116099834442139,0.21157866716384888,-0.0036755530163645744,0.1132659763097763
26.4,0.17459237575531006,-1.7394697666168213,1.3631032705307007,-0.021341819316148758,0.6040270328521729,0.023170629516243935
26.45,0.2098257839679718,-1.4584132432937622,1.5185357332229614,-0.005148641765117645,0.9223715662956238,-0.19724631309509277
26.5,0.3935600519180298,0.5120326280593872,2.6577553749084473,0.2825281620025635,0.516210675239563,-0.7048854231834412
26.55,0.4781827926635742,0.8900967836380005,1.618512511253357,-0.5587055087089539,0.24367952346801758,-1.070936679840088
26.6,-0.15737515687942505,-0.1591930091381073,1.2126240730285645,-0.6960873007774353,0.10418148338794708,-0.8432050943374634
26.65,-1.0884089469909668,-0.8148766160011292,0.8835611939430237,-0.7525622844696045,0.003466438502073288,-0.7793318033218384
26.7,-1.4119393825531006,-1.7633906602859497,-0.3059762716293335,-0.8178716897964478,-0.2730916142463684,-0.8451927900314331
26.75,-1.153181552886963,-0.9809733033180237,-0.3693472743034363,-0.10537776350975037,-0.5204012393951416,-1.0048108100891113
26.8,-0.7257598638534546,1.0715171098709106,-0.36996978521347046,0.4168396592140198,-0.7467184066772461,-1.1768743991851807
26.85,-0.9599360227584839,3.784493923187256,-0.5480682253837585,0.7353997826576233,-0.8551086783409119,-1.2436654567718506
26.9,-1.0766937732696533,7.885303497314453,0.11428465694189072,1.0271613597869873,-0.824797511100769,-1.6349570751190186
26.95,2.5919456481933594,1.8104945421218872,1.81403648853302,0.4553319811820984,-0.6081879734992981,-1.8936188220977783
27.0,0.7087518572807312,-2.274700880050659,0.9349761605262756,0.15489977598190308,0.6435425877571106,-0.5216597318649292
27.05,-0.45640406012535095,-2.9398715496063232,-0.08827352523803711,0.5928471684455872,1.9215638637542725,-0.7106916308403015
27.1,0.8200211524963379,-2.149585485458374,-0.3351142704486847,0.6285226941108704,1.5331984758377075,-1.8158782720565796
27.15,2.799957513809204,-2.159968376159668,-0.5860717296600342,0.17346978187561035,0.6417262554168701,-2.3742566108703613
27.2,3.9722046852111816,-2.0872750282287598,-0.9935839772224426,0.09931159019470215,0.8940354585647583,-2.10762882232666
27.25,4.168601989746094,-1.9405646324157715,-0.7998338937759399,0.7269279360771179,1.9964642524719238,-1.6721113920211792
27.3,2.9987268447875977,-2.413586139678955,-0.7544508576393127,1.260047197341919,2.9011104106903076,-1.014798879623413
27.35,2.845675468444824,-1.6433948278427124,0.02966143749654293,1.4979780912399292,3.012608289718628,-0.49922406673431396
27.4,2.4548399448394775,0.07567582279443741,-0.6953301429748535,0.6961304545402527,2.9866068363189697,-0.054511576890945435
27.45,1.3420350551605225,1.2545814514160156,-1.9587688446044922,-0.5215923190116882,1.9856799840927124,0.7157883048057556
27.5,-0.8857812881469727,1.553584337234497,-2.601421356201172,-0.8752846121788025,1.0150556564331055,1.5644491910934448
27.55,-3.1528658866882324,1.5529760122299194,-1.8309413194656372,-0.29161983728408813,0.5294641256332397,1.9159178733825684
27.6,-4.227950096130371,2.534914493560791,-0.3382417857646942,0.41246330738067627,0.43532896041870117,1.5211726427078247
27.65,-3.886453151702881,2.8849711418151855,0.42299002408981323,0.4115685820579529,0.45494717359542847,1.0582507848739624
27.7,-3.1671674251556396,2.096919536590576,1.3675578832626343,0.33224624395370483,0.6386085748672485,0.8304193019866943
27.75,-2.958068370819092,0.5383284091949463,1.722399353981018,0.32151806354522705,0.9917504787445068,0.6486476063728333
27.8,-2.3798229694366455,0.21147748827934265,1.7871242761611938,0.2777670919895172,0.7711855173110962,0.295807421207428
27.85,-0.9699681997299194,0.14074429869651794,1.0374888181686401,-0.06719214469194412,0.15543916821479797,0.025753920897841454
27.9,0.32439711689949036,0.9667483568191528,-0.053412098437547684,-0.39363721013069153,-0.16265463829040527,-0.08191024512052536
27.95,0.8684105277061462,1.8155291080474854,-0.2983492612838745,-0.2851923108100891,-0.291608065366745,0.0622263140976429
28.0,0.5200372934341431,1.9138634204864502,-0.07438058406114578,-0.05483466386795044,-0.6224669814109802,0.4248766303062439
28.05,-0.5640468001365662,1.327541470527649,0.4242876172065735,0.02458035945892334,-1.0518864393234253,0.887300968170166
28.1,-1.605400562286377,-0.11142627149820328,0.43282386660575867,-0.07646524906158447,-1.3520419597625732,1.1565340757369995
28.15,-1.671470284461975,-0.8011875152587891,0.18334896862506866,-0.05963003635406494,-1.5301655530929565,1.1009563207626343
28.2,-1.2050501108169556,-1.7397644519805908,-0.29104700684547424,-0.06016719341278076,-1.5803651809692383,0.9351681470870972
28.25,-0.6385688781738281,-2.305997133255005,-0.5466015934944153,0.13820257782936096,-1.7483774423599243,0.7861904501914978
28.3,-0.33091896772384644,-2.4057514667510986,-0.7596303224563599,0.3710324168205261,-1.9577685594558716,0.649522066116333
28.35,0.8307910561561584,-1.7514299154281616,-0.9274386167526245,0.5687098503112793,-2.2538490295410156,0.3599160313606262
28.4,2.3538403511047363,-0.5925552248954773,-0.8585994243621826,0.631181001663208,-2.5168609619140625,0.06848660111427307
28.45,3.3394417762756348,-0.8092482686042786,-0.4102446436882019,0.6849516034126282,-2.3835973739624023,0.02211941033601761
28.5,3.5196259021759033,-0.04788510873913765,0.9648113250732422,0.9280720353126526,-1.7289386987686157,0.11593924462795258
28.55,3.15669584274292,1.0396623611450195,1.785626769065857,0.702092707157135,-0.5684530735015869,-0.15947335958480835
28.6,2.9795608520507812,1.6345845460891724,1.4171582460403442,0.20670169591903687,0.3052237927913666,-0.46370556950569153
28.65,2.5294864177703857,1.9406424760818481,1.0067065954208374,-0.07327933609485626,0.708157479763031,-0.260324627161026
28.7,1.1633851528167725,1.9132578372955322,1.5418657064437866,-0.07566181570291519,0.8939505815505981,0.3008497953414917
28.75,-0.6420522928237915,1.293158769607544,1.455700397491455,-0.24127726256847382,1.2273837327957153,0.6497336626052856
28.8,-1.7800883054733276,0.5136720538139343,1.1845060586929321,-0.47306424379348755,1.1055339574813843,0.5556429028511047
28.85,-2.0021677017211914,-0.5593881011009216,0.46911290287971497,-0.6165677905082703,0.3398478627204895,0.3598722219467163
28.9,-1.8756262063980103,-0.13609589636325836,0.8446736931800842,-0.39434754848480225,-0.2336440533399582,0.16040441393852234
28.95,-2.159811019897461,-0.16471849381923676,1.0712610483169556,-0.6637974381446838,0.32065191864967346,-0.14178036153316498
29.0,-4.105082988739014,-0.3823907971382141,0.8846791982650757,-0.9716747999191284,0.8475906848907471,-0.1882990151643753
29.05,-5.408051013946533,-1.159096598625183,0.0172759797424078,-1.240783929824829,0.7490877509117126,-0.5167390704154968
29.1,-5.164343357086182,-2.1084132194519043,-0.874222993850708,-1.4611611366271973,-0.18675465881824493,-0.9327012896537781
29.15,-3.8209805488586426,-3.685459852218628,-2.1729350090026855,-1.5634372234344482,-0.9787718653678894,-1.3431682586669922
29.2,-2.8162713050842285,-3.8971004486083984,-2.853928565979004,-0.7354250550270081,-1.6842241287231445,-1.276064395904541
29.25,-0.7228626012802124,-1.3713589906692505,-2.431239128112793,0.426898717880249,-2.070526361465454,-1.3735204935073853
29.3,1.2333585023880005,0.3260277807712555,-1.4219350814819336,1.0506680011749268,-1.4391772747039795,-1.8685756921768188
29.35,2.6717324256896973,0.7756967544555664,0.19646386802196503,1.4924099445343018,-0.9136483669281006,-1.8532278537750244
29.4,2.7354612350463867,1.0556955337524414,1.8999459743499756,1.6641584634780884,-0.7436500191688538,-0.9975994229316711
29.45,2.581556797027588,1.3176928758621216,3.6658782958984375,1.5419285297393799,-0.49908551573753357,-0.4347207546234131
29.5,1.484809398651123,1.4117203950881958,3.8008055686950684,1.0270254611968994,-0.06125237047672272,-0.1917494833469391
29.55,0.6201189756393433,1.154807209968567,2.7458748817443848,0.28928646445274353,-0.4457465708255768,-0.006675865966826677
29.6,2.040316581726074,1.664485216140747,3.120713472366333,-0.14068832993507385,-1.5180385112762451,-0.04459245875477791
29.65,3.6091880798339844,0.1589946150779724,4.438686370849609,-0.11041863262653351,-0.9381628632545471,-0.3657802939414978
29.7,1.6911753416061401,-0.2045755684375763,3.2897837162017822,0.012505978345870972,1.0491786003112793,0.3629613518714905
29.75,-1.8725703954696655,2.9922146797180176,2.3745956420898438,0.04841908812522888,1.708884835243225,1.2837291955947876
29.8,-3.8745126724243164,5.992171287536621,1.4251658916473389,-0.4797959625720978,1.6075963973999023,0.7740429043769836
29.85,-3.7694664001464844,4.561519145965576,-1.6884557008743286,-1.788231611251831,0.7234253287315369,-0.4150850474834442
29.9,-3.1195554733276367,0.7926427125930786,-4.979359149932861,-3.053964138031006,-1.3381682634353638,-0.04517205432057381
29.95,-2.1258747577667236,-2.7838351726531982,-5.839279651641846,-3.2922394275665283,-2.6633973121643066,0.9865528345108032
30.0,-1.3395987749099731,-5.2120819091796875,-5.563637733459473,-2.3952503204345703,-2.504944086074829,1.2655601501464844
30.05,-0.2145383358001709,-5.2142767906188965,-4.8334221839904785,-0.7726203799247742,-2.0122814178466797,0.5792937278747559
30.1,1.229750633239746,-4.500779628753662,-4.3169708251953125,0.5237857699394226,-1.7508254051208496,-0.42889803647994995
30.15,3.185297727584839,-2.069678783416748,-3.7165701389312744,1.449021577835083,-1.9506067037582397,-1.0964866876602173
30.2,5.1661376953125,-0.5074571371078491,-1.830322504043579,2.298386812210083,-1.9561997652053833,-1.6948360204696655
30.25,6.109723091125488,0.1688457876443863,-1.4082765579223633,2.4859025478363037,-1.4501012563705444,-1.73317289352417
30.3,6.533329486846924,1.1874511241912842,-0.7347237467765808,2.4309232234954834,-1.3793835639953613,-1.0534701347351074
30.35,5.830219268798828,1.9297646284103394,0.11589585989713669,2.2962563037872314,-1.6372407674789429,-0.03655288368463516
30.4,4.018970489501953,2.4029541015625,1.886112928390503,2.1333253383636475,-1.9033559560775757,0.9111359119415283
30.45,1.1875704526901245,2.3177711963653564,3.0638656616210938,2.230130195617676,-1.335937261581421,1.7478677034378052
30.5,-1.1518001556396484,1.9187434911727905,2.1514501571655273,1.8697644472122192,-0.5978464484214783,2.4975075721740723
30.55,-3.08355450630188,1.4545005559921265,1.9528905153274536,1.3166780471801758,-0.9342597126960754,2.4665701389312744
30.6,-4.85313606262207,0.22366179525852203,2.9147191047668457,1.2333701848983765,-1.2016876935958862,1.9597997665405273
30.65,-6.6568803787231445,-0.2112031728029251,3.113680601119995,0.9880622625350952,-0.4714120030403137,2.03029727935791
30.7,-7.184936046600342,-0.44224509596824646,2.634526014328003,0.48652029037475586,0.1782049685716629,1.8522465229034424
30.75,-6.166481971740723,-1.191098928451538,2.5136568546295166,0.11037340760231018,0.11950168758630753,0.39493048191070557
30.8,-4.88338565826416,-1.3553330898284912,2.7610652446746826,-0.40735894441604614,0.08733465522527695,-0.9823164343833923
30.85,-4.066532611846924,0.16155749559402466,2.5265679359436035,-0.9375991821289062,0.6197733283042908,-1.1449916362762451
30.9,-2.93805193901062,2.2739787101745605,1.4890854358673096,-1.3040072917938232,1.0967048406600952,-1.2286808490753174
30.95,-0.7912546992301941,3.060059070587158,0.03484774008393288,-1.780308723449707,0.8567941784858704,-2.0410823822021484
31.0,1.5274633169174194,2.3937597274780273,-1.6807807683944702,-2.3005809783935547,0.43363484740257263,-2.792243480682373
31.05,2.9585273265838623,0.6861198544502258,-2.7623002529144287,-2.4491889476776123,0.3013269603252411,-2.7631373405456543
31.1,3.384490966796875,-0.6939948797225952,-3.418890953063965,-1.9976863861083984,0.509518027305603,-1.965587854385376
31.15,3.069005250930786,-1.0075219869613647,-3.531816005706787,-1.1915943622589111,0.800076425075531,-0.9984201788902283
31.2,2.4608542919158936,-0.7859662771224976,-2.989699363708496,-0.42850029468536377,1.0237950086593628,-0.35177987813949585
31.25,1.716355562210083,-0.687999963760376,-2.4413857460021973,0.06925756484270096,1.2784172296524048,0.02792094461619854
31.3,1.2031294107437134,-0.9900486469268799,-2.427855968475342,0.2603209614753723,1.4205915927886963,0.1301524043083191
31.35,0.8106604218482971,-1.4319603443145752,-2.3760993480682373,0.08760281652212143,1.1026211977005005,0.03348077833652496
31.4,0.9161769151687622,-1.9426673650741577,-2.9720206260681152,-0.33839306235313416,0.5863134264945984,-0.08642509579658508
31.45,1.0256108045578003,-2.2119250297546387,-3.513359308242798,-0.7133888602256775,-0.08137775957584381,0.07122670859098434
31.5,1.2547589540481567,-2.270526885986328,-3.4698188304901123,-0.33557966351509094,-0.6084257960319519,0.45154574513435364
31.55,1.6189301013946533,-1.1889479160308838,-3.120046615600586,0.6206358671188354,-1.0456585884094238,0.8072354197502136
31.6,1.8382275104522705,0.4450176954269409,-2.7016727924346924,1.3882454633712769,-1.5211988687515259,1.039690613746643
31.65,2.442622423171997,2.0938491821289062,-0.8996613025665283,2.0272412300109863,-2.3239450454711914,1.070825457572937
31.7,2.274229049682617,4.227445125579834,2.3529293537139893,2.4478299617767334,-3.362823486328125,1.002553939819336
31.75,-0.38643836975097656,3.9675891399383545,7.570745468139648,2.870424270629883,-3.5406131744384766,0.9369221329689026
31.8,-3.5317702293395996,-0.6393380761146545,10.651397705078125,2.8113012313842773,-1.6865721940994263,1.6718156337738037
31.85,-4.137053489685059,-2.0988919734954834,8.774044036865234,0.8605281114578247,0.2044331282377243,1.949702501296997
31.9,-3.3964245319366455,0.503984808921814,4.787358283996582,-1.0472816228866577,-0.026373296976089478,0.18340134620666504
31.95,-1.4128226041793823,0.9841063618659973,3.0245580673217773,-1.4849872589111328,-1.4285627603530884,-1.641934871673584
32.0,0.3719283640384674,0.13779358565807343,1.6683849096298218,-1.621333360671997,-2.179617166519165,-2.5171127319335938
32.05,0.901494562625885,-1.2911683320999146,1.2499686479568481,-1.433226466178894,-2.1170859336853027,-2.202113389968872
32.1,0.28821802139282227,-1.3175994157791138,1.20381498336792,-0.9819703102111816,-1.173744797706604,-0.9311253428459167
32.15,-0.04325932264328003,0.5380993485450745,0.21357080340385437,-0.8540490865707397,-0.14600861072540283,-0.08801151067018509
32.2,0.8426862955093384,2.829063653945923,-1.70140540599823,-0.8267285823822021,0.34165361523628235,-0.1531098634004593
32.25,1.8437281847000122,1.8589955568313599,-1.8071345090866089,-0.6184718608856201,-0.43347716331481934,-0.8489057421684265
32.3,1.6882058382034302,-0.2180749475955963,-1.1282646656036377,-0.5021106004714966,-1.0742576122283936,-0.8964439034461975
32.35,1.007043480873108,-0.01611814647912979,-1.5226393938064575,-0.34339234232902527,-0.5529564619064331,0.039587121456861496
32.4,-0.5434607267379761,-0.6121092438697815,-1.3915842771530151,0.3121754825115204,0.5199950337409973,1.127502679824829
32.45,-1.4548335075378418,-0.4164257347583771,-1.5015573501586914,0.7089841365814209,1.236752986907959,2.01092529296875
32.5,-3.3139734268188477,0.6568138599395752,-0.8729938864707947,1.015977382659912,0.8077369332313538,1.9669413566589355
32.55,-2.979858160018921,0.5213034152984619,0.5981290340423584,1.1736466884613037,0.4733808934688568,0.9426697492599487
32.6,-1.6058207750320435,0.051764607429504395,0.9891471862792969,0.9756641387939453,-0.4604981541633606,-0.06834417581558228
32.65,-1.6802552938461304,0.218702495098114,1.9624123573303223,0.6771938800811768,-1.4029420614242554,-0.2597302496433258
32.7,-1.7712124586105347,0.15922944247722626,2.0567874908447266,0.2760188579559326,-1.353720784187317,-0.318611204624176
32.75,-1.597111701965332,0.2998181879520416,1.6878647804260254,-0.1454143077135086,-0.8729752898216248,-0.4421243369579315
32.8,-0.9275410175323486,-0.023198064416646957,0.6164426207542419,-0.5125554800033569,-0.34053632616996765,-0.6324993968009949
32.85,-0.2935674488544464,-0.31385138630867004,-0.4806852340698242,-0.6859579086303711,0.09401138126850128,-0.6853153109550476
32.9,0.2745262384414673,-0.7283354997634888,-1.4941797256469727,-0.6566175818443298,0.2590589225292206,-0.7348076701164246
32.95,0.01845836639404297,-0.9348289370536804,-1.6012095212936401,-0.5004156231880188,0.15967948734760284,-0.5597319006919861
33.0,-0.3615439534187317,-0.24127107858657837,-1.56838059425354,-0.39134645462036133,0.17411720752716064,-0.31418919563293457
33.05,-0.7796900272369385,0.3923712372779846,-1.0526936054229736,-0.25202012062072754,0.16341345012187958,-0.34714439511299133
33.1,0.3976030647754669,1.4125920534133911,-1.0881949663162231,-0.004488229751586914,0.1491737812757492,-0.8828937411308289
33.15,1.0340280532836914,0.19112583994865417,-0.44967004656791687,0.31534865498542786,-0.03619818016886711,-1.269867181777954
33.2,2.88848876953125,-0.7598393559455872,-0.3536716103553772,0.15909162163734436,-0.8881162405014038,-1.276209831237793
33.25,2.128098487854004,-0.6449624300003052,1.8947679996490479,-0.7594051957130432,-3.2433021068573,-1.424353837966919
33.3,0.4623323678970337,-0.6198787689208984,3.059837579727173,-1.4942026138305664,-4.169247150421143,-1.1310254335403442
33.35,-1.3609060049057007,-1.300445556640625,2.6473371982574463,-1.7317466735839844,-4.034097194671631,-0.94120854139328
33.4,-2.461651563644409,-1.2536381483078003,2.033195972442627,-1.663034439086914,-3.3151471614837646,-0.807024359703064
33.45,-1.9226462841033936,-1.7209903001785278,1.0314157009124756,-1.7899041175842285,-2.2968029975891113,-0.6198566555976868
33.5,-1.073714017868042,0.47379881143569946,-1.7349811792373657,-1.7820312976837158,-1.213457465171814,-0.2760557532310486
33.55,0.6192612648010254,-0.6308461427688599,-1.3786507844924927,-0.24096179008483887,-0.07180459052324295,0.3300529718399048
33.6,2.241264820098877,-1.189668893814087,-0.2504812479019165,0.9882488250732422,-0.07295539975166321,0.8303744792938232
33.65,3.177725315093994,-0.6026508212089539,1.8669553995132446,1.7268874645233154,-0.20491190254688263,1.4677097797393799
33.7,3.1410610675811768,0.4405994117259979,3.142789125442505,1.4779531955718994,-0.3704548180103302,1.940904974937439
33.75,3.9670326709747314,2.322044610977173,4.005188941955566,0.11827307939529419,-0.7678781747817993,2.04729962348938
33.8,1.1432850360870361,5.4119791984558105,3.3766636848449707,-1.2569098472595215,-2.4377071857452393,2.157273530960083
33.85,-4.028632164001465,6.296394348144531,0.09709872305393219,-1.6642743349075317,-3.254483938217163,2.5428051948547363
33.9,-7.315592288970947,0.8931307196617126,-3.0944252014160156,-1.6677446365356445,-1.7290663719177246,2.514651298522949
33.95,-4.8543620109558105,-1.104487419128418,-2.9918384552001953,-1.2842954397201538,0.07577577978372574,0.6757364273071289
34.0,-2.708921432495117,-0.5909318923950195,-2.3403239250183105,-0.6776539087295532,0.12369995564222336,-0.5845280885696411
34.05,-1.630301594734192,-2.0086681842803955,-1.1359871625900269,0.16710856556892395,-0.12884102761745453,-0.5204356908798218
34.1,-1.1815348863601685,-3.2545080184936523,-0.026722028851509094,0.7253639101982117,-0.5729993581771851,-0.41480040550231934
34.15,-1.30672287940979,-2.967740297317505,-0.2808879613876343,0.4744357466697693,-0.9318951964378357,-0.2704930305480957
34.2,-1.271742343902588,-2.5806663036346436,-1.546165108680725,-0.41462165117263794,-0.24937056005001068,-0.1362779289484024
34.25,-0.6416794657707214,-1.1347476243972778,-3.145139694213867,-1.353466510772705,0.6919772624969482,-0.3485119640827179
34.3,0.10873818397521973,1.7052098512649536,-5.307826995849609,-1.6749866008758545,1.3815865516662598,-0.696209728717804
34.35,0.9715828895568848,3.499473810195923,-5.482280731201172,-0.8257357478141785,1.8193414211273193,-0.7187327146530151
34.4,0.4989982843399048,2.6495513916015625,-3.644172430038452,0.7860117554664612,1.2841652631759644,-0.15691649913787842
34.45,1.0714185237884521,3.0312952995300293,-1.6519767045974731,1.5779366493225098,0.7208326458930969,-0.05279107391834259
34.5,0.2495523989200592,2.745659112930298,-0.9379187822341919,1.440102458000183,0.642240583896637,0.1454424113035202
34.55,-1.8169310092926025,0.5265733003616333,-0.722651481628418,0.529237687587738,1.1681311130523682,0.7454767823219299
34.6,-1.2778775691986084,2.4029886722564697,-0.39803990721702576,0.8908189535140991,1.16307532787323,0.20859979093074799
34.65,-2.401076555252075,2.4171338081359863,2.1473000049591064,1.8973190784454346,1.3332531452178955,0.15164507925510406
34.7,-1.781349778175354,0.8548034429550171,5.050571918487549,2.468376636505127,1.582160472869873,0.24974194169044495
34.75,-1.2425734996795654,-0.9006069898605347,6.148562431335449,2.536073684692383,0.4270828664302826,-0.7861900329589844
34.8,-1.2082574367523193,-2.013455867767334,6.238370418548584,1.944218397140503,-0.20587241649627686,-1.6083160638809204
34.85,-0.30379366874694824,-2.412121295928955,6.505368232727051,1.319542646408081,0.33006057143211365,-1.6777923107147217
34.9,1.6327193975448608,-2.4732468128204346,6.980375289916992,1.1985498666763306,1.0753806829452515,-1.5681952238082886
34.95,3.7772819995880127,-2.7769782543182373,6.530928611755371,0.955451250076294,1.4733067750930786,-1.5419024229049683
35.0,5.238155364990234,-3.252826452255249,4.978522300720215,0.2699110507965088,1.4749164581298828,-1.5992399454116821
35.05,6.589864730834961,-3.3629653453826904,3.278285503387451,-0.44214141368865967,1.2220407724380493,-1.3792020082473755
35.1,9.747949600219727,-3.1441612243652344,2.098011016845703,-0.7490145564079285,0.9949963092803955,-0.4746846556663513
35.15,8.363776206970215,-2.9485929012298584,1.803505778312683,-0.8320900201797485,-0.6621060967445374,1.5061447620391846
35.2,3.5347890853881836,-0.8572590351104736,2.5059332847595215,-1.0875271558761597,-1.5533950328826904,3.316246509552002
35.25,4.649369239807129,3.4748470783233643,0.8692620396614075,-2.1128296852111816,0.19897018373012543,3.069334030151367
35.3,1.3965485095977783,3.6728432178497314,-1.7332549095153809,-3.2555437088012695,1.0261024236679077,3.6455721855163574
35.35,-0.2754039764404297,2.4359171390533447,-1.966325283050537,-2.4373350143432617,-0.15001589059829712,2.457500457763672
35.4,-3.30959415435791,0.864429771900177,-0.8539196848869324,-0.0239829421043396,-2.2590034008026123,1.4925698041915894
35.45,-5.344143867492676,-0.4344375431537628,-0.21361353993415833,0.4521346390247345,-1.6401875019073486,1.4883298873901367
35.5,-5.752163887023926,-0.3449428081512451,-1.1153323650360107,-0.6246917247772217,-0.7452636957168579,1.17587149143219
35.55,-6.513182640075684,-0.011561162769794464,-4.043270111083984,-1.3791197538375854,-1.1144808530807495,0.32030048966407776
35.6,-4.892098426818848,0.9933855533599854,-5.665837287902832,-1.450953483581543,-0.5328138470649719,-0.4438779056072235
35.65,-3.041034698486328,1.641272783279419,-5.776738166809082,-0.5356590747833252,0.3027431070804596,-0.8306688666343689
35.7,-2.0736594200134277,2.3100473880767822,-5.3640265464782715,0.20151978731155396,0.6885165572166443,-0.8049402832984924
35.75,-2.936342716217041,0.8021260499954224,-4.710877418518066,0.2251090109348297,0.7991431951522827,-0.5387006998062134
35.8,-3.6961863040924072,0.651955783367157,-3.017683982849121,0.8240286111831665,1.4297809600830078,-0.5562440752983093
35.85,-6.268837928771973,4.21367073059082,0.13053633272647858,1.6684188842773438,2.9584057331085205,-0.885828971862793
35.9,-1.206960916519165,6.124919891357422,3.5009403228759766,2.5267174243927,4.632511615753174,-0.4023853838443756
35.95,0.5600273609161377,3.094263792037964,6.196104049682617,3.371617555618286,0.8794856667518616,-1.5161101818084717
36.0,1.7492949962615967,-0.398948609828949,7.635275363922119,2.276426076889038,-1.9177865982055664,-3.3914430141448975
36.05,1.9841790199279785,-1.4787673950195312,6.923673152923584,0.4315941333770752,-2.201004981994629,-4.231457710266113
36.1,3.1907999515533447,-1.207844853401184,5.924826145172119,-0.3620338439941406,-0.695641040802002,-3.7909018993377686
36.15,5.548981189727783,-2.2082505226135254,5.523631572723389,0.461126446723938,1.0123149156570435,-2.6327805519104004
36.2,6.677655220031738,-4.557442665100098,4.493225574493408,1.2381439208984375,1.6976261138916016,-1.8013309240341187
36.25,6.928788185119629,-6.407045364379883,2.6275105476379395,0.912548303604126,1.793859601020813,-1.3306169509887695
36.3,7.872318267822266,-6.502363681793213,0.5313697457313538,-0.20035210251808167,1.6814477443695068,-0.661388635635376
36.35,10.307258605957031,-5.9361443519592285,-1.2019139528274536,-0.9978307485580444,1.113884449005127,0.43024271726608276
36.4,8.04759693145752,-4.0727219581604,-0.43279504776000977,-0.9491617679595947,-0.35348597168922424,2.4027352333068848
36.45,7.553930282592773,0.4975534975528717,-0.11938020586967468,-1.2337945699691772,-0.8188931345939636,3.7605762481689453
36.5,5.0001044273376465,8.616531372070312,-0.8757001757621765,-1.5399668216705322,-0.4150336682796478,4.706879615783691
36.55,-1.2343268394470215,7.838037490844727,-0.8421810865402222,-0.9518426656723022,0.7354620099067688,5.01622200012207
36.6,-3.8127102851867676,3.5026700496673584,0.8860163688659668,0.05203533172607422,-0.07030070573091507,3.323242425918579
36.65,-6.076169490814209,-0.5843674540519714,1.4576622247695923,0.7084527015686035,-2.063127279281616,1.540282964706421
36.7,-5.874635219573975,-1.5022133588790894,0.5499379634857178,-0.1598672866821289,-1.6214001178741455,1.0031917095184326
36.75,-5.394981384277344,-1.351876139640808,-0.8667128682136536,-0.7814743518829346,-0.6276604533195496,0.7861663699150085
36.8,-6.339460849761963,-1.2584046125411987,-1.8912943601608276,-0.7980489134788513,0.031283605843782425,0.7068533897399902
36.85,-8.066879272460938,-1.364781141281128,-2.33703875541687,-0.7738931775093079,0.696593701839447,0.5155566930770874
36.9,-7.396282196044922,-0.11967150121927261,-1.871438980102539,-0.7435526251792908,1.8382885456085205,-0.06595588475465775
36.95,-4.981972694396973,1.3309358358383179,-0.74532550573349,-0.17429281771183014,2.591585397720337,-0.85667884349823
37.0,-2.9646944999694824,4.036324977874756,-0.008606193587183952,0.45073944330215454,2.245964527130127,-1.5423699617385864
37.05,-2.7163166999816895,6.850591659545898,1.1789788007736206,0.7519146800041199,1.853776216506958,-1.676028847694397
37.1,1.2047520875930786,5.598387241363525,4.046416282653809,1.4895027875900269,2.1533150672912598,-1.6211200952529907
37.15,4.346585273742676,2.1749870777130127,5.54597282409668,1.7119828462600708,1.0755871534347534,-3.466435670852661
37.2,6.208525657653809,-1.497270941734314,4.966684818267822,0.7874397039413452,1.5690264701843262,-3.8293418884277344
37.25,6.775655746459961,-3.3627922534942627,2.975645065307617,0.37398117780685425,2.7639663219451904,-1.9570112228393555
37.3,6.383545875549316,-2.4242663383483887,2.2024896144866943,1.059959888458252,3.005113363265991,0.3328513205051422
37.35,6.320123672485352,-1.2702716588974,1.8957709074020386,2.4631404876708984,2.9705824851989746,1.4181488752365112
37.4,7.057903289794922,-0.9909805059432983,4.024116516113281,3.3278350830078125,2.0417754650115967,0.9074802398681641
37.45,8.54765796661377,-4.102240085601807,7.9526801109313965,3.048741102218628,0.8955217003822327,-0.7185006737709045
37.5,9.962846755981445,-7.3094401359558105,8.320991516113281,0.8726213574409485,1.102264165878296,-1.864425539970398
37.55,10.517601013183594,-5.6498918533325195,5.800551891326904,-1.7431889772415161,1.6279621124267578,-0.9638092517852783
37.6,10.857855796813965,-0.16589312255382538,2.5347180366516113,-3.036176919937134,2.1086325645446777,1.1586116552352905
37.65,9.212697982788086,4.36759090423584,-1.6307530403137207,-3.3997182846069336,2.7448065280914307,2.3728082180023193
37.7,5.485477447509766,4.682467460632324,-6.452819347381592,-3.114223003387451,3.6017251014709473,2.285238742828369
37.75,1.084183692932129,2.41182804107666,-7.311389923095703,-2.2822301387786865,3.8664515018463135,1.967648983001709
37.8,-1.7658973932266235,-0.8189728260040283,-6.683448791503906,-0.6905590891838074,3.961759567260742,1.5328569412231445
37.85,-3.435450553894043,-0.9948578476905823,-5.001398086547852,0.18107002973556519,2.6106302738189697,1.9490071535110474
37.9,-4.835822105407715,-0.25389084219932556,-3.226196765899658,0.5973415970802307,1.4255805015563965,2.150617837905884
37.95,-4.11126708984375,-0.5710467100143433,-0.6510719656944275,1.305159330368042,1.9924167394638062,0.7239698171615601
38.0,-4.691897869110107,-1.0518215894699097,0.5415236353874207,1.7093104124069214,3.323514223098755,-0.4594547748565674
38.05,-6.030728816986084,-0.7206246256828308,1.3870875835418701,1.507063865661621,3.0859646797180176,-0.8498563766479492
38.1,-5.116720676422119,-0.24614687263965607,1.2806487083435059,0.5703819394111633,1.5516183376312256,-1.530014991760254
38.15,-2.934417486190796,0.23419588804244995,-0.365885853767395,-0.4305647611618042,0.0969684049487114,-2.050041675567627
38.2,-1.1251089572906494,1.01307213306427,-1.661638855934143,-0.5780074596405029,-0.9433647394180298,-2.164560317993164
38.25,1.479455828666687,2.0842411518096924,-1.1751714944839478,0.22928762435913086,-1.4451122283935547,-2.31473445892334
38.3,4.106677532196045,2.1268253326416016,0.9728248119354248,1.5408544540405273,-0.9981606006622314,-2.3571219444274902
38.35,5.239862442016602,1.20439612865448,3.0087406635284424,2.3716986179351807,0.13116751611232758,-1.846561074256897
38.4,5.239842414855957,-0.22127172350883484,3.3782272338867188,2.2076189517974854,1.1815332174301147,-1.1845135688781738
38.45,4.94352912902832,-1.7265743017196655,3.2424798011779785,1.4209356307983398,1.315112590789795,-0.6497020721435547
38.5,4.586103439331055,-2.1485133171081543,3.2613306045532227,0.8063417673110962,0.8086271286010742,-0.07993616163730621
38.55,2.9288253784179688,-1.190629243850708,3.2849507331848145,0.42612677812576294,0.4476681649684906,0.4342130124568939
38.6,1.6248618364334106,0.08424188196659088,3.415713310241699,-0.034704238176345825,-0.16622333228588104,0.7410699725151062
38.65,1.1061495542526245,0.5171690583229065,2.9488565921783447,-0.40998342633247375,-0.5703930854797363,0.5850464701652527
38.7,0.3753413259983063,2.1823952198028564,1.9236854314804077,-0.8895525336265564,-0.6461062431335449,0.628113329410553
38.75,0.6505805253982544,2.627493143081665,0.7040676474571228,-1.3904781341552734,-0.6618756651878357,0.4326545000076294
38.8,1.4146323204040527,-1.3576948642730713,0.16975735127925873,-1.1606135368347168,-0.34330177307128906,0.1305249184370041
38.85,1.2419548034667969,-0.9768906831741333,1.7039250135421753,0.2808316946029663,0.5019557476043701,0.31840941309928894
38.9,1.6706807613372803,1.5889151096343994,2.5227646827697754,0.9136812090873718,1.3815584182739258,0.22963577508926392
38.95,1.8436366319656372,0.6680803298950195,0.7313033938407898,-0.6310915350914001,1.5085262060165405,0.1382552534341812
39.0,1.4808170795440674,-1.0507338047027588,-1.7782342433929443,-2.1784515380859375,0.3884264826774597,0.5817047357559204
39.05,2.5384762287139893,-1.8071608543395996,-2.699065923690796,-2.1228036880493164,-1.0877385139465332,1.067285418510437
39.1,3.5960516929626465,-1.3981860876083374,-3.015946626663208,-1.0759838819503784,-1.7415529489517212,1.5310157537460327
39.15,5.234487533569336,-0.09388098865747452,-1.6851087808609009,-0.24965190887451172,-1.5829070806503296,2.0025696754455566
39.2,3.5018110275268555,1.202487826347351,-1.6019045114517212,-0.13209831714630127,0.24419572949409485,2.2749991416931152
39.25,0.5443385243415833,1.164383888244629,-1.8738662004470825,-0.35322141647338867,1.8060007095336914,2.261728525161743
39.3,-1.5108838081359863,0.4801274538040161,-0.9939857721328735,-0.14550364017486572,2.325439691543579,2.109642744064331
39.35,-2.5924949645996094,0.004786658100783825,1.057181477546692,0.41554298996925354,2.3501429557800293,1.8700506687164307
39.4,-2.7034530639648438,-0.9092559218406677,2.0613512992858887,0.19651201367378235,2.392543315887451,1.3765429258346558
39.45,-3.08693790435791,-2.8234314918518066,1.8895263671875,-0.7620459794998169,2.705901861190796,1.0319018363952637
39.5,-4.812532424926758,-4.0550055503845215,1.3654708862304688,-0.41155117750167847,1.8767492771148682,1.0270837545394897
39.55,-3.4922268390655518,-2.109210968017578,-0.34551358222961426,1.2269848585128784,-0.30769431591033936,0.541417121887207
39.6,-0.874230146408081,0.6791649460792542,-0.9539112448692322,1.0032631158828735,-1.0121738910675049,0.028126418590545654
39.65,-2.1115808486938477,-1.7379390001296997,-0.31967535614967346,-0.23874738812446594,0.8930975794792175,-0.004456057213246822
39.7,-3.066221237182617,-2.4978365898132324,0.45560482144355774,0.0002257116138935089,1.2664544582366943,-0.11156558990478516
39.75,-3.1435365676879883,-1.408238410949707,0.04437926784157753,0.4629129469394684,-0.27331119775772095,0.05352121591567993
39.8,-2.6478970050811768,0.27504071593284607,-3.1593475341796875,-0.5873329639434814,-1.586039662361145,0.2646923363208771
39.85,-3.0284788608551025,-0.12823104858398438,-5.206422328948975,-0.8644669055938721,-2.5555853843688965,0.5190050601959229
39.9,-1.1299958229064941,1.7409288883209229,-4.189842700958252,0.5372002720832825,-2.9740641117095947,0.33184516429901123
39.95,-1.130281686782837,1.5788233280181885,-2.4006636142730713,0.873508870601654,-1.6980301141738892,0.003718692110851407
40.0,-1.5154001712799072,0.022668881341814995,-1.3867594003677368,0.9996688961982727,-1.1444638967514038,-0.0077902162447571754
40.05,0.0502924881875515,1.9430334568023682,0.10209634155035019,1.4701728820800781,-1.6762802600860596,-0.027311544865369797
40.1,2.382845163345337,3.569155216217041,0.6070203185081482,0.7413279414176941,-1.5904369354248047,-0.3120187222957611
40.15,2.05989670753479,0.8593464493751526,1.0181100368499756,0.41423845291137695,-1.5841838121414185,0.2557885944843292
40.2,1.301888108253479,1.3797541856765747,3.001314401626587,1.125258207321167,-2.0375101566314697,0.8237019777297974
40.25,1.4463422298431396,3.738992214202881,1.3942952156066895,0.019905313849449158,-2.5166642665863037,0.4932950735092163
40.3,3.3786001205444336,3.9603607654571533,0.21295905113220215,-0.5317686796188354,-3.001162052154541,0.34905844926834106
40.35,2.6685144901275635,3.632439136505127,1.875098466873169,-0.09281110763549805,-1.5280616283416748,0.7161379456520081
40.4,-0.32200610637664795,3.748903751373291,3.6125426292419434,-0.07467246055603027,-0.42188361287117004,1.1562526226043701
40.45,-0.5262278318405151,3.53843355178833,2.9735679626464844,-0.6920771598815918,-0.17355455458164215,0.6953338384628296
40.5,-0.07466268539428711,3.0130820274353027,2.7439980506896973,-1.0998071432113647,-0.1630374640226364,0.43228432536125183
40.55,0.4128684401512146,3.390164852142334,3.017221450805664,-1.2038640975952148,-0.18811504542827606,0.5954516530036926
40.6,0.6693382859230042,2.9085352420806885,2.566868543624878,-1.6430326700210571,0.055235911160707474,0.5292465686798096
40.65,1.8174244165420532,0.6966962814331055,1.0322058200836182,-2.335353136062622,0.5500746965408325,0.04965934529900551
40.7,-4.254498481750488,-21.905004501342773,-1.667913556098938,-3.7772727012634277,0.7880576848983765,-0.27905720472335815
40.75,-1.8887395858764648,-14.338115692138672,-5.368406772613525,-2.255946159362793,3.4224257469177246,-4.944037914276123
40.8,7.095617294311523,16.535085678100586,0.6466708779335022,3.89723801612854,8.979451179504395,-9.41867733001709
40.85,6.167102336883545,6.219075679779053,-5.229277610778809,-1.1963621377944946,4.077020645141602,-2.2419443130493164
40.9,-1.3467392921447754,-2.2351841926574707,-7.780038356781006,-3.0525143146514893,1.2635983228683472,2.596611499786377
40.95,-5.365227699279785,-1.4481180906295776,-0.4497424066066742,0.5436059236526489,2.2945609092712402,0.39019718766212463
41.0,-5.0699849128723145,1.9791933298110962,2.681276798248291,1.4384057521820068,2.3653488159179688,-1.882891297340393
41.05,-4.102378845214844,1.1251643896102905,2.6995410919189453,0.8132076263427734,0.6724560260772705,-0.8215703368186951
41.1,-4.264801025390625,-0.6049954891204834,2.270603895187378,0.2855609059333801,-1.0066312551498413,0.30618196725845337
41.15,-3.272491455078125,-1.058038592338562,2.981340169906616,0.5138431191444397,-1.3402073383331299,-0.30448833107948303
41.2,-3.171677589416504,-1.6039819717407227,3.999992847442627,0.42852210998535156,-1.38735032081604,-0.6699237823486328
41.25,-3.4315061569213867,-2.4433422088623047,3.1970643997192383,-0.4680023491382599,-1.594489574432373,-0.8793289065361023
41.3,-3.149876117706299,-2.0178651809692383,1.7950525283813477,-0.8031166195869446,-1.900073766708374,-1.5148859024047852
41.35,-1.6725530624389648,-1.1169328689575195,0.10617553442716599,-0.7925992012023926,-2.5687875747680664,-1.9232161045074463
41.4,0.25655055046081543,-1.250002145767212,-1.6875615119934082,-0.7980844378471375,-3.2085518836975098,-2.0608811378479004
41.45,2.2027180194854736,-0.9911988377571106,-1.9450953006744385,-0.4375115633010864,-3.156771183013916,-1.9682929515838623
41.5,3.518756866455078,-2.108790874481201,-1.3758773803710938,-0.0743248462677002,-2.3204779624938965,-1.9517077207565308
41.55,4.091326713562012,-1.2518399953842163,-0.6170117259025574,0.6517385244369507,-1.2600687742233276,-2.0961785316467285
41.6,6.968819618225098,-1.2263997793197632,2.667569875717163,1.9018826484680176,-0.7443801164627075,-2.3350043296813965
41.65,10.163270950317383,-1.9660392999649048,7.471686840057373,3.4793453216552734,-0.3734685480594635,-2.0929782390594482
41.7,10.32463550567627,-5.1018500328063965,9.959882736206055,3.4781997203826904,0.6265015602111816,-1.100952386856079
41.75,8.444849967956543,-2.96658992767334,7.96903133392334,2.960167407989502,2.8548970222473145,-0.3479100465774536
41.8,6.647605895996094,3.9187777042388916,4.038842678070068,-0.3650932312011719,2.770939826965332,0.6161757111549377
41.85,4.137657165527344,5.230007171630859,-6.507305145263672,-5.784972667694092,1.3715728521347046,2.8680152893066406
41.9,-8.738868713378906,-2.973484992980957,-5.841188430786133,-5.651853561401367,1.7127470970153809,4.639547348022461
41.95,-6.585607528686523,-0.6158788800239563,-4.012162685394287,-0.6833122372627258,-0.18240021169185638,2.1732468605041504
42.0,-3.7310614585876465,1.3668873310089111,-2.7657766342163086,0.5022352933883667,-0.5766556262969971,1.2231535911560059
42.05,-3.786226272583008,1.5845855474472046,-4.581415176391602,-0.8068252801895142,-0.27846765518188477,1.42070472240448
42.1,-4.380767822265625,-0.8086090087890625,-4.7631964683532715,-1.4521998167037964,-1.0880188941955566,2.185116767883301
42.15,-3.2680373191833496,0.11455732583999634,-4.656039237976074,-0.806455671787262,-1.712580919265747,2.3434197902679443
42.2,-1.812230110168457,0.38388922810554504,-4.893427848815918,-0.37884655594825745,-1.03657066822052,1.1815840005874634
42.25,-1.4117262363433838,0.07228565216064453,-3.0375142097473145,0.09740215539932251,-0.6115673184394836,1.1400002241134644
42.3,-0.8481807708740234,0.6285887360572815,-2.161088228225708,0.5143653750419617,-0.09239359200000763,0.5645565390586853
42.35,0.4747922718524933,2.495967149734497,-1.461971640586853,0.9260764122009277,0.08442360162734985,0.015106265433132648
42.4,2.2265710830688477,3.659942150115967,0.849285900592804,1.1218665838241577,-0.45855626463890076,0.3048633635044098
42.45,3.3060970306396484,3.5609629154205322,-0.6122830510139465,0.32107535004615784,-0.27820783853530884,-0.09453503787517548
42.5,2.3804843425750732,1.2292510271072388,2.6318421363830566,-0.09876757860183716,1.1327476501464844,-0.41958826780319214
42.55,-2.8255834579467773,3.2215611934661865,6.671237945556641,0.9396256804466248,1.4953334331512451,-0.4113197922706604
42.6,-2.623844861984253,0.5024312138557434,3.5201668739318848,-1.4583423137664795,-1.0594515800476074,-0.4182710647583008
42.65,2.8794045448303223,-0.9533368945121765,2.398106336593628,-1.688732385635376,-2.3114848136901855,0.42750102281570435
42.7,0.3609658479690552,2.006730318069458,3.2476556301116943,-0.11828666180372238,-0.23291219770908356,0.2705674469470978
42.75,0.3332265615463257,1.713313341140747,2.495481491088867,-0.05105343088507652,-0.0029996978119015694,0.02037569135427475
42.8,1.1354167461395264,0.3593463897705078,1.4986618757247925,-0.49586281180381775,-0.6915705800056458,0.6396494507789612
42.85,0.594302773475647,0.7082672715187073,2.0818357467651367,-0.31597280502319336,-0.19639848172664642,0.561995267868042
42.9,0.9403260946273804,-0.4645586311817169,2.389116048812866,-0.22195899486541748,0.3235820233821869,-0.01096209418028593
42.95,1.6984193325042725,-2.343714952468872,0.8266199827194214,-0.45778316259384155,0.4830545485019684,-0.4180859625339508
43.0,-0.2697353959083557,-2.9212048053741455,1.437660813331604,-0.4516763687133789,1.703338384628296,-1.0680614709854126
43.05,5.321498870849609,4.702775001525879,1.0894792079925537,1.4769346714019775,1.3829247951507568,-1.908867597579956
43.1,8.332833290100098,7.897725582122803,-0.9865686893463135,0.6574811339378357,1.1812952756881714,-1.1106204986572266
43.15,1.382871150970459,4.2437663078308105,-5.137969493865967,-1.4648361206054688,0.6086824536323547,1.6467020511627197
43.2,-1.456153154373169,1.7598830461502075,-6.465167999267578,-1.6407296657562256,-0.47179627418518066,3.627987861633301
43.25,-3.4601314067840576,0.13801579177379608,-5.671106338500977,-1.2234326601028442,0.9299176335334778,2.8413548469543457
43.3,-5.555169105529785,-1.1577414274215698,-3.631366729736328,-1.1608582735061646,2.272651433944702,1.9638100862503052
43.35,-6.248836517333984,-3.6252191066741943,-1.7228269577026367,-1.3944193124771118,2.4420928955078125,1.491083025932312
43.4,-5.298415184020996,-6.023074626922607,-0.21352040767669678,-1.1396570205688477,2.004944324493408,1.3585989475250244
43.45,-3.176640510559082,-6.34525728225708,0.7746685743331909,-0.5050818920135498,1.5909621715545654,0.6730303168296814
43.5,-2.826990842819214,-5.7910284996032715,2.389580726623535,0.27170422673225403,1.4429436922073364,-0.07198621332645416
43.55,-1.5665594339370728,-5.736926078796387,3.6866676807403564,0.5537102222442627,0.9121008515357971,-0.5794127583503723
43.6,-0.6291689872741699,-4.192720890045166,4.687442779541016,1.0291929244995117,0.3962725102901459,-1.389857292175293
43.65,-0.00498044490814209,-3.5303685665130615,4.2993245124816895,1.2585043907165527,-0.5731717944145203,-1.7171614170074463
43.7,3.1620779037475586,2.0335943698883057,1.9473161697387695,2.3545665740966797,-2.082771062850952,-1.7208428382873535
43.75,6.14841365814209,3.548753023147583,1.692711353302002,1.5961498022079468,-2.0310959815979004,-1.051493763923645
43.8,7.100491523742676,2.9729795455932617,2.3585071563720703,0.9204951524734497,-1.9143710136413574,0.2193448841571808
43.85,5.61585807800293,4.250813007354736,3.6106066703796387,0.3766782283782959,-0.8477252721786499,0.5323764085769653
43.9,3.007567882537842,1.6417180299758911,3.346128463745117,-0.5260237455368042,-0.25053080916404724,0.7843361496925354
43.95,2.1938092708587646,-0.7245293855667114,2.337911367416382,-0.6633546352386475,-0.8591452240943909,1.500192403793335
44.0,1.868140697479248,-2.669080972671509,0.9760475158691406,-1.0663251876831055,-0.8053521513938904,1.5055243968963623
44.05,0.2769125998020172,-3.817232608795166,0.6761456727981567,-0.9937347173690796,-0.1820807009935379,1.5002505779266357
44.1,-0.5482314229011536,-5.0301690101623535,0.3181275725364685,-1.1443135738372803,0.19725486636161804,0.9993706941604614
44.15,-1.1665687561035156,-3.5233683586120605,-2.3647637367248535,-0.5373280048370361,-0.004189564846456051,0.6366586685180664
44.2,-1.6071016788482666,-0.42239198088645935,-3.9670445919036865,0.31792792677879333,0.25189924240112305,-0.16194254159927368
44.25,-3.003506898880005,6.542503356933594,-4.509194850921631,1.0865644216537476,0.6925517320632935,-0.4651724696159363
44.3,-4.211809158325195,1.542904257774353,-1.8271965980529785,-0.3852989673614502,1.1372401714324951,0.00662576500326395
44.35,-5.204288959503174,-1.1722162961959839,0.5036107897758484,0.06727439910173416,0.9311046004295349,0.32852980494499207
44.4,-3.728774309158325,-1.1669654846191406,-1.5018157958984375,0.32205843925476074,-0.582912266254425,0.5795276165008545
44.45,-2.5182418823242188,-0.053597383201122284,-2.0536489486694336,0.40241748094558716,-0.8409082293510437,0.13939209282398224
44.5,-3.1001291275024414,1.6457589864730835,-0.870927095413208,0.6748224496841431,-0.21968768537044525,-0.5881893038749695
44.55,-2.9143524169921875,0.07023735344409943,1.3025736808776855,0.1375858187675476,0.2010067254304886,-1.2530831098556519
44.6,-1.901023030281067,0.9751542210578918,3.456080436706543,0.09805917739868164,0.7016587257385254,-2.252268075942993
44.65,-1.1407290697097778,3.467942714691162,1.3279730081558228,-0.31944721937179565,0.5365651249885559,-2.9144675731658936
44.7,0.14019763469696045,8.569311141967773,1.9177360534667969,-0.011046528816223145,0.005577432457357645,-2.6424574851989746
44.75,-0.6415551900863647,5.241420269012451,3.158172130584717,-0.9476642608642578,0.3727204203605652,-2.372659921646118
44.8,0.845192551612854,4.1846442222595215,1.2229483127593994,-1.3842207193374634,-0.26232603192329407,-1.995284914970398
44.85,2.717188835144043,3.976884126663208,0.09867584705352783,-1.2646313905715942,-0.8931397795677185,-1.2422425746917725
44.9,2.4539904594421387,-0.5894348621368408,-1.4181157350540161,-2.0499911308288574,-0.49273303151130676,-0.8651553392410278
44.95,4.516890525817871,-3.2129886150360107,-3.6825571060180664,-2.2720131874084473,-0.5128515958786011,-0.07539442181587219
45.0,2.1134033203125,-6.307689189910889,-3.5733730792999268,-2.064195394515991,0.34343308210372925,-0.03781948611140251
45.05,2.9227354526519775,-4.528223514556885,-2.609355926513672,-0.4516131281852722,-0.16771014034748077,1.164952039718628
45.1,1.1804155111312866,-4.736180305480957,-1.43696928024292,-0.10637408494949341,0.10171633958816528,1.5394431352615356
45.15,0.8823734521865845,-1.0999470949172974,-0.2824673056602478,1.1146159172058105,0.07887411117553711,1.9782835245132446
45.2,0.04783794283866882,0.07355692237615585,0.6982213854789734,1.4232982397079468,0.04599355533719063,2.1803066730499268
45.25,2.4343128204345703,1.0037927627563477,2.0710973739624023,1.0838690996170044,-0.3907046616077423,2.6212122440338135
45.3,3.768761157989502,1.6596804857254028,3.4152019023895264,0.8637154698371887,-0.042955055832862854,2.347014904022217
45.35,5.106424331665039,1.3545970916748047,3.6947250366210938,0.20727556943893433,0.306093692779541,1.953618049621582
45.4,3.3479576110839844,6.000324249267578,3.1672580242156982,0.6934877634048462,1.6719765663146973,1.1256510019302368
45.45,1.6108570098876953,3.8885035514831543,0.3454819917678833,-0.9596720337867737,2.6888041496276855,-0.4799407720565796
45.5,-6.467111587524414,6.041718006134033,-0.09713542461395264,-1.3453178405761719,3.584172487258911,-0.8735044598579407
45.55,-10.418935775756836,3.6006011962890625,-0.24100854992866516,-2.6698341369628906,3.1098318099975586,-1.3038885593414307
45.6,-12.886144638061523,-1.7968382835388184,-0.42541754245758057,-2.3274765014648438,1.1985836029052734,0.36828482151031494
45.65,-10.22756576538086,-4.787736892700195,-0.7396400570869446,-0.13218015432357788,-0.6789411306381226,1.0136905908584595
45.7,-6.924442768096924,-5.792160987854004,-1.9385336637496948,0.8568405508995056,-2.1829731464385986,0.8963702917098999
45.75,-4.653486251831055,-6.361011505126953,-2.871385097503662,0.949697732925415,-2.966770887374878,0.25558480620384216
45.8,-2.310215473175049,-4.534381866455078,-4.0213141441345215,1.8213462829589844,-3.4126100540161133,-0.3387623131275177
45.85,0.08546710014343262,-2.2695958614349365,-4.119254112243652,1.8830348253250122,-3.24993634223938,-1.3988269567489624
45.9,1.5347086191177368,-1.891552448272705,-3.9602417945861816,2.1618807315826416,-2.674558162689209,-2.4714744091033936
45.95,3.7984025478363037,-0.6502478718757629,-2.372899293899536,2.823652505874634,-2.592978000640869,-2.3535375595092773
46.0,4.580430507659912,0.5272272229194641,-0.5293248295783997,3.2255117893218994,-1.7346065044403076,-2.5032567977905273
46.05,5.1711812019348145,1.2054146528244019,0.9270361065864563,3.5169785022735596,-1.2600321769714355,-2.3820321559906006
46.1,5.816356182098389,1.7848129272460938,1.6617408990859985,3.6407623291015625,-0.6984360814094543,-2.4205384254455566
46.15,6.777886867523193,2.7593202590942383,5.052586078643799,4.4928483963012695,0.057083193212747574,-2.3183085918426514
46.2,5.976744174957275,2.4271090030670166,10.350287437438965,6.223078727722168,2.0040154457092285,-0.540706992149353
46.25,3.2334625720977783,0.5323908925056458,15.324251174926758,7.732025146484375,3.6070961952209473,1.3563566207885742
46.3,0.631101131439209,-4.151727199554443,16.538990020751953,4.640628814697266,3.533160924911499,1.7559367418289185
46.35,1.836902379989624,-1.257771372795105,11.418465614318848,-1.7274924516677856,2.314761161804199,1.477803349494934
46.4,1.0459972620010376,1.8363994359970093,5.2732954025268555,-5.087263584136963,0.8846140503883362,1.7058454751968384
46.45,1.3588275909423828,2.3929998874664307,-1.1401058435440063,-5.216150283813477,-0.6133923530578613,1.4843424558639526
46.5,3.5892701148986816,3.8605968952178955,-5.171482086181641,-3.585974931716919,-1.4700558185577393,1.546602725982666
46.55,2.39650559425354,4.3991851806640625,-6.950549125671387,-1.9675166606903076,-0.39370113611221313,1.8947237730026245
46.6,-1.2376234531402588,3.064257860183716,-8.053793907165527,-1.9604649543762207,0.23165297508239746,2.6643223762512207
46.65,-5.249212265014648,1.3255425691604614,-8.262197494506836,-1.921549916267395,-0.12777996063232422,3.5742146968841553
46.7,-6.4465250968933105,-1.2805976867675781,-7.742708206176758,-1.478810429573059,-0.30752941966056824,3.247357130050659
46.75,-6.472123146057129,-3.282792329788208,-5.728585720062256,-0.874667227268219,-0.17751047015190125,2.3623995780944824
46.8,-6.8953351974487305,-4.863192558288574,-3.905050039291382,-0.25566691160202026,0.02437123842537403,1.621679425239563
46.85,-7.374019622802734,-5.5947394371032715,-2.4997479915618896,0.3097066879272461,-0.2430557757616043,0.8536359667778015
46.9,-7.343082427978516,-5.914205551147461,-2.368791341781616,0.6678400039672852,-0.7368348836898804,-0.25026175379753113
46.95,-8.158754348754883,-4.091554164886475,-3.951509714126587,1.2315514087677002,-1.7452346086502075,-1.2148667573928833
47.0,-7.442222595214844,1.1115010976791382,-7.6170759201049805,1.9452930688858032,-3.4480443000793457,-2.1278069019317627
47.05,-0.8538494110107422,8.982416152954102,-11.118239402770996,2.316011428833008,-5.868105411529541,-3.156797170639038
47.1,12.19725227355957,12.642034530639648,-6.799736976623535,2.13905668258667,-8.502511978149414,-4.203692436218262
47.15,16.418691635131836,3.2931315898895264,6.910754203796387,1.7212833166122437,-9.59921646118164,-4.676111221313477
47.2,7.052253246307373,-3.0762510299682617,13.35681438446045,1.8397927284240723,-6.614926338195801,-2.075096607208252
47.25,4.951687335968018,-1.755610704421997,9.46808910369873,1.23189377784729,-0.954880952835083,1.4469428062438965
47.3,4.19793701171875,-2.521517515182495,6.133865833282471,1.1005390882492065,1.6032906770706177,1.901931643486023
47.35,3.120008945465088,-3.3641715049743652,4.506201267242432,1.1654024124145508,1.9378188848495483,1.4025765657424927
47.4,1.78384530544281,-2.195260763168335,3.676025152206421,0.4990331530570984,0.8442889451980591,1.4550539255142212
47.45,0.2816563844680786,-1.369248390197754,4.827465534210205,-0.14143574237823486,-0.9494076371192932,1.348251223564148
47.5,-2.132725238800049,-0.9508265256881714,5.555608749389648,-0.7613359689712524,-1.3995130062103271,1.0342938899993896
47.55,-3.2783257961273193,1.1960233449935913,3.8428454399108887,-1.0297805070877075,0.46616145968437195,1.567927598953247
47.6,-3.7290875911712646,2.313427448272705,0.6565183401107788,-1.062309741973877,2.0182137489318848,1.614857792854309
47.65,-3.3807454109191895,1.081559419631958,-1.468929409980774,-0.9675111770629883,1.4789650440216064,0.6683381199836731
47.7,-2.7863941192626953,0.4477636218070984,-0.7721561789512634,-0.9936838150024414,0.09460261464118958,-0.3127925395965576
47.75,-0.9659776091575623,0.46646320819854736,-0.19127658009529114,-1.080594778060913,-0.529747724533081,-1.0847982168197632
47.8,0.9738090634346008,-0.3799792230129242,0.38227200508117676,-0.7905431389808655,-0.07386557012796402,-1.5185070037841797
47.85,1.7465072870254517,-1.1184914112091064,0.09768461436033249,-0.3909716308116913,1.078376293182373,-1.0681467056274414
47.9,1.6510390043258667,-0.5735389590263367,-1.0019854307174683,-0.22121664881706238,1.779595136642456,-0.057746000587940216
47.95,0.5858976244926453,0.22996899485588074,-0.9199745059013367,-0.2368321269750595,1.523381233215332,0.6460586190223694
48.0,-0.37901243567466736,0.5666170716285706,-1.0550434589385986,-0.23018991947174072,1.6079628467559814,0.8373925089836121
48.05,-1.1337014436721802,0.6786375641822815,-1.5015161037445068,-0.34456542134284973,1.613046646118164,0.7569233775138855
48.1,-1.6915769577026367,0.5758124589920044,-2.111971616744995,-0.6343730092048645,1.1624259948730469,0.557912290096283
48.15,-1.8596444129943848,0.309512197971344,-2.615741491317749,-0.8111090064048767,0.6021594405174255,0.3782699704170227
48.2,-2.1825008392333984,-0.1465463489294052,-3.1575493812561035,-0.6428839564323425,0.32264983654022217,0.26246488094329834
48.25,-2.1070756912231445,-0.24332429468631744,-3.630492925643921,-0.28368237614631653,-0.21775075793266296,0.12643872201442719
48.3,-0.8281559944152832,-1.4085160493850708,-2.5768966674804688,0.10749724507331848,-1.0479278564453125,-0.1987394541501999
48.35,0.36193859577178955,-1.050727128982544,-3.0567333698272705,0.4176498353481293,-1.6156294345855713,-0.43037524819374084
48.4,2.0459680557250977,2.018059730529785,-3.978178024291992,0.39728087186813354,-2.7527949810028076,-0.813739538192749
48.45,3.9551186561584473,3.6365749835968018,-0.8675644397735596,1.1232784986495972,-3.5323569774627686,-1.4582844972610474
48.5,4.803632736206055,0.8492574095726013,2.789233684539795,2.363172769546509,-3.233116865158081,-1.2150651216506958
48.55,2.378126382827759,-0.047386154532432556,5.295666694641113,1.7617042064666748,-3.382082939147949,0.06923065334558487
48.6,-0.46399807929992676,0.41211727261543274,6.142552375793457,1.0812567472457886,-2.2040622234344482,1.1026968955993652
48.65,-0.49751901626586914,0.03226296231150627,4.671791076660156,1.0312108993530273,-0.14951780438423157,1.3118252754211426
48.7,-0.15360426902770996,-0.5941819548606873,4.073214530944824,0.8284350037574768,-0.36807602643966675,0.6768971085548401
48.75,-1.1702556610107422,-1.5612144470214844,5.659295082092285,0.7146744728088379,-1.7644221782684326,-0.07682409882545471
48.8,-2.1676931381225586,-1.901632308959961,6.534448623657227,0.4050830006599426,-1.8552350997924805,-0.19932639598846436
48.85,-2.6852736473083496,-1.368736982345581,5.9600090980529785,-0.13365988433361053,-1.2399603128433228,-0.07418131083250046
48.9,-3.4678611755371094,-0.9052656292915344,4.974396705627441,-0.7010723352432251,-0.6045405864715576,-0.073470838367939
48.95,-3.1558756828308105,0.9131683111190796,3.091032028198242,-1.3627090454101562,0.5646281242370605,0.19135984778404236
49.0,-2.253823757171631,2.6920418739318848,0.9138438701629639,-1.6122419834136963,1.3459672927856445,-0.04748532921075821
49.05,-1.1860721111297607,3.044872760772705,-1.3336381912231445,-1.6509921550750732,1.276381015777588,-0.5964803695678711
