Time [s],Acc_x [m/s^2],Acc_y [m/s^2],Acc_z [m/s^2],Gyro_x [1/s],Gyro_y [1/s],Gyro_z [1/s]
0.0,-0.1918896734714508,0.15303519368171692,0.012960689142346382,0.005264664068818092,-0.036911748349666595,-0.009466594085097313
0.05,-0.19881026446819305,0.15354254841804504,0.014932164922356606,0.005292474292218685,-0.03690648823976517,-0.009471582248806953
0.1,-0.3136919140815735,0.16621211171150208,-0.0260853823274374,0.003964114934206009,-0.06562333554029465,-0.012583769857883453
0.15,-0.6590521335601807,0.15757374465465546,-0.1495463103055954,0.0007821684703230858,-0.2207898497581482,-0.019598187878727913
0.2,-0.9047541618347168,0.018584294244647026,-0.24153676629066467,0.012639405205845833,-0.5229310393333435,-0.008536477573215961
0.25,-1.1103662252426147,-0.006278947461396456,-0.4909801781177521,0.05722732096910477,-0.9554474949836731,0.0029601275455206633
0.3,-0.4911611080169678,0.05149461701512337,-0.46895721554756165,0.12468566745519638,-1.4734572172164917,-0.004454439971596003
0.35,0.2102624624967575,0.1382284164428711,-0.20711545646190643,0.1804378628730774,-1.7174592018127441,-0.033164557069540024
0.4,0.47472333908081055,0.19036197662353516,0.03518218919634819,0.1906788945198059,-1.6012272834777832,-0.04181508347392082
0.45,0.5153138637542725,0.1338977813720703,0.2507700026035309,0.16975751519203186,-1.3214401006698608,-0.038886766880750656
0.5,0.45820295810699463,0.1548480987548828,0.30647075176239014,0.16101771593093872,-0.9886031746864319,-0.015664778649806976
0.55,0.31887999176979065,0.1718759536743164,0.26546943187713623,0.1437118947505951,-0.6984893679618835,-0.008050174452364445
0.6,0.17098468542099,0.16950799524784088,0.1478598564863205,0.13372159004211426,-0.4837549924850464,-0.014467264525592327
0.65,0.020215563476085663,0.14380551874637604,0.07255269587039948,0.11113914847373962,-0.35551851987838745,-0.0237430427223444
0.7,-0.014582330361008644,0.17078591883182526,0.048312220722436905,0.0908544734120369,-0.2826584279537201,-0.02876836061477661
0.75,-0.008114255964756012,0.1483316570520401,-0.014089382253587246,0.06733987480401993,-0.22558224201202393,-0.02527298592031002
0.8,-0.04271037131547928,0.1624746471643448,-0.006927271839231253,0.036142438650131226,-0.17402969300746918,-0.009011372923851013
0.85,0.0256413035094738,0.1684446483850479,0.052751798182725906,0.013494380749762058,-0.12318887561559677,0.0017272724071517587
0.9,-0.010790400207042694,0.15238095819950104,0.07684823870658875,0.016579532995820045,-0.0731559470295906,-0.008008579723536968
0.95,-0.003920631483197212,0.10344411432743073,0.04378260672092438,0.026409253478050232,-0.027967531234025955,-0.018929775804281235
1.0,-0.058020491153001785,0.06954384595155716,-0.04185496270656586,0.03354236111044884,0.006349704694002867,-0.01517317071557045
1.05,-0.018273457884788513,0.08562660962343216,-0.06499942392110825,0.028918661177158356,0.01956920512020588,0.010585471987724304
1.1,-0.015801314264535904,0.103761687874794,0.00453744875267148,0.010597842745482922,0.03906961530447006,0.03242955729365349
1.15,-0.03933211416006088,0.09548093378543854,0.026712903752923012,0.003317008726298809,0.06040874868631363,0.03773745521903038
1.2,-0.0393446609377861,0.05509377643465996,0.05509766563773155,0.022504320368170738,0.06537065654993057,0.039586350321769714
1.25,-0.17602235078811646,0.028375642374157906,0.1166132390499115,0.05263799428939819,0.07149753719568253,0.05765974894165993
1.3,-0.33158159255981445,-0.04944704473018646,0.2412520945072174,0.07618770003318787,0.0896710753440857,0.09848125278949738
1.35,-0.44112372398376465,-0.2566261291503906,0.35971716046333313,0.12462501227855682,0.10447996854782104,0.14408686757087708
1.4,-0.4371536374092102,-0.44617751240730286,0.15106022357940674,0.2616412043571472,0.10574024170637131,0.23247364163398743
1.45,-0.11049628257751465,0.03343582525849342,-0.2535143196582794,0.4156470000743866,0.050253864377737045,0.34631413221359253
1.5,0.3532831072807312,0.4741230309009552,-0.19037635624408722,0.4092068374156952,-0.06744518131017685,0.3516993224620819
1.55,0.4950066804885864,0.7569361925125122,0.06894052028656006,0.3174765110015869,-0.13674123585224152,0.2415553778409958
1.6,0.3460736870765686,0.5264301896095276,0.3682243227958679,0.2114659994840622,-0.11712480336427689,0.09681379050016403
1.65,0.05166184902191162,0.0237054992467165,0.5784531235694885,0.11893156170845032,-0.051134832203388214,0.04061606153845787
1.7,-0.14760878682136536,-0.41564658284187317,0.6980604529380798,0.08877068758010864,-0.05331411585211754,0.08026514947414398
1.75,-0.2869226932525635,-0.4351682960987091,0.7204033136367798,0.16756588220596313,-0.1578613817691803,0.11825559288263321
1.8,-0.3745717704296112,-0.3500652313232422,0.5604616403579712,0.2631937861442566,-0.33827123045921326,0.10001485794782639
1.85,-0.27665185928344727,-0.29494380950927734,0.11004495620727539,0.2899554967880249,-0.5432915091514587,0.047207240015268326
1.9,0.044043928384780884,-0.42437273263931274,-0.2756832540035248,0.2400842159986496,-0.717735230922699,0.01635085977613926
1.95,0.381277471780777,0.39665988087654114,-0.33977970480918884,0.2512204945087433,-0.7878261804580688,0.03912479802966118
2.0,0.20811142027378082,1.0246526002883911,-0.6824167966842651,0.27369406819343567,-0.6336002945899963,-0.05401192605495453
2.05,-0.16396909952163696,1.0810014009475708,-1.024393916130066,0.1861247569322586,-0.3688136637210846,-0.2024497091770172
2.1,-0.6026450991630554,0.5443382859230042,-1.3730164766311646,0.03215669095516205,-0.1520807296037674,-0.3343411684036255
2.15,-1.0384125709533691,-0.23418618738651276,-1.6920020580291748,-0.10872070491313934,-0.09950563311576843,-0.26589876413345337
2.2,-0.9447206258773804,-5.81646672799252e-05,-1.4568822383880615,-0.24714764952659607,-0.3161536157131195,-0.03004111722111702
2.25,-0.8251989483833313,0.13320733606815338,-1.7250311374664307,-0.355447918176651,-0.7320865988731384,-0.02246914617717266
2.3,-0.39960652589797974,0.8285256028175354,-2.876781940460205,-0.2731786370277405,-1.4065971374511719,-0.21460862457752228
2.35,0.9800945520401001,2.134213447570801,-4.347461700439453,-0.19762790203094482,-2.283041000366211,-0.519027829170227
2.4,3.058049201965332,2.1806201934814453,-4.332931995391846,-0.2101348638534546,-3.08963680267334,-0.902362585067749
2.45,2.867438793182373,0.0809362381696701,-1.6693079471588135,-0.05629312992095947,-3.452272415161133,-1.1961663961410522
2.5,0.9327367544174194,-1.9900095462799072,0.4730024039745331,-0.060609281063079834,-3.093284845352173,-0.9858902096748352
2.55,-0.633492648601532,-2.120781183242798,1.4775549173355103,-0.26174986362457275,-2.1631555557250977,-0.4329628050327301
2.6,-0.9414981603622437,-0.4620361328125,0.7685142159461975,-0.34984397888183594,-1.0077165365219116,-0.05920542776584625
2.65,-0.8455477952957153,1.4493190050125122,-0.5329358577728271,-0.31724223494529724,-0.2297593504190445,-0.08818574994802475
2.7,-1.0041935443878174,1.4265586137771606,-2.0746500492095947,-0.27310502529144287,0.023275909945368767,-0.4006195366382599
2.75,-1.0234646797180176,-0.8491708040237427,-2.8197553157806396,-0.3379009962081909,-0.07573259621858597,-0.6359103322029114
2.8,-0.7878190875053406,-1.573960542678833,-1.9181019067764282,-0.5447676777839661,-0.3443007171154022,-0.48999151587486267
2.85,-0.29681336879730225,-0.3022041618824005,-0.3785548508167267,-0.7114738821983337,-0.698250412940979,-0.13687251508235931
2.9,1.1221946477890015,0.4894265830516815,-0.5691912770271301,-0.5846197009086609,-1.186539649963379,0.06111166253685951
2.95,1.5803649425506592,0.46428775787353516,0.8625935912132263,-0.5880933403968811,-2.2090132236480713,0.08934065699577332
3.0,-0.416301965713501,1.0287516117095947,4.314485549926758,-0.740702211856842,-3.0620152950286865,0.2696203887462616
3.05,-1.9978218078613281,0.21900202333927155,4.406662940979004,-0.43286463618278503,-2.726714611053467,0.523572564125061
3.1,-1.0967575311660767,-0.2589367926120758,2.2735962867736816,-0.188888818025589,-1.8146055936813354,0.7841849327087402
3.15,-0.16989704966545105,-0.456546813249588,0.7493399977684021,-0.1592240035533905,-1.3059405088424683,0.7211460471153259
3.2,0.28874528408050537,-0.643257200717926,0.09180763363838196,-0.13262365758419037,-1.253945231437683,0.4898919463157654
3.25,-0.1327500343322754,-0.9007292985916138,-0.11708401143550873,-0.017805546522140503,-1.4710139036178589,0.24021919071674347
3.3,-0.5316759347915649,-1.2576686143875122,-0.3311602771282196,0.11119528859853745,-1.5706474781036377,0.18829528987407684
3.35,-0.2179592400789261,-0.46433931589126587,-0.4865565001964569,0.06930819898843765,-1.4867639541625977,0.2700437605381012
3.4,-0.359600305557251,0.8789054155349731,-0.2041230946779251,0.006048254668712616,-1.47139573097229,0.22833290696144104
3.45,-0.38961514830589294,1.839799165725708,-0.1639382392168045,0.10825678706169128,-1.4155633449554443,0.1793307214975357
3.5,0.2042182981967926,2.4241325855255127,0.08258270472288132,0.26149189472198486,-1.30880606174469,0.10792294144630432
3.55,0.4473590850830078,2.982574701309204,0.5698383450508118,0.4714493453502655,-1.365656852722168,-0.011076263152062893
3.6,0.08512856066226959,2.649914026260376,0.6797329783439636,0.830337405204773,-1.5172157287597656,-0.07632401585578918
3.65,0.5449405908584595,1.077926754951477,-0.051042865961790085,1.151970624923706,-1.4402738809585571,0.09523487091064453
3.7,2.5240681171417236,-0.39290159940719604,0.09423432499170303,1.152806043624878,-1.2158223390579224,0.39188650250434875
3.75,3.317844867706299,-1.471247911453247,0.7607496380805969,1.0393835306167603,-1.2682362794876099,0.3969300389289856
3.8,1.5488208532333374,-2.505457639694214,0.5529196858406067,1.0800554752349854,-1.4912956953048706,-0.00854784157127142
3.85,0.5052013397216797,-1.8351871967315674,-0.09183800965547562,0.8228588700294495,-1.5193301439285278,-0.1961556226015091
3.9,0.9655442833900452,-1.2570620775222778,-0.028551265597343445,0.45610544085502625,-1.2959976196289062,-0.07139886915683746
3.95,0.6669242978096008,-1.3040763139724731,-0.3503756821155548,0.34376853704452515,-1.0638785362243652,-0.11130940169095993
4.0,0.3013225793838501,-1.155396580696106,-0.5741915106773376,0.23761902749538422,-0.7851678729057312,-0.2756206691265106
4.05,0.2826732397079468,-0.6583262085914612,-0.49632057547569275,0.02446626126766205,-0.5325371026992798,-0.3900754749774933
4.1,0.01427963376045227,0.4756985306739807,-0.2461037039756775,-0.2443455010652542,-0.36759859323501587,-0.4917978346347809
4.15,-0.5555257201194763,2.3555290699005127,0.1536577343940735,-0.2777397632598877,-0.1439453810453415,-0.4561973512172699
4.2,-0.49282106757164,3.132997989654541,0.3642575442790985,0.15148256719112396,0.24924322962760925,-0.2046160250902176
4.25,0.19637759029865265,2.131192445755005,0.7351230382919312,0.5635350942611694,0.5852258205413818,0.009713326580822468
4.3,1.0368672609329224,-1.3125211000442505,0.9537392258644104,0.5396834015846252,0.532183825969696,0.10725586116313934
4.35,0.04746764898300171,-0.5899553894996643,0.47096648812294006,0.12693840265274048,0.2381034940481186,-0.09574779123067856
4.4,-0.6322158575057983,-0.05043407529592514,0.3739432394504547,-0.3722076416015625,0.2924676537513733,-0.22858496010303497
4.45,-0.5432143211364746,0.16064172983169556,0.6085591316223145,-0.6416945457458496,0.6459555625915527,-0.31501415371894836
4.5,0.23855504393577576,-0.032588936388492584,1.3500810861587524,-0.5927269458770752,0.9378265738487244,-0.24773190915584564
4.55,0.5825609564781189,-0.9603596925735474,0.8324896097183228,-0.3134500980377197,0.781431257724762,-0.16228775680065155
4.6,0.549596905708313,-0.7658225297927856,0.3382696509361267,-0.18020334839820862,0.5592221617698669,-0.19751262664794922
4.65,0.6714134216308594,-0.6437979936599731,-0.10985685139894485,-0.026167377829551697,0.3302217721939087,-0.21670669317245483
4.7,0.44378501176834106,-0.3196106553077698,-0.5768944025039673,-0.028078272938728333,0.11909793317317963,-0.23495708405971527
4.75,0.29274529218673706,-0.2149859070777893,-0.765007734298706,-0.038256675004959106,-0.008195586502552032,-0.3110039532184601
4.8,0.5849729180335999,0.2638539969921112,-0.6175284385681152,-0.06194785237312317,-0.16830620169639587,-0.4839285612106323
4.85,1.2235889434814453,0.8472071290016174,-0.12589557468891144,-0.10953168570995331,-0.6163626909255981,-0.6183456182479858
4.9,1.3825962543487549,0.11878295987844467,0.8040499687194824,-0.22339919209480286,-1.4561768770217896,-0.6893991231918335
4.95,-0.3051222562789917,-0.8681098222732544,0.3788378834724426,-0.35680362582206726,-2.449073076248169,-0.6567409634590149
5.0,-0.6796059012413025,0.3187733292579651,-0.12182862311601639,-0.7017166614532471,-2.8012642860412598,-0.3952169120311737
5.05,0.13892310857772827,0.08414080739021301,0.9917599558830261,-1.0669959783554077,-2.547487735748291,-0.07871443033218384
5.1,0.13870322704315186,-0.06102558597922325,1.761649250984192,-1.1843900680541992,-2.3502142429351807,-0.11164393275976181
5.15,-0.013364911079406738,0.4529935121536255,1.713125228881836,-1.0083224773406982,-2.1877849102020264,-0.30450132489204407
5.2,-0.03398537635803223,0.9269573092460632,1.4825854301452637,-0.6131967306137085,-2.043142080307007,-0.3387625813484192
5.25,0.11896735429763794,0.7776815295219421,1.3431131839752197,-0.3123360276222229,-1.981741189956665,-0.2574666142463684
5.3,0.3379265069961548,0.4196987748146057,1.1773089170455933,-0.16623255610466003,-2.0520336627960205,-0.17505685985088348
5.35,0.15797486901283264,-0.23209191858768463,1.0543427467346191,-0.13322806358337402,-2.172722816467285,-0.11846516281366348
5.4,-0.0641997754573822,-0.14378546178340912,0.9170756340026855,-0.08972815424203873,-2.2643604278564453,-0.14276820421218872
5.45,-0.2745894491672516,0.22728735208511353,0.5703545808792114,-0.04361546039581299,-2.2015841007232666,-0.11395484209060669
5.5,-0.2489105612039566,0.4725876748561859,0.47766464948654175,-0.05256034433841705,-2.01462459564209,-0.022574998438358307
5.55,-0.2597406506538391,0.14071469008922577,0.6368629932403564,-0.07832114398479462,-1.7724640369415283,0.09917552769184113
5.6,-0.20036053657531738,0.030868560075759888,0.5903179049491882,-0.024821922183036804,-1.6012568473815918,0.1230887845158577
5.65,-0.12334752082824707,-0.09571551531553268,0.516329288482666,-0.007749643176794052,-1.4441049098968506,0.07351011037826538
5.7,-0.11257374286651611,-0.4348001778125763,0.34217920899391174,-0.007069858256727457,-1.2660930156707764,0.006916075013577938
5.75,-0.20814919471740723,-0.6173840165138245,0.09583315998315811,0.002137448638677597,-1.0437085628509521,-0.08820809423923492
5.8,-0.35553085803985596,-0.08827684819698334,0.030921900644898415,0.012672573328018188,-0.7710373997688293,-0.17968767881393433
5.85,-0.6159546971321106,0.7140990495681763,0.04289282485842705,0.014526993036270142,-0.5240275263786316,-0.1989966630935669
5.9,-0.5940123796463013,0.936083972454071,-0.032821495085954666,-0.0014672186225652695,-0.44323769211769104,-0.05305172875523567
5.95,-0.15120847523212433,0.22556115686893463,-0.6806355118751526,-0.04880710318684578,-0.5427005887031555,0.07768531888723373
6.0,0.16865652799606323,0.2793874740600586,-0.7236586809158325,-0.10751912742853165,-0.5375445485115051,-0.0033941776491701603
6.05,0.4847010672092438,0.5218782424926758,-0.7523356080055237,-0.09525982290506363,-0.5175626873970032,0.05760430172085762
6.1,0.7155666351318359,0.9648171067237854,-0.7625832557678223,0.03273440897464752,-0.5696266889572144,0.12124823033809662
6.15,0.8365690112113953,0.7598095536231995,-0.8356872200965881,0.16225701570510864,-0.7030538320541382,0.1952812373638153
6.2,0.8401461839675903,0.1844749003648758,-0.6127667427062988,0.18212126195430756,-0.8325634598731995,0.2505761682987213
6.25,1.0530636310577393,-1.093750238418579,-0.42727911472320557,0.11971317231655121,-0.9362583756446838,0.30540144443511963
6.3,1.1542390584945679,-1.8091434240341187,-0.3010116219520569,0.1891484409570694,-0.9143943190574646,0.2179844081401825
6.35,0.9521397352218628,-1.3663417100906372,-0.23296751081943512,0.40787696838378906,-0.7888296842575073,0.06960779428482056
6.4,0.725861668586731,-0.6246062517166138,-0.2317976951599121,0.5320948362350464,-0.6954470276832581,0.013969632796943188
6.45,0.7213756442070007,-0.2135983258485794,-0.25734761357307434,0.502124011516571,-0.6778224110603333,0.030027154833078384
6.5,0.9614226818084717,0.16454119980335236,-0.2984834313392639,0.4034504294395447,-0.6868675947189331,0.007320750504732132
6.55,1.0249478816986084,0.3714732825756073,-0.22808033227920532,0.23965683579444885,-0.6392658352851868,-0.08093476295471191
6.6,0.7126107811927795,0.5687923431396484,-0.0350952111184597,0.036509208381175995,-0.5329113006591797,-0.17654496431350708
6.65,0.19340886175632477,1.5059168338775635,0.5831016302108765,-0.12092677503824234,-0.46785691380500793,-0.20361080765724182
6.7,-0.3565515875816345,1.933985948562622,0.578158438205719,-0.1428809016942978,-0.5010056495666504,-0.1329057663679123
6.75,-0.4136820435523987,1.7252352237701416,-0.32056304812431335,0.0893516018986702,-0.6317911744117737,-0.056528013199567795
6.8,-0.7801569700241089,0.7585650682449341,-0.6768701672554016,-0.027871515601873398,-0.5267766118049622,-0.1626587212085724
6.85,-1.6638617515563965,-0.5881767272949219,-0.5533788800239563,-0.22820955514907837,-0.23567035794258118,-0.2592319846153259
6.9,-1.6720690727233887,-0.8462896943092346,-0.3377717137336731,-0.11659835278987885,-0.1771557629108429,-0.13294298946857452
6.95,-1.3395638465881348,-0.9921589493751526,-0.2979263365268707,0.024365276098251343,-0.22207467257976532,0.023832879960536957
7.0,-0.9702508449554443,-1.3963462114334106,-0.4249386191368103,0.06750921905040741,-0.3022681176662445,0.12802881002426147
7.05,-0.6474789381027222,-0.9676133394241333,-0.35630905628204346,0.10718002915382385,-0.37941649556159973,0.1561938375234604
7.1,-0.5696826577186584,0.08251574635505676,-0.2965843677520752,-0.012092772871255875,-0.4247339069843292,0.1246267631649971
7.15,-0.5538249611854553,0.5447569489479065,-0.24871954321861267,-0.30647388100624084,-0.4427548348903656,0.07394951581954956
7.2,-0.5520471334457397,0.5036202669143677,0.06072691082954407,-0.5032988786697388,-0.43198272585868835,0.02683107927441597
7.25,-0.5608046650886536,0.6791688203811646,0.48377081751823425,-0.574559211730957,-0.3581755459308624,0.04968082159757614
7.3,-0.14960870146751404,0.9820252656936646,0.7720940113067627,-0.6050348877906799,-0.3080448508262634,0.19574449956417084
7.35,0.2868492603302002,1.7056734561920166,0.5054238438606262,-0.5295323133468628,-0.24399909377098083,0.2265462577342987
7.4,0.5181748867034912,2.4362289905548096,-0.033944133669137955,-0.43977901339530945,-0.14133784174919128,0.12239518761634827
7.45,1.018481969833374,-0.0403948649764061,-0.816597044467926,-0.5275075435638428,-0.06784795224666595,0.054712068289518356
7.5,1.5186775922775269,-1.585196852684021,-0.9430803656578064,-0.6097159385681152,0.041312314569950104,0.04014502838253975
7.55,2.21276593208313,-0.35805147886276245,-1.5420567989349365,-0.20145227015018463,0.29263854026794434,0.05543094500899315
7.6,1.482911467552185,0.8013525009155273,-1.8089115619659424,0.04917629063129425,0.843136191368103,-0.02050543762743473
7.65,0.342631995677948,0.1109437495470047,-1.4778921604156494,-0.08577127754688263,1.3261982202529907,0.07572092860937119
7.7,0.23940762877464294,-1.4671908617019653,-0.9560385346412659,-0.2933317720890045,1.4769963026046753,0.2047700732946396
7.75,-0.001024290919303894,-2.0602123737335205,-0.46633726358413696,-0.29050472378730774,1.4875895977020264,0.14864078164100647
7.8,-0.08887352049350739,-1.689333200454712,-0.13712073862552643,-0.18221144378185272,1.3850295543670654,0.09712143987417221
7.85,-0.2716663181781769,-1.2782050371170044,0.08458465337753296,-0.08732697367668152,1.1888048648834229,0.06887487322092056
7.9,-0.0792531669139862,-0.29106906056404114,-0.021856974810361862,0.003480575978755951,0.8569738268852234,0.0855652391910553
7.95,0.549456775188446,1.3835421800613403,-0.14001457393169403,0.006869371980428696,0.5485755801200867,0.13743078708648682
8.0,0.3673033118247986,3.1455607414245605,0.19413991272449493,-0.11369360983371735,0.4056396484375,0.20567549765110016
8.05,-1.2692301273345947,3.899867534637451,0.6200181841850281,-0.24241332709789276,0.2426522821187973,0.298750102519989
8.1,-1.9150174856185913,-1.0174274444580078,-0.1094021201133728,-0.4483340382575989,-0.23722884058952332,0.5673391222953796
8.15,-1.449460506439209,-1.5127393007278442,-0.1455015242099762,-0.44512444734573364,-0.8789446353912354,0.5182943344116211
8.2,0.10887613892555237,-0.7463523149490356,-1.009293794631958,-0.05151166021823883,-1.329874038696289,0.13900868594646454
8.25,0.6488660573959351,-0.45001518726348877,-1.1180800199508667,0.08854004740715027,-1.1893458366394043,-0.2891826033592224
8.3,0.3890780508518219,-0.9470130801200867,-0.6714056134223938,0.1347387433052063,-0.7473698258399963,-0.3508223593235016
8.35,0.08813752233982086,-1.1905709505081177,-0.035488199442625046,0.11245164275169373,-0.4607975482940674,-0.15763258934020996
8.4,-0.16271668672561646,-1.0382777452468872,0.4222675859928131,0.1133546233177185,-0.39888280630111694,-0.043037742376327515
8.45,0.6618393659591675,-0.6406517624855042,0.24667534232139587,0.2068730890750885,-0.4773940145969391,-0.0038585797883570194
8.5,1.0465943813323975,0.32071682810783386,-0.022489260882139206,0.28834232687950134,-0.33134517073631287,-0.0912417396903038
8.55,0.6289778351783752,0.8567305207252502,-0.030817950144410133,0.18022511899471283,-0.031003843992948532,-0.18837854266166687
8.6,-0.19749300181865692,1.2464171648025513,0.14882025122642517,0.07708122581243515,0.2128976285457611,-0.1806028187274933
8.65,-0.5607407689094543,1.9446852207183838,0.18154767155647278,0.06441470980644226,0.2915957272052765,-0.06467081606388092
8.7,-0.10787947475910187,2.03478741645813,0.12176834046840668,-0.00528374221175909,0.19036036729812622,0.003515663556754589
8.75,0.5666733384132385,0.15834423899650574,-0.429118275642395,-0.08823757618665695,0.05610883608460426,-0.02177049219608307
8.8,0.8964887857437134,-1.1222145557403564,-0.8000139594078064,-0.18357466161251068,-0.0028167972341179848,-0.0069657862186431885
8.85,0.8499711751937866,-1.0743858814239502,-0.986386775970459,-0.08046405017375946,0.001080276444554329,0.06094932556152344
8.9,0.6059185862541199,-0.5707093477249146,-0.9617765545845032,0.16262082755565643,0.03003280982375145,0.028036607429385185
8.95,0.6561898589134216,-0.036643095314502716,-1.069380521774292,0.3284526765346527,0.033107079565525055,-0.03934093192219734
9.0,0.40667611360549927,-0.5218058824539185,-1.0040451288223267,0.24701040983200073,-0.0038802986964583397,-0.1360849142074585
9.05,0.7399455308914185,-0.4130603075027466,-0.8515815734863281,0.17930586636066437,-0.1276901364326477,-0.13881881535053253
9.1,0.8020411133766174,-0.6194926500320435,-0.46266844868659973,0.04424528777599335,-0.21722641587257385,-0.17679853737354279
9.15,0.8734014630317688,-0.5541726350784302,-0.17032545804977417,0.019919514656066895,-0.29183459281921387,-0.22246143221855164
9.2,0.6713545322418213,-0.2887888550758362,0.06017271801829338,0.031140677630901337,-0.3760034441947937,-0.26719164848327637
9.25,0.4009197950363159,-0.09147074073553085,0.3096778392791748,0.04844483733177185,-0.5472522377967834,-0.25487351417541504
9.3,0.47229886054992676,0.00458334106951952,0.2467244267463684,0.04256376996636391,-0.7772000432014465,-0.15087948739528656
9.35,0.412647545337677,0.5138893723487854,0.11859506368637085,0.11233237385749817,-0.9592079520225525,-0.05859411880373955
9.4,0.19383803009986877,0.9706774950027466,-0.00013531919103115797,0.25216439366340637,-1.0079928636550903,-0.012948595918715
9.45,-0.7489826679229736,-0.1378908008337021,-0.3571658134460449,0.2651059031486511,-0.9012313485145569,-0.0658007487654686
9.5,-1.2924437522888184,0.5147238969802856,-0.15787190198898315,0.2861229479312897,-0.7662382125854492,-0.18568719923496246
9.55,-1.6625313758850098,0.03849038481712341,-0.02770775370299816,0.2296835035085678,-0.6256699562072754,-0.26810941100120544
9.6,-1.8276686668395996,-0.6482705473899841,0.008584222756326199,0.1655641347169876,-0.606204628944397,-0.20645657181739807
9.65,-1.2735748291015625,-1.348942756652832,0.11547616869211197,0.17324286699295044,-0.7349629402160645,-0.05512966215610504
9.7,-0.9105058312416077,-1.5681993961334229,0.13570842146873474,0.23127660155296326,-0.8153180480003357,0.03504794463515282
9.75,-0.7462380528450012,-1.410049557685852,-0.02457639016211033,0.3590088486671448,-0.8347597718238831,0.09577210992574692
9.8,-0.681230366230011,-0.3593883514404297,-0.1209210678935051,0.47184473276138306,-0.7953294515609741,0.1859481781721115
9.85,-1.0605322122573853,0.8755418658256531,-0.20763829350471497,0.3490242660045624,-0.6924293637275696,0.3318202793598175
9.9,-1.3080995082855225,0.9413358569145203,-0.10696369409561157,-0.06441673636436462,-0.7118159532546997,0.5102778673171997
9.95,-0.8385448455810547,0.01322941854596138,0.08367261290550232,-0.40285784006118774,-0.8774877786636353,0.5000838041305542
10.0,-0.3508349061012268,0.6331378221511841,0.5625712275505066,-0.3896365165710449,-1.0346837043762207,0.3624085783958435
10.05,0.023211359977722168,2.1207306385040283,0.9152437448501587,-0.14052721858024597,-1.0802804231643677,0.3182896375656128
10.1,0.6199347972869873,0.6648588180541992,-0.07824286073446274,0.05582079291343689,-0.9863977432250977,0.3104977607727051
10.15,0.24588292837142944,-0.24723251163959503,-0.9169377088546753,0.15678565204143524,-0.7529966831207275,0.14985676109790802
10.2,0.0045337677001953125,0.8418265581130981,-0.9746580123901367,0.33885008096694946,-0.6434583067893982,0.15956710278987885
10.25,0.023364484310150146,0.06382083147764206,-0.458612322807312,0.1543101668357849,-0.697586715221405,0.1532709300518036
10.3,-0.15747302770614624,-1.163533329963684,-0.13861453533172607,0.02852616086602211,-0.7254084944725037,0.1847294121980667
10.35,-0.14667564630508423,-1.654984712600708,0.012604961171746254,0.07353408634662628,-0.7358137965202332,0.22348091006278992
10.4,0.009304307401180267,-1.4581319093704224,0.2078177034854889,0.11663645505905151,-0.7896583676338196,0.26025664806365967
10.45,0.21330757439136505,-1.60774827003479,0.5227715969085693,0.18070030212402344,-0.8942993879318237,0.14927712082862854
10.5,0.22323228418827057,-2.0046370029449463,0.734022855758667,0.26981034874916077,-0.9312949776649475,0.01014036312699318
10.55,0.11874207854270935,-2.3644859790802,1.0016398429870605,0.3600955903530121,-0.83235102891922,-0.08241154253482819
10.6,-0.5500639081001282,-2.1231849193573,0.4203953444957733,0.4349900186061859,-0.5571907758712769,-0.0749467983841896
10.65,-1.3373087644577026,-1.1119996309280396,-0.4483698308467865,0.4382845163345337,-0.47679200768470764,0.03237569332122803
10.7,-1.9098362922668457,-0.9505520462989807,-1.5448603630065918,0.400478720664978,-0.5354815721511841,-0.031460512429475784
10.75,-2.0147318840026855,-0.6232366561889648,-2.3795390129089355,0.5259739756584167,-0.5299628973007202,-0.02452719397842884
10.8,-1.3295472860336304,-0.22869208455085754,-2.3207364082336426,0.6159974336624146,-0.625688374042511,0.1078808531165123
10.85,-0.5503864884376526,-0.3377361595630646,-1.3417861461639404,0.5442160367965698,-0.7138333916664124,0.14024220407009125
10.9,-0.14746516942977905,-0.5804749131202698,-0.7615779042243958,0.4555661082267761,-0.6406026482582092,0.14802901446819305
10.95,-0.13604006171226501,-0.013973257504403591,-0.9521745443344116,0.44642338156700134,-0.4916588366031647,0.2047138512134552
11.0,0.1675221174955368,1.160798192024231,-0.5901151299476624,0.45703834295272827,-0.4062398076057434,0.23225301504135132
11.05,0.1636379361152649,1.7240574359893799,-0.5287380814552307,0.3454166650772095,-0.2896231710910797,0.13079197704792023
11.1,-0.06905226409435272,2.318671464920044,-0.06401631981134415,0.22062386572360992,-0.22946102917194366,-0.0312894806265831
11.15,-0.15116927027702332,2.304583787918091,-6.684708205284551e-05,0.17088237404823303,-0.1686432659626007,-0.27414369583129883
11.2,0.003794783027842641,1.7537033557891846,0.0051437849178910255,0.1889755129814148,-0.15683099627494812,-0.4452769160270691
11.25,-0.02394428849220276,1.5804474353790283,0.5450833439826965,0.21168753504753113,-0.2105349451303482,-0.3694438934326172
11.3,-0.06280121207237244,1.3832751512527466,0.6068987250328064,0.16093367338180542,-0.20338954031467438,-0.14934630692005157
11.35,-0.07440954446792603,1.0080825090408325,0.3202641010284424,0.1687457263469696,-0.15849803388118744,0.04957181587815285
11.4,0.0911322832107544,0.7799950838088989,0.5477018356323242,0.16644695401191711,-0.1629936546087265,0.15329763293266296
11.45,0.11209528148174286,0.7662373781204224,0.5316001772880554,0.019476208835840225,-0.07574453204870224,0.1442154347896576
11.5,-0.01864132285118103,0.5674372315406799,0.10617135465145111,-0.1155974417924881,0.017034808173775673,0.04600366950035095
11.55,-0.08756108582019806,0.14878274500370026,0.03872370347380638,-0.12368854135274887,-0.009979668073356152,-0.08984771370887756
11.6,-0.07870794087648392,-0.1280984878540039,0.28711366653442383,-0.067894347012043,-0.06274888664484024,-0.14100946485996246
11.65,-0.06933575868606567,0.030264873057603836,0.41480281949043274,-0.04532589390873909,-0.08701784163713455,-0.11699128895998001
11.7,-0.09097188711166382,-0.02092359960079193,0.45609086751937866,-0.037475764751434326,-0.06791277974843979,-0.09618587791919708
11.75,-0.2028564214706421,-0.070464126765728,0.28021004796028137,-0.04366588965058327,-0.025777047500014305,-0.06625457853078842
11.8,-0.253157377243042,-0.04940127208828926,0.20734623074531555,-0.06724215298891068,-0.023726975545287132,-0.05631998926401138
11.85,-0.19797542691230774,0.04788019880652428,0.30451202392578125,-0.07238288223743439,-0.039328571408987045,-0.06349529325962067
11.9,-0.1510271430015564,0.04374982789158821,0.2887820899486542,-0.06169294938445091,-0.038669366389513016,-0.09287106245756149
11.95,-0.11580110341310501,0.06816580146551132,0.23489372432231903,-0.056033696979284286,-0.029484139755368233,-0.09949152171611786
12.0,-0.0760757252573967,0.10790636390447617,0.16847951710224152,-0.07033643126487732,-0.026940392330288887,-0.07969095557928085
12.05,-0.10195112973451614,0.22060398757457733,0.22639045119285583,-0.08611558377742767,-0.02840517833828926,-0.05449739098548889
12.1,-0.042966246604919434,0.4721603989601135,0.1787089854478836,-0.09023338556289673,-0.020203983411192894,-0.04905477166175842
12.15,0.1909511387348175,0.9845324754714966,0.14917482435703278,-0.08390431851148605,-0.005455003585666418,-0.05704481154680252
12.2,0.39954686164855957,2.5152132511138916,0.03829772770404816,-0.04172508418560028,0.016802046447992325,-0.01927979104220867
12.25,0.7309153079986572,5.003804683685303,-0.2569323480129242,0.10336130112409592,-0.032033346593379974,0.04973404482007027
12.3,1.9868693351745605,5.194383144378662,0.35268157720565796,0.097954660654068,-0.2152235358953476,-0.11090809106826782
12.35,2.537057638168335,3.823421001434326,0.5312410593032837,-0.2800511419773102,-0.22956371307373047,-0.32554760575294495
12.4,1.8766968250274658,1.7221318483352661,0.08265189826488495,-0.41902074217796326,-0.16327600181102753,-0.6205980777740479
12.45,0.5958706736564636,-0.1475840061903,-0.16115503013134003,-0.278994083404541,-0.19666026532649994,-0.796292245388031
12.5,-0.10080479085445404,-0.5163374543190002,0.5420742630958557,-0.09144340455532074,-0.3500056862831116,-0.6380773782730103
12.55,0.029622793197631836,-1.2177220582962036,-0.22984234988689423,-0.1405046582221985,-0.3006017804145813,-0.45862701535224915
12.6,-0.21084052324295044,-1.6819002628326416,-0.4392189681529999,-0.22067572176456451,-0.17459778487682343,-0.43264928460121155
12.65,-0.3422369658946991,-2.2453644275665283,-0.8271179795265198,-0.18769574165344238,0.01568901352584362,-0.5455912351608276
12.7,-0.06526196002960205,-2.9722344875335693,-0.7445732355117798,-0.19070523977279663,-0.011702566407620907,-0.5989364385604858
12.75,0.3362932503223419,-3.578857421875,-0.13269145786762238,-0.20714858174324036,-0.2251402884721756,-0.5238266587257385
12.8,1.01353919506073,-1.3060332536697388,1.7519829273223877,-0.2233978509902954,-0.49882030487060547,-0.22144736349582672
12.85,1.6364426612854004,1.056508183479309,3.312793016433716,-0.08665263652801514,-0.2260941118001938,-0.45825475454330444
12.9,1.685868740081787,0.3992290794849396,1.7990267276763916,0.1570177674293518,0.7823657393455505,-1.4610543251037598
12.95,-1.0023843050003052,-2.8499515056610107,-3.5234451293945312,0.18718618154525757,2.01338791847229,-2.286959648132324
13.0,-3.939852476119995,-2.3265931606292725,-4.544453144073486,-0.35844430327415466,2.3693695068359375,-1.5813493728637695
13.05,-3.2032876014709473,1.4952995777130127,-2.819937229156494,-0.5474785566329956,1.7952380180358887,-0.8263953328132629
13.1,-4.323550224304199,-0.4754275679588318,-3.7451467514038086,-0.3391362130641937,0.5603501796722412,-1.454131007194519
13.15,-4.264203071594238,-0.25449177622795105,-6.178524017333984,-0.3266637325286865,-0.9481774568557739,-1.088034749031067
13.2,-0.7938437461853027,0.1975325047969818,-8.153983116149902,-0.9927433729171753,-2.906886577606201,-0.5673932433128357
13.25,5.271940231323242,-1.4077831506729126,-5.5593976974487305,-2.023862600326538,-5.495622158050537,-0.6843010187149048
13.3,4.6732916831970215,-4.518174648284912,4.5869927406311035,-2.71357798576355,-7.4341840744018555,-0.9937947392463684
13.35,-2.3086633682250977,-1.3720414638519287,8.415243148803711,-2.3753695487976074,-7.05056095123291,-0.3300793766975403
13.4,-4.4866557121276855,0.21428720653057098,5.074974060058594,-1.4517388343811035,-4.7677483558654785,0.5784521698951721
13.45,-1.7330291271209717,0.1131851002573967,2.3692522048950195,-0.98253333568573,-2.513772487640381,0.9094754457473755
13.5,0.15787911415100098,0.626379132270813,1.6963293552398682,-0.9628810882568359,-1.5971025228500366,0.8974944353103638
13.55,-0.10791575908660889,0.827868640422821,1.3684568405151367,-0.9003539085388184,-1.5610443353652954,0.891842246055603
13.6,-0.44722965359687805,0.3956557512283325,0.8300220966339111,-0.7894777059555054,-1.4933613538742065,0.8846339583396912
13.65,-0.18689872324466705,0.2908220887184143,0.4661478102207184,-0.6759092211723328,-1.3188493251800537,0.6889324188232422
13.7,-0.7003546357154846,-0.2039642184972763,0.14106310904026031,-0.5239368677139282,-1.3047189712524414,0.41421493887901306
13.75,-0.6570652723312378,-0.028017017990350723,-0.16969139873981476,-0.5401647090911865,-1.2403342723846436,0.2642119228839874
13.8,-0.9511981010437012,0.6065264940261841,-0.6964007019996643,-0.49542197585105896,-1.1221338510513306,0.21029594540596008
13.85,-0.5555528402328491,0.747352659702301,-0.8823869228363037,-0.2978297770023346,-0.8864940404891968,0.2463098168373108
13.9,0.06455081701278687,0.8637381196022034,-1.2274506092071533,-0.12037119269371033,-0.6946782469749451,0.3102150857448578
13.95,0.8448532819747925,0.6924953460693359,-1.2821475267410278,0.08663763105869293,-0.6035760045051575,0.3462706506252289
14.0,1.2439208030700684,0.5201796889305115,-1.1881500482559204,0.2384556382894516,-0.7182085514068604,0.30552348494529724
14.05,0.8733248710632324,0.3953799903392792,-1.2090518474578857,0.28967270255088806,-0.9513542652130127,0.24208781123161316
14.1,0.8918060064315796,-0.18169507384300232,-0.7507312297821045,0.21624043583869934,-1.0270934104919434,0.16442066431045532
14.15,1.5716962814331055,-0.7992469668388367,0.18002255260944366,0.14000067114830017,-0.9845247268676758,0.06528360396623611
14.2,1.839745283126831,2.243696451187134,0.30439186096191406,0.06956860423088074,-1.0227628946304321,-0.058297157287597656
14.25,1.0973658561706543,2.190025568008423,0.5374177098274231,-0.036028340458869934,-1.0305372476577759,-0.05677921697497368
14.3,0.9074922800064087,0.28609180450439453,1.0163092613220215,-0.007719888351857662,-0.7772841453552246,0.030687076970934868
14.35,0.24602535367012024,-0.2962226867675781,1.0255357027053833,0.2729087173938751,-0.658282995223999,0.018116695806384087
14.4,0.4669445753097534,-0.5055533051490784,0.6221004724502563,0.5540645122528076,-0.6092014312744141,0.038313739001750946
14.45,0.31699684262275696,-1.4140702486038208,0.33784037828445435,0.5138612985610962,-0.6559357047080994,-0.014363521710038185
14.5,0.14744076132774353,-1.2003976106643677,0.2242499142885208,0.12822787463665009,-0.6301654577255249,-0.23512376844882965
14.55,0.10036791115999222,-0.4002428650856018,0.3399096131324768,-0.09650012105703354,-0.4751124083995819,-0.4862079322338104
14.6,0.26751211285591125,0.9148598909378052,-0.03352189436554909,0.03603386878967285,-0.302918016910553,-0.5356186628341675
14.65,0.83121258020401,1.0674762725830078,-0.6059042811393738,0.39380207657814026,-0.21743108332157135,-0.12756730616092682
14.7,1.5942332744598389,0.5119885802268982,-0.8932570219039917,0.6516065001487732,-0.21817095577716827,0.3214431405067444
14.75,1.819198727607727,1.058884620666504,-0.8881710171699524,0.667269229888916,-0.2713276743888855,0.4663495123386383
14.8,1.7095205783843994,4.085705280303955,-0.6475451588630676,0.5818302631378174,-0.23699216544628143,0.3298908472061157
14.85,1.3845311403274536,5.1670918464660645,0.20211710035800934,0.484844446182251,-0.06068434193730354,0.23035581409931183
14.9,0.07526926696300507,3.6877684593200684,0.691413938999176,0.39309409260749817,0.03485322371125221,0.052183736115694046
14.95,-1.7711210250854492,-0.08531562238931656,-0.13350659608840942,0.5528167486190796,-0.041231513023376465,-0.1425946056842804
15.0,-2.4990105628967285,-2.474985122680664,-0.31073060631752014,0.25371497869491577,0.08915828913450241,-0.05366533249616623
15.05,-2.120418071746826,-2.061574697494507,0.2071831226348877,-0.31144654750823975,0.3659209907054901,-0.03772477060556412
15.1,-1.7729912996292114,-2.3474280834198,0.6539035439491272,-0.5559322834014893,0.6194180250167847,-0.019558079540729523
15.15,-1.5616976022720337,-1.285008430480957,0.5949868559837341,-0.6132891178131104,0.7334007024765015,-0.174001082777977
15.2,-1.1080865859985352,-1.1113386154174805,0.31252723932266235,-0.48454540967941284,0.7399662137031555,-0.1772870570421219
15.25,-0.5457411408424377,-0.7818690538406372,-0.026159049943089485,-0.31605345010757446,0.6681148409843445,-0.12735994160175323
15.3,-0.7065139412879944,-0.7593985795974731,-0.5166531801223755,-0.145777627825737,0.4983280599117279,-0.07775316387414932
15.35,-1.616098403930664,-0.9900665879249573,-0.45883870124816895,-0.17381533980369568,0.32934728264808655,-0.053595926612615585
15.4,-2.2220375537872314,0.012929084710776806,0.11319977045059204,-0.44633620977401733,0.2165810465812683,0.001988051226362586
15.45,-0.36267930269241333,0.05341630429029465,0.9082909822463989,-0.5720561742782593,0.2826263904571533,0.3385027348995209
15.5,0.3129117488861084,-0.21186737716197968,-0.15594825148582458,-0.2729679048061371,-0.014732860028743744,0.4218577742576599
15.55,0.20918291807174683,-0.6387683153152466,-1.3708155155181885,-0.0184585303068161,-0.37755948305130005,0.33262601494789124
15.6,-0.11106568574905396,-0.7959091067314148,-1.862053632736206,-0.11120995879173279,-0.5125420689582825,0.34400463104248047
15.65,0.2838529944419861,-0.3355341851711273,-1.9733608961105347,-0.28990933299064636,-0.43230462074279785,0.34106847643852234
15.7,1.7855738401412964,0.42907992005348206,-2.0141618251800537,-0.41908198595046997,-0.3634980618953705,0.10626085102558136
15.75,3.227343797683716,1.2326782941818237,-1.8072904348373413,-0.7833864092826843,-0.4442121088504791,-0.35129326581954956
15.8,3.1801400184631348,-0.08449382334947586,-0.3230396509170532,-1.3017010688781738,-0.5292214155197144,-0.6914486289024353
15.85,2.058436393737793,-1.1040574312210083,2.3207194805145264,-1.7021937370300293,-0.5341980457305908,-0.8590912222862244
15.9,-0.07321861386299133,1.5545837879180908,0.9871121048927307,-1.6111621856689453,-0.7943236827850342,-1.0336735248565674
15.95,-0.5044137239456177,1.8085052967071533,1.177475094795227,-1.2182042598724365,-0.553037166595459,-0.8420240879058838
16.0,0.03759491443634033,2.2615864276885986,0.7996659874916077,-0.8413770198822021,-0.2676475942134857,-0.726783037185669
16.05,0.6384552121162415,1.5303452014923096,0.8126543760299683,-0.6034086346626282,-0.12640486657619476,-0.6498256325721741
16.1,0.5088446736335754,0.25655078887939453,-0.0012755986535921693,-0.43481186032295227,-0.20589518547058105,-0.5601909160614014
16.15,0.10083568096160889,-1.2487746477127075,-0.5320125222206116,-0.39021530747413635,-0.2015581578016281,-0.4736040234565735
16.2,-0.4110218286514282,-2.185941457748413,-0.35226717591285706,-0.41979771852493286,-0.02832261472940445,-0.4253372848033905
16.25,-0.19834953546524048,-1.7553436756134033,0.28010594844818115,-0.4252060055732727,0.19335626065731049,-0.40541017055511475
16.3,0.3020431101322174,-0.6382504105567932,0.2416723370552063,-0.3418729305267334,0.1994338482618332,-0.3442859649658203
16.35,0.6300567984580994,-0.27795130014419556,-0.13187381625175476,-0.12254957854747772,0.13054658472537994,-0.1090187132358551
16.4,0.6619849801063538,-0.7860576510429382,-0.37460145354270935,0.09818726778030396,0.1027735099196434,0.15829098224639893
16.45,0.630409300327301,-1.3923321962356567,-0.3435593545436859,0.14246799051761627,0.10345939546823502,0.25825563073158264
16.5,0.7624907493591309,-1.0196362733840942,-0.5894441604614258,0.00868559256196022,0.15019503235816956,0.11766672134399414
16.55,0.8034378290176392,-0.5763503313064575,-1.110945224761963,-0.08172895014286041,0.2159300446510315,-0.0724455788731575
16.6,0.5558360815048218,-0.9308158755302429,-1.3714879751205444,-0.11058378219604492,0.3383820354938507,-0.17762790620326996
16.65,0.4996752142906189,-1.5171873569488525,-0.34730806946754456,-0.13082049787044525,0.5965496301651001,-0.19564925134181976
16.7,0.9944535493850708,-0.36175164580345154,0.1370377391576767,-0.2269483357667923,0.73480224609375,-0.2879891097545624
16.75,0.718570351600647,0.48411086201667786,-0.13916845619678497,-0.1827297806739807,0.5405842065811157,-0.37125298380851746
16.8,-0.031037181615829468,0.5467863082885742,-1.2342989444732666,-0.06907293945550919,0.28211158514022827,-0.3295716941356659
16.85,-0.6965620517730713,-0.6443186402320862,-0.9749690294265747,0.03952033817768097,0.23379811644554138,-0.17466504871845245
16.9,-0.6513873338699341,-1.0713683366775513,-0.27370578050613403,0.03444172814488411,0.29880279302597046,-0.12664316594600677
16.95,0.15295985341072083,-0.6652594208717346,0.08858970552682877,-0.00501493364572525,0.35902583599090576,-0.20866449177265167
17.0,0.4502454698085785,-0.5009432435035706,0.2993549704551697,0.0015631094574928284,0.23168985545635223,-0.29179924726486206
17.05,0.19178172945976257,-0.20648293197155,-0.315434992313385,0.020922616124153137,-0.022543441504240036,-0.295861154794693
17.1,-0.12948328256607056,-0.6734333634376526,-0.5879806876182556,0.09180961549282074,-0.0949423611164093,-0.1673712432384491
17.15,-0.2891169786453247,-0.9530326128005981,-0.41061636805534363,0.13809838891029358,-0.024011943489313126,-0.10880131274461746
17.2,-0.0717225968837738,-0.6941357254981995,-0.27929386496543884,0.20546211302280426,0.04306457191705704,-0.22391852736473083
17.25,0.1063712015748024,-0.6777945160865784,0.018348313868045807,0.34065914154052734,0.01257405336946249,-0.24283209443092346
17.3,-0.37533336877822876,-0.4507475197315216,0.5796775817871094,0.28190547227859497,-0.07007795572280884,-0.12401742488145828
17.35,-0.7994067668914795,0.565496563911438,0.513344407081604,0.08496085554361343,-0.17481188476085663,-0.050721313804388046
17.4,-0.5598470568656921,1.2294007539749146,0.5724025368690491,0.013841691426932812,-0.21375317871570587,-0.03212110325694084
17.45,-0.6956426501274109,0.7332459688186646,0.27313917875289917,0.11633723974227905,-0.40495261549949646,0.1091691330075264
17.5,-0.5416608452796936,-1.0753642320632935,0.28046703338623047,0.19118955731391907,-0.4644321799278259,0.37378576397895813
17.55,-0.49822932481765747,-0.9995575547218323,0.15351520478725433,-0.026841744780540466,-0.4810023605823517,0.2997865676879883
17.6,-0.3037424683570862,0.5510531067848206,0.35060855746269226,-0.18236839771270752,-0.48062264919281006,0.12018568068742752
17.65,-0.028176330029964447,1.9676363468170166,0.18343734741210938,-0.006462670862674713,-0.49988073110580444,0.16571077704429626
17.7,-0.01676662266254425,2.5589516162872314,-0.42851266264915466,0.35829606652259827,-0.600952684879303,0.38307809829711914
17.75,-0.24411725997924805,1.9520037174224854,-0.6788862943649292,0.5146310329437256,-0.6020334362983704,0.5405129194259644
17.8,0.3529016375541687,2.2139389514923096,-0.2198278158903122,0.336495965719223,-0.49011653661727905,0.4438897967338562
17.85,0.533207356929779,2.8519699573516846,-0.32487526535987854,0.16155964136123657,-0.51743084192276,0.30936601758003235
17.9,1.1021581888198853,2.253763437271118,-0.7595980763435364,0.1722484827041626,-0.466819703578949,0.5132797956466675
17.95,1.890856385231018,-0.24398723244667053,-0.7757937908172607,0.2982049882411957,-0.3116258382797241,0.8590834736824036
18.0,1.6138678789138794,-2.237823009490967,-1.3476437330245972,0.34406793117523193,-0.28287699818611145,0.75001060962677
18.05,1.4273477792739868,-3.1025753021240234,-1.365936040878296,0.24068425595760345,-0.18454568088054657,0.37190550565719604
18.1,1.2684639692306519,-2.74775767326355,-0.7666828036308289,0.024566777050495148,-0.05720522999763489,0.05231638625264168
18.15,0.5373450517654419,-1.2688742876052856,-0.2233722060918808,-0.10762880742549896,0.02021110989153385,-0.12681396305561066
18.2,0.3745881915092468,-0.5513516068458557,0.42486944794654846,0.011490394361317158,0.1752777248620987,-0.02010289952158928
18.25,0.2160099297761917,-0.8681060075759888,0.7800725102424622,0.20368587970733643,0.29954636096954346,0.18904468417167664
18.3,-0.10277989506721497,-1.1676217317581177,0.5478478074073792,0.30818045139312744,0.3245176374912262,0.262680321931839
18.35,-0.3959764540195465,-1.4356080293655396,0.13960304856300354,0.3762267827987671,0.3549850583076477,0.3239220976829529
18.4,-0.11074571311473846,-1.179052472114563,-0.13502205908298492,0.42431673407554626,0.5556749105453491,0.37103351950645447
18.45,0.0685378760099411,-1.7639782428741455,0.09391804784536362,0.5064256191253662,0.8496696352958679,0.35748490691185
18.5,-0.05711549520492554,-2.4016244411468506,0.7010867595672607,0.5106099247932434,0.9945273399353027,0.2319634109735489
18.55,-0.814551055431366,-2.7335402965545654,0.9018672108650208,0.4723953604698181,0.8623577356338501,0.14830967783927917
18.6,-1.7529616355895996,-2.2310566902160645,1.2452315092086792,0.3884444236755371,0.7453149557113647,0.2005552500486374
18.65,-1.349277377128601,0.5839092135429382,0.789472758769989,0.3723168969154358,0.8587957620620728,0.21731409430503845
18.7,0.16061794757843018,6.601686477661133,-1.3663057088851929,0.40526872873306274,0.9863511323928833,0.07719254493713379
18.75,0.556204080581665,8.266109466552734,-2.6597461700439453,0.39954790472984314,0.8667474389076233,3.162722350680269e-05
18.8,-0.3251050114631653,3.8232359886169434,-1.4447191953659058,0.24019849300384521,0.6894193291664124,0.14269442856311798
18.85,-1.8962178230285645,-0.3133849501609802,-0.29252174496650696,0.034452565014362335,0.5581242442131042,0.14083467423915863
18.9,-2.541971206665039,-1.5835152864456177,0.19405028223991394,-0.05805771052837372,0.7574615478515625,0.2370629608631134
18.95,-2.2637367248535156,-1.278925895690918,-0.2678948938846588,0.2307462841272354,1.251099944114685,0.3959907293319702
19.0,-1.7310028076171875,-0.4114542007446289,-0.6659442186355591,0.5464158058166504,1.8813611268997192,0.38114434480667114
19.05,-0.09945502877235413,-0.05289173871278763,-0.24182313680648804,0.5341920852661133,2.4103147983551025,0.3083238899707794
19.1,0.7138670086860657,-0.3587971329689026,0.053151048719882965,0.34053516387939453,2.2544267177581787,0.28099554777145386
19.15,0.08492467552423477,-0.18571189045906067,-0.27702954411506653,0.31155169010162354,1.6919316053390503,0.4606131315231323
19.2,-0.3800220191478729,-0.49204927682876587,-0.7877036333084106,0.6088041663169861,1.3676902055740356,0.8093986511230469
19.25,-0.9701313972473145,-0.7940941452980042,-0.7576465010643005,0.8412781953811646,1.352767825126648,0.9322307705879211
19.3,-0.7403014898300171,-0.942782461643219,-0.19230231642723083,0.7229777574539185,1.6254092454910278,0.7443859577178955
19.35,-0.5509675741195679,0.528082013130188,0.24604609608650208,0.33253806829452515,2.0450313091278076,0.39677342772483826
19.4,0.17513075470924377,2.2849934101104736,0.4026249349117279,-0.027653738856315613,2.533704996109009,0.22741520404815674
19.45,1.318608283996582,-0.4847041070461273,1.2857117652893066,-0.3988834321498871,2.8957221508026123,-0.059480853378772736
19.5,1.0259292125701904,-0.8733140230178833,2.9595932960510254,-0.9237700700759888,3.1030726432800293,-0.3532680571079254
19.55,2.7033309936523438,1.2342462539672852,2.606431484222412,-0.8500147461891174,3.719198226928711,-0.04802621901035309
19.6,3.951451301574707,1.7636489868164062,0.0838531106710434,-0.3719717264175415,4.362173557281494,-0.06322269886732101
19.65,2.533259630203247,1.0659674406051636,-3.0547471046447754,-0.31219568848609924,4.441684246063232,-0.3385445177555084
19.7,0.29473626613616943,-0.07667171955108643,-3.3851699829101562,-0.3101356625556946,3.67110538482666,-0.41079190373420715
19.75,-0.6171889305114746,-0.6742268800735474,-2.678370714187622,-0.11801028251647949,2.7143073081970215,-0.3174947500228882
19.8,-0.6638880372047424,-0.736854612827301,-1.7947908639907837,0.008287936449050903,2.033766746520996,-0.1761939823627472
19.85,-0.8315619230270386,-0.1814108043909073,-1.4590071439743042,0.07595401257276535,1.7417224645614624,-0.05064055323600769
19.9,-1.3368339538574219,0.289039671421051,-1.3979853391647339,0.09743043780326843,1.5255011320114136,-0.032095953822135925
19.95,-1.5359978675842285,-0.11846539378166199,-1.199389934539795,0.0004320293664932251,1.2500884532928467,-0.0861307680606842
20.0,-1.3295676708221436,-0.3840913772583008,-0.6158207654953003,-0.1058429628610611,1.0581973791122437,-0.0337132066488266
20.05,-0.6363688111305237,-0.30309200286865234,0.04376393184065819,-0.16973303258419037,1.0822590589523315,0.03489040210843086
20.1,0.47121983766555786,-0.06046678498387337,0.5122047662734985,-0.21821199357509613,1.3863500356674194,0.0887395516037941
20.15,0.732517421245575,1.3732386827468872,-0.02288684993982315,-0.2407810091972351,1.9709458351135254,0.08040747046470642
20.2,-0.46606001257896423,2.9384329319000244,-0.8046060800552368,-0.28701144456863403,2.3281350135803223,0.054074231535196304
20.25,-0.7677905559539795,1.1489869356155396,-0.6800617575645447,-0.471287339925766,2.0454587936401367,0.11324680596590042
20.3,0.9423696398735046,0.17032718658447266,1.1120059490203857,-0.6770278811454773,1.4613280296325684,0.22172428667545319
20.35,1.0845613479614258,-0.30455976724624634,1.4754186868667603,-0.5444008111953735,1.23350191116333,0.08787164092063904
20.4,0.5246864557266235,-0.5612555146217346,1.6132560968399048,-0.3559475243091583,1.0817819833755493,-0.07229486852884293
20.45,0.21824926137924194,-0.6490145325660706,1.3558915853500366,-0.15980759263038635,0.8526151776313782,-0.09552345424890518
20.5,-0.13403019309043884,-0.45440295338630676,1.0879708528518677,-0.014681214466691017,0.6488634347915649,-0.06769280135631561
20.55,-0.3596387505531311,-0.5099658966064453,0.8994547724723816,0.03341406583786011,0.42682188749313354,-0.05763460323214531
20.6,-0.5743691921234131,-0.7076053619384766,0.840717613697052,0.021053534001111984,0.21602687239646912,-0.09447379410266876
20.65,-0.5828073024749756,-0.6419038772583008,0.8446885943412781,0.03699870407581329,0.017622973769903183,-0.08893578499555588
20.7,-0.443748414516449,-0.29781147837638855,0.8662139773368835,0.11268165707588196,-0.1356523185968399,-0.03569161519408226
20.75,-0.25414955615997314,0.290931761264801,0.7619218826293945,0.1928965300321579,-0.2474224716424942,0.005659110844135284
20.8,-0.11740101873874664,0.7266235947608948,0.6131492853164673,0.20315803587436676,-0.3534083366394043,-0.05435216426849365
20.85,-0.18740245699882507,1.233444333076477,0.7254685163497925,0.08137404918670654,-0.4168291389942169,-0.16057199239730835
20.9,-0.5992224216461182,2.1642401218414307,0.8598064184188843,-0.014565125107765198,-0.449116051197052,-0.22635841369628906
20.95,-0.4117276966571808,0.5835314989089966,0.33990478515625,0.032718174159526825,-0.550824761390686,-0.26913103461265564
21.0,0.4982224702835083,0.5754919648170471,0.13781869411468506,0.154590904712677,-0.6064299941062927,-0.2810562252998352
21.05,0.9388760924339294,0.3671874701976776,-0.4603798985481262,0.2402166873216629,-0.39298513531684875,-0.15987694263458252
21.1,1.2299798727035522,0.40094563364982605,-0.5899524092674255,0.17798346281051636,-0.0783233568072319,0.007429028861224651
21.15,1.5610315799713135,0.12777797877788544,-0.3727952837944031,0.06994597613811493,0.208738774061203,0.1585763692855835
21.2,1.4449987411499023,-0.3891889154911041,-0.23217377066612244,-0.01060594990849495,0.47937917709350586,0.12692245841026306
21.25,0.5991159677505493,-0.3743153512477875,-0.4967178404331207,0.02022973634302616,0.7319920063018799,0.045916613191366196
21.3,0.18318861722946167,-0.3030768036842346,-0.7313953638076782,0.03887253999710083,0.8039422631263733,0.004016378428786993
21.35,0.34738627076148987,-0.324470579624176,-0.8489485383033752,0.04757247865200043,0.8031993508338928,-0.026820484548807144
21.4,0.06084701418876648,-0.36287790536880493,-1.0893738269805908,0.04856710508465767,0.9352933168411255,-0.03024360164999962
21.45,-0.0802077054977417,-0.28280454874038696,-1.3996763229370117,0.09283750504255295,1.1063069105148315,0.07476495951414108
21.5,-0.19370007514953613,-0.18772226572036743,-1.463465690612793,0.14383269846439362,1.2646129131317139,0.17274236679077148
21.55,-0.4740559756755829,0.08864307403564453,-1.2045207023620605,0.14221559464931488,1.41640305519104,0.1439778357744217
21.6,-1.17698073387146,0.4482003450393677,-0.35318654775619507,0.07414303719997406,1.5387091636657715,0.03818272426724434
21.65,-1.5289462804794312,1.8927921056747437,1.1492352485656738,0.04320470988750458,1.5290746688842773,-0.04319401830434799
21.7,-1.2190968990325928,1.6010888814926147,2.3211026191711426,0.012844046577811241,1.3272712230682373,-0.055460404604673386
21.75,-0.18999695777893066,0.6431905031204224,2.7676339149475098,0.01605568267405033,0.8781705498695374,0.09757740050554276
21.8,1.0711793899536133,-0.24489213526248932,2.4583771228790283,0.05751395598053932,0.3788689076900482,0.23704519867897034
21.85,1.6479954719543457,-0.998792827129364,2.048194169998169,-0.09578306972980499,0.13459749519824982,0.23072825372219086
21.9,1.9731144905090332,-1.23048996925354,1.4952327013015747,-0.0673578754067421,0.08011079579591751,0.23395241796970367
21.95,2.128746271133423,-0.5685359239578247,1.1260604858398438,0.16976259648799896,0.15840165317058563,0.3279997706413269
22.0,1.882910132408142,0.4280242919921875,1.0941112041473389,0.35849058628082275,0.2694939374923706,0.410155326128006
22.05,1.2648522853851318,0.5176877975463867,1.0401314496994019,0.41317427158355713,0.2957909405231476,0.4196493923664093
22.1,1.1137893199920654,0.5221261978149414,0.8306211829185486,0.4343189001083374,0.21555736660957336,0.37717655301094055
22.15,0.9720174074172974,-0.09938722103834152,0.6359723806381226,0.28242573142051697,0.11078900843858719,0.3299977779388428
22.2,0.2975655794143677,-0.1335754543542862,0.6904109120368958,0.15177112817764282,0.1358165293931961,0.22187525033950806
22.25,-0.18556958436965942,0.02881721220910549,0.813117265701294,0.08627788722515106,0.25124049186706543,0.30330345034599304
22.3,0.05675739049911499,-0.21912576258182526,0.7796418070793152,0.060625091195106506,0.3140314817428589,0.5462384819984436
22.35,0.5461032390594482,-0.10129454731941223,0.5774127244949341,0.13869400322437286,0.3036545515060425,0.6206536889076233
22.4,0.5969792604446411,0.19720937311649323,0.5413951277732849,0.15123215317726135,0.29425230622291565,0.5027478933334351
22.45,0.7575163841247559,0.25179386138916016,0.4379439353942871,0.06079613417387009,0.27108466625213623,0.4022281765937805
22.5,0.7995500564575195,0.20593929290771484,0.6534178256988525,0.03564523160457611,0.2935507595539093,0.3498522937297821
22.55,0.848158061504364,0.09010885655879974,0.6889677047729492,0.04009033739566803,0.2769181728363037,0.27839139103889465
22.6,0.6246360540390015,0.2647915184497833,0.7070388793945312,0.029134541749954224,0.2003340870141983,0.1976523995399475
22.65,0.2885465621948242,0.36614421010017395,0.7655110359191895,0.002420760691165924,0.03569065034389496,0.1768028885126114
22.7,0.43658775091171265,0.6773300766944885,0.5415599346160889,0.0066695064306259155,-0.1508026272058487,0.24601005017757416
22.75,0.5700662732124329,0.9467326402664185,0.4470282196998596,0.05301328003406525,-0.266272634267807,0.29091355204582214
22.8,0.2772374749183655,0.6877489686012268,0.6283426880836487,0.1172795221209526,-0.3642851412296295,0.19351984560489655
22.85,-0.0469319224357605,0.7972203493118286,0.6801198720932007,0.10816477984189987,-0.5772082209587097,0.07344996184110641
22.9,-0.05251184105873108,0.5153666138648987,0.758773922920227,-0.10329493135213852,-0.7929775714874268,0.03653431311249733
22.95,0.12757337093353271,-0.040635090321302414,1.0725842714309692,-0.33604323863983154,-0.8378932476043701,0.042715009301900864
23.0,0.3195897340774536,-0.749998152256012,1.1220992803573608,-0.3500300645828247,-0.7638329267501831,0.03191795200109482
23.05,-0.21417847275733948,-0.6564111709594727,1.0030570030212402,-0.15854665637016296,-0.612145721912384,-0.07857716083526611
23.1,-0.7115395665168762,-0.8189716935157776,0.6713541150093079,0.050075314939022064,-0.4414505362510681,-0.17634105682373047
23.15,-1.5217397212982178,-0.688804566860199,0.4846835434436798,0.22141674160957336,-0.28065064549446106,-0.22841040790081024
23.2,-1.8548805713653564,-0.4262981116771698,0.011238072998821735,0.43096286058425903,-0.2069157361984253,-0.18181586265563965
23.25,-1.9027996063232422,-0.19703572988510132,-0.47216886281967163,0.5928983688354492,-0.13072989881038666,-0.11508727818727493
23.3,-1.5794792175292969,-0.3477267920970917,-0.6463266611099243,0.7089710235595703,-0.029460519552230835,0.006203381344676018
23.35,-0.7073860764503479,0.19600778818130493,-0.2858879268169403,0.8328762054443359,-0.05052913352847099,0.14736312627792358
23.4,-0.2684639096260071,1.0334397554397583,-0.21356824040412903,0.8076643943786621,-0.12777619063854218,-0.001810886082239449
23.45,-0.029866650700569153,1.2850953340530396,-0.37959519028663635,0.5593796372413635,-0.1986158788204193,-0.17968158423900604
23.5,-0.10862968862056732,0.5487318634986877,0.3028850555419922,0.18578876554965973,-0.2500234842300415,-0.21505548059940338
23.55,-0.2657155394554138,-0.16497132182121277,0.987912654876709,0.006578609347343445,-0.3088083565235138,-0.0882859081029892
23.6,0.328499436378479,-0.9749366044998169,0.8780651092529297,-0.01926405169069767,-0.40248921513557434,0.057379551231861115
23.65,1.0100185871124268,-2.2119624614715576,0.7976058125495911,-0.10418354719877243,-0.4109087586402893,0.08209775388240814
23.7,1.359432578086853,-3.283912181854248,0.809812605381012,-0.1335509717464447,-0.35028043389320374,0.033761024475097656
23.75,1.1943418979644775,-3.455071449279785,0.80929034948349,-0.023009443655610085,-0.2410281002521515,-0.05674467980861664
23.8,0.4100871682167053,-2.3318240642547607,0.22387266159057617,0.17372119426727295,-0.192907452583313,-0.11198729276657104
23.85,-0.5699348449707031,-0.9644080400466919,-0.8147029280662537,0.12371264398097992,-0.38285335898399353,-0.10759633034467697
23.9,1.210137963294983,-1.6588271856307983,-0.667451024055481,-0.348762571811676,-0.8003255128860474,-0.17478029429912567
23.95,0.8745471835136414,-2.141958475112915,0.09461265057325363,-0.5249137878417969,-0.7066128849983215,-0.4527454078197479
24.0,0.6533727049827576,-1.3294507265090942,0.2131432294845581,-0.39383524656295776,-0.5539581775665283,-0.5306894183158875
24.05,0.375635027885437,-0.7063789963722229,-0.079279825091362,-0.4348183274269104,-0.37570720911026,-0.5723408460617065
24.1,-0.17491279542446136,-0.5475416779518127,-0.017376992851495743,-0.4670785963535309,-0.16450563073158264,-0.5872144103050232
24.15,-0.5251047015190125,-0.06492041051387787,-0.061776865273714066,-0.2944255769252777,0.010960929095745087,-0.5806204080581665
24.2,-0.45628494024276733,0.23573116958141327,-0.5283216834068298,-0.10189947485923767,0.14153075218200684,-0.508331298828125
24.25,-0.34499964118003845,1.4718343019485474,-0.8338948488235474,0.13511918485164642,0.2887575030326843,-0.40728577971458435
24.3,-0.5923572182655334,2.1461193561553955,-1.0172113180160522,0.2657409906387329,0.45114022493362427,-0.3493634760379791
24.35,-0.7731950283050537,2.5054781436920166,-0.6616076827049255,0.16828668117523193,0.5111528038978577,-0.25215569138526917
24.4,-1.1211268901824951,3.4596266746520996,-0.07234299182891846,0.027561314404010773,0.5290793776512146,-0.16758188605308533
24.45,-1.0058140754699707,5.3373894691467285,-0.23983241617679596,0.041662950068712234,0.44951456785202026,-0.00817903596907854
24.5,0.38126325607299805,5.77888822555542,-0.7536135911941528,0.07685906440019608,0.24730652570724487,0.21607951819896698
24.55,0.7049461007118225,4.060994625091553,-0.6005394458770752,-0.0634317547082901,0.2143663763999939,0.30459120869636536
24.6,0.4286213517189026,1.584320306777954,-0.06176791712641716,-0.28847235441207886,0.211520716547966,0.1809883415699005
24.65,0.1774355173110962,-0.08175564557313919,0.24487611651420593,-0.37178510427474976,0.17620326578617096,0.04388141259551048
24.7,0.1415894329547882,-1.2963734865188599,0.47946810722351074,-0.3138592839241028,0.15407675504684448,-0.019091879948973656
24.75,0.0798938125371933,-1.2323838472366333,0.5718426704406738,-0.16826507449150085,0.12813957035541534,-0.06833489239215851
24.8,-0.044536083936691284,0.44445234537124634,0.29847389459609985,-0.08292273432016373,0.09740620851516724,-0.09447808563709259
24.85,-0.2439819723367691,2.400308847427368,0.07426399737596512,-0.1549922525882721,0.05096196010708809,-0.12296582758426666
24.9,-0.38425731658935547,2.90605092048645,0.8536672592163086,-0.4105815291404724,-0.037005189806222916,-0.15057627856731415
24.95,0.2318042516708374,3.0881381034851074,0.6655831933021545,-0.42184245586395264,-0.13044503331184387,-0.031204290688037872
25.0,1.0298452377319336,3.994950771331787,-0.8228852152824402,-0.21206916868686676,-0.0993194580078125,0.08598995953798294
25.05,1.0026473999023438,4.1085429191589355,-1.8821446895599365,-0.20863965153694153,0.05775390565395355,0.0317501574754715
25.1,-0.2970172166824341,3.1917662620544434,-2.006054639816284,-0.3833928108215332,0.23978734016418457,-0.09302856028079987
25.15,-0.7416311502456665,1.7385227680206299,-1.1335399150848389,-0.5242331027984619,0.24207335710525513,-0.05418485403060913
25.2,-0.34529638290405273,0.7722283601760864,-0.2927602529525757,-0.31022149324417114,0.19930103421211243,-0.026906374841928482
25.25,0.326521635055542,0.024078350514173508,-0.2182580679655075,0.09996707737445831,0.23607081174850464,-0.08933772146701813
25.3,0.4622880220413208,-0.8897563219070435,0.059905119240283966,0.37968456745147705,0.4085307717323303,-0.20395095646381378
25.35,0.2371920794248581,-1.3781987428665161,0.3226427137851715,0.5486658215522766,0.5362722873687744,-0.3473101854324341
25.4,-0.22369708120822906,-1.3903981447219849,0.422761470079422,0.6091725826263428,0.5785498023033142,-0.49422869086265564
25.45,-0.3959939479827881,-1.5332634449005127,0.8182661533355713,0.38986408710479736,0.5478469133377075,-0.3812433183193207
25.5,-0.37178099155426025,-2.164052724838257,0.8078263998031616,0.10448043793439865,0.4535481035709381,-0.18729008734226227
25.55,-0.992040753364563,-3.226626396179199,0.7102411389350891,-0.20288309454917908,0.3712964951992035,-0.10198429971933365
25.6,-1.4588823318481445,-4.59814453125,0.7062979340553284,-0.471035897731781,0.18886256217956543,0.019480805844068527
25.65,-1.0389713048934937,-3.841712474822998,0.8983836770057678,-0.5084853768348694,-0.02489410899579525,0.1476621925830841
25.7,-0.7916979789733887,-1.7213622331619263,1.0713049173355103,-0.4955882132053375,-0.07365164160728455,0.2405811995267868
25.75,-1.247918725013733,-0.2587985396385193,1.230402946472168,-0.5262514352798462,0.05967717990279198,0.2860216796398163
25.8,-1.4094289541244507,0.6211053729057312,1.2686710357666016,-0.477815181016922,0.17067672312259674,0.29769954085350037
25.85,-1.3054436445236206,0.22405540943145752,0.976612389087677,-0.3084440529346466,0.16388586163520813,0.28433242440223694
25.9,-0.9985698461532593,-0.2960042655467987,0.6805537939071655,-0.23832562565803528,0.08319897204637527,0.21637123823165894
25.95,-0.18181774020195007,-0.33476829528808594,0.5301979780197144,-0.28486666083335876,0.03707493096590042,0.22493766248226166
26.0,0.5946822762489319,-0.056980155408382416,0.646965742111206,-0.3718189299106598,0.044066861271858215,0.2337832897901535
26.05,1.0303421020507812,0.21866607666015625,0.8807514905929565,-0.3992066979408264,0.08092363178730011,0.23396582901477814
26.1,1.5712368488311768,0.35073181986808777,0.8125900030136108,-0.3050200343132019,0.08331295847892761,0.2429250180721283
26.15,1.853729248046875,0.6093511581420898,0.6811290979385376,-0.16298802196979523,0.06605882942676544,0.17949599027633667
26.2,1.8188457489013672,0.16431230306625366,0.6813319325447083,-0.06961754709482193,0.02024650387465954,0.08899900317192078
26.25,1.6774802207946777,-0.37051305174827576,0.6405892372131348,0.04837406054139137,-0.020398611202836037,-0.020879097282886505
26.3,1.6030960083007812,-0.6616374254226685,0.6640071868896484,0.16942456364631653,-0.013853929936885834,-0.13174939155578613
26.35,1.7968339920043945,-1.1057484149932861,0.7880474925041199,0.3150073289871216,0.09403151273727417,-0.2552591562271118
26.4,1.932790756225586,-1.2869961261749268,0.8652356266975403,0.6285900473594666,0.33614417910575867,-0.44543418288230896
26.45,1.4016807079315186,-0.5245238542556763,0.8556553721427917,1.0184296369552612,0.6168919801712036,-0.6594284176826477
26.5,0.6134310364723206,-0.2251606285572052,1.0268259048461914,1.175073504447937,0.7055479288101196,-0.7237352728843689
26.55,0.17508849501609802,-0.04386995732784271,1.001379132270813,1.1978036165237427,0.5317370891571045,-0.6871814131736755
26.6,0.3222934305667877,0.017256740480661392,0.6816062927246094,1.1304703950881958,0.2504688501358032,-0.6143937110900879
26.65,0.899445652961731,-0.7294226884841919,0.5619972944259644,1.0164897441864014,0.05165847763419151,-0.5348573327064514
26.7,1.9581983089447021,-1.7866920232772827,0.3885430097579956,1.111411452293396,-0.011044931598007679,-0.5697386264801025
26.75,4.029494285583496,-1.5940918922424316,-0.6350505352020264,1.4067497253417969,0.1273586004972458,-0.7458332777023315
26.8,4.228896617889404,0.5395906567573547,-1.0232402086257935,1.6354260444641113,0.6973546743392944,-1.012782335281372
26.85,0.8671308159828186,1.356253743171692,0.28446999192237854,1.7140297889709473,1.2488610744476318,-1.2012128829956055
26.9,-0.7628687024116516,-0.1838674247264862,0.174313485622406,1.6543110609054565,1.0861341953277588,-1.2366563081741333
26.95,-1.0062979459762573,-1.0920754671096802,-1.3366814851760864,1.3018265962600708,0.9360787272453308,-1.1111444234848022
27.0,-0.9521917700767517,-0.5781593918800354,-1.7775431871414185,1.2617603540420532,1.0143803358078003,-0.9294699430465698
27.05,-1.224782943725586,-1.0190917253494263,-1.779180645942688,1.3189572095870972,0.9562439918518066,-0.7476197481155396
27.1,-1.4724396467208862,-1.2654372453689575,-1.0705848932266235,1.3557109832763672,0.7864410281181335,-0.840327262878418
27.15,-1.6185405254364014,-0.8016062378883362,-0.2494829148054123,1.2913274765014648,0.4358898103237152,-0.9679189324378967
27.2,-1.1846359968185425,-0.28870102763175964,-0.5166469812393188,1.1965879201889038,0.010641694068908691,-0.9932907819747925
27.25,-0.8625693321228027,0.6855135560035706,-0.6769168972969055,1.0499869585037231,-0.1201976016163826,-1.0089898109436035
27.3,-0.2972601056098938,1.990387201309204,-0.7790736556053162,0.8322490453720093,-0.03757797181606293,-0.959884762763977
27.35,0.09447941184043884,2.3950369358062744,-1.1902819871902466,0.6346402764320374,0.048913247883319855,-0.722937822341919
27.4,0.053320080041885376,2.1580116748809814,-0.7267811298370361,0.5072577595710754,0.1756802201271057,-0.4298103451728821
27.45,0.03396104276180267,1.5544617176055908,-0.5515881776809692,0.37733855843544006,0.3223017454147339,-0.16113512217998505
27.5,-0.07646435499191284,1.4816819429397583,0.7199960947036743,0.3519437909126282,0.471765398979187,0.12009494751691818
27.55,-0.5874794721603394,0.898634135723114,1.0355223417282104,0.21999916434288025,0.46883541345596313,0.30443403124809265
27.6,-0.25262054800987244,0.7577926516532898,0.7499354481697083,0.08172780275344849,0.37777841091156006,0.2814328372478485
27.65,0.3401872217655182,1.0698825120925903,0.6747562885284424,-0.028599530458450317,0.2855619192123413,0.27799350023269653
27.7,0.27959442138671875,0.8510686159133911,0.5347645878791809,-0.16964483261108398,0.24120330810546875,0.349877268075943
27.75,0.21182942390441895,0.6358919739723206,0.5183506608009338,-0.26172906160354614,0.13305898010730743,0.3918834924697876
27.8,-0.004295378923416138,1.0918761491775513,0.5804447531700134,-0.39619162678718567,0.04579658806324005,0.4027858376502991
27.85,0.546550452709198,2.3535263538360596,1.2275117635726929,-0.6094479560852051,-0.06533380597829819,0.4650745689868927
27.9,0.3276446461677551,2.5803768634796143,1.1030877828598022,-1.0322439670562744,-0.32456278800964355,0.8313590288162231
27.95,-0.14770475029945374,1.8322899341583252,0.08776047825813293,-1.454909086227417,-0.5883716344833374,1.1602613925933838
28.0,-0.2445373386144638,0.5866594910621643,-0.4938908815383911,-1.6920204162597656,-0.8032889366149902,1.3713406324386597
28.05,-0.07810917496681213,-0.799500584602356,-0.7917016744613647,-1.8061094284057617,-0.9428979754447937,1.4354002475738525
28.1,0.03436914086341858,-2.043311834335327,-1.1226037740707397,-1.7874445915222168,-1.0274807214736938,1.3914508819580078
28.15,0.2326207160949707,-1.9828674793243408,-0.7515732049942017,-1.6797027587890625,-1.058265209197998,1.1718454360961914
28.2,0.6826301217079163,-1.1309443712234497,-0.20394660532474518,-1.5794556140899658,-1.2173150777816772,0.9273819923400879
28.25,1.605495810508728,-1.5770152807235718,-0.33812621235847473,-1.5903241634368896,-1.4323093891143799,0.887405514717102
28.3,2.3401129245758057,-2.151614189147949,-0.020121464505791664,-1.5205837488174438,-1.4056806564331055,0.7635805606842041
28.35,2.6792070865631104,-1.7321943044662476,0.1978469043970108,-1.1444783210754395,-1.226926565170288,0.5449711680412292
28.4,1.9920353889465332,-0.4552375376224518,0.2878219783306122,-0.7653666138648987,-0.9741541743278503,0.46927782893180847
28.45,1.4163039922714233,-1.200303316116333,0.5347071290016174,-0.7657808661460876,-0.8670914769172668,0.4636533558368683
28.5,1.4705455303192139,-0.5511065721511841,0.6106178164482117,-0.5895453691482544,-0.9826259613037109,0.31138917803764343
28.55,1.7910046577453613,-0.240179181098938,0.2197730988264084,-0.44811418652534485,-1.0610270500183105,0.20794861018657684
28.6,1.5857493877410889,-0.684540867805481,0.07051476091146469,-0.3477061986923218,-1.0054713487625122,0.07936826348304749
28.65,1.158081293106079,-0.31052979826927185,0.1712423712015152,-0.05384768173098564,-0.9173252582550049,-0.11676394194364548
28.7,0.4927510619163513,0.999726414680481,0.08244571089744568,0.15637648105621338,-0.8271315693855286,-0.12363865226507187
28.75,0.32948800921440125,1.1581870317459106,-0.07074619084596634,0.051807671785354614,-0.7916319966316223,0.06264562904834747
28.8,0.02357775717973709,0.8868314027786255,-0.25473615527153015,-0.1268603503704071,-0.7441443204879761,0.20194856822490692
28.85,-0.35312047600746155,0.5753889679908752,-0.22332295775413513,-0.31866255402565,-0.7389000654220581,0.15947557985782623
28.9,-1.0096758604049683,-0.41290855407714844,0.025814032182097435,-0.516922116279602,-0.6215870976448059,0.03926572948694229
28.95,-1.692428708076477,-1.074355125427246,0.6492069363594055,-0.5112079977989197,-0.41986969113349915,0.010563393123447895
29.0,-1.795071005821228,-0.9030427932739258,0.8012316823005676,-0.0797293558716774,-0.3574202358722687,0.03619404509663582
29.05,-2.010157823562622,0.20483699440956116,0.3846759796142578,0.34582531452178955,-0.34302493929862976,0.07754576951265335
29.1,-2.2882914543151855,0.17094148695468903,-0.011543800123035908,0.3489803671836853,-0.3953099846839905,0.21289996802806854
29.15,-1.1492408514022827,0.3470240533351898,0.1738395243883133,0.21817591786384583,-0.6163658499717712,0.37793079018592834
29.2,-0.29796743392944336,0.36808687448501587,0.43590226769447327,0.09300640225410461,-0.6572543382644653,0.33745327591896057
29.25,-0.47779008746147156,0.37701234221458435,0.4528062045574188,-0.056878529489040375,-0.5204833745956421,0.23601588606834412
29.3,-0.8546996712684631,-0.20412632822990417,0.4832986295223236,-0.24841734766960144,-0.3957368731498718,0.15760700404644012
29.35,-1.4115971326828003,-0.5810498595237732,0.6360458731651306,-0.2603966295719147,-0.3152724802494049,0.14156493544578552
29.4,-1.0751454830169678,-0.2542514204978943,0.8561170101165771,-0.17072415351867676,-0.3119076192378998,0.19825859367847443
29.45,-0.5065031051635742,0.7275429964065552,0.6237054467201233,-0.12793394923210144,-0.19528883695602417,0.2608373165130615
29.5,-0.01538548618555069,1.4727431535720825,0.2076573520898819,-0.13773146271705627,0.0167901162058115,0.2888716757297516
29.55,-0.1269376575946808,1.419399380683899,0.13409098982810974,-0.1552266776561737,0.22403641045093536,0.22898954153060913
29.6,0.012201853096485138,-2.172710657119751,-0.188973069190979,-0.20155301690101624,0.252314031124115,0.22682590782642365
29.65,1.0761451721191406,-2.071364164352417,-0.7187196016311646,0.15868724882602692,0.1626405566930771,0.3785514533519745
29.7,1.2145659923553467,0.5970839858055115,-1.098799705505371,0.47981271147727966,0.20071764290332794,0.36964505910873413
29.75,0.3574739694595337,0.005598028190433979,-0.7828258872032166,0.41543975472450256,0.22757141292095184,0.1070001870393753
29.8,0.42863479256629944,-0.3350401520729065,-0.5807356238365173,0.5627747178077698,0.15102721750736237,0.021862203255295753
29.85,0.4899821877479553,-0.027005238458514214,-0.44887399673461914,0.7644220590591431,0.22043031454086304,0.07107044756412506
29.9,0.27313244342803955,-0.2414274662733078,0.14294518530368805,0.6851603984832764,0.26220399141311646,0.15657569468021393
29.95,0.36894717812538147,-0.6957789063453674,0.7094716429710388,0.44363337755203247,0.13606688380241394,0.19671598076820374
30.0,0.3721502125263214,-1.082142949104309,0.9845758080482483,0.3342686593532562,0.008082502521574497,0.19570830464363098
30.05,0.6315978765487671,-0.8371411561965942,1.0216413736343384,0.39829009771347046,-0.1331789195537567,0.20299138128757477
30.1,0.7295094132423401,-0.3955298066139221,0.9388971924781799,0.5256463289260864,-0.22530895471572876,0.1860877424478531
30.15,0.47623124718666077,-0.08729077130556107,0.8312915563583374,0.5626246929168701,-0.2899858355522156,0.1573815941810608
30.2,0.13278159499168396,-0.41175276041030884,0.46957793831825256,0.4734092950820923,-0.37164250016212463,0.08771557360887527
30.25,-0.7759527564048767,0.03883080556988716,0.07753068208694458,0.457984983921051,-0.5120657682418823,0.0003648095007520169
30.3,-1.203442096710205,0.6326867341995239,-0.07022448629140854,0.46936219930648804,-0.8249945640563965,-0.12413954734802246
30.35,-0.7273598909378052,-0.4626827836036682,-1.0292378664016724,0.49483242630958557,-1.1010404825210571,-0.3404064178466797
30.4,-0.5084152221679688,-0.24566367268562317,-1.1990350484848022,0.5622181296348572,-1.1687415838241577,-0.5176339149475098
30.45,-0.41356465220451355,-0.30898958444595337,-1.3734933137893677,0.48911499977111816,-0.993258535861969,-0.5686509609222412
30.5,-0.4062512516975403,-0.280703604221344,-1.7429449558258057,0.3874257206916809,-0.7513952851295471,-0.4567227363586426
30.55,-0.09451335668563843,-0.15573984384536743,-1.7252904176712036,0.33838483691215515,-0.5835629105567932,-0.34471800923347473
30.6,0.034207165241241455,0.24354742467403412,-1.7282880544662476,0.3839819133281708,-0.42040419578552246,-0.27385613322257996
30.65,0.14285773038864136,0.644251823425293,-1.6534428596496582,0.45086875557899475,-0.3011494278907776,-0.23234841227531433
30.7,0.26310962438583374,1.4187594652175903,-1.4793590307235718,0.4921588599681854,-0.20721301436424255,-0.1882445365190506
30.75,0.27339065074920654,1.8400423526763916,-1.3421045541763306,0.3941971957683563,-0.1249978095293045,-0.09116345643997192
30.8,0.27525097131729126,2.152132272720337,-1.2933992147445679,0.22447234392166138,-0.03511989489197731,-0.03262878581881523
30.85,0.28277838230133057,2.1955997943878174,-1.1399496793746948,0.042032428085803986,0.08368498086929321,-0.1346709430217743
30.9,0.2512505352497101,1.6858723163604736,-1.0961885452270508,-0.1758156716823578,0.1993299126625061,-0.28973811864852905
30.95,0.26764607429504395,1.0145875215530396,-1.2214200496673584,-0.3440288305282593,0.261052668094635,-0.35252732038497925
31.0,0.247919499874115,0.7179279327392578,-1.1012297868728638,-0.3975605070590973,0.2572665512561798,-0.3082214295864105
31.05,0.2813478112220764,0.6074647903442383,-1.0824649333953857,-0.3919266164302826,0.23576335608959198,-0.2610388696193695
31.1,0.36274126172065735,0.9615297913551331,-1.1467101573944092,-0.3996284008026123,0.21775467693805695,-0.18884342908859253
31.15,0.2743292450904846,0.971138060092926,-1.2990012168884277,-0.5106827020645142,0.24784304201602936,-0.11985938251018524
31.2,0.1328439712524414,-0.07702832669019699,-1.3065776824951172,-0.6124348044395447,0.27334973216056824,-0.0177841167896986
31.25,-0.04530268907546997,-0.2929421067237854,-1.073439121246338,-0.5654444098472595,0.329647958278656,0.12721799314022064
31.3,-0.2356852889060974,-0.7162047028541565,-0.5925666093826294,-0.5117591023445129,0.3876526653766632,0.19280022382736206
31.35,-0.7988462448120117,-1.074722409248352,0.04116862639784813,-0.4202876091003418,0.4645039737224579,0.12823721766471863
31.4,-1.3449534177780151,-0.4676952064037323,0.782027542591095,-0.2520304322242737,0.5239531397819519,0.05518849194049835
31.45,-1.705920696258545,-0.2171400934457779,1.360557198524475,-0.19171841442584991,0.515869140625,0.11704747378826141
31.5,-1.879164695739746,0.5970995426177979,2.097414970397949,-0.20757493376731873,0.3963630199432373,0.2701803147792816
31.55,-1.493276834487915,0.10013976693153381,2.077747106552124,-0.3607694208621979,0.15246698260307312,0.3585977554321289
31.6,-1.0404223203659058,-0.0931805670261383,1.4479763507843018,-0.45187908411026,-0.23475602269172668,0.3990853428840637
31.65,-1.7450319528579712,0.44829288125038147,-0.13443145155906677,-0.47939610481262207,-0.8836845755577087,0.202569842338562
31.7,-1.0486384630203247,0.3431234657764435,-1.519262671470642,-0.5496952533721924,-2.161886692047119,-0.35416048765182495
31.75,1.5422534942626953,-0.7482253909111023,-0.5513101816177368,-0.576904296875,-3.509338140487671,-0.8958268165588379
31.8,3.0920052528381348,-1.4757845401763916,1.9619622230529785,-0.482487291097641,-3.992114543914795,-0.913193941116333
31.85,2.533022403717041,-1.4135514497756958,2.7018446922302246,-0.3935783803462982,-3.5964834690093994,-0.5848149657249451
31.9,2.041170120239258,-1.325628399848938,2.545247793197632,-0.37289321422576904,-3.084080219268799,-0.25147268176078796
31.95,1.4756455421447754,-0.804823100566864,1.3824331760406494,-0.2291967272758484,-2.6897993087768555,-0.014188054949045181
32.0,1.3081518411636353,-0.9913141131401062,1.049417495727539,-0.1198493242263794,-2.6296002864837646,0.15950416028499603
32.05,0.998162567615509,-1.0284024477005005,1.7369250059127808,-0.050172701478004456,-2.6860625743865967,0.3163239657878876
32.1,0.28563958406448364,-0.1579284369945526,2.350297689437866,0.03213277459144592,-2.5197243690490723,0.43362751603126526
32.15,-0.5471669435501099,0.7667810320854187,1.9978002309799194,-0.005040183663368225,-2.2192370891571045,0.39819058775901794
32.2,-1.2973377704620361,0.7377769351005554,2.050427198410034,-0.12226090580224991,-1.9958522319793701,0.325401246547699
32.25,-2.0204315185546875,0.8194945454597473,2.213676929473877,-0.15641547739505768,-1.669973611831665,0.28686287999153137
32.3,-2.1245763301849365,1.1295197010040283,1.570443868637085,-0.014896050095558167,-1.2150434255599976,0.3183804452419281
32.35,-1.2207070589065552,0.8017913699150085,0.5065277218818665,0.19607584178447723,-0.7831350564956665,0.4626266360282898
32.4,-0.7301790714263916,0.3055344223976135,-0.13382653892040253,0.3249717056751251,-0.49523788690567017,0.5728356838226318
32.45,-0.3598935902118683,0.5529718995094299,-0.521424412727356,0.24261562526226044,-0.2844885289669037,0.5062576532363892
32.5,-0.21602338552474976,1.1689234972000122,-0.8501855731010437,0.14743882417678833,-0.23662661015987396,0.13446418941020966
32.55,-0.40220895409584045,0.535377562046051,-0.4796161949634552,0.29157909750938416,-0.338192880153656,-0.33776283264160156
32.6,-0.979062557220459,-0.14670653641223907,0.19727471470832825,0.4980035722255707,-0.3940306007862091,-0.5359085202217102
32.65,-1.2712163925170898,0.33517467975616455,0.9503917694091797,0.6962927579879761,-0.25829988718032837,-0.44447943568229675
32.7,-0.9498704671859741,0.3812800943851471,0.9922384023666382,1.087470531463623,0.04996076226234436,-0.31191378831863403
32.75,0.022807970643043518,-0.08511926978826523,-0.39383792877197266,1.4245555400848389,0.43409833312034607,-0.3249005973339081
32.8,0.69640052318573,-0.359416127204895,-1.4415384531021118,1.2947343587875366,0.8781657814979553,-0.5713984370231628
32.85,0.9685921669006348,-0.23297038674354553,-2.356846809387207,0.8578388690948486,1.3927948474884033,-0.8018955588340759
32.9,1.029093861579895,-0.04684463143348694,-3.2564566135406494,0.5072602033615112,1.6501840353012085,-0.8389917612075806
32.95,0.8368443250656128,0.3006342649459839,-3.259167194366455,0.3220016658306122,1.5302705764770508,-0.8400551080703735
33.0,0.6496777534484863,1.1763849258422852,-2.885620355606079,0.2479764223098755,1.1918848752975464,-0.8777976036071777
33.05,0.7118467092514038,1.7664042711257935,-2.5402321815490723,0.15918433666229248,0.6913962364196777,-0.9431532025337219
33.1,0.7175843119621277,-0.3888389468193054,-2.8052735328674316,-0.12489035725593567,0.03867756575345993,-1.146462321281433
33.15,0.8990628719329834,-0.2010270357131958,-1.5895441770553589,-0.607699990272522,-0.9074189066886902,-1.407086730003357
33.2,2.0866618156433105,-0.7124702334403992,-0.5687626004219055,-0.9806656837463379,-2.1777989864349365,-1.5603474378585815
33.25,2.6855273246765137,-2.247046709060669,1.9481337070465088,-1.3133119344711304,-3.85937237739563,-1.820113182067871
33.3,-2.446560859680176,-2.3881726264953613,5.470722198486328,-1.7082977294921875,-5.210644245147705,-1.8022640943527222
33.35,-7.677854537963867,0.2624583840370178,3.8581674098968506,-1.7035119533538818,-4.604774475097656,-1.0955044031143188
33.4,-6.025111675262451,0.9001631736755371,1.0732977390289307,-1.1492958068847656,-2.4878365993499756,-0.20522311329841614
33.45,-2.7295665740966797,-0.2540501356124878,0.048921093344688416,-0.6538044214248657,-0.8033243417739868,0.24737389385700226
33.5,-1.2872447967529297,-0.5073404312133789,0.08464652299880981,-0.6415256261825562,-0.2400304228067398,0.3939356207847595
33.55,-1.0700628757476807,-0.0722922682762146,0.29526931047439575,-0.7512449026107788,-0.2883763015270233,0.46719232201576233
33.6,-0.9675474166870117,0.4180556535720825,0.38592755794525146,-0.7660278081893921,-0.44297242164611816,0.5558077096939087
33.65,-0.8273686170578003,0.8311979174613953,0.1670813262462616,-0.6433753371238708,-0.5300360321998596,0.6105847954750061
33.7,-0.3286063075065613,1.3027650117874146,0.1369238644838333,-0.4508671760559082,-0.5420377850532532,0.5233293175697327
33.75,-0.4055539071559906,1.8481228351593018,0.23273415863513947,-0.31711047887802124,-0.6413663625717163,0.3590720593929291
33.8,-0.46690160036087036,2.2225868701934814,0.21769696474075317,-0.21498611569404602,-0.6717119216918945,0.33289119601249695
33.85,-0.1763671338558197,0.7131167054176331,0.2077064961194992,0.09399194270372391,-0.47165367007255554,0.4058980345726013
33.9,0.9156391620635986,-0.5705662965774536,0.23993796110153198,0.36943456530570984,-0.0023147771134972572,0.6822972297668457
33.95,2.1629064083099365,-1.4232943058013916,0.6110844016075134,0.21347643435001373,0.41095665097236633,0.7522265911102295
34.0,1.3109164237976074,-1.4120131731033325,0.5923231840133667,-0.026294782757759094,0.46723800897598267,0.3986879885196686
34.05,0.6975833773612976,-1.3190470933914185,0.276852011680603,-0.06377680599689484,0.5219499468803406,0.201106995344162
34.1,0.44379889965057373,-1.2282782793045044,-0.07840538024902344,-0.015335071831941605,0.5525679588317871,0.10130411386489868
34.15,-0.9990358352661133,-1.155263066291809,-0.2859284281730652,0.009909586980938911,0.5674943327903748,0.028971867635846138
34.2,-3.5205135345458984,-0.08593445271253586,0.20737409591674805,0.03470901772379875,1.158429503440857,0.0893317386507988
34.25,-3.2084405422210693,1.1173251867294312,1.6819634437561035,0.2986066937446594,2.857391595840454,0.07908571511507034
34.3,1.3617737293243408,1.0367451906204224,0.8948261141777039,0.5754002928733826,4.395406723022461,-0.07830006629228592
34.35,3.01141357421875,0.8982428908348083,-1.288933277130127,0.5533541440963745,4.135111331939697,0.020189933478832245
34.4,1.9995002746582031,1.8778973817825317,-1.8049373626708984,0.31299957633018494,2.908342123031616,0.13634520769119263
34.45,0.5825012922286987,2.0587780475616455,-0.5657011866569519,0.11288262903690338,1.8005552291870117,0.12287022173404694
34.5,0.015039324760437012,-0.41168123483657837,0.19316639006137848,0.13411183655261993,1.2459312677383423,0.047729089856147766
34.55,-0.3396628499031067,-0.6625872254371643,0.41425517201423645,0.006469579413533211,0.9508882164955139,-0.01094228308647871
34.6,-0.42422571778297424,-0.15884682536125183,0.7683448791503906,-0.28810733556747437,0.7228714823722839,0.08584156632423401
34.65,-0.2710114121437073,-0.020023318007588387,0.5617531538009644,-0.24061894416809082,0.5427073836326599,0.1997441053390503
34.7,-0.5115211009979248,-0.6779546737670898,0.38925445079803467,-0.0422053337097168,0.4019080102443695,0.19888731837272644
34.75,-0.6050416827201843,-1.5174314975738525,0.059070438146591187,-0.014098700135946274,0.3623673915863037,0.15052123367786407
34.8,-0.5449392795562744,-1.6836445331573486,-0.06711889058351517,-0.1272009015083313,0.29880109429359436,0.2044755518436432
34.85,-0.5047475695610046,-1.1870118379592896,-0.10182575136423111,-0.17733821272850037,0.17878495156764984,0.2573341131210327
34.9,-0.531302809715271,-0.6357155442237854,-0.08807333558797836,-0.16868989169597626,-0.02503986656665802,0.25193461775779724
34.95,-0.4211755394935608,-0.11402415484189987,-0.06369266659021378,-0.12960079312324524,-0.34401875734329224,0.2559044361114502
35.0,-0.1642187535762787,2.5117428302764893,0.10787901282310486,-0.0862087607383728,-0.7079751491546631,0.2308284491300583
35.05,0.11559898406267166,5.390164852142334,0.42008811235427856,-0.11705020070075989,-0.940971851348877,0.09434404969215393
35.1,-0.028789818286895752,1.2251769304275513,1.311384916305542,-0.033932432532310486,-0.9187824130058289,-0.04372630640864372
35.15,0.12434419989585876,0.6976118683815002,0.5642771124839783,0.24283325672149658,-0.5349606275558472,0.21760255098342896
35.2,0.6558993458747864,0.22663211822509766,0.003884925041347742,0.2563537061214447,-0.19145618379116058,0.5545492172241211
35.25,0.7190220952033997,-0.9762908816337585,-0.19447939097881317,0.12004847824573517,-0.008398627862334251,0.5999240279197693
35.3,0.38926440477371216,-1.0766059160232544,-0.23441974818706512,-0.014047056436538696,0.1701827347278595,0.43117231130599976
35.35,0.08717942982912064,-0.9949256181716919,-0.28993985056877136,-0.0618915781378746,0.36476823687553406,0.10469953715801239
35.4,0.04650166630744934,-1.0042048692703247,-0.6670747995376587,-0.03472026810050011,0.5162934064865112,-0.1593603789806366
35.45,0.0377485454082489,-0.27276140451431274,-0.9950225949287415,-0.05446482077240944,0.4889180064201355,-0.20096854865550995
35.5,-0.1224619448184967,0.9507056474685669,-0.9428505301475525,-0.07328696548938751,0.33780935406684875,-0.18675604462623596
35.55,-0.3971414566040039,1.2419005632400513,-0.588813304901123,-0.016545608639717102,0.2626415193080902,-0.2847312390804291
35.6,-0.7152215242385864,1.6457655429840088,-0.10321756452322006,0.016791656613349915,0.324394553899765,-0.3360733091831207
35.65,-0.7925657033920288,2.5398428440093994,0.42236819863319397,0.015441089868545532,0.5208161473274231,-0.2518797516822815
35.7,-0.2913311719894409,1.1150962114334106,0.7028225064277649,0.05511937290430069,0.7670649886131287,-0.24852463603019714
35.75,-0.29981765151023865,-1.1910821199417114,0.854648768901825,0.07673344016075134,0.8660675883293152,-0.4056110382080078
35.8,-0.6394765377044678,-0.8598995804786682,1.039262294769287,-0.05652415752410889,0.8301031589508057,-0.3462426960468292
35.85,-0.45394301414489746,-0.17842383682727814,1.0992592573165894,-0.15061962604522705,0.8253009915351868,-0.08711470663547516
35.9,-0.12987542152404785,-0.2615079879760742,0.9426143169403076,-0.13406790792942047,0.8509844541549683,0.10526803880929947
35.95,-0.02712586522102356,-0.22546102106571198,0.7027853727340698,-0.07995067536830902,0.8404421210289001,0.14866410195827484
36.0,-0.22145630419254303,-0.5206909775733948,0.4678366482257843,0.0049859872087836266,0.7831034660339355,0.03223932161927223
36.05,-0.48774904012680054,-0.9119396805763245,0.16455934941768646,0.08170066773891449,0.7139877080917358,-0.0886550322175026
36.1,-0.7481863498687744,-0.6887798309326172,-0.3058885335922241,0.11502639949321747,0.5973793268203735,-0.13983315229415894
36.15,-0.8369319438934326,0.029353169724345207,-0.7103110551834106,0.11792716383934021,0.3204987049102783,-0.15100570023059845
36.2,-0.7818838953971863,0.880010724067688,-0.45224612951278687,0.15715011954307556,-0.15620575845241547,-0.1876705139875412
36.25,-0.8052169680595398,2.2560713291168213,0.11289891600608826,0.18629573285579681,-0.5555676221847534,-0.2179587185382843
36.3,-0.3729613423347473,3.135425090789795,0.726584255695343,0.15250229835510254,-0.6835220456123352,-0.2339828759431839
36.35,0.575211763381958,0.5437536835670471,1.1176515817642212,0.15654468536376953,-0.5561006665229797,-0.19884368777275085
36.4,0.6600742936134338,0.11982346326112747,0.9038386940956116,0.3300304114818573,-0.2578493058681488,-0.09389708936214447
36.45,0.6987422108650208,0.35014820098876953,0.7250393629074097,0.37515756487846375,0.15459132194519043,0.11937927454710007
36.5,0.8530372381210327,0.1971893161535263,0.10721327364444733,0.2314043939113617,0.5789156556129456,0.24592915177345276
36.55,0.7041254639625549,-0.10880571603775024,-0.34264978766441345,0.035858429968357086,0.823000431060791,0.29659503698349
36.6,0.18542566895484924,-0.8555241823196411,-0.45397061109542847,-0.037771228700876236,0.8908702731132507,0.16753625869750977
36.65,-0.2893528640270233,-1.3303052186965942,-0.679895281791687,0.030973713845014572,0.8959131836891174,0.02346687577664852
36.7,-0.6212921142578125,-1.1441975831985474,-0.5744599103927612,0.02711206115782261,0.8230608701705933,-0.00499552208930254
36.75,-0.6865591406822205,-0.3923206627368927,-0.20322895050048828,0.0038168542087078094,0.7569793462753296,0.09273826330900192
36.8,-0.4191370904445648,0.0890674963593483,0.18643537163734436,0.050286658108234406,0.8249104619026184,0.21339727938175201
36.85,0.10505178570747375,0.07616617530584335,0.7201029062271118,0.07731896638870239,1.0977493524551392,0.24790948629379272
36.9,0.8117960691452026,-0.012966160662472248,1.4495882987976074,-0.0042883604764938354,1.5505666732788086,0.16014423966407776
36.95,1.8489460945129395,3.434203624725342,2.7853689193725586,0.024697134271264076,2.118553876876831,0.062350064516067505
37.0,4.161949157714844,5.696131229400635,3.368330717086792,0.3420883119106293,3.0416159629821777,-0.4588095247745514
37.05,4.340977668762207,0.5509880185127258,0.19413331151008606,0.18209338188171387,4.4187774658203125,-1.2087552547454834
37.1,1.6112711429595947,-1.051708459854126,-1.464227318763733,-0.21283231675624847,4.867852687835693,-0.6427998542785645
37.15,-0.7515643239021301,-0.17486003041267395,-1.903352975845337,0.2244676649570465,4.079058647155762,-0.2394953966140747
37.2,0.22250917553901672,0.45650485157966614,-0.7431313991546631,0.1521061211824417,3.0566775798797607,-0.16800270974636078
37.25,0.8057751059532166,0.4120464324951172,-0.26304224133491516,-0.2864249646663666,2.8044984340667725,0.1042051613330841
37.3,0.15783244371414185,-0.07657624781131744,-0.08909872174263,-0.5450987815856934,2.801309823989868,0.3578070402145386
37.35,0.13070744276046753,0.05427171289920807,0.4959947168827057,-0.4884171783924103,2.577406644821167,0.5499178171157837
37.4,0.385836660861969,-0.0870819091796875,1.0751692056655884,-0.43972229957580566,2.068087339401245,0.49155691266059875
37.45,0.8229612112045288,-0.14769652485847473,1.1824836730957031,-0.3593582510948181,1.437263011932373,0.3155685365200043
37.5,0.9991411566734314,-0.34919267892837524,1.1804978847503662,-0.24212926626205444,0.99416184425354,0.1827564388513565
37.55,0.966233491897583,-0.5036888718605042,1.0580161809921265,-0.07815656065940857,0.7378879189491272,0.092013880610466
37.6,0.9186887145042419,-0.5451870560646057,0.8054539561271667,0.027301138266921043,0.5748782157897949,-0.02649378404021263
37.65,0.649536669254303,0.16087818145751953,0.8159204125404358,0.06735275685787201,0.48008373379707336,-0.12479667365550995
37.7,0.5445082783699036,-0.06932450830936432,0.8884412050247192,0.10993318259716034,0.36660557985305786,-0.12007855623960495
37.75,0.8603826761245728,-0.741127073764801,0.8424515128135681,0.20214605331420898,0.1947706639766693,-0.0755474716424942
37.8,1.2765872478485107,-0.21231946349143982,0.40844613313674927,0.39963287115097046,0.06601735204458237,-0.11364728957414627
37.85,0.40594565868377686,0.7248802781105042,0.13529926538467407,0.47818565368652344,0.09966520220041275,-0.30503708124160767
37.9,-0.5972130298614502,0.32545286417007446,0.039876703172922134,0.4691099226474762,0.12364153563976288,-0.35710906982421875
37.95,-0.817524790763855,-0.0887279137969017,-0.01741889677941799,0.5669201612472534,0.06869494915008545,-0.21317768096923828
38.0,-0.7502180933952332,0.35653311014175415,0.09517302364110947,0.6405942440032959,0.009192566387355328,-0.18467700481414795
38.05,-0.6102983355522156,0.3585854172706604,0.233266681432724,0.5785843729972839,0.00361201586201787,-0.24113211035728455
38.1,-0.47751161456108093,0.02779773809015751,0.36060968041419983,0.5194698572158813,0.06286467611789703,-0.2099285125732422
38.15,-0.24301692843437195,-0.16473673284053802,0.42782360315322876,0.5727618932723999,0.12848059833049774,-0.1502152681350708
38.2,-0.09165254235267639,-0.2052164226770401,0.6088059544563293,0.5978903770446777,0.19114002585411072,-0.1565059870481491
38.25,-0.08874782919883728,0.01902487687766552,0.7572576999664307,0.5545132160186768,0.26325538754463196,-0.1826602965593338
38.3,-0.15204936265945435,0.1351194828748703,0.9567474126815796,0.4715472459793091,0.33573535084724426,-0.15164552628993988
38.35,-0.1987878978252411,0.05628209188580513,1.09657621383667,0.4214620590209961,0.3573592007160187,-0.07298780977725983
38.4,-0.0218503475189209,-0.1423787921667099,1.0154660940170288,0.3819594383239746,0.3121546506881714,-0.009238701313734055
38.45,-0.1038026511669159,0.0107136070728302,0.8550312519073486,0.3040178418159485,0.26451414823532104,0.027919284999370575
38.5,-0.32813379168510437,0.502304196357727,0.8001746535301208,0.17707037925720215,0.21142277121543884,0.05675770342350006
38.55,-0.47028931975364685,1.2336512804031372,0.5962030291557312,0.061405666172504425,0.1774010807275772,0.08691968768835068
38.6,-0.5302804708480835,1.901038408279419,0.535391628742218,-0.08066107332706451,0.155324324965477,0.15271972119808197
38.65,-0.05177070200443268,2.3479273319244385,0.38375988602638245,-0.24240823090076447,0.10174404084682465,0.2540256381034851
38.7,0.4272581934928894,1.8079426288604736,-0.22919167578220367,-0.3259390890598297,0.07373768091201782,0.3180861175060272
38.75,0.14996224641799927,-0.09917835146188736,-0.49458935856819153,-0.36308589577674866,0.12365080416202545,0.265815794467926
38.8,0.18566960096359253,-1.453384518623352,-0.26989468932151794,-0.34163621068000793,0.0854984000325203,0.18685774505138397
38.85,0.3860122859477997,-0.9486638307571411,-0.3098433017730713,-0.058925218880176544,-0.02218407392501831,0.044675540179014206
38.9,0.46604329347610474,-0.5855246782302856,-0.3626990020275116,0.1587786227464676,-0.0957917794585228,-0.029813403263688087
38.95,0.6939563751220703,-1.0213137865066528,-0.2989042401313782,0.09969840198755264,-0.11995681375265121,0.0214923694729805
39.0,0.6459817886352539,-1.3473883867263794,0.061343856155872345,-0.03955497965216637,-0.05625084787607193,0.028076171875
39.05,0.7933789491653442,-1.572077989578247,0.4559495449066162,-0.14681127667427063,-0.050644271075725555,0.041201990097761154
39.1,1.0639317035675049,-1.6989500522613525,0.6841552257537842,-0.19375266134738922,-0.08691929280757904,0.025063833221793175
39.15,1.3734952211380005,-1.5314123630523682,0.5730490684509277,-0.17101119458675385,-0.09354223310947418,-0.04623839631676674
39.2,1.4086437225341797,-0.8529073596000671,0.5705811381340027,-0.1155356615781784,0.01930365152657032,-0.19670230150222778
39.25,1.0567374229431152,-0.24804121255874634,0.6987736225128174,-0.05860496312379837,0.18163509666919708,-0.23800642788410187
39.3,0.6183197498321533,-0.3357716202735901,0.6089906096458435,0.002675246447324753,0.20610617101192474,-0.11875887215137482
39.35,0.5166258811950684,-1.1762887239456177,0.553686797618866,-0.019867587834596634,0.07134982943534851,0.08836540579795837
39.4,0.4180125296115875,-0.37034323811531067,0.6201138496398926,-0.11960110068321228,-0.05119135603308678,0.151719868183136
39.45,0.17474901676177979,3.3473029136657715,0.5620856881141663,-0.11851511895656586,-0.13516876101493835,0.09244587272405624
39.5,0.07627308368682861,0.9158230423927307,-0.9784040451049805,-0.05534479767084122,-0.22683915495872498,0.04550720751285553
39.55,-1.278735876083374,-1.1131316423416138,-0.9612231850624084,-0.2371438443660736,-0.08247809112071991,-0.1434355080127716
39.6,-3.2220449447631836,-3.968467950820923,-0.25479841232299805,-0.14406979084014893,0.03347334265708923,-0.2178206443786621
39.65,-2.969810962677002,-1.5636998414993286,-0.9198727607727051,0.22042933106422424,-0.006769619416445494,-0.14290818572044373
39.7,-2.592007875442505,-0.3943338096141815,-1.9099969863891602,0.5014266967773438,0.024205053225159645,-0.020251212641596794
39.75,-2.0413410663604736,0.31034189462661743,-2.5508127212524414,0.536583423614502,-0.031269464641809464,0.015798984095454216
39.8,-1.4708893299102783,0.6667328476905823,-2.514113426208496,0.5474075078964233,-0.012508192099630833,-0.0748312920331955
39.85,-0.7062493562698364,1.051223874092102,-2.469940662384033,0.5915307998657227,0.06075303256511688,-0.0907285064458847
39.9,-0.7832356691360474,1.0688468217849731,-1.6936535835266113,0.4710966646671295,0.1043529137969017,-0.08985291421413422
39.95,-1.0490168333053589,0.971108615398407,-0.900133490562439,0.3119056820869446,0.013577126897871494,0.00834615621715784
40.0,-0.9510147571563721,1.2505284547805786,-0.7959764003753662,0.27764612436294556,-0.10086081176996231,0.1173095628619194
40.05,-1.2626752853393555,2.544509172439575,-0.7892312407493591,0.3166174292564392,-0.14797857403755188,0.15235885977745056
40.1,-1.8816022872924805,2.4105684757232666,0.03088524378836155,0.19438157975673676,-0.1853417307138443,0.33465662598609924
40.15,-1.0655901432037354,1.5739729404449463,0.09008870273828506,0.11289848387241364,-0.277505487203598,0.6440579891204834
40.2,0.34684595465660095,2.3503448963165283,-0.870327353477478,0.15118443965911865,-0.3589361608028412,0.8375929594039917
40.25,2.1933374404907227,2.633024215698242,-1.6205573081970215,-0.0047949254512786865,-0.3941459655761719,0.928031325340271
40.3,2.7822964191436768,1.3615789413452148,-0.77650386095047,-0.3151743412017822,-0.2438153326511383,0.6815007925033569
40.35,1.789900302886963,0.9812688827514648,-0.0973084568977356,-0.2892588973045349,-0.0549982413649559,0.20679859817028046
40.4,1.4363429546356201,1.757498860359192,-0.23380731046199799,-0.07378078997135162,-0.03307950496673584,-0.013164250180125237
40.45,2.0915746688842773,2.159269332885742,-0.33725082874298096,-0.06696435064077377,-0.1685618907213211,-0.038934893906116486
40.5,2.4430911540985107,1.4229793548583984,0.1794496476650238,-0.268844336271286,-0.16752992570400238,-0.05537089332938194
40.55,1.5574530363082886,1.1486865282058716,0.8650042414665222,-0.348375141620636,-0.048649873584508896,-0.1824294924736023
40.6,0.9668950438499451,0.6274786591529846,1.4623345136642456,-0.37962067127227783,-0.024360423907637596,-0.24437707662582397
40.65,1.623536467552185,-0.46229085326194763,2.2805163860321045,-0.4119037985801697,0.05249549821019173,-0.06322991847991943
40.7,2.753054618835449,-0.8233415484428406,2.4863219261169434,-0.19732704758644104,0.3152635395526886,0.15361763536930084
40.75,1.598564624786377,0.5887565612792969,1.1293601989746094,0.15123529732227325,0.6604647040367126,0.045159514993429184
40.8,0.794383704662323,1.8597195148468018,-0.19777031242847443,0.016562648117542267,0.5851526856422424,0.14344586431980133
40.85,-0.9259687662124634,2.053900957107544,-1.2556413412094116,-0.13298816978931427,0.30013343691825867,0.20710958540439606
40.9,-2.0786118507385254,0.6336661577224731,-0.7362952828407288,-0.43841567635536194,0.012329436838626862,0.04799331724643707
40.95,-1.9001293182373047,0.4871036410331726,0.2393064796924591,-0.3699568510055542,0.10279058665037155,0.2512976825237274
41.0,-0.9652891159057617,0.46888267993927,-0.20595553517341614,-0.07432667911052704,0.1677035242319107,0.3151029348373413
41.05,-0.7265299558639526,-0.8334570527076721,0.2485375851392746,-0.1150422990322113,0.1414206624031067,0.1369752734899521
41.1,-0.47153669595718384,-2.18111252784729,0.6053034067153931,-0.10934744775295258,0.0446607880294323,-0.04271194711327553
41.15,0.07474225014448166,-2.4865543842315674,0.32401978969573975,0.0957385003566742,-0.08096936345100403,-0.16001495718955994
41.2,0.7491414546966553,-2.928194284439087,0.2136521339416504,0.21462829411029816,-0.1888255774974823,-0.20661108195781708
41.25,1.016965627670288,-3.3434486389160156,0.4140282869338989,0.21991460025310516,-0.27721792459487915,-0.3322692811489105
41.3,0.7971611618995667,-3.243403434753418,0.9627746343612671,0.1966840922832489,-0.30086106061935425,-0.4542830288410187
41.35,0.4615512788295746,-2.902366876602173,1.5500470399856567,0.11181996762752533,-0.33646583557128906,-0.45662811398506165
41.4,0.40972787141799927,-2.3108084201812744,1.8404680490493774,0.06050144135951996,-0.4608520567417145,-0.37632760405540466
41.45,1.0773131847381592,-2.6782491207122803,1.5753697156906128,0.015366733074188232,-0.6066973805427551,-0.28776970505714417
41.5,1.6530966758728027,-2.982294797897339,1.5692025423049927,0.11209136247634888,-0.5900581479072571,-0.3190138638019562
41.55,2.2079672813415527,-1.9259666204452515,1.6330112218856812,0.39885061979293823,-0.53645259141922,-0.5675786137580872
41.6,1.7721924781799316,-0.4821053743362427,1.4467235803604126,0.40917888283729553,-0.3518928289413452,-0.9023865461349487
41.65,1.2519012689590454,0.158933624625206,1.0745666027069092,0.12543746829032898,-0.04577723890542984,-0.8325043320655823
41.7,0.6882438659667969,1.3720256090164185,1.4088706970214844,-0.2337590456008911,0.2674156129360199,-0.48939505219459534
41.75,0.06500229239463806,1.9275152683258057,1.3121142387390137,-0.5767658948898315,0.24988704919815063,-0.0363660603761673
41.8,-0.8113495707511902,-2.4296762943267822,-0.8883399963378906,-0.654560923576355,-0.0925409272313118,0.22420048713684082
41.85,-0.4456010162830353,-0.5264979600906372,-1.9621531963348389,-0.4081471860408783,-0.37786999344825745,0.07948236912488937
41.9,-1.5566856861114502,0.3338947594165802,-2.4459311962127686,-0.21423009037971497,-0.2944783568382263,-0.32619646191596985
41.95,-3.488069534301758,1.1962406635284424,-1.7486027479171753,-0.16764023900032043,0.05403590574860573,-0.3812933564186096
42.0,-2.536593437194824,1.053133249282837,-1.4865193367004395,-0.09014252573251724,0.06294624507427216,-0.08742178231477737
42.05,-2.3614537715911865,1.08675217628479,-1.3742525577545166,0.039061032235622406,0.1151137724518776,0.10100701451301575
42.1,-1.1780726909637451,1.5214273929595947,-1.5502568483352661,0.15532875061035156,0.0007784467306919396,0.18533076345920563
42.15,-0.5990484952926636,1.6973669528961182,-1.609047532081604,0.1691056787967682,-0.06599537283182144,0.19927941262722015
42.2,0.40126800537109375,1.8604069948196411,-1.5467585325241089,0.13348388671875,-0.08593889325857162,0.25959593057632446
42.25,0.9821269512176514,1.4527778625488281,-1.0739411115646362,-0.008234545588493347,-0.05834239721298218,0.2773703336715698
42.3,1.21785306930542,1.6205703020095825,-0.9193176031112671,-0.08618785440921783,-0.03349117189645767,0.1593271940946579
42.35,0.3543483316898346,2.434748888015747,-0.9863010048866272,-0.13020476698875427,0.035598088055849075,0.04891883209347725
42.4,-0.2599974274635315,2.655057191848755,-0.8178173303604126,-0.3417932391166687,0.005393216386437416,0.04470718652009964
42.45,-0.33549290895462036,2.198779344558716,-0.5747352242469788,-0.5712478160858154,-0.035582974553108215,0.14278742671012878
42.5,0.19734898209571838,1.7451202869415283,-0.43106260895729065,-0.6929889917373657,-0.02920157089829445,0.293138325214386
42.55,0.7047899961471558,1.1694928407669067,0.6073423027992249,-0.8114645481109619,-0.054934535175561905,0.42685580253601074
42.6,1.5431181192398071,0.09363841265439987,2.389430522918701,-0.8206379413604736,-0.02651170641183853,0.44480016827583313
42.65,1.9461616277694702,0.020402906462550163,3.5834739208221436,-0.5606381893157959,0.14234411716461182,0.4596221446990967
42.7,2.042034864425659,0.4937658905982971,3.979597806930542,-0.3209400773048401,0.07976511865854263,0.31457990407943726
42.75,1.6814780235290527,0.44012078642845154,3.987419605255127,-0.16308853030204773,-0.15550939738750458,0.115261010825634
42.8,0.9915249943733215,0.8077976107597351,3.5648422241210938,0.08596500754356384,-0.364624947309494,0.06705809384584427
42.85,0.49905550479888916,1.868067979812622,2.2977893352508545,0.2927090525627136,-0.45689836144447327,0.12250930070877075
42.9,0.17394329607486725,2.2328970432281494,0.3354419767856598,0.1490010917186737,-0.37904882431030273,0.2237369418144226
42.95,-0.49609172344207764,0.3064565658569336,-1.4848439693450928,-0.34790343046188354,-0.05581246688961983,0.32240748405456543
43.0,-1.4350464344024658,-1.015839695930481,-1.958786964416504,-0.7545726299285889,0.22982560098171234,0.341901957988739
43.05,0.1956881880760193,-1.6036180257797241,-2.026618003845215,-0.7702397108078003,0.1734188050031662,0.4073388874530792
43.1,1.1099239587783813,-1.160548448562622,-2.304171562194824,-0.4001343250274658,0.1499391794204712,0.3472396433353424
43.15,1.117106318473816,-0.4930879473686218,-2.0026416778564453,-0.11293929815292358,0.13326536118984222,0.1369248926639557
43.2,0.28612062335014343,-0.6119052171707153,-1.1463478803634644,0.06045958027243614,0.10138686746358871,-0.14054514467716217
43.25,0.31057578325271606,-0.801728367805481,-0.41251951456069946,0.19683267176151276,0.0014063146663829684,-0.20434078574180603
43.3,0.7734007835388184,-1.4504977464675903,0.17345604300498962,0.3031814396381378,0.015369580127298832,-0.1931973397731781
43.35,0.8592013120651245,-1.6182196140289307,0.6531597971916199,0.3741702735424042,0.13794676959514618,-0.27965039014816284
43.4,0.9478651881217957,-2.06363844871521,1.1987799406051636,0.31967371702194214,0.2697174549102783,-0.3900091052055359
43.45,0.8266355395317078,-2.0944430828094482,1.6851513385772705,0.33880415558815,0.4251050055027008,-0.5228712558746338
43.5,0.5291415452957153,-1.5561306476593018,1.9858980178833008,0.4005855917930603,0.5452543497085571,-0.5234633088111877
43.55,0.5462274551391602,-1.3465291261672974,1.9785115718841553,0.386118620634079,0.501285970211029,-0.34029099345207214
43.6,0.9231199026107788,-0.6350651383399963,1.7971525192260742,0.37337666749954224,0.3730442523956299,-0.1664385050535202
43.65,1.2831273078918457,-0.6707659363746643,1.727426290512085,0.2947830557823181,0.28781062364578247,-0.030267244204878807
43.7,1.7004519701004028,-0.3943997621536255,1.2468222379684448,0.25181159377098083,0.18704868853092194,-0.06329729408025742
43.75,1.1530137062072754,0.2771320343017578,0.9254131317138672,0.21902050077915192,0.20365303754806519,-0.1986183524131775
43.8,0.861728847026825,0.4956236481666565,1.1499292850494385,0.15015581250190735,0.22174742817878723,-0.08850109577178955
43.85,1.4292454719543457,0.012912718579173088,1.5003153085708618,0.06210853159427643,0.14866292476654053,0.1412777304649353
43.9,1.984393835067749,-1.4664069414138794,1.7465105056762695,-0.01597820222377777,0.04497557505965233,0.18029728531837463
43.95,1.8730847835540771,-2.7993810176849365,1.5363916158676147,0.02544068545103073,-0.03567272797226906,0.010259352624416351
44.0,1.1007617712020874,-2.6413633823394775,1.1096391677856445,0.06680147349834442,-0.09438318759202957,-0.10616001486778259
44.05,-0.033171653747558594,-0.8306504487991333,0.8991091847419739,0.05387638136744499,-0.14185254275798798,-0.01680452935397625
44.1,-0.6478003859519958,0.8155061602592468,0.4240959882736206,-0.06792384386062622,-0.2391376495361328,0.106377512216568
44.15,-0.5147138237953186,1.1071797609329224,-0.6753711700439453,-0.15524615347385406,-0.28880441188812256,0.18290545046329498
44.2,-1.3008979558944702,0.8315421938896179,-1.3258261680603027,0.039436761289834976,-0.09860497713088989,0.11848296225070953
44.25,-1.8120615482330322,0.38458359241485596,-1.7919507026672363,0.1524980515241623,-0.020092204213142395,-0.10162441432476044
44.3,-1.5992926359176636,0.46096524596214294,-1.790020227432251,0.19708992540836334,0.029944097623229027,-0.0893169492483139
44.35,-0.28274405002593994,0.336700439453125,-2.109685182571411,0.21214331686496735,0.02983185462653637,-0.00970507226884365
44.4,0.38938331604003906,0.11501973122358322,-2.331284523010254,0.15059766173362732,-0.04255179688334465,-0.06933069229125977
44.45,1.5205297470092773,0.09451756626367569,-2.8589532375335693,0.04235273599624634,-0.15100836753845215,-0.19216208159923553
44.5,1.5613670349121094,-0.002173573011532426,-2.406431198120117,-0.24512606859207153,-0.0898057371377945,-0.3018951714038849
44.55,0.0448918342590332,0.4408264458179474,-1.2566874027252197,-0.5070244073867798,-0.056687913835048676,-0.42680880427360535
44.6,-1.4387502670288086,1.429465413093567,-0.8058636784553528,-0.5154365301132202,-0.1038568764925003,-0.515287458896637
44.65,-1.0422451496124268,1.526881456375122,-0.816321611404419,-0.5403052568435669,-0.13963964581489563,-0.5439772605895996
44.7,-1.8508694171905518,1.4131138324737549,0.514519453048706,-0.6402846574783325,0.014404332265257835,-0.5446950793266296
44.75,-1.5954976081848145,1.4483997821807861,0.7201247811317444,-0.558355450630188,0.03284953907132149,-0.5353761911392212
44.8,-1.2238547801971436,1.2968113422393799,1.2416279315948486,-0.5884146690368652,0.01717458851635456,-0.6042521595954895
44.85,-1.5770316123962402,1.6375716924667358,2.284170150756836,-0.5227580070495605,0.10804726183414459,-0.5241337418556213
44.9,-1.2259832620620728,1.3320600986480713,2.7090964317321777,-0.2919648289680481,0.07096129655838013,-0.3693316578865051
44.95,-0.7462009191513062,1.0774033069610596,2.7173192501068115,0.05641359090805054,-0.02740442380309105,-0.3225456774234772
45.0,-1.117469310760498,1.7395795583724976,2.438206434249878,0.46886155009269714,-0.10452774912118912,-0.2738042175769806
45.05,-1.2510210275650024,2.306347370147705,2.3075520992279053,0.7208856344223022,-0.20557375252246857,-0.1046619564294815
45.1,-0.26557010412216187,1.6459821462631226,2.167264938354492,0.7799923419952393,-0.30448490381240845,0.179303839802742
45.15,-0.2534483075141907,1.1970055103302002,2.433506965637207,0.8193674087524414,-0.29570096731185913,0.3843759596347809
45.2,-0.4836617112159729,0.978644609451294,2.622758626937866,0.7724344730377197,-0.3740118741989136,0.5275312066078186
45.25,-0.9649772047996521,0.3077527582645416,2.0699543952941895,0.6705911159515381,-0.486185222864151,0.7461474537849426
45.3,0.7396647334098816,-0.6632081270217896,-0.2235744744539261,0.6222768425941467,-0.565617024898529,0.957604706287384
45.35,3.041729688644409,0.30689507722854614,-2.0901215076446533,0.6523208022117615,-0.45590221881866455,0.8985624313354492
45.4,3.0461273193359375,2.4048423767089844,-2.2147209644317627,0.5105333924293518,-0.25135526061058044,0.5843859314918518
45.45,1.6871180534362793,3.048321008682251,-1.8827595710754395,0.11674328148365021,-0.3404082953929901,0.2927493453025818
45.5,-0.11264020204544067,2.1560909748077393,-1.3621448278427124,-0.2535743713378906,-0.5327878594398499,0.22561165690422058
45.55,-0.11698972433805466,0.7797662019729614,-0.283728688955307,-0.5238720178604126,-0.6189479231834412,0.407575786113739
45.6,-0.24635283648967743,-1.3775235414505005,0.17938867211341858,-0.5392872095108032,-0.5046058893203735,0.4988305866718292
45.65,0.22707118093967438,-0.6209021210670471,-0.5837960839271545,-0.11073558032512665,-0.6018213033676147,0.20239529013633728
45.7,0.2271159142255783,-0.06782916933298111,-0.5765578150749207,0.03479650616645813,-0.5864813327789307,-0.1027541533112526
45.75,0.289266437292099,-0.9792672395706177,-0.004098823759704828,-0.08335833251476288,-0.5278322696685791,-0.18529170751571655
45.8,0.48924577236175537,-1.2859021425247192,0.2946684658527374,-0.14470426738262177,-0.509537398815155,-0.22147426009178162
45.85,0.6515837907791138,-2.2440149784088135,0.4405052661895752,-0.2646351754665375,-0.5136489868164062,-0.17011895775794983
45.9,1.0848010778427124,-2.5909669399261475,0.21880152821540833,-0.24776910245418549,-0.5724856853485107,-0.13798260688781738
45.95,1.3599951267242432,-2.1678693294525146,0.1671028584241867,-0.2268218696117401,-0.5653147101402283,-0.12168001383543015
46.0,1.5007940530776978,-1.1543781757354736,0.1915297955274582,-0.26243340969085693,-0.5830405354499817,-0.1871252954006195
46.05,1.4487755298614502,-0.6471759080886841,0.2056213766336441,-0.41432294249534607,-0.6036409139633179,-0.3655076324939728
46.1,0.9080357551574707,-0.6240836381912231,0.19259241223335266,-0.577085018157959,-0.4385961592197418,-0.5093958377838135
46.15,0.6310990452766418,0.08937642723321915,0.24174335598945618,-0.6963539123535156,0.08780466020107269,-0.49707114696502686
46.2,0.7226113080978394,0.9081411957740784,0.13154006004333496,-0.9079247713088989,1.1201485395431519,-0.4176369309425354
46.25,-1.0838239192962646,0.6995469331741333,0.15037856996059418,-1.130321741104126,2.4160590171813965,-0.37875089049339294
46.3,-4.039691925048828,0.5538771748542786,1.798288106918335,-1.1421024799346924,3.0639476776123047,-0.2331080436706543
46.35,-3.8236193656921387,0.2356170117855072,3.3958091735839844,-0.904650866985321,2.4635376930236816,0.12221285700798035
46.4,-1.748274564743042,-0.08279497176408768,3.10093092918396,-0.521018385887146,1.3520759344100952,0.4193516671657562
46.45,-0.5093192458152771,-0.21638578176498413,2.2375214099884033,-0.25574129819869995,0.4986695945262909,0.5619372725486755
46.5,-0.12216487526893616,-0.5062170028686523,1.2587053775787354,-0.04954080283641815,-0.10767415910959244,0.608525276184082
46.55,0.02733008563518524,-0.8058167695999146,0.34856778383255005,0.22038404643535614,-0.531061053276062,0.5801492929458618
46.6,0.19750961661338806,-0.4959155023097992,-0.6711868047714233,0.6554788947105408,-0.7890264987945557,0.5554175972938538
46.65,0.4348936080932617,0.25348374247550964,-1.5662399530410767,0.9723021984100342,-1.0612074136734009,0.47540751099586487
46.7,0.03413933515548706,0.5052909851074219,-1.7853165864944458,0.9758173227310181,-1.4103116989135742,0.3372361361980438
46.75,-0.3676232695579529,0.47233203053474426,-1.8473384380340576,0.937444806098938,-1.8627102375030518,0.21769262850284576
46.8,0.1209181547164917,-0.2422705590724945,-1.7703925371170044,0.8938541412353516,-2.281073808670044,0.1580142229795456
46.85,0.934001088142395,-0.32398712635040283,-1.3546197414398193,0.8183549642562866,-2.4187004566192627,0.08859530836343765
46.9,0.9962817430496216,0.009577673859894276,-0.9123570322990417,0.7400223016738892,-2.1703312397003174,0.029531916603446007
46.95,0.7112846970558167,0.21646401286125183,-0.634604811668396,0.6452398300170898,-1.8398860692977905,0.06331611424684525
47.0,0.4840957224369049,0.4523678123950958,-0.5388192534446716,0.6251423954963684,-1.6452776193618774,0.08160094171762466
47.05,0.7203928232192993,0.5124092102050781,-0.3130749762058258,0.6353539228439331,-1.5679600238800049,0.030273880809545517
47.1,0.6827316284179688,0.561650276184082,-0.24193252623081207,0.5728551149368286,-1.3577064275741577,-0.03281966596841812
47.15,0.4858661890029907,0.765109121799469,-0.3716191053390503,0.4177979826927185,-1.1040878295898438,-0.06364710628986359
47.2,0.5968866944313049,0.3861131966114044,-0.0024044879246503115,0.21804706752300262,-0.9692163467407227,-0.14367422461509705
47.25,0.47333794832229614,-0.10173895955085754,0.37375909090042114,0.1498151421546936,-0.8098239898681641,-0.1933807134628296
47.3,0.22016532719135284,-0.05139828100800514,0.54475337266922,0.18362008035182953,-0.6292312145233154,-0.16332228481769562
47.35,-0.19308120012283325,0.03713896870613098,0.6169694662094116,0.19730424880981445,-0.4869239926338196,-0.15520510077476501
47.4,-0.5203750729560852,0.04908566176891327,0.35407888889312744,0.21034270524978638,-0.37120917439460754,-0.17541584372520447
47.45,-0.6481664776802063,-0.020207373425364494,-0.03183186054229736,0.21193614602088928,-0.23430997133255005,-0.17869597673416138
47.5,-0.8301358222961426,0.20169074833393097,-0.22216664254665375,0.23760388791561127,-0.06579691171646118,-0.15350519120693207
47.55,-1.0947515964508057,0.1803017258644104,-0.5522213578224182,0.295019268989563,0.0972374901175499,-0.049109265208244324
47.6,-1.0737104415893555,0.05120186507701874,-0.7294970154762268,0.34506475925445557,0.15563157200813293,0.1052854135632515
47.65,-0.7680337429046631,0.28901106119155884,-0.4046861231327057,0.30385398864746094,0.14664337038993835,0.22920262813568115
47.7,-0.693836510181427,0.3143845200538635,-0.040021102875471115,0.15480190515518188,0.14998160302639008,0.22112224996089935
47.75,-0.7692327499389648,0.09701638668775558,-0.018239403143525124,0.03760109841823578,0.12671718001365662,0.11424808949232101
47.8,-0.8535181283950806,-0.004127458203583956,-0.012153685092926025,0.021642692387104034,0.08180704712867737,0.011231821030378342
47.85,-0.9217033982276917,-0.20706747472286224,0.021075474098324776,0.00684200506657362,0.08060389012098312,-0.027296176180243492
47.9,-0.9192044734954834,-0.2658805847167969,-0.1484360545873642,0.02990114316344261,0.14571300148963928,0.016917748376727104
47.95,-0.8800863027572632,-0.0667104497551918,-0.4833553731441498,0.09906245023012161,0.2281922996044159,0.12077158689498901
48.0,-0.8759537935256958,0.16415123641490936,-0.5220744609832764,0.10574731975793839,0.29029735922813416,0.1851816028356552
48.05,-0.9535099267959595,-0.007165871094912291,-0.4208614230155945,0.0672517940402031,0.33349063992500305,0.16787895560264587
48.1,-1.0332173109054565,-0.18450447916984558,-0.25015851855278015,0.10677220672369003,0.31700170040130615,0.15857228636741638
48.15,-0.93551105260849,0.5806838274002075,0.21894587576389313,0.18882636725902557,0.26659348607063293,0.14178556203842163
