Time [s],Acc_x [m/s^2],Acc_y [m/s^2],Acc_z [m/s^2],Gyro_x [1/s],Gyro_y [1/s],Gyro_z [1/s]
0.0,0.0132906474173069,0.175477996468544,-0.1062299981713295,-0.0010467645479366183,0.022957127541303635,0.0004898822517134249
0.05,0.012356787919998169,0.17490197718143463,-0.1076052114367485,-0.0010469467379152775,0.022957317531108856,0.000480446353321895
0.1,-0.0005917185917496681,0.1604776531457901,-0.03773915395140648,0.0050394050776958466,-0.0022249529138207436,0.004291015211492777
0.15,-0.019935544580221176,0.10597707331180573,-0.009782482869923115,0.0010424749925732613,0.008359359577298164,-0.0014585803728550673
0.2,0.022208072245121002,0.1405029445886612,-0.07336506247520447,0.001864480203948915,0.0036402062978595495,-0.0006278621731325984
0.25,0.019566519185900688,0.12341786921024323,-0.0631038025021553,0.004415709991008043,0.01104983314871788,0.0006757996161468327
0.3,0.08800676465034485,0.11347389966249466,-0.10865631699562073,0.004798245616257191,0.009320128709077835,0.0003870268992614001
0.35,0.04274021089076996,0.09503079205751419,-0.07013071328401566,0.004794537555426359,0.004189035389572382,-0.0031392003875225782
0.4,0.0971323773264885,0.1014251783490181,-0.11916504055261612,0.0006412974325940013,0.006741565652191639,-0.0006282213726080954
0.45,-0.01776578463613987,0.08614254742860794,-0.09762667119503021,2.6514288038015366e-05,-0.007347887381911278,-0.009611399844288826
0.5,-0.027453117072582245,0.13041307032108307,-0.059679288417100906,0.0012000135611742735,-0.013943650759756565,-0.007634984795004129
0.55,-0.002965029329061508,0.1518869549036026,-0.08604639023542404,-0.0030578463338315487,-0.025058291852474213,-0.014076054096221924
0.6,0.07961894571781158,0.15384961664676666,-0.09811730682849884,-0.0025970367714762688,-0.03483964130282402,-0.008076416328549385
0.65,0.006525848992168903,0.11481381952762604,-0.0024801595136523247,-0.005757404491305351,-0.034877240657806396,-0.014183849096298218
0.7,0.0011773034930229187,0.14384271204471588,-0.043218109756708145,-0.004583409056067467,-0.013577132485806942,-0.008638565428555012
0.75,0.03037567250430584,0.13630296289920807,-0.05708615854382515,-0.005567858926951885,-0.010083077475428581,-0.012035482563078403
0.8,0.06173985078930855,0.1297149807214737,-0.12377014011144638,-0.002825223607942462,-0.0051295459270477295,-0.011384248733520508
0.85,0.028840871527791023,0.07405757904052734,-0.09025617688894272,-0.004837182350456715,-0.005830731708556414,-0.015342388302087784
0.9,0.055862508714199066,0.10478878766298294,-0.10341057926416397,-0.001080117654055357,-0.006399866659194231,-0.012681619264185429
0.95,0.06868026405572891,0.13307668268680573,-0.06130277365446091,-0.0045281886123120785,-0.009686415083706379,-0.013122391887009144
1.0,0.021388191729784012,0.13367368280887604,0.020187286660075188,-0.004556279629468918,-0.020087942481040955,-0.01505198422819376
1.05,0.09563660621643066,0.19199849665164948,-0.10775208473205566,0.0015566791407763958,-0.009070372208952904,-0.005926838610321283
1.1,0.0505523607134819,0.16666032373905182,-0.01078859344124794,0.002417016075924039,-0.005870024673640728,-0.010245085693895817
1.15,0.007613731548190117,0.1283559948205948,-0.027614813297986984,0.0004149852320551872,0.003763405838981271,-0.005758089944720268
1.2,-0.0009731983300298452,0.15114976465702057,0.003003760939463973,-0.002601136453449726,0.007604337763041258,-0.012967024929821491
1.25,0.04604801535606384,0.16393853724002838,-0.06233162432909012,-0.0012038197601214051,0.01688474230468273,-0.00348470127210021
1.3,0.05053156986832619,0.11390972882509232,-0.04852615296840668,0.004555076360702515,0.004467073827981949,-0.0012622325448319316
1.35,0.06977006047964096,0.11684609204530716,-0.06874053925275803,0.0011423879768699408,0.016283471137285233,-0.002886625938117504
1.4,0.021397940814495087,0.15792657434940338,-0.06742960214614868,0.00014922628179192543,0.00479494221508503,-0.008848152123391628
1.45,0.017231959849596024,0.11873246729373932,-0.10124700516462326,-0.006819042842835188,0.011421267874538898,-0.029427779838442802
1.5,0.03883104771375656,0.1678953319787979,-0.10690601915121078,-0.019446860998868942,-0.01441214233636856,-0.045019302517175674
1.55,0.10504140704870224,0.16602230072021484,-0.2866668105125427,-0.03229231387376785,-0.0476563423871994,-0.06634803116321564
1.6,-0.018681570887565613,0.2474823147058487,-0.4286273717880249,-0.031163178384304047,-0.121391661465168,-0.0870935246348381
1.65,0.10462044179439545,0.3396186828613281,-0.36947929859161377,-0.06593085080385208,-0.17559321224689484,-0.1421109288930893
1.7,0.46170011162757874,0.14516447484493256,-0.05363474041223526,-0.12209555506706238,-0.2751941382884979,-0.20916616916656494
1.75,0.6417369246482849,0.03759477660059929,0.3666563630104065,-0.16140705347061157,-0.2258174568414688,-0.23368988931179047
1.8,0.9804424047470093,0.2501544952392578,0.5539186000823975,-0.2381880283355713,-0.022167248651385307,-0.2910934090614319
1.85,1.0708168745040894,0.299469918012619,-0.164816215634346,-0.41193580627441406,0.2187495082616806,-0.4352462887763977
1.9,0.013075202703475952,0.40397360920906067,-1.0741419792175293,-0.6050205826759338,0.3864939212799072,-0.6576378345489502
1.95,-0.31421467661857605,0.6532516479492188,-1.8079519271850586,-0.748835027217865,0.5623033046722412,-0.913083016872406
2.0,0.699404776096344,-0.0021058018319308758,-1.872370958328247,-0.7160959243774414,0.2902047038078308,-0.8294693231582642
2.05,1.358688473701477,-1.1924822330474854,-0.9292666912078857,-0.4014369249343872,-0.18319928646087646,-0.38203972578048706
2.1,1.1228666305541992,-1.655961275100708,0.5679476261138916,0.09481819719076157,-0.542557954788208,0.2128506302833557
2.15,-0.17346465587615967,0.8759977221488953,1.8521424531936646,0.5693520903587341,-0.5362563729286194,0.7844151258468628
2.2,-2.437697410583496,1.456366777420044,0.9825662970542908,0.5108906626701355,0.20487317442893982,0.5454979538917542
2.25,-2.876554012298584,1.6325277090072632,-0.2632942497730255,0.16161665320396423,0.4221424162387848,0.03316286578774452
2.3,-1.6145045757293701,1.8488773107528687,-0.8903762102127075,-0.21353253722190857,-0.04642903059720993,-0.4695877432823181
2.35,-0.06045496463775635,0.27962490916252136,-2.701462984085083,-0.44493868947029114,-0.3644525408744812,-0.5578450560569763
2.4,1.029937744140625,-1.3586571216583252,-4.343664646148682,-0.41868090629577637,-1.1620166301727295,-0.2913984954357147
2.45,1.4283404350280762,-1.1770565509796143,-2.999415874481201,0.17728164792060852,-2.0083112716674805,0.06852686405181885
2.5,0.816157341003418,0.46701815724372864,0.3387400805950165,1.0103394985198975,-1.7155096530914307,0.3538031578063965
2.55,-0.22112935781478882,-0.2752304673194885,-1.0556881427764893,1.0286643505096436,-1.2077285051345825,0.522830069065094
2.6,1.3201113939285278,-1.1538374423980713,-3.878587484359741,0.8233342170715332,-2.013174295425415,-0.03812721371650696
2.65,2.9888811111450195,0.4993695020675659,-0.6769699454307556,1.0883456468582153,-3.2817156314849854,-0.5069730281829834
2.7,-1.155819058418274,2.2938456535339355,4.962007522583008,1.2126771211624146,-2.991804838180542,-0.4921839237213135
2.75,-0.9258555769920349,1.7774051427841187,1.3921068906784058,0.493652880191803,-0.9296267032623291,-0.2693012058734894
2.8,0.9838643074035645,0.10072319209575653,-1.3104063272476196,-0.09183680266141891,-0.25955116748809814,-0.4284075200557709
2.85,-2.404481887817383,1.9549659490585327,1.0375468730926514,-0.48113182187080383,-1.341442584991455,-0.4290999174118042
2.9,-4.927394866943359,4.819856643676758,2.4324193000793457,-0.5622527003288269,-0.6765360236167908,0.11394324153661728
2.95,-0.7811424732208252,-0.13505063951015472,4.000679969787598,-1.0209118127822876,-0.22341623902320862,-0.06918807327747345
3.0,1.8834863901138306,-0.13185986876487732,0.6716556549072266,-1.2683098316192627,0.5905998349189758,0.2427566945552826
3.05,1.0924053192138672,0.3294667601585388,-1.4205009937286377,-1.1836098432540894,0.5560801029205322,0.07749101519584656
3.1,0.3024173080921173,0.29524141550064087,1.635940432548523,-0.7878565788269043,-1.8462905883789062,0.29112935066223145
3.15,0.48773565888404846,-0.4316893219947815,1.3077898025512695,-0.8873522877693176,-2.3308446407318115,0.5965955257415771
3.2,-0.15379375219345093,-0.8141785860061646,0.03435461223125458,-0.7360966801643372,-2.279951333999634,0.4526263177394867
3.25,-0.8290293216705322,-0.24427886307239532,0.9874452948570251,-0.5979210734367371,-2.657902240753174,0.4927787482738495
3.3,-1.2925384044647217,-0.6136903166770935,0.8292146325111389,-0.6287270784378052,-2.406630754470825,0.35642296075820923
3.35,-0.5902990698814392,-0.8152276277542114,-0.4651125371456146,-0.7360337376594543,-2.1590068340301514,0.3199957609176636
3.4,-0.44343802332878113,-0.1592407375574112,-0.9181321859359741,-0.7653253078460693,-2.006615400314331,0.44664162397384644
3.45,-1.148821473121643,0.12551596760749817,-1.6668864488601685,-0.7224947214126587,-1.881591558456421,0.5588096976280212
3.5,-1.5667027235031128,0.8791505098342896,-2.355117082595825,-0.7209153175354004,-1.7210158109664917,0.5537697672843933
3.55,-0.8035277128219604,1.6476327180862427,-4.233580112457275,-0.6207905411720276,-1.470368504524231,0.43582072854042053
3.6,-0.7311450242996216,1.2946844100952148,-5.915836811065674,-0.1511351466178894,-1.306593418121338,0.30318960547447205
3.65,1.2386562824249268,1.5651464462280273,-5.006120681762695,0.99555903673172,-1.0783332586288452,0.08417650312185287
3.7,2.5646660327911377,3.912585496902466,0.10891222208738327,2.236154079437256,-1.5612668991088867,0.23286619782447815
3.75,-0.08175528049468994,2.930776834487915,3.5317811965942383,2.26725697517395,-2.688904047012329,0.0910540372133255
3.8,-0.2951467037200928,0.6726648211479187,3.6894335746765137,1.959763526916504,-1.8530079126358032,-0.5171904563903809
3.85,1.7235053777694702,-1.0842591524124146,2.9817705154418945,1.8054815530776978,-0.9080435037612915,-0.7815864682197571
3.9,1.0040225982666016,-2.658738374710083,2.540203094482422,1.5491952896118164,-0.31125348806381226,-0.4965018332004547
3.95,0.36421334743499756,-3.5110907554626465,3.0905745029449463,1.286142349243164,1.2383683919906616,0.5107319951057434
4.0,2.131871461868286,-2.432652235031128,1.201112985610962,0.6630502343177795,0.7338136434555054,0.6448797583580017
4.05,1.5738909244537354,-2.3067939281463623,0.0232376866042614,0.3838770389556885,-1.7202939987182617,-0.5786033868789673
4.1,-1.3285901546478271,-1.5492737293243408,-1.1837801933288574,0.18244516849517822,-2.5198655128479004,-1.3038029670715332
4.15,-0.009996294975280762,1.9276763200759888,-4.702066421508789,-0.226650670170784,-1.1329816579818726,-0.9339874386787415
4.2,2.4585843086242676,2.5873146057128906,-4.057967662811279,0.0998084768652916,0.7200227379798889,-0.12692520022392273
4.25,2.4368319511413574,2.207709312438965,-0.6981848478317261,0.06230226159095764,0.8155674338340759,0.4286957383155823
4.3,-1.1708253622055054,5.069948673248291,-0.4839634299278259,-0.6594717502593994,0.4295310974121094,0.4138786792755127
4.35,1.8413118124008179,-1.8426191806793213,3.095210552215576,-0.6546629667282104,0.3768359422683716,0.15267302095890045
4.4,0.3116154670715332,-3.9369680881500244,5.816021919250488,-1.055034875869751,-1.2261803150177002,-0.3666452467441559
4.45,-4.1113409996032715,2.3167996406555176,1.9690567255020142,-1.4480414390563965,-1.0809537172317505,-0.2626553177833557
4.5,0.04968118667602539,1.0012894868850708,1.0316691398620605,-0.916691780090332,0.33896759152412415,0.016481271013617516
4.55,1.8411177396774292,0.049027394503355026,1.5399677753448486,-0.9395440816879272,-0.07780453562736511,-0.1810360848903656
4.6,0.8946409225463867,-0.3677883744239807,0.787483274936676,-0.8247023820877075,-0.8138982653617859,-0.23952259123325348
4.65,0.4292590320110321,-0.7148562073707581,-0.17272648215293884,-0.6592589616775513,-1.5768216848373413,-0.08184010535478592
4.7,0.07938513159751892,0.16915225982666016,-0.35056328773498535,-0.8095231056213379,-1.8101319074630737,-0.07324765622615814
4.75,0.18178588151931763,0.07579610496759415,-0.8010545969009399,-0.716965913772583,-1.2734140157699585,-0.01496343407779932
4.8,0.8768545985221863,0.009653010405600071,-1.290938377380371,-0.7229437232017517,-1.0598453283309937,0.008019890636205673
4.85,0.9980427622795105,0.19163508713245392,-1.0331602096557617,-0.7256437540054321,-1.3397259712219238,-0.010499676689505577
4.9,0.6531380414962769,0.41878795623779297,-1.2323896884918213,-0.6409165263175964,-1.4840505123138428,0.16517102718353271
4.95,1.2544559240341187,-0.19404423236846924,-0.5704898834228516,-0.31956052780151367,-1.380143404006958,0.2668866217136383
5.0,1.0983171463012695,0.07753085345029831,1.6575493812561035,-0.1251944899559021,-1.6054480075836182,0.3490641415119171
5.05,-0.11592018604278564,1.4165356159210205,3.6036131381988525,-0.2898656129837036,-2.044774293899536,0.4889976680278778
5.1,-1.6217299699783325,1.366345763206482,3.4409945011138916,-0.44888049364089966,-2.5066990852355957,0.6804423928260803
5.15,-2.7312426567077637,0.3759796619415283,1.0733702182769775,-0.5266525745391846,-2.8298141956329346,0.7763047814369202
5.2,-1.7905752658843994,-0.14982406795024872,-0.42093783617019653,-0.5189586877822876,-2.5508170127868652,0.6496577262878418
5.25,-0.595099925994873,0.24204163253307343,-0.5195437669754028,-0.36179399490356445,-2.1250386238098145,0.5219680070877075
5.3,-0.2382703721523285,0.6712551712989807,0.07729864865541458,-0.24427276849746704,-1.8590422868728638,0.46834224462509155
5.35,-0.1841377466917038,0.7427836060523987,0.6123029589653015,-0.28273138403892517,-1.725324034690857,0.4393475651741028
5.4,0.005758017301559448,0.7566243410110474,0.7207985520362854,-0.41738665103912354,-1.6141806840896606,0.4267826974391937
5.45,0.3579832911491394,0.5620680451393127,0.5333553552627563,-0.5929393172264099,-1.429315209388733,0.4001394808292389
5.5,0.41895437240600586,-0.33238130807876587,-0.7185436487197876,-0.7774897217750549,-1.4016809463500977,0.4353395104408264
5.55,0.5228989720344543,-1.538169264793396,-1.8348575830459595,-0.6858304142951965,-1.3998920917510986,0.3469611704349518
5.6,0.832373321056366,-1.3583834171295166,-1.8623206615447998,-0.29638388752937317,-1.0287898778915405,0.007696857675909996
5.65,1.346238374710083,-0.4600764811038971,-0.7796826958656311,0.062294624745845795,-0.3493463695049286,-0.27032580971717834
5.7,1.7284421920776367,-0.1030464917421341,1.0493090152740479,0.3925565183162689,-0.13854779303073883,-0.1005045548081398
5.75,1.1698777675628662,0.6283197999000549,2.582702398300171,0.7260441184043884,-0.5918412804603577,0.40697231888771057
5.8,0.1009904146194458,0.5895711183547974,3.1407313346862793,0.6816978454589844,-1.0251530408859253,0.8620523810386658
5.85,-0.7893218398094177,-0.949501097202301,1.6122196912765503,0.40034690499305725,-1.5276753902435303,0.8808125257492065
5.9,-0.019076794385910034,-0.013951316475868225,-0.4922211170196533,0.46474286913871765,-1.5731714963912964,0.23445925116539001
5.95,1.44344162940979,1.1398963928222656,-2.0124735832214355,0.5964488387107849,-0.4916764795780182,-0.24961045384407043
6.0,0.06463322043418884,0.7673722505569458,0.404201865196228,0.9207575917243958,0.2604617178440094,-0.07342328131198883
6.05,-0.9231316447257996,0.25594913959503174,1.444481372833252,0.8951936960220337,-0.8163045048713684,0.13536010682582855
6.1,1.5287058353424072,-0.02982158027589321,-3.6264545917510986,0.38834601640701294,-1.9617648124694824,0.049883607774972916
6.15,1.7256896495819092,0.8742570877075195,-1.5855376720428467,0.48941630125045776,-1.002876877784729,0.07441969215869904
6.2,-0.6712865829467773,0.7972956895828247,-1.2818620204925537,0.2960553467273712,-0.8296963572502136,0.17406132817268372
6.25,0.2718907296657562,0.4547100365161896,-0.7979534864425659,0.3409762382507324,-1.1317405700683594,0.02494574338197708
6.3,0.645822286605835,-0.050784166902303696,-0.5433484315872192,0.17532765865325928,-1.243320107460022,0.00242410646751523
6.35,0.17219315469264984,-0.3668070435523987,-0.2761945128440857,0.2113436758518219,-1.219123125076294,0.018263043835759163
6.4,0.6320271492004395,-0.46944817900657654,-0.12863512337207794,0.23950335383415222,-1.2282202243804932,-0.05016810819506645
6.45,0.8442586064338684,-0.4232693612575531,0.17277660965919495,0.33383044600486755,-1.0650622844696045,-0.08114011585712433
6.5,0.3543274402618408,-0.22846129536628723,0.6876199841499329,0.4233027398586273,-0.9208521246910095,-0.12236761301755905
6.55,0.676817774772644,-0.08771515637636185,1.2437599897384644,0.4782949388027191,-0.8903634548187256,-0.19932271540164948
6.6,0.9664722681045532,-0.028855321928858757,2.0083982944488525,0.5385326147079468,-0.8667812347412109,-0.22756518423557281
6.65,1.0324461460113525,-0.19648361206054688,3.0027778148651123,0.5549582242965698,-0.8235219120979309,-0.23569448292255402
6.7,0.9482129216194153,0.3813677728176117,3.4116783142089844,0.45961233973503113,-0.7916815876960754,-0.23280765116214752
6.75,0.34564530849456787,1.63968026638031,4.200160026550293,0.10059794038534164,-0.545893669128418,-0.08551184833049774
6.8,-1.1571747064590454,2.4367918968200684,5.271731853485107,-0.88188236951828,0.009599252603948116,0.12244302034378052
6.85,-4.51535701751709,3.3448989391326904,2.3483293056488037,-2.488105297088623,0.3888515532016754,-0.11417505890130997
6.9,-0.36652374267578125,2.7589809894561768,-4.192744731903076,-3.0367980003356934,-1.6852657794952393,-0.34724125266075134
6.95,4.02713680267334,1.115567922592163,-4.045894622802734,-2.267482042312622,-3.0948610305786133,0.809914767742157
7.0,4.686376094818115,-0.32150590419769287,-2.5545973777770996,-2.1745402812957764,-0.2570832371711731,0.8778424263000488
7.05,1.8681635856628418,-2.957611560821533,-2.7197341918945312,-1.9717354774475098,1.4629875421524048,0.4503300189971924
7.1,-1.0759601593017578,-4.912411689758301,-2.9993674755096436,-1.0997729301452637,3.042299509048462,-0.719538152217865
7.15,-5.19156551361084,-3.5932185649871826,-1.3811771869659424,-0.14307570457458496,3.074664831161499,-1.0613638162612915
7.2,-5.4048967361450195,-1.2350881099700928,0.8597479462623596,-0.04575099050998688,0.6463394165039062,-0.33922049403190613
7.25,-1.027156949043274,0.9353553652763367,1.050389051437378,-0.1652495265007019,-1.6627397537231445,0.615667462348938
7.3,1.5163146257400513,1.2933493852615356,2.342761278152466,0.08001303672790527,-2.111180067062378,0.8652299642562866
7.35,1.6810497045516968,2.7530548572540283,3.1303939819335938,0.1907094568014145,-0.7478089928627014,0.237058624625206
7.4,-0.45401132106781006,0.6363335847854614,0.6470090746879578,-0.016407303512096405,0.5446446537971497,-0.30147507786750793
7.45,-0.2947421669960022,2.9675943851470947,0.39499562978744507,0.5668191909790039,0.3751656115055084,-0.34831151366233826
7.5,-0.5186575651168823,1.664785623550415,-1.3793407678604126,0.9503748416900635,0.17054349184036255,-0.170517697930336
7.55,-4.040838241577148,-6.138884544372559,-7.002385139465332,1.1464085578918457,-0.1531008929014206,0.005456199869513512
7.6,0.5145910978317261,2.8822214603424072,-3.029707670211792,1.8261398077011108,-1.5520724058151245,-0.07765790820121765
7.65,2.8733103275299072,2.27484130859375,-2.0056653022766113,1.119537353515625,-0.16794827580451965,-0.15849773585796356
7.7,-1.1592918634414673,0.007908852770924568,-1.081817865371704,0.8892835378646851,0.4240909814834595,-0.055697474628686905
7.75,-0.9827778339385986,0.25384238362312317,-1.8397700786590576,0.920118510723114,-0.6260491609573364,-0.13443075120449066
7.8,-0.012945309281349182,-0.7657281160354614,0.41512495279312134,0.5918400287628174,-0.7709099650382996,-0.04479590058326721
7.85,1.2522237300872803,-0.8344232439994812,0.7111898064613342,0.6775771379470825,-1.2829563617706299,-0.2096492499113083
7.9,1.8532745838165283,-0.5908423662185669,1.7303736209869385,0.9029808640480042,-1.044378399848938,-0.23255635797977448
7.95,0.30353689193725586,-0.5296821594238281,2.5431580543518066,1.0295575857162476,-0.2636098563671112,0.019554749131202698
8.0,-1.6320013999938965,-0.08523446321487427,3.624701499938965,0.9288058280944824,-0.4784027934074402,-0.011994360946118832
8.05,0.4244288206100464,1.2313778400421143,3.915771007537842,0.5014126300811768,-0.3710506558418274,-0.16827724874019623
8.1,-0.3165144920349121,2.428880214691162,5.017801284790039,-0.2782757878303528,0.6360949277877808,-0.23280031979084015
8.15,-1.2244362831115723,2.571850299835205,2.83254075050354,-1.493051290512085,1.1672812700271606,-0.44788306951522827
8.2,-0.7116053700447083,2.5996649265289307,-1.3501474857330322,-2.3351075649261475,0.42155787348747253,-0.6328781247138977
8.25,1.866187334060669,0.8756713271141052,-3.485814094543457,-2.1201515197753906,-1.595764398574829,-0.3553866446018219
8.3,3.6534199714660645,1.1781567335128784,-2.361494302749634,-1.7010316848754883,-0.6168369054794312,0.2716570794582367
8.35,3.874741792678833,-2.0394949913024902,-3.136075735092163,-1.6217067241668701,0.7705830335617065,0.4248954951763153
8.4,2.3198368549346924,-4.550512790679932,-3.412249803543091,-0.9707424640655518,2.402918815612793,-0.10349640995264053
8.45,-1.5917596817016602,-3.7988128662109375,-2.607449531555176,-0.02868613600730896,3.66402268409729,-0.9639586210250854
8.5,-5.257753849029541,1.3658270835876465,0.9583949446678162,0.48937147855758667,2.7500975131988525,-0.9055094718933105
8.55,-2.7694814205169678,1.2865432500839233,2.4647178649902344,-0.33846867084503174,0.327523797750473,0.05958839878439903
8.6,0.9794179201126099,0.37341785430908203,0.6644103527069092,-0.3376636803150177,-1.175374984741211,0.5334780812263489
8.65,2.536900043487549,2.170987367630005,2.41868257522583,-0.01167568564414978,-0.3553762435913086,0.41492506861686707
8.7,0.5791814923286438,1.5573723316192627,0.9312799572944641,-0.21859508752822876,0.9103827476501465,0.004165346268564463
8.75,-1.305053949356079,1.017289400100708,0.835709810256958,0.061366647481918335,1.287361741065979,-0.27274444699287415
8.8,0.15170180797576904,-0.07920559495687485,-2.2704052925109863,0.6072795987129211,0.37405019998550415,-0.3128901422023773
8.85,-1.7133811712265015,-2.3941619396209717,-2.9476077556610107,1.0040096044540405,-0.20009830594062805,-0.3418335020542145
8.9,2.188969612121582,0.4077194929122925,-2.444729804992676,1.45223069190979,-0.36932024359703064,-0.11947181075811386
8.95,1.3057165145874023,1.8787108659744263,-2.215362787246704,0.8297815322875977,1.1489611864089966,-0.2545602023601532
9.0,-1.9597266912460327,0.21911156177520752,-0.5938149094581604,0.4819924533367157,1.3820017576217651,-0.19820170104503632
9.05,-1.3994693756103516,0.5075331926345825,-0.3904041051864624,1.0037795305252075,0.06962816417217255,-0.3363897204399109
9.1,1.382878065109253,-0.3680316209793091,-1.1187766790390015,0.9364374279975891,-0.18919453024864197,-0.1994958072900772
9.15,0.9015787839889526,0.21662423014640808,-0.3977902829647064,0.6866193413734436,-0.21262390911579132,-0.3681454658508301
9.2,-0.02303922176361084,-0.13582417368888855,1.3138593435287476,0.506503164768219,-0.13359765708446503,-0.30036208033561707
9.25,0.8415893316268921,0.2170438915491104,0.8552727699279785,0.7093154191970825,-0.5777862071990967,-0.39867815375328064
9.3,2.043186664581299,-0.08501632511615753,1.4749987125396729,0.5731201767921448,-0.7466079592704773,-0.5726340413093567
9.35,2.086185932159424,0.11759086698293686,2.140376329421997,0.6149757504463196,-0.6615509986877441,-0.5700024962425232
9.4,2.3487892150878906,0.31803321838378906,3.5567996501922607,0.3868028223514557,-0.6567692160606384,-0.5338016152381897
9.45,1.9083526134490967,1.1566420793533325,4.93951416015625,-0.0493214949965477,-0.5003091096878052,-0.3368588387966156
9.5,0.11620187759399414,1.5733951330184937,5.744577407836914,-1.0091547966003418,-0.19964545965194702,-0.037082474678754807
9.55,-0.2574465274810791,2.970592737197876,1.6566892862319946,-2.2337183952331543,0.04312080889940262,0.2857838273048401
9.6,0.3323472738265991,0.5608519911766052,-2.944579839706421,-2.528560161590576,-1.278695821762085,0.7350180745124817
9.65,0.29803454875946045,-1.4625540971755981,-1.3721283674240112,-1.4759347438812256,-0.6627467274665833,1.2614153623580933
9.7,0.8636301755905151,-1.7535871267318726,-2.7306556701660156,-1.4461469650268555,0.5337579846382141,1.459867238998413
9.75,-0.034913063049316406,-2.9708526134490967,-3.36901593208313,-1.1600168943405151,1.2649904489517212,1.2532328367233276
9.8,-3.099184513092041,-4.843581199645996,-2.899733066558838,-0.7857800126075745,3.030026912689209,0.02190500684082508
9.85,-5.870283603668213,-2.400218963623047,0.46970996260643005,-0.11010181903839111,3.1085867881774902,-0.7358946204185486
9.9,-4.424579620361328,0.17071186006069183,3.3545241355895996,0.18382872641086578,-0.2794109582901001,-0.10831538587808609
9.95,0.2308284342288971,1.789201021194458,1.099074125289917,-0.19867432117462158,-2.9328911304473877,1.097113013267517
10.0,2.0347113609313965,0.09870430082082748,2.118260383605957,-0.006897866725921631,-2.7771518230438232,1.2286651134490967
10.05,3.964831829071045,0.08531081676483154,2.8556387424468994,0.2705014944076538,-2.2568178176879883,1.237761378288269
10.1,2.1600327491760254,1.4810724258422852,-1.3173017501831055,0.1773110032081604,-0.08030784875154495,-0.03577248007059097
10.15,-5.233517646789551,5.567012310028076,-2.6484293937683105,-0.06484398245811462,1.4346168041229248,-1.3007287979125977
10.2,-7.3008222579956055,-2.8350605964660645,-3.2234256267547607,0.18855878710746765,-0.029955584555864334,-0.4686092734336853
10.25,4.046125411987305,2.0093421936035156,-3.367495059967041,1.7142415046691895,-3.5383172035217285,0.6999326348304749
10.3,2.2654106616973877,0.3733023405075073,-0.7554163932800293,0.7848688960075378,-1.168460488319397,-0.5376240015029907
10.35,-1.2058086395263672,-0.8795567154884338,-0.8846498131752014,0.3351207375526428,0.2060610055923462,-0.5789456367492676
10.4,-0.5252836346626282,0.34894755482673645,-0.7173799276351929,0.6277657151222229,-0.4240204691886902,-0.3744718134403229
10.45,-1.045365333557129,-0.6660938262939453,0.33887574076652527,0.4228533208370209,-1.0636298656463623,-0.21685416996479034
10.5,1.4319628477096558,0.5898418426513672,1.6141740083694458,0.2521722912788391,-2.1667566299438477,-0.40416669845581055
10.55,2.0186238288879395,-0.6543837785720825,2.259777545928955,-0.17765621840953827,-1.616320013999939,-0.41156700253486633
10.6,1.6052098274230957,-0.931036114692688,2.4449188709259033,-0.5772708654403687,-1.138546109199524,-0.7869041562080383
10.65,0.39775902032852173,-2.3414809703826904,0.1820482760667801,-0.742840588092804,-0.5550009608268738,-0.9106159806251526
10.7,1.0885664224624634,0.710139274597168,-0.8358867168426514,-0.6293575167655945,-1.0076513290405273,-0.9919965267181396
10.75,2.2826077938079834,1.7055226564407349,-0.8857035040855408,-0.6230461597442627,-0.5815557837486267,-1.2389814853668213
10.8,1.4394183158874512,-3.042983293533325,-2.1184580326080322,-0.3063742518424988,0.0502304844558239,-1.5430424213409424
10.85,0.4769202470779419,-3.501209259033203,-2.364895820617676,-0.679218053817749,-1.593753695487976,-1.3475860357284546
10.9,-0.6332109570503235,-2.239654302597046,2.7032880783081055,-0.3370766341686249,-1.2740646600723267,-0.6633826494216919
10.95,-2.3651785850524902,2.247987985610962,-0.20411132276058197,0.6768707036972046,0.37297552824020386,0.2062288075685501
11.0,-1.8551404476165771,0.785285234451294,0.6060615181922913,0.8658816814422607,0.38041818141937256,-0.4800224006175995
11.05,-0.9486454725265503,-1.231191635131836,1.3593640327453613,-0.2823334336280823,-0.9152605533599854,-0.6433114409446716
11.1,-1.454930305480957,-3.5900604724884033,1.7782678604125977,0.11837587505578995,0.0022171163000166416,-0.2356545627117157
11.15,-1.5642154216766357,-0.6298941969871521,1.25151526927948,0.06343856453895569,0.47989901900291443,-0.6000977754592896
11.2,-0.4447006285190582,0.012870839796960354,0.9198509454727173,-0.27996134757995605,-0.050162382423877716,-0.5269447565078735
11.25,-0.33609795570373535,0.4356737732887268,-0.3275701701641083,-0.568507194519043,0.2011273354291916,-0.6884018778800964
11.3,0.3805103302001953,0.9279442429542542,-0.4849843978881836,-0.5076878070831299,-0.13524940609931946,-0.4308139681816101
11.35,0.4257930815219879,0.22361186146736145,0.7099193930625916,-0.250148743391037,-0.2651330828666687,-0.22029004991054535
11.4,-0.01326686143875122,0.1092100664973259,1.2321064472198486,0.008182201534509659,-0.11493616551160812,-0.08720048516988754
11.45,-0.075246661901474,0.15586094558238983,0.747956395149231,0.048613544553518295,-0.06209056079387665,0.050967808812856674
11.5,-0.18464744091033936,0.13703922927379608,0.4685308337211609,0.06216852366924286,-0.068320132791996,0.05940821394324303
11.55,-0.005007565021514893,0.3319731056690216,0.48227575421333313,0.07303664833307266,-0.10042315721511841,0.05252956598997116
11.6,0.18835966289043427,0.39211565256118774,0.47208303213119507,0.07968062162399292,-0.04945274069905281,-0.06839725375175476
11.65,0.2694697678089142,0.17177201807498932,0.4906626045703888,-0.06833729892969131,-0.10799139738082886,-0.1317720264196396
11.7,0.3423738479614258,0.19318200647830963,0.24326767027378082,-0.07271714508533478,-0.08697281032800674,-0.10479432344436646
11.75,0.4405249357223511,0.1932401806116104,0.14599135518074036,-0.07065659761428833,-0.08994422107934952,-0.058178357779979706
11.8,0.32208913564682007,0.24324418604373932,0.08918386697769165,0.003601230913773179,-0.05141043663024902,0.0023532917257398367
11.85,0.21599933505058289,0.22619059681892395,0.2175527811050415,-0.009991932660341263,-0.08518901467323303,0.02166507951915264
11.9,0.13185589015483856,0.21745875477790833,0.3456398844718933,-0.003336275927722454,-0.06963758170604706,0.01976265385746956
11.95,0.13200567662715912,0.27016928791999817,0.2184140384197235,0.01292620599269867,-0.011016681790351868,-0.006384328007698059
12.0,0.11913378536701202,0.19480517506599426,0.33905112743377686,-0.014434040524065495,-0.024732381105422974,-0.012925678864121437
12.05,0.14039479196071625,0.2506609261035919,0.3007984757423401,-0.00376114621758461,0.012178306467831135,-0.03089747205376625
12.1,0.11058320850133896,0.22466376423835754,0.14278624951839447,-0.030183574184775352,-0.001185318105854094,-0.04031934216618538
12.15,0.04693298041820526,0.3452806770801544,0.12834696471691132,-0.018355822190642357,-0.006303202360868454,-0.03917267173528671
12.2,0.03657075762748718,0.29473021626472473,-0.06363210082054138,0.005310295149683952,-0.04304509609937668,-0.029249092563986778
12.25,-0.3744664490222931,0.6982365250587463,-0.557208240032196,0.1302284449338913,-0.12283837050199509,-0.01227380707859993
12.3,-0.04902723431587219,0.7215348482131958,1.1565316915512085,0.4133870303630829,-0.3938567340373993,0.01713656447827816
12.35,1.1400034427642822,-0.5658074021339417,2.5573580265045166,0.2702556848526001,-0.9104150533676147,0.14306426048278809
12.4,0.9536113142967224,-0.3811503052711487,2.301149368286133,0.35653388500213623,-0.7787551283836365,0.650580883026123
12.45,0.5954114198684692,0.16063213348388672,0.5624985694885254,0.36132699251174927,-0.6989583969116211,0.8545522093772888
12.5,1.5701935291290283,0.1037682294845581,-1.8169358968734741,0.2249566614627838,-1.3477654457092285,0.9318181872367859
12.55,3.8497912883758545,-0.9656518697738647,-2.073944568634033,-0.1339118778705597,-2.605851888656616,0.9539820551872253
12.6,4.076488971710205,-1.8292741775512695,-0.15622900426387787,0.027512729167938232,-3.1311280727386475,2.0407516956329346
12.65,-7.554466724395752,9.396065711975098,5.503066062927246,1.0293645858764648,-1.4767764806747437,2.430635452270508
12.7,-3.898418426513672,-2.377690553665161,-5.062516689300537,0.5075712203979492,3.1328840255737305,0.6055675745010376
12.75,0.8195614814758301,-3.2190043926239014,-6.115428447723389,-0.4326334297657013,-2.3620784282684326,-0.5202860236167908
12.8,1.2075014114379883,-0.14892107248306274,0.7316125631332397,0.20277634263038635,-5.817631721496582,0.19549673795700073
12.85,1.0830163955688477,-0.22970007359981537,3.7732856273651123,-0.5772565007209778,-1.9338022470474243,0.27128005027770996
12.9,0.12662053108215332,-1.533035397529602,2.7813360691070557,-0.18416041135787964,0.9986296892166138,0.3663015365600586
12.95,0.3943246603012085,0.1620578169822693,-1.9974391460418701,-0.1422407478094101,-1.3828788995742798,0.5588043928146362
13.0,4.325353145599365,-0.0728285014629364,0.9748014211654663,-0.8683282732963562,-2.64567232131958,0.8384578824043274
13.05,-0.658440113067627,-1.1602115631103516,3.7533698081970215,-0.371884286403656,-1.625524878501892,0.7702107429504395
13.1,-1.1079601049423218,0.8983088731765747,-2.1270368099212646,-0.7088906764984131,0.33804506063461304,0.7949163913726807
13.15,-1.5153474807739258,1.6905863285064697,-2.682705879211426,-0.7620178461074829,0.33595147728919983,0.3605523705482483
13.2,-0.09032434225082397,0.21836280822753906,-1.4613182544708252,-0.3602283000946045,-1.6250886917114258,-0.31560227274894714
13.25,0.8553650975227356,0.16310980916023254,2.0076065063476562,0.04326548054814339,-1.518890142440796,-0.16450561583042145
13.3,-2.1808831691741943,1.8391221761703491,0.43322157859802246,-0.007278528064489365,0.527661144733429,-0.08563587814569473
13.35,0.22630977630615234,1.014021873474121,-2.8597571849823,-0.5812129974365234,0.7109591960906982,-0.48292580246925354
13.4,1.037240743637085,-0.46679607033729553,-1.7340142726898193,-0.27445217967033386,-0.2516944110393524,-0.5099572539329529
13.45,-1.5760577917099,0.6899940967559814,2.709718704223633,-0.10580196976661682,-1.716223955154419,-0.2267674207687378
13.5,-0.19349238276481628,0.12764552235603333,0.21331211924552917,-0.25448325276374817,-0.6672789454460144,-0.5125425457954407
13.55,-0.2995500862598419,-0.06143854558467865,0.17242075502872467,-0.21604925394058228,-1.2901898622512817,-0.36758652329444885
13.6,-0.911588728427887,0.34402474761009216,0.8025049567222595,-0.2795577645301819,-1.8661961555480957,-0.14573445916175842
13.65,1.5896662473678589,0.8389044404029846,1.0817618370056152,-0.24491360783576965,-1.950130581855774,-0.11379113793373108
13.7,-0.9404615163803101,0.7963868975639343,-0.20470459759235382,-0.5796123743057251,-1.8650785684585571,0.1096135601401329
13.75,-0.4919794797897339,0.5462685227394104,-0.9135972261428833,-0.6458517909049988,-1.2875280380249023,-0.007453607860952616
13.8,0.10390645265579224,-0.04025273397564888,-1.3501927852630615,-0.3222626745700836,-1.247020959854126,-0.2085881531238556
13.85,0.6150801181793213,0.3674173355102539,0.24157573282718658,-0.26307541131973267,-1.6900616884231567,-0.16676361858844757
13.9,1.3875046968460083,0.08044331520795822,-0.03238242492079735,-0.22050237655639648,-1.7453099489212036,-0.026180878281593323
13.95,0.11605226248502731,0.08404828608036041,0.49407410621643066,-0.3127883970737457,-1.7789510488510132,0.14554929733276367
14.0,-0.41307389736175537,0.19187548756599426,-0.9582284688949585,-0.3768090605735779,-1.933803915977478,0.12786029279232025
14.05,-1.0831871032714844,0.488258421421051,-1.563444972038269,-0.29923030734062195,-1.9745292663574219,0.10313183069229126
14.1,-0.16655409336090088,1.084255337715149,-2.073303461074829,-0.23419663310050964,-1.8325008153915405,0.0797874927520752
14.15,3.1096439361572266,1.9406574964523315,-4.961385726928711,0.04935256764292717,-1.325811743736267,0.2179320752620697
14.2,7.3348188400268555,-0.5252558588981628,-8.315561294555664,0.9528321027755737,-1.0996371507644653,0.5156471133232117
14.25,3.6586220264434814,11.082523345947266,4.695310115814209,3.0240488052368164,-1.7851539850234985,1.3814629316329956
14.3,-3.6648337841033936,6.267675876617432,7.783753871917725,3.742583751678467,-4.8417840003967285,0.3468852639198303
14.35,-4.0897722244262695,5.367480278015137,7.363331317901611,3.9925503730773926,-1.9846456050872803,0.9836856126785278
14.4,-3.1714279651641846,-1.270760416984558,2.9227967262268066,4.494649887084961,-1.1825785636901855,2.5184147357940674
14.45,-1.668424129486084,-4.91638708114624,-0.287689745426178,3.142080307006836,-0.12006773054599762,3.8401541709899902
14.5,1.3739814758300781,-5.918635368347168,-1.2880805730819702,2.046312093734741,-0.4384147822856903,3.227566719055176
14.55,0.38063132762908936,-6.689115047454834,-3.2366251945495605,1.3769692182540894,-0.49984338879585266,1.8758119344711304
14.6,0.6316657066345215,-4.6557841300964355,-0.8848575949668884,0.20748014748096466,-0.20580719411373138,0.9092879891395569
14.65,0.8095380067825317,-2.70161509513855,0.6261670589447021,-0.4222468137741089,0.06600676476955414,0.010297168046236038
14.7,0.20241251587867737,-0.027654623612761497,1.3848445415496826,-0.39703235030174255,0.1949983388185501,-0.5840950608253479
14.75,-1.417189359664917,2.412768602371216,0.522809624671936,-0.10750312358140945,0.38358327746391296,-0.13760408759117126
14.8,1.3574552536010742,-0.3524027466773987,1.0624725818634033,0.11433035135269165,0.3825678825378418,0.17819905281066895
14.85,2.886906623840332,-2.1833689212799072,1.918618083000183,0.038351379334926605,0.13666751980781555,-0.10865896940231323
14.9,-0.8225622773170471,1.9440397024154663,2.0580976009368896,-0.449087530374527,-0.22999344766139984,-0.8782207369804382
14.95,-0.14900165796279907,2.0762102603912354,1.9733132123947144,-1.1848349571228027,-0.4737107753753662,-1.46449875831604
15.0,0.430870920419693,0.6482744812965393,0.9930611848831177,-1.313028335571289,-0.7735095620155334,-2.1985602378845215
15.05,-1.8638784885406494,0.01427373941987753,-0.16442912817001343,-0.8636995553970337,-1.349637508392334,-2.589409351348877
15.1,-1.9714481830596924,0.6286918520927429,0.4384007155895233,-0.9095630049705505,-1.0408111810684204,-2.1554172039031982
15.15,-0.3107393682003021,-0.40223026275634766,1.2301089763641357,-0.8605369925498962,-0.8278161883354187,-1.624313473701477
15.2,-0.9122929573059082,-0.3633699119091034,0.07633579522371292,-0.9226106405258179,-1.0124386548995972,-1.421228289604187
15.25,-1.4074757099151611,1.0409595966339111,-0.07202357053756714,-1.2322534322738647,-0.5932486653327942,-1.3051033020019531
15.3,-0.009583503007888794,0.6397753357887268,0.4674966037273407,-1.3617323637008667,0.22694285213947296,-0.8468983769416809
15.35,1.1538289785385132,0.5568838119506836,0.5416250228881836,-1.058713674545288,0.19831708073616028,-0.376226544380188
15.4,0.5626819133758545,-0.7938510179519653,0.25564223527908325,-0.7892274260520935,-0.5659201741218567,-0.23253315687179565
15.45,-0.316813588142395,-0.6244135499000549,-0.22668978571891785,-1.1152629852294922,-1.5484299659729004,-0.8567853569984436
15.5,-0.2272593379020691,0.184383362531662,-2.227107286453247,-1.371558666229248,-1.4628015756607056,-1.4460629224777222
15.55,4.411490440368652,1.1409920454025269,-1.2057665586471558,-0.9434020519256592,0.47512248158454895,-0.7144781351089478
15.6,2.3330156803131104,-0.03133499622344971,0.2982621192932129,-0.2151496708393097,1.205567479133606,0.2903493642807007
15.65,1.8804259300231934,0.06965247541666031,0.4509514570236206,-0.11854881793260574,0.5224027633666992,0.2177131175994873
15.7,0.2582394480705261,-0.4031468629837036,-1.152084231376648,-0.04444345831871033,-0.9766977429389954,0.227133110165596
15.75,-2.219862461090088,1.1722451448440552,-2.327011823654175,-0.1344459354877472,-1.281185507774353,0.29895302653312683
15.8,-2.136256456375122,1.8657230138778687,-0.3131750822067261,-0.410481333732605,0.4134824275970459,0.1498258411884308
15.85,1.164036750793457,4.070393085479736,1.2360093593597412,-0.5693581104278564,1.8061637878417969,0.08809536695480347
15.9,4.939964294433594,1.3488606214523315,0.2394673377275467,-0.40036869049072266,1.568015217781067,-0.4304913282394409
15.95,5.841441631317139,-0.4428848624229431,-2.227207660675049,-0.048952534794807434,0.6355007290840149,-0.2834925055503845
16.0,3.170837640762329,3.279491662979126,-2.6025383472442627,0.10680310428142548,-0.5643970966339111,0.6219767928123474
16.05,0.41567641496658325,3.510188579559326,-0.2779965400695801,0.429927796125412,-0.6000780463218689,1.2962019443511963
16.1,-2.7105867862701416,1.413993239402771,1.807273507118225,0.8445215225219727,-0.5460451245307922,1.2633626461029053
16.15,-1.2562512159347534,0.20102129876613617,0.08413173258304596,0.9121317267417908,0.4115648567676544,1.1543020009994507
16.2,0.2829723358154297,-1.275166630744934,0.9388357400894165,1.059948205947876,0.5586373209953308,1.0141024589538574
16.25,-0.33342698216438293,-2.6747305393218994,0.8783665299415588,0.7878212928771973,-0.4173111915588379,0.579037070274353
16.3,-0.5366988778114319,-5.025351524353027,0.27349013090133667,0.13437552750110626,-0.7295778393745422,-0.179778590798378
16.35,0.2853733003139496,-4.077709674835205,0.03776412084698677,-0.2914021611213684,-0.662397563457489,-0.9339680671691895
16.4,0.9687767028808594,-2.7392418384552,-1.4930920600891113,-0.2854035496711731,-0.6042569875717163,-0.9404759407043457
16.45,1.1347770690917969,-0.9295828342437744,-2.435673713684082,-0.4026033878326416,0.07764383405447006,-0.7116484045982361
16.5,1.2527210712432861,0.5112828612327576,-1.6128171682357788,-0.5151509046554565,0.6865282654762268,-0.5857422947883606
16.55,1.7134487628936768,0.6860523223876953,0.15430723130702972,-0.5480988025665283,1.080410361289978,-0.43791335821151733
16.6,2.8315229415893555,2.080641746520996,1.0595394372940063,-0.4548088610172272,1.2494585514068604,-0.16244599223136902
16.65,3.1829934120178223,1.4471216201782227,1.275811791419983,-0.05313905328512192,1.010696530342102,0.21731768548488617
16.7,2.8123178482055664,0.22082319855690002,1.293319582939148,0.45734715461730957,-0.17172463238239288,0.3637373149394989
16.75,0.16978922486305237,-0.7452107071876526,0.7964790463447571,0.7612085938453674,-1.6536084413528442,0.20136146247386932
16.8,-1.9827804565429688,0.06895359605550766,-1.116307258605957,0.7589279413223267,-2.114665985107422,-0.05160484462976456
16.85,-0.9868589043617249,1.1127482652664185,-1.6858744621276855,0.5204617977142334,-0.7339568734169006,-0.004114150069653988
16.9,0.4432976543903351,1.3276187181472778,-0.7219950556755066,0.46452903747558594,0.7437514066696167,0.2778654396533966
16.95,0.9856286644935608,0.6602621078491211,-0.054471809417009354,0.5362917184829712,0.9886869788169861,0.4179454445838928
17.0,0.436644583940506,0.497501403093338,-0.7351391315460205,0.70070481300354,0.36403951048851013,0.3215048909187317
17.05,0.5235821604728699,0.13866709172725677,-0.11340431123971939,1.0389819145202637,-0.09354289621114731,0.3655255436897278
17.1,0.885608434677124,-0.046681445091962814,0.3489548861980438,1.0648943185806274,-0.10251118242740631,0.46319934725761414
17.15,-0.41573166847229004,0.18939976394176483,-0.2461213618516922,0.9569928646087646,-0.25443321466445923,0.5985144972801208
17.2,-0.8372431993484497,0.2509938180446625,0.1656733602285385,0.767755925655365,-0.17741034924983978,0.7591767311096191
17.25,-0.9904235005378723,0.9911577105522156,0.5083824992179871,0.6398059129714966,-0.20870622992515564,0.7341549396514893
17.3,-0.8814501762390137,0.30197057127952576,0.14282171428203583,0.4541669487953186,-0.1395896077156067,0.7340325117111206
17.35,0.6561373472213745,-0.7104483246803284,0.31721070408821106,0.10932621359825134,0.16455690562725067,1.1454447507858276
17.4,0.3590235710144043,-0.15561965107917786,-0.12225174158811569,0.07414960861206055,-0.1674344390630722,1.3731563091278076
17.45,-0.35172128677368164,0.5594587922096252,-1.3555234670639038,0.2073572278022766,-0.5528563857078552,1.2023130655288696
17.5,0.06424731016159058,0.6194276809692383,-1.0085033178329468,0.21602016687393188,-0.43171951174736023,1.165920615196228
17.55,0.7090429067611694,-0.7200499773025513,-0.9227145314216614,0.11159703135490417,-0.29255300760269165,1.2830390930175781
17.6,1.3730086088180542,-1.266847848892212,-0.9538269639015198,-0.03393089771270752,-0.19567231833934784,1.4035382270812988
17.65,0.373354971408844,-0.347418874502182,-1.510653018951416,0.02654320001602173,-0.31198859214782715,1.483599066734314
17.7,-0.20562322437763214,0.06054878979921341,-0.42671850323677063,0.07803118228912354,-0.3679216802120209,1.67788565158844
17.75,0.3370576798915863,-0.4927835762500763,1.462906002998352,-0.003897428512573242,-0.392734557390213,1.7542589902877808
17.8,0.49360230565071106,0.13010789453983307,0.990145742893219,-0.16287070512771606,-0.5796836614608765,1.6562763452529907
17.85,1.416994571685791,1.6552668809890747,-0.09676339477300644,-0.2062056064605713,-0.7990890145301819,1.3243411779403687
17.9,1.8100563287734985,1.9969569444656372,-0.37989792227745056,0.18491335213184357,-1.05630624294281,0.7961239218711853
17.95,0.5654425621032715,2.1927359104156494,-1.3331278562545776,0.5651355981826782,-1.080707311630249,0.4400843381881714
18.0,1.5479539632797241,0.24659529328346252,-1.2269484996795654,0.40201324224472046,-0.5962035059928894,0.35337385535240173
18.05,2.433148145675659,-3.825096845626831,-0.07230143994092941,0.1315673142671585,-0.11462696641683578,-0.11244716495275497
18.1,0.6768322587013245,-6.12727689743042,0.2578449845314026,-0.04344037175178528,-0.12352770566940308,-1.212254524230957
18.15,-0.8256768584251404,-6.193039894104004,0.3355990946292877,0.06538283824920654,-0.3394145965576172,-2.417863368988037
18.2,-1.907825231552124,-4.836470127105713,-0.1830059140920639,0.07051587104797363,-0.4241211712360382,-3.4955897331237793
18.25,-3.0804121494293213,-2.61068058013916,-0.6297324299812317,-0.20826423168182373,-0.2654210925102234,-4.072405815124512
18.3,-4.400764465332031,0.8488066792488098,-1.0608296394348145,-0.7042731046676636,-0.195170596241951,-4.001197338104248
18.35,-2.5331220626831055,2.7755284309387207,0.013969944790005684,-1.307459831237793,0.1977393627166748,-3.5148513317108154
18.4,-0.3584668040275574,2.7534639835357666,1.05925714969635,-1.4533675909042358,0.6906971335411072,-3.2969069480895996
18.45,1.338476300239563,2.4028170108795166,1.5620496273040771,-1.1017463207244873,0.9282394647598267,-2.7537174224853516
18.5,3.6325268745422363,2.694230079650879,1.3472744226455688,-0.7705532312393188,0.7731770277023315,-2.01458477973938
18.55,4.7516303062438965,1.1758822202682495,-1.547874093055725,-0.4188462793827057,0.6606655120849609,-1.0630323886871338
18.6,1.7124563455581665,-1.2526705265045166,-2.0613365173339844,0.3360137939453125,0.7585018873214722,-0.32404160499572754
18.65,-1.1245136260986328,-2.2957780361175537,0.37357279658317566,0.46187514066696167,0.5913934707641602,-0.34717920422554016
18.7,-3.379544973373413,-0.23101499676704407,1.996647596359253,0.4444926083087921,1.7600879669189453,0.1992437243461609
18.75,0.8264192938804626,9.477582931518555,1.7695801258087158,0.6396950483322144,2.738821506500244,0.20184634625911713
18.8,7.637761116027832,16.135255813598633,-0.9680237770080566,0.5265185236930847,1.7992502450942993,-0.3026031255722046
18.85,2.1296281814575195,7.840324401855469,0.16587041318416595,0.8303179144859314,1.0946153402328491,0.24978503584861755
18.9,-2.3597729206085205,-0.45367324352264404,1.9580047130584717,0.5734807252883911,0.3750907778739929,0.33955320715904236
18.95,-0.4515411853790283,-1.867214322090149,1.3332642316818237,-0.24299073219299316,-0.15209396183490753,-0.11517844349145889
19.0,0.47895941138267517,-2.8816330432891846,0.16017355024814606,-0.5292108058929443,0.0065263607539236546,-0.1225513219833374
19.05,-0.24520698189735413,-0.04189492389559746,-0.7026730179786682,-0.7439473867416382,-0.18332459032535553,0.068100206553936
19.1,1.0607515573501587,1.3255252838134766,-1.9836004972457886,-0.628856897354126,1.024291753768921,0.030038880184292793
19.15,3.185046434402466,-0.6532700657844543,-2.193711280822754,-0.2730296552181244,1.4802215099334717,-0.11800559610128403
19.2,0.33199506998062134,-0.4930983781814575,-1.4244095087051392,-0.5126424431800842,-0.5176870226860046,0.12936362624168396
19.25,-1.703256607055664,-0.03970623016357422,-3.0653679370880127,-0.5204625129699707,-0.5508763194084167,0.18860465288162231
19.3,-1.0125682353973389,-0.3098650574684143,-3.1784229278564453,-0.08548412472009659,0.9679576754570007,0.25178030133247375
19.35,-0.5731192827224731,0.06849001348018646,-1.9084410667419434,-0.18309539556503296,1.6773886680603027,0.29195550084114075
19.4,-1.8310191631317139,0.30102258920669556,-1.966496229171753,-0.42987945675849915,1.7102233171463013,0.24911469221115112
19.45,-3.8396310806274414,0.2822543978691101,-1.9863619804382324,-0.25259339809417725,1.5664018392562866,0.4824071228504181
19.5,-2.4866390228271484,0.003420946653932333,-0.5354211926460266,0.1878383755683899,1.80733323097229,0.49969273805618286
19.55,0.46604931354522705,0.14867018163204193,-0.34744805097579956,0.5670087337493896,2.1170191764831543,0.09807222336530685
19.6,2.0516343116760254,1.0138826370239258,-1.9135385751724243,1.1124520301818848,2.2473185062408447,-0.08268167078495026
19.65,1.096130609512329,1.6379014253616333,-2.107274293899536,1.4295201301574707,1.7492116689682007,-0.033803775906562805
19.7,-2.044149398803711,0.7944576740264893,0.6832518577575684,1.3989434242248535,0.9837485551834106,-0.2992960512638092
19.75,-4.313945293426514,-0.6666810512542725,3.445754051208496,1.0754045248031616,0.9280241131782532,-0.550197184085846
19.8,-2.133268356323242,-0.5596264004707336,3.6448705196380615,0.3429509997367859,2.474984645843506,-0.2477254569530487
19.85,0.9972174167633057,-0.45423129200935364,2.4752488136291504,0.21938195824623108,4.2040486335754395,-0.09628163278102875
19.9,2.659669876098633,-0.7908346652984619,1.4829628467559814,0.12180197238922119,3.9594826698303223,-0.35222959518432617
19.95,2.9216372966766357,-0.24141234159469604,0.4051492214202881,-0.12375861406326294,3.500091075897217,-0.2551795542240143
20.0,3.071377992630005,0.22656235098838806,-0.6391607522964478,-0.17682242393493652,3.2150657176971436,-0.25597748160362244
20.05,3.0804989337921143,-0.1648247241973877,-2.2356293201446533,-0.05718671530485153,2.877666711807251,-0.3786398470401764
20.1,1.9932043552398682,-0.7171280980110168,-3.7411932945251465,0.09530985355377197,2.2990190982818604,-0.3097025454044342
20.15,0.04993319511413574,-0.22925293445587158,-3.381159782409668,-0.005485590547323227,1.3147372007369995,-0.06526723504066467
20.2,-1.058239459991455,1.4282914400100708,-3.350459098815918,-0.2552010118961334,0.44475772976875305,0.07409848272800446
20.25,0.7321678400039673,-1.593441367149353,-2.7538704872131348,-0.4145777225494385,-0.33771881461143494,-0.5116081237792969
20.3,3.303062915802002,-6.828095436096191,0.5088662505149841,-0.17460337281227112,-1.2527220249176025,-0.8440312147140503
20.35,4.9794020652771,-3.265157461166382,0.7191669344902039,-0.3274567723274231,-0.8327540159225464,0.5683345198631287
20.4,3.119076728820801,-0.08672729879617691,0.520927906036377,-0.3549661636352539,0.5043100714683533,1.3787904977798462
20.45,0.40426528453826904,0.11368090659379959,2.641547679901123,0.09143573045730591,1.051177740097046,0.8844492435455322
20.5,0.011218689382076263,0.5558319687843323,-0.3037608861923218,0.10240006446838379,1.8364289999008179,0.9682865738868713
20.55,0.5784991383552551,0.2218427062034607,-2.1436281204223633,-0.09040224552154541,0.7826479077339172,0.9037563800811768
20.6,0.8124529719352722,-0.32365232706069946,0.43479248881340027,-0.1378195434808731,-0.885617196559906,0.5998114943504333
20.65,0.3458937406539917,-0.6378765106201172,2.2567124366760254,-0.12481151521205902,-0.6324852705001831,0.5974408388137817
20.7,-0.07912649214267731,-0.37967878580093384,0.024128921329975128,-0.2575165033340454,0.3452111482620239,0.5232231020927429
20.75,-0.6784601211547852,-0.1855354607105255,-1.9370721578598022,-0.19736820459365845,0.40721020102500916,0.4010026156902313
20.8,-0.9231417179107666,0.05086427554488182,-0.03741073235869408,-0.042286217212677,-0.8557448387145996,0.6925048232078552
20.85,-1.6441165208816528,0.4947730600833893,0.4615944027900696,-0.014736354351043701,-1.095780849456787,0.6659738421440125
20.9,-3.202700614929199,0.5075437426567078,-1.7723889350891113,0.013877712190151215,-0.5271168947219849,0.18047060072422028
20.95,-3.730876922607422,0.46820756793022156,-1.6585466861724854,0.10519836843013763,-0.5369268655776978,-0.28974995017051697
21.0,-3.7126662731170654,1.0428736209869385,-1.1196643114089966,0.4079369902610779,-0.7415273785591125,-0.7187721133232117
21.05,-1.9546947479248047,2.284172296524048,-2.100757598876953,0.7695623636245728,-0.7872655987739563,-1.1721999645233154
21.1,1.323622703552246,2.243459939956665,0.3792189955711365,0.8886808156967163,-1.3318547010421753,-1.612973690032959
21.15,2.1679046154022217,0.8563920259475708,3.618428945541382,0.3920707106590271,-1.958962321281433,-1.6157504320144653
21.2,1.8024766445159912,-0.2475452870130539,3.1077394485473633,0.17410722374916077,-0.16925077140331268,-1.223360538482666
21.25,1.9038615226745605,-2.088416337966919,2.4364163875579834,0.47154757380485535,1.211274266242981,-0.8198491930961609
21.3,2.0510692596435547,-2.15910267829895,1.4882105588912964,0.6065124869346619,1.9398744106292725,-0.14720571041107178
21.35,1.9266256093978882,-1.313819169998169,-0.6388474106788635,0.853725790977478,2.6919846534729004,0.4500761032104492
21.4,-0.7810496091842651,0.8227463960647583,-1.8096369504928589,1.0929195880889893,2.8422679901123047,0.6068536043167114
21.45,-2.4989054203033447,1.3462402820587158,-1.0417169332504272,1.0438748598098755,2.707155704498291,0.12490008771419525
21.5,-0.912289023399353,-0.05068108066916466,-0.318473219871521,0.6921496987342834,1.7643489837646484,-0.22770097851753235
21.55,1.1898603439331055,-1.263378381729126,-0.3654730021953583,0.3847278952598572,1.140647292137146,-0.47892889380455017
21.6,1.41178297996521,-0.6890727877616882,-1.4871318340301514,0.10985815525054932,1.529592752456665,-0.00045089618652127683
21.65,0.7650572657585144,-0.7948228716850281,-1.6917972564697266,-0.19169846177101135,1.286604404449463,0.23920582234859467
21.7,3.3565526008605957,1.8610278367996216,0.36607158184051514,-0.14394833147525787,0.9714168310165405,0.6481302380561829
21.75,1.0346554517745972,4.972714900970459,0.3734218180179596,0.21846738457679749,1.412533164024353,1.076804518699646
21.8,0.5988574028015137,2.2860100269317627,1.314883828163147,-0.3024952709674835,1.3337944746017456,0.9531609416007996
21.85,-0.7754016518592834,-0.09233086556196213,1.2310655117034912,-0.45274782180786133,1.4036228656768799,0.9016333222389221
21.9,2.5884432792663574,-0.7179242372512817,3.0001657009124756,-0.4803691506385803,0.4459175765514374,0.3643777370452881
21.95,1.1938930749893188,0.3230142593383789,1.482598900794983,-0.3667391836643219,0.7251235246658325,0.4001518189907074
22.0,-1.306983470916748,0.06750401109457016,0.25874441862106323,-0.2791839838027954,1.2864078283309937,0.33485147356987
22.05,0.4015025794506073,-0.7447653412818909,1.4512946605682373,-0.2434578239917755,0.8105751872062683,0.3940310776233673
22.1,0.457916796207428,0.23723700642585754,1.1405277252197266,-0.052066609263420105,1.365817666053772,0.3261124789714813
22.15,-1.8293240070343018,0.6993171572685242,-0.07858611643314362,-0.04051947593688965,1.9090912342071533,0.35383015871047974
22.2,-1.9095873832702637,-0.09406556934118271,0.26333749294281006,-0.1283355951309204,1.0013340711593628,0.2690737843513489
22.25,0.6003568768501282,-0.013186462223529816,0.9337724447250366,0.05643332749605179,-0.3298244774341583,0.19263191521167755
22.3,1.1800144910812378,0.6125879287719727,1.085975170135498,0.1651921421289444,0.07050101459026337,0.1639147251844406
22.35,0.3513570725917816,0.15318013727664948,0.54817795753479,-0.13923875987529755,1.1437102556228638,0.05809555575251579
22.4,-0.6158720254898071,0.21229656040668488,0.18385028839111328,-0.18985307216644287,1.2547389268875122,-0.01318860799074173
22.45,-0.21314261853694916,0.30690768361091614,0.0682283341884613,-0.16653038561344147,0.6338518261909485,0.004903264809399843
22.5,0.6380152702331543,-0.0015554610872641206,0.5637843012809753,-0.2623608708381653,0.37276071310043335,-0.04107227176427841
22.55,-0.4700133502483368,0.17263035476207733,0.33946752548217773,-0.2732001543045044,0.7789669632911682,-0.04813699424266815
22.6,-0.428779661655426,0.04569057375192642,0.34755057096481323,-0.27852198481559753,0.9218062162399292,-0.09868130832910538
22.65,-1.8286685943603516,0.21989834308624268,-0.08314196765422821,-0.21128956973552704,0.9884412288665771,-0.177283376455307
22.7,-0.72042316198349,0.24476248025894165,-0.05849556624889374,-0.09438395500183105,0.38630154728889465,-0.21273040771484375
22.75,0.5182605981826782,0.28864574432373047,-0.004118648823350668,-0.010604985058307648,0.02780347317457199,-0.2713937759399414
22.8,0.8238269686698914,0.24085138738155365,-0.24165497720241547,0.008116155862808228,0.15138651430606842,-0.26694560050964355
22.85,-0.8495360612869263,0.26015669107437134,-0.8457277417182922,-0.022018015384674072,0.4012891352176666,-0.3485698997974396
22.9,-1.483791708946228,0.3992043733596802,-0.1706809103488922,-0.014385446906089783,0.058622825890779495,-0.3211255669593811
22.95,0.24281789362430573,0.06643294543027878,-0.18124672770500183,-0.03355741500854492,-0.5752268433570862,-0.306316077709198
23.0,-0.9077572822570801,0.14858631789684296,-0.686259388923645,-0.07270057499408722,-0.32217228412628174,-0.34000182151794434
23.05,-1.8038028478622437,0.3135434091091156,-1.075927972793579,-0.11259715259075165,-0.33568549156188965,-0.22887685894966125
23.1,-0.3711167275905609,0.2751016914844513,-0.7520157098770142,-0.11898526549339294,-0.9782565236091614,-0.16598574817180634
23.15,0.5048871040344238,0.3083763122558594,-0.21167771518230438,-0.01190749928355217,-0.923164427280426,-0.10133979469537735
23.2,-0.48812276124954224,-0.30192089080810547,0.11297716945409775,0.11587752401828766,-0.38671690225601196,-0.09029018133878708
23.25,-0.9228246212005615,-0.09952540695667267,0.43815430998802185,0.1937505453824997,-0.2891579866409302,-0.0708283931016922
23.3,-0.4716668426990509,0.16227442026138306,0.6679486036300659,0.3207239508628845,-0.5345924496650696,-0.0350046269595623
23.35,0.20776762068271637,-0.1734609603881836,0.8763335943222046,0.6299745440483093,-0.546000599861145,0.05201434716582298
23.4,0.013940691947937012,0.4496394395828247,1.7502989768981934,0.8183247447013855,-0.12857437133789062,-0.02077353745698929
23.45,-1.333970069885254,0.3519975244998932,1.7737598419189453,0.3409610092639923,0.4557478427886963,-0.06831604987382889
23.5,-1.6377041339874268,-0.10763829946517944,-0.4658161997795105,-0.0028108954429626465,0.5240134000778198,-0.06150796636939049
23.55,-1.0006300210952759,0.5091543793678284,-1.059826135635376,0.10533957183361053,-0.5587872266769409,-0.02522292546927929
23.6,-0.10155099630355835,0.752090573310852,0.7291597127914429,0.10216724127531052,-0.5479254126548767,0.04845340922474861
23.65,-0.8236045837402344,0.28231626749038696,-0.18246735632419586,-0.23503416776657104,0.2584799528121948,0.022539816796779633
23.7,-0.1694171279668808,0.7479143738746643,0.5258689522743225,-0.3623880445957184,0.44737523794174194,-0.003208595560863614
23.75,-0.06443500518798828,1.154408574104309,1.921147346496582,-0.861838161945343,0.6283663511276245,0.03293073922395706
23.8,-0.12079966068267822,-0.6783714294433594,1.8284982442855835,-1.6571848392486572,0.9091867804527283,-0.17651450634002686
23.85,-0.8301652073860168,-0.873017430305481,-1.0857220888137817,-2.3862504959106445,0.8285025954246521,-0.6862738132476807
23.9,-2.041867256164551,-2.54894757270813,-1.9217541217803955,-2.4355416297912598,-0.5288073420524597,-0.365587443113327
23.95,-0.6204543113708496,-8.534242630004883,0.29419711232185364,-2.1959481239318848,-0.6984890699386597,-0.12255452573299408
24.0,3.1575541496276855,-0.398545503616333,-0.6783335208892822,-1.310398817062378,0.28060534596443176,-0.15320782363414764
24.05,-0.3444974422454834,0.13200663030147552,-1.6174899339675903,-1.7464909553527832,1.404292345046997,-0.7412035465240479
24.1,-0.42660796642303467,0.6094332337379456,-1.1654068231582642,-1.7480032444000244,0.9409183859825134,-0.5501676201820374
24.15,0.9886682033538818,-0.6373187303543091,-0.39365366101264954,-1.9877142906188965,0.2888166308403015,-0.3792223632335663
24.2,1.1015499830245972,0.2612695097923279,-0.9097018241882324,-1.838026762008667,0.37112343311309814,-0.3712523877620697
24.25,0.4081437289714813,0.14476008713245392,-1.3120404481887817,-1.8113863468170166,0.4667215049266815,-0.5264275670051575
24.3,-0.5987091660499573,-0.6070109009742737,-1.1205029487609863,-1.890087604522705,0.41604915261268616,-0.5076565742492676
24.35,-1.0249733924865723,0.5872107744216919,-0.3770200312137604,-1.9182276725769043,0.1699315905570984,-0.6827974915504456
24.4,0.388493150472641,0.4029417037963867,-1.0468358993530273,-1.9510891437530518,-0.11412839591503143,-0.5525516867637634
24.45,0.7119853496551514,0.4859180450439453,-0.685075044631958,-1.8845291137695312,-0.07277271151542664,-0.6308078765869141
24.5,0.449893057346344,1.1154242753982544,0.9773048758506775,-1.6652133464813232,-0.05159337446093559,-0.6471460461616516
24.55,-0.23726794123649597,1.6294081211090088,0.6680357456207275,-1.3094606399536133,-0.021580763161182404,-0.560116171836853
24.6,-0.16563042998313904,1.587585687637329,0.5908578634262085,-0.9357954263687134,-0.016449391841888428,-0.3392646312713623
24.65,-0.0671406090259552,1.3814536333084106,0.15294212102890015,-0.4842875599861145,0.03654861077666283,-0.09194807708263397
24.7,0.1525602489709854,0.8719426393508911,-0.5817006230354309,-0.07110393047332764,0.116420216858387,0.1428186297416687
24.75,0.013351738452911377,0.5979528427124023,-1.443789005279541,0.1568450927734375,0.14073151350021362,0.2250758856534958
24.8,0.03458613157272339,0.2998323142528534,-1.6190944910049438,0.1756361424922943,0.05618736147880554,0.19262997806072235
24.85,0.2785698175430298,0.16215796768665314,-1.4905884265899658,0.09615929424762726,-0.06762772798538208,0.07858935743570328
24.9,0.35244449973106384,0.6317958831787109,-1.3959779739379883,-0.015612793155014515,-0.10734675824642181,-0.03065769374370575
24.95,0.5252637267112732,1.2822095155715942,0.2628314197063446,0.006861329078674316,-0.052293241024017334,-0.11003874987363815
25.0,0.45038989186286926,1.2493706941604614,1.1234933137893677,0.44914042949676514,0.04960456117987633,-0.11879610270261765
25.05,-0.2451019585132599,0.9384538531303406,0.8750198483467102,0.9723262190818787,0.20845460891723633,-0.01993204839527607
25.1,-0.8949345350265503,0.7392083406448364,0.9759511351585388,1.399910807609558,0.25408440828323364,0.03213818371295929
25.15,-0.06525006890296936,0.08877090364694595,0.8712497353553772,1.7275936603546143,0.10286486148834229,-0.041403643786907196
25.2,-0.010105937719345093,-0.08015155047178268,0.4882314205169678,1.9138623476028442,0.019575316458940506,-0.08446907997131348
25.25,0.29659411311149597,-0.11392498761415482,0.7173557281494141,1.9079089164733887,-0.0766373723745346,0.06691532582044601
25.3,-0.23413896560668945,0.03139403462409973,0.5257800817489624,1.871846079826355,-0.13437871634960175,0.1790652722120285
25.35,-0.7321999073028564,0.1796150654554367,-0.11818482726812363,1.8446444272994995,-0.27326640486717224,0.3652563989162445
25.4,-0.7810736894607544,0.043687839061021805,-0.9427618384361267,1.8811562061309814,-0.5620090365409851,0.603009819984436
25.45,0.42854249477386475,0.12590210139751434,-2.1603848934173584,1.9377760887145996,-0.9530515074729919,0.710450291633606
25.5,1.8391404151916504,0.34922870993614197,-2.5973801612854004,2.0111019611358643,-1.203744888305664,0.7426179051399231
25.55,1.4130312204360962,-0.9189980030059814,-2.1339380741119385,2.0798864364624023,-0.8868309259414673,0.6587216258049011
25.6,0.5588099956512451,-0.4474927484989166,-1.8538883924484253,2.6766998767852783,-0.5338990688323975,0.6053112745285034
25.65,1.1029685735702515,-0.07299620658159256,0.05446189269423485,2.5320851802825928,-0.29014384746551514,0.37638041377067566
25.7,2.184483051300049,-3.3724827766418457,2.069258689880371,2.1957197189331055,0.3703692555427551,0.24727316200733185
25.75,0.2586700916290283,-1.1868067979812622,2.176255702972412,2.3658316135406494,1.3075698614120483,0.27640143036842346
25.8,-2.7066032886505127,2.1103339195251465,3.5878665447235107,1.5606980323791504,2.250063896179199,0.16492010653018951
25.85,-4.563248634338379,0.5947660207748413,2.0722382068634033,-0.4255230128765106,2.3574602603912354,0.3270447552204132
25.9,-2.2828922271728516,-0.19459626078605652,-2.13352632522583,-0.6709188222885132,-0.33690136671066284,0.5053356289863586
25.95,0.1829715371131897,0.8240662813186646,0.03389741852879524,0.39110150933265686,-1.0458735227584839,0.41496729850769043
26.0,0.25508981943130493,-0.12912751734256744,0.7336826920509338,0.2639099359512329,0.5175873041152954,0.1745043396949768
26.05,-0.7861798405647278,0.06237608566880226,0.5286498069763184,0.4507773220539093,1.418202519416809,0.3862179219722748
26.1,-2.4618210792541504,0.33613696694374084,0.03975524380803108,0.5751361846923828,1.3081772327423096,0.3014644682407379
26.15,-1.1850850582122803,-0.2633199393749237,-0.26547983288764954,0.7251716256141663,0.30489712953567505,0.28096112608909607
26.2,1.842724084854126,0.09635819494724274,-0.713985025882721,0.7106195688247681,-0.40123042464256287,0.06558740884065628
26.25,1.3842178583145142,0.2897739112377167,0.29185351729393005,0.6257897615432739,-0.4333285987377167,0.043129030615091324
26.3,0.994308352470398,0.1482095569372177,0.6255519390106201,0.5112267732620239,-0.5997998118400574,0.13553903996944427
26.35,1.3285657167434692,-0.0919838398694992,1.1167973279953003,0.367087185382843,-0.9047825336456299,0.11798105388879776
26.4,0.8339792490005493,0.18271444737911224,0.49236851930618286,0.21777816116809845,-0.8979045748710632,0.024928918108344078
26.45,-0.674652099609375,-0.027506770566105843,0.9219458699226379,0.12031301856040955,-0.7496918439865112,0.0369567796587944
26.5,0.11334192752838135,0.21006110310554504,0.4828617572784424,0.22784394025802612,-0.9835880398750305,-0.06284070014953613
26.55,1.3504786491394043,0.28611278533935547,1.0367426872253418,0.27250993251800537,-0.9795944094657898,-0.055539146065711975
26.6,0.8243539929389954,0.2573080360889435,1.5202455520629883,0.2195463478565216,-0.5643735527992249,-0.008131694048643112
26.65,0.01825752854347229,0.2649412751197815,0.9023047685623169,0.29379916191101074,-0.5967701077461243,0.008043164387345314
26.7,-0.14905664324760437,-0.1573037952184677,0.8375364542007446,0.33222806453704834,-0.5444554090499878,-0.017225356772542
26.75,0.18139974772930145,-0.17007924616336823,0.43605566024780273,0.3833940625190735,-0.6564868688583374,-0.06589514017105103
26.8,-0.3359096646308899,-0.2886037528514862,1.6423143148422241,0.5203466415405273,-0.8083945512771606,-0.07454554736614227
26.85,-1.0491629838943481,-0.5731286406517029,3.18969464302063,0.5224805474281311,-0.9939460754394531,-0.07682600617408752
26.9,-0.7809047698974609,1.3108465671539307,4.854921340942383,0.17090880870819092,-0.8650352954864502,-0.050509728491306305
26.95,-2.7893197536468506,4.017400741577148,3.6409566402435303,-0.757921576499939,0.13824325799942017,-0.14595715701580048
27.0,-9.236324310302734,4.638437271118164,2.0641191005706787,-3.0126757621765137,2.5918023586273193,-0.9762734770774841
27.05,2.553640365600586,1.7729138135910034,-7.429944038391113,-3.222994804382324,-4.058557033538818,-0.920446515083313
27.1,7.894545555114746,-0.2875237762928009,-2.3212759494781494,-2.1436331272125244,-3.1738250255584717,0.3346092700958252
27.15,5.992018222808838,-1.9400368928909302,-3.626631259918213,-1.7390038967132568,1.6051537990570068,-0.11659976094961166
27.2,2.616753339767456,-4.140891075134277,-4.311500072479248,-0.9804559946060181,3.939556837081909,-1.3496437072753906
27.25,-1.1408110857009888,-2.9271819591522217,-3.880566358566284,0.04776763916015625,3.8862171173095703,-1.7303500175476074
27.3,-1.649165391921997,-1.1575223207473755,-1.3761481046676636,1.0033628940582275,1.5350638628005981,0.17276528477668762
27.35,0.06864595413208008,-1.090511441230774,-1.6635733842849731,1.2187020778656006,1.4100158214569092,-0.08614403754472733
27.4,1.5824633836746216,3.484513759613037,-0.8572551012039185,1.3291864395141602,3.8828542232513428,-1.8710169792175293
27.45,-5.245899677276611,-1.255680799484253,2.6574106216430664,0.74724280834198,4.512104034423828,-1.4420146942138672
27.5,-1.4788936376571655,0.23031339049339294,-0.8261702060699463,1.2610422372817993,-0.14966841042041779,-0.012902865186333656
27.55,2.673738479614258,-1.0457384586334229,1.1686351299285889,1.093528389930725,-0.9453326463699341,0.08008703589439392
27.6,1.9043782949447632,0.44201940298080444,-0.8409135341644287,0.5441769361495972,-0.46801379323005676,0.17660433053970337
27.65,2.572310209274292,2.8089828491210938,-0.37521761655807495,0.33260661363601685,1.56386137008667,-0.131691113114357
27.7,-2.2317588329315186,0.7034246921539307,2.9547362327575684,0.0926750898361206,2.8767781257629395,0.554739236831665
27.75,-1.86747145652771,-0.4217928647994995,2.449728012084961,0.09343346953392029,0.6673043370246887,0.6310829520225525
27.8,0.8544553518295288,0.6220664978027344,-0.8350712656974792,0.11912432312965393,-0.8718969821929932,0.22279798984527588
27.85,1.3854478597640991,0.09474363178014755,-1.3022701740264893,0.16910439729690552,-0.26864731311798096,0.5226462483406067
27.9,0.4827922582626343,-0.1548825055360794,-0.9652944207191467,-0.06291936337947845,0.709554135799408,0.4768337905406952
27.95,-0.2993135452270508,0.014240305870771408,0.8325449824333191,-0.17718374729156494,1.1112074851989746,0.4110693335533142
28.0,-1.220393180847168,0.22923673689365387,1.268682599067688,0.050442762672901154,0.48591580986976624,0.39228108525276184
28.05,-0.07113095372915268,0.512881338596344,-0.23729993402957916,0.0761755108833313,-0.5919072031974792,0.239532470703125
28.1,-0.013367623090744019,0.19689179956912994,-0.5028274655342102,0.17061454057693481,-0.5812994837760925,0.11394568532705307
28.15,-0.016693029552698135,0.2558155357837677,0.036639560014009476,0.18464499711990356,-0.25479888916015625,0.04462329298257828
28.2,-0.06842485070228577,0.02972223237156868,0.41237419843673706,0.21900665760040283,-0.4785168170928955,-0.01468519028276205
28.25,0.4984961450099945,-0.14771082997322083,0.21803313493728638,0.41953033208847046,-0.8587599396705627,-0.18321846425533295
28.3,1.2181674242019653,-0.13676460087299347,0.1985534280538559,0.4638047516345978,-0.9733193516731262,-0.3228960633277893
28.35,1.3344526290893555,-0.09150320291519165,0.6371917724609375,0.3793487250804901,-0.6490253210067749,-0.29647889733314514
28.4,0.8272481560707092,-0.03923514112830162,0.8175622224807739,0.259849488735199,-0.43195876479148865,-0.20830321311950684
28.45,0.3033744692802429,-0.06663894653320312,0.9223443269729614,0.18163438141345978,-0.5326557159423828,-0.1486208140850067
28.5,0.4177613854408264,0.023331640288233757,0.6589000225067139,0.1178094744682312,-0.5708160996437073,-0.14193588495254517
28.55,0.32839536666870117,0.25968268513679504,0.29476919770240784,0.06998933851718903,-0.5884571671485901,-0.14810475707054138
28.6,0.552009105682373,0.31646251678466797,0.4955889880657196,0.008491508662700653,-0.5233654379844666,-0.15756049752235413
28.65,0.8149070143699646,0.4928312301635742,-0.16434475779533386,0.010363034904003143,-0.6750279068946838,-0.201871857047081
28.7,0.6961488127708435,0.3635730743408203,0.21601992845535278,0.05126846581697464,-0.6760990619659424,-0.26930615305900574
28.75,0.5312684774398804,0.17108537256717682,0.9636476635932922,0.03129151463508606,-0.649635374546051,-0.3366256356239319
28.8,1.0207278728485107,0.5343876481056213,0.8692156076431274,-0.026721760630607605,-0.9314137101173401,-0.3939608633518219
28.85,1.0083245038986206,0.7266541123390198,1.6476035118103027,-0.14409874379634857,-0.7993550896644592,-0.2991575300693512
28.9,0.45897722244262695,0.891706645488739,2.313342809677124,-0.3994797468185425,-0.6173210144042969,-0.18629330396652222
28.95,-0.17774546146392822,1.2547886371612549,2.6680383682250977,-0.9281774759292603,-0.46972981095314026,-0.10424628853797913
29.0,-1.653505563735962,2.61478853225708,2.1652884483337402,-1.802137851715088,-0.06722189486026764,0.11806594580411911
29.05,-0.6723467111587524,2.2571604251861572,-1.3440444469451904,-2.1494715213775635,-0.84576815366745,0.4138440489768982
29.1,0.8936922550201416,-0.8901093006134033,-2.60343074798584,-1.6168173551559448,-1.5712265968322754,0.8989691734313965
29.15,1.1924328804016113,-1.1160671710968018,-1.5617743730545044,-1.1444205045700073,-0.6633425951004028,0.44929859042167664
29.2,-0.5197234749794006,-1.3347092866897583,-0.3568127155303955,-0.9432994723320007,0.4202962815761566,-0.029239660128951073
29.25,-1.3661197423934937,-2.019679307937622,-0.3354364335536957,-0.5698025226593018,0.4415692687034607,-0.0072256955318152905
29.3,-1.2770435810089111,-2.0458872318267822,-0.5197584629058838,-0.1524714082479477,0.10217077285051346,-0.0013132146559655666
29.35,-1.1367533206939697,-2.136526346206665,-0.34674760699272156,0.1696110963821411,-0.5158273577690125,0.046341538429260254
29.4,-1.2223358154296875,-1.5224134922027588,-0.28801658749580383,0.3011127710342407,-1.1101138591766357,0.3687784671783447
29.45,-0.7914635539054871,0.16805940866470337,0.2768980860710144,0.3854367733001709,-1.4323261976242065,0.7420502305030823
29.5,1.4646010398864746,1.6752359867095947,2.5171029567718506,0.6362217664718628,-1.7944477796554565,0.8798205256462097
29.55,0.5348384380340576,1.528927206993103,3.5409064292907715,0.749366044998169,-1.3706563711166382,1.114761471748352
29.6,-2.1810836791992188,2.641806125640869,1.3983550071716309,1.2152884006500244,-1.0282458066940308,0.6145257353782654
29.65,-1.2590665817260742,3.0917458534240723,-0.5269047617912292,0.5051584839820862,-0.500216543674469,-1.0859878063201904
29.7,-1.5344573259353638,-2.898942708969116,-4.668831825256348,0.026319697499275208,0.9281522035598755,-0.2594069540500641
29.75,1.0580477714538574,-3.526465654373169,-3.3286564350128174,0.932371973991394,-2.0857410430908203,1.019147515296936
29.8,1.785820484161377,2.9059154987335205,0.8080412745475769,1.3423097133636475,-2.0787010192871094,0.04508834704756737
29.85,0.8427363634109497,1.0195857286453247,0.8875194191932678,0.2664542496204376,0.2777656614780426,-0.2709227204322815
29.9,-1.1441415548324585,-0.5018206238746643,-1.7912325859069824,0.13774996995925903,0.23530423641204834,0.25074502825737
29.95,-0.7670325040817261,-0.42197996377944946,-1.5285648107528687,0.19330105185508728,-0.9489379525184631,-0.14806333184242249
30.0,0.948077380657196,0.22782421112060547,0.6585856080055237,0.35713520646095276,-1.8160455226898193,-0.19494061172008514
30.05,1.589883804321289,0.24688145518302917,0.774473249912262,0.3097958266735077,-1.343529224395752,0.023978034034371376
30.1,1.2239797115325928,-0.019097398966550827,-0.14042076468467712,0.18532893061637878,-0.18161706626415253,-0.19169820845127106
30.15,0.4869568645954132,-0.03758053481578827,-0.6125829219818115,0.25081294775009155,0.07448528707027435,-0.4245176315307617
30.2,-0.045225925743579865,0.43606477975845337,-0.3384222090244293,0.4130670428276062,-0.5410311818122864,-0.36273854970932007
30.25,0.4639928936958313,0.4299183189868927,0.16967114806175232,0.5587812662124634,-0.9945563673973083,-0.37536823749542236
30.3,1.7812957763671875,0.7635765671730042,0.3696240186691284,0.6409716606140137,-1.163346529006958,-0.49141478538513184
30.35,1.3205866813659668,1.0441932678222656,-0.06872162222862244,0.5425423383712769,-0.9836267828941345,-0.689628541469574
30.4,0.8428533673286438,1.5620510578155518,-0.52564537525177,0.4962652325630188,-1.224794626235962,-0.9476493000984192
30.45,1.1061205863952637,-0.04984290152788162,-0.10821497440338135,0.4546612501144409,-1.6820993423461914,-1.0555835962295532
30.5,1.0049946308135986,-0.9566861987113953,-0.08499783277511597,0.4836121201515198,-1.565029263496399,-0.5847740173339844
30.55,0.8995761871337891,-0.4978419542312622,-0.6607934236526489,0.5965145230293274,-1.2112385034561157,-0.09965263307094574
30.6,-1.3669689893722534,0.11218937486410141,-0.06220375746488571,0.4416842460632324,-0.9050326347351074,0.3249022364616394
30.65,-3.281162977218628,0.30324864387512207,1.6403177976608276,-0.05866912007331848,-0.4149596095085144,0.38351917266845703
30.7,-1.6762146949768066,-1.5295478105545044,-0.30484649538993835,-0.12889008224010468,-0.5469580292701721,0.033517446368932724
30.75,0.6970610022544861,-0.007986155338585377,-1.7541675567626953,0.3827049434185028,-1.5951099395751953,0.2553041875362396
30.8,-1.021069884300232,1.2441750764846802,-0.5653762221336365,0.5052474141120911,-0.646929144859314,0.9350268840789795
30.85,-2.1098923683166504,0.6848899722099304,-0.03536035493016243,0.17978191375732422,-0.045136068016290665,0.4648970365524292
30.9,-0.9589062929153442,0.3285103440284729,-0.43747785687446594,0.1645732820034027,-0.3649376630783081,0.0520501583814621
30.95,-1.7368481159210205,0.4517604410648346,-0.5903549194335938,0.24133266508579254,-1.0001119375228882,0.07166482508182526
31.0,-1.3209971189498901,0.20896826684474945,-0.03063140995800495,0.09356790781021118,-1.3189442157745361,-0.14991065859794617
31.05,-0.5090636014938354,-0.5154943466186523,1.0235017538070679,0.01918700337409973,-0.6690950393676758,-0.24873612821102142
31.1,-0.7898825407028198,-0.2964801490306854,0.5036267042160034,-0.08331573009490967,-0.04730448126792908,-0.01755923591554165
31.15,-0.8038721084594727,0.1526203453540802,-0.7563273906707764,-0.2383941113948822,0.12146902829408646,0.060976773500442505
31.2,-0.7471073865890503,0.12868693470954895,-0.828055739402771,-0.2746126651763916,0.122171550989151,-0.06393881142139435
31.25,-0.5240804553031921,0.009973546490073204,-0.2937792241573334,-0.31120049953460693,-0.03796238824725151,-0.1802007257938385
31.3,-0.0810660719871521,0.17376233637332916,-0.318376749753952,-0.38156047463417053,-0.0044467272236943245,-0.16965368390083313
31.35,-0.21114680171012878,0.17340947687625885,-0.522161602973938,-0.41396281123161316,0.3246181905269623,-0.13330598175525665
31.4,0.08878883719444275,-0.2409992665052414,-0.3654038906097412,-0.48082882165908813,0.5506730675697327,-0.13090050220489502
31.45,1.0553337335586548,0.8512611985206604,-0.09339959174394608,-0.580094039440155,0.6639463901519775,-0.05905242636799812
31.5,1.0338841676712036,1.1775970458984375,-0.4793287217617035,-0.7063287496566772,0.7976179718971252,0.0035906312987208366
31.55,1.5601449012756348,1.3669118881225586,-0.010438301600515842,-0.7382051348686218,0.4963703155517578,0.26262786984443665
31.6,-0.432695209980011,0.6317054033279419,1.8192570209503174,-0.5110284090042114,0.9465916752815247,0.34556642174720764
31.65,-0.1769809126853943,0.08939941227436066,2.0582869052886963,-0.4961051940917969,0.9811339974403381,0.08025345206260681
31.7,0.9195598363876343,-0.05933953821659088,1.4200446605682373,-0.5388308763504028,0.45838916301727295,-0.01759481616318226
31.75,0.6568950414657593,-0.009258278645575047,0.9675992727279663,-0.35819411277770996,0.2428869754076004,-0.0967930257320404
31.8,-0.17352232336997986,0.07066535949707031,-0.587261974811554,-0.2918025553226471,0.5394637584686279,-0.1231837123632431
31.85,-0.5084898471832275,-0.00613308884203434,-1.2722527980804443,-0.2337551712989807,0.4336041808128357,-0.13563507795333862
31.9,0.05105173587799072,0.017994867637753487,-0.43279534578323364,-0.11421352624893188,-0.29154109954833984,-0.1872509866952896
31.95,0.673827052116394,-0.09278014302253723,0.4540608823299408,-0.0931469053030014,-0.7827242612838745,-0.1672573685646057
32.0,0.6227338314056396,-0.03429318591952324,0.87256920337677,-0.10784298926591873,-0.7128612399101257,-0.11980585753917694
32.05,-0.4133380055427551,0.4487210512161255,0.9247092008590698,-0.1292116641998291,-0.2713173031806946,-0.22436445951461792
32.1,-0.3218308091163635,0.5400716066360474,0.6514857411384583,-0.22838367521762848,-0.20127953588962555,-0.4897059500217438
32.15,0.6603879928588867,0.1394776999950409,-0.23805274069309235,-0.311434805393219,-0.5920568108558655,-0.5822901725769043
32.2,1.6038118600845337,-0.2632704973220825,0.00022570710279978812,-0.3867080807685852,-0.6908588409423828,-0.5577549338340759
32.25,1.9550158977508545,-0.08298595249652863,1.1871445178985596,-0.42326903343200684,-0.10348168015480042,-0.7194657325744629
32.3,1.094468116760254,0.48656749725341797,0.2368585467338562,-0.45354244112968445,0.5311070680618286,-0.9998418092727661
32.35,-0.7003461718559265,0.8475018739700317,-2.141805648803711,-0.4467538595199585,0.7042068243026733,-1.02781081199646
32.4,-1.3656816482543945,0.9128114581108093,-1.5178673267364502,-0.33643531799316406,-0.043698132038116455,-0.8074698448181152
32.45,-1.5740560293197632,1.5819905996322632,0.3740113377571106,-0.16380059719085693,-0.7827932238578796,-0.1739654242992401
32.5,-1.3745142221450806,1.0929938554763794,-0.8063331842422485,0.10676218569278717,-0.4519613981246948,0.12157604843378067
32.55,-0.4527760148048401,-0.7307454347610474,-1.9647091627120972,0.3700690269470215,-0.6177569031715393,-0.20296509563922882
32.6,0.2590222954750061,-1.3802157640457153,-0.6752474308013916,0.6275983452796936,-1.110110878944397,-0.08443514257669449
32.65,0.1680891513824463,-0.8686724901199341,0.2960855960845947,0.9315959811210632,-0.8904672861099243,0.41070640087127686
32.7,0.6835798025131226,-0.16664700210094452,0.4478151202201843,1.040910243988037,-0.5906659364700317,0.6334121227264404
32.75,0.9973360896110535,-0.2857247292995453,-0.70741206407547,0.8573279976844788,-0.5524402260780334,0.5056107044219971
32.8,0.22629642486572266,0.0500907227396965,-2.276242733001709,0.7243140339851379,-0.6685514450073242,0.5928213596343994
32.85,0.7642560601234436,0.3503531813621521,-1.3653802871704102,0.6187354922294617,-1.7276333570480347,0.5776607394218445
32.9,1.405595302581787,0.24768158793449402,0.5139973163604736,0.5399587750434875,-3.0514707565307617,0.2765037417411804
32.95,0.17081749439239502,0.545685887336731,1.4370206594467163,0.4579642415046692,-3.1635210514068604,0.18532797694206238
33.0,-1.597087025642395,-0.11213576793670654,1.8846373558044434,0.2925189137458801,-2.6710283756256104,0.027200600132346153
33.05,-2.346297025680542,-0.579652726650238,0.897987961769104,-0.0318550281226635,-2.171177864074707,-0.2003801167011261
33.1,-2.399989604949951,-0.7459115386009216,0.5491031408309937,-0.46320104598999023,-1.914584755897522,-0.49456310272216797
33.15,-3.5042641162872314,1.1018890142440796,1.502535343170166,-0.779596745967865,-1.4228081703186035,-0.6286986470222473
33.2,-0.1095602884888649,0.0018539431039243937,-0.20934085547924042,-1.0674623250961304,-0.4077279269695282,-0.5567750930786133
33.25,-0.34035152196884155,-1.321310043334961,1.5779129266738892,-1.0465927124023438,-1.3819252252578735,-0.19104129076004028
33.3,-3.264456033706665,1.5120558738708496,2.636549472808838,-0.825933575630188,-1.6651583909988403,0.2201019525527954
33.35,-0.41326314210891724,0.468176931142807,0.5565508604049683,-0.7626861929893494,-0.3245621919631958,-0.04375230148434639
33.4,-0.24737690389156342,-0.28818798065185547,0.2654254138469696,-0.8613928556442261,-0.7222638726234436,0.13214047253131866
33.45,-0.44261306524276733,0.06319525092840195,-0.22271431982517242,-0.9080336093902588,-1.169956922531128,0.3947453200817108
33.5,-0.6886303424835205,0.01856233924627304,-0.578276515007019,-0.666231095790863,-1.3459783792495728,0.28790462017059326
33.55,-0.1963876336812973,0.46085649728775024,-0.8095483779907227,-0.5222676992416382,-1.441429615020752,0.23279479146003723
33.6,1.0917351245880127,0.5834426879882812,-1.0194826126098633,-0.5419905185699463,-1.2650333642959595,0.19190503656864166
33.65,-0.22554782032966614,0.2742576599121094,-1.5168094635009766,-0.5594346523284912,-1.300093173980713,0.33718234300613403
33.7,-1.3564300537109375,-0.07682514190673828,-2.3946945667266846,-0.5779839754104614,-1.3719514608383179,0.403317391872406
33.75,-1.0824792385101318,0.38770774006843567,-3.2346150875091553,-0.5081882476806641,-1.4228029251098633,0.4390181601047516
33.8,-0.43250370025634766,0.8257579803466797,-4.467870712280273,-0.3738422989845276,-1.3406012058258057,0.441879004240036
33.85,0.08100748062133789,0.701537013053894,-6.322333335876465,-0.1117483526468277,-1.1028244495391846,0.41160720586776733
33.9,0.06922721862792969,1.3568352460861206,-7.188606262207031,0.8725830316543579,-0.787322461605072,0.4516660273075104
33.95,0.12366199493408203,3.494178295135498,-2.2023282051086426,2.5285556316375732,-0.04783619940280914,0.48576033115386963
34.0,-0.9113526344299316,3.7426469326019287,3.2081074714660645,3.000978946685791,-0.7648158669471741,0.13383860886096954
34.05,-2.9915480613708496,1.7157769203186035,2.843404531478882,2.6841068267822266,-1.5194352865219116,-0.6866143941879272
34.1,-3.4035916328430176,-0.6680248379707336,2.7663748264312744,2.2861900329589844,0.01121282484382391,-1.1015230417251587
34.15,-2.2943625450134277,-3.304147958755493,4.236079692840576,1.4745522737503052,1.617628574371338,-1.0827010869979858
34.2,-0.1890242099761963,-5.829618453979492,5.371506690979004,1.2500269412994385,3.6750943660736084,0.2917870581150055
34.25,4.593645095825195,-4.079217910766602,3.095787286758423,0.4877980947494507,4.278547763824463,1.2445898056030273
34.3,6.2585554122924805,0.5317999720573425,-1.752959966659546,-0.25414225459098816,2.0539090633392334,0.6397453546524048
34.35,2.015599012374878,1.605661392211914,-2.9105429649353027,-0.2667250633239746,-0.4744054973125458,-0.501092791557312
34.4,-1.6150505542755127,1.7543842792510986,-1.1787980794906616,-0.0024079978466033936,-0.6244267821311951,-0.5721560716629028
34.45,-0.36196276545524597,0.5945273041725159,-0.9249910116195679,0.2900999188423157,0.39198222756385803,-0.23219949007034302
34.5,-0.3074128031730652,-0.872322142124176,1.8416926860809326,-0.3304955065250397,-0.06867582350969315,0.12925708293914795
34.55,-1.1846586465835571,4.112515926361084,3.8134372234344482,-1.1452727317810059,0.7688485980033875,0.9953588843345642
34.6,3.2957329750061035,-2.7950239181518555,1.2816606760025024,-0.38904112577438354,2.296814441680908,0.9901280403137207
34.65,6.5372419357299805,-5.313430309295654,3.977564573287964,-1.0941410064697266,0.08505098521709442,0.4746626317501068
34.7,-0.8207604885101318,3.083632230758667,4.529216766357422,-1.7592065334320068,-1.5119264125823975,0.9623138308525085
34.75,-1.71750807762146,1.320568323135376,2.1334147453308105,-0.8709222674369812,0.27749601006507874,0.5887080430984497
34.8,1.2833656072616577,0.42244625091552734,0.16601112484931946,-0.7700368762016296,0.8985528349876404,0.5373333692550659
34.85,1.2812081575393677,-0.333594411611557,0.1595086306333542,-0.7565106749534607,0.5501959919929504,0.3722773492336273
34.9,0.446821391582489,-0.9588748812675476,-0.8062935471534729,-0.6521827578544617,-0.32461005449295044,0.30563536286354065
34.95,-1.6397658586502075,-0.38332366943359375,-1.2408273220062256,-0.6398459672927856,-1.2940988540649414,0.6954442262649536
35.0,-2.5340576171875,-0.40266701579093933,-1.6106630563735962,-0.655302107334137,-0.8670323491096497,0.5851101279258728
35.05,-1.5516839027404785,0.23684026300907135,-3.4205195903778076,-0.550719141960144,-0.32014986872673035,0.4434240758419037
35.1,-1.3230541944503784,0.5470055937767029,-6.133077144622803,-0.29384440183639526,-0.46279144287109375,0.3875395357608795
35.15,-2.651670455932617,0.8925390839576721,-6.485308647155762,0.6026787757873535,-0.28304076194763184,0.10817648470401764
35.2,-1.1202194690704346,4.107982158660889,-1.322774052619934,1.92435622215271,-0.026050560176372528,-0.3639804720878601
35.25,1.2648078203201294,5.312920093536377,1.7487726211547852,2.443418502807617,-0.27554622292518616,-0.949994683265686
35.3,-0.002936840057373047,2.6592113971710205,3.9254026412963867,1.9772988557815552,-1.1928789615631104,-1.3817998170852661
35.35,-0.766119122505188,-1.0119028091430664,3.9834721088409424,1.415107250213623,-0.1539577692747116,-1.5980422496795654
35.4,0.35359716415405273,-3.9626431465148926,3.7114853858947754,0.8738139867782593,1.0137132406234741,-1.5945229530334473
35.45,2.024862051010132,-5.945776462554932,4.477384090423584,0.7804624438285828,2.4946341514587402,-0.6502013206481934
35.5,4.938687324523926,-4.832481861114502,1.6605619192123413,0.7379274368286133,3.7260117530822754,0.6732528209686279
35.55,5.0321478843688965,0.9757945537567139,-2.378981351852417,0.5771506428718567,2.934621810913086,0.9995653033256531
35.6,0.4578512907028198,3.5700724124908447,-3.543466567993164,0.27265438437461853,0.5320077538490295,-0.13550616800785065
35.65,-2.029446601867676,2.30729603767395,-3.9231624603271484,-0.418587863445282,-1.0118051767349243,-0.7293707132339478
35.7,0.2549162805080414,-0.07925703376531601,-0.03253307566046715,0.010884612798690796,-0.3649075925350189,-0.48217251896858215
35.75,3.212594747543335,1.7089158296585083,0.6019548177719116,-0.19841152429580688,-0.2202291637659073,0.2961016893386841
35.8,2.022930383682251,5.125805377960205,3.084602117538452,-0.870922327041626,-0.02615727297961712,0.8617818355560303
35.85,2.772186279296875,-3.5899267196655273,3.233513355255127,-0.5270893573760986,0.5030418038368225,0.5879460573196411
35.9,3.3301587104797363,-0.7699120044708252,0.972843587398529,-1.4147276878356934,-0.8632115721702576,1.115844964981079
35.95,-1.9496792554855347,0.18269942700862885,3.5796914100646973,-0.7135363221168518,-0.6698914766311646,0.999562680721283
36.0,-0.3797065019607544,-0.007271732669323683,0.54349684715271,-0.7896329164505005,0.5296277403831482,0.6016165018081665
36.05,2.1375739574432373,-0.04924022778868675,0.19553714990615845,-0.7209968566894531,0.018233265727758408,0.6842817068099976
36.1,0.17838720977306366,-0.09347820281982422,0.545581579208374,-0.6740967631340027,-0.6303732395172119,0.6481664776802063
36.15,-0.8455401062965393,-0.3562917411327362,0.22348888218402863,-0.588955283164978,-0.4981878697872162,0.7005079984664917
36.2,-1.298086404800415,-0.2969522476196289,-1.4647918939590454,-0.5866633057594299,-0.5849496126174927,0.76761394739151
36.25,-2.2041423320770264,-0.3081969916820526,-2.1033177375793457,-0.6977639198303223,-0.4086316227912903,0.7411478757858276
36.3,-2.4965834617614746,-0.07309051603078842,-3.2417850494384766,-0.44650688767433167,-0.6530964970588684,0.7794883251190186
36.35,-2.5987062454223633,0.31035614013671875,-5.639040470123291,-0.1866065114736557,-0.38938143849372864,0.5472030639648438
36.4,-3.6029553413391113,0.2392607182264328,-6.241602897644043,0.5392187833786011,0.033802807331085205,0.14088541269302368
36.45,-3.176388740539551,2.197141170501709,-1.5186671018600464,1.7208147048950195,0.2635350525379181,-0.511311411857605
36.5,1.2609953880310059,4.760108470916748,0.30886024236679077,2.318394422531128,0.08691509813070297,-1.2359178066253662
36.55,0.9608277678489685,2.204969644546509,3.6533474922180176,1.9897699356079102,-1.0235861539840698,-1.582553744316101
36.6,-0.23990952968597412,0.25711745023727417,4.403148651123047,1.3946373462677002,-0.26550254225730896,-1.8760493993759155
36.65,0.7049529552459717,-1.8381487131118774,4.986764907836914,0.7679224014282227,0.7704300284385681,-1.9023226499557495
36.7,1.5788978338241577,-3.5458483695983887,6.1186652183532715,0.43363118171691895,2.4980103969573975,-0.9786903858184814
36.75,5.037553310394287,-4.767266273498535,2.204352617263794,1.0992316007614136,4.5371527671813965,0.4053913354873657
36.8,5.05253791809082,-0.07064574211835861,-4.884833335876465,0.8839124441146851,3.697251796722412,1.0269922018051147
36.85,1.385709285736084,1.098896861076355,-5.604902744293213,0.17506347596645355,0.9176138639450073,-0.1849111020565033
36.9,-1.0735162496566772,0.12329202145338058,-0.6833380460739136,-0.5611541271209717,-0.975154459476471,-0.6560651659965515
36.95,-4.62722110748291,4.793033599853516,0.9726672768592834,-0.5791006088256836,-0.2436341643333435,-0.10525773465633392
37.0,0.6522685885429382,-2.324512243270874,-0.09130769222974777,0.5832434892654419,1.8685383796691895,-0.07036126405000687
37.05,2.3821909427642822,-0.1654769629240036,-1.0293138027191162,0.6358504295349121,2.1411526203155518,0.37810713052749634
37.1,-1.0346938371658325,6.962211608886719,-2.093919038772583,0.35091903805732727,1.7255210876464844,0.4320600926876068
37.15,3.7124719619750977,-6.004792213439941,1.1876773834228516,-0.25931215286254883,0.176694855093956,-0.791569709777832
37.2,5.065648078918457,-2.3073527812957764,6.241455554962158,-1.3023302555084229,-0.9946503043174744,0.4635777473449707
37.25,2.1459929943084717,0.23278620839118958,3.938734531402588,-0.23489978909492493,0.8564571738243103,0.7335159182548523
37.3,2.337756872177124,0.40086841583251953,1.9183692932128906,-0.11882418394088745,2.345534324645996,0.9805006980895996
37.35,2.6032891273498535,-0.5492908358573914,-0.3360377848148346,0.2664881944656372,3.178208112716675,0.9014321565628052
37.4,1.661741018295288,0.49420443177223206,-1.8850631713867188,0.3043217062950134,3.1436760425567627,0.9246744513511658
37.45,0.43904393911361694,-0.43713200092315674,-1.4738054275512695,0.20906567573547363,2.0100860595703125,0.8224242925643921
37.5,0.8007534146308899,0.041508641093969345,0.14188769459724426,0.1607121080160141,0.6671038269996643,0.6235775351524353
37.55,1.019706130027771,0.39675524830818176,0.6980030536651611,0.30165204405784607,0.9007979035377502,0.7240277528762817
37.6,1.0550651550292969,0.015622081235051155,-0.1326005756855011,0.2835743725299835,1.7726279497146606,0.5072248578071594
37.65,-0.29089444875717163,0.2497263103723526,-1.0641528367996216,0.39569878578186035,2.058764696121216,0.22767159342765808
37.7,-1.6313722133636475,0.3871222734451294,-0.9837462902069092,0.4021972417831421,1.267296552658081,0.26083049178123474
37.75,-0.7408642768859863,0.30978116393089294,0.6314643621444702,0.3972872495651245,0.4556350111961365,-0.07846233248710632
37.8,1.1510415077209473,0.32256415486335754,1.9601162672042847,0.12624338269233704,0.0421847365796566,-0.33842921257019043
37.85,0.630124032497406,-0.7499963045120239,-0.3211748003959656,-0.36754855513572693,-0.11641255021095276,-0.6368711590766907
37.9,1.438488483428955,-1.553285002708435,0.35896673798561096,-0.3389436602592468,0.11188443750143051,-0.9293214678764343
37.95,-0.2847994565963745,2.28304123878479,3.342775821685791,0.1736108362674713,-0.3345685601234436,-0.2934758961200714
38.0,-0.9484966397285461,0.24049200117588043,2.0065650939941406,0.016227692365646362,1.3832497596740723,-0.3480687737464905
38.05,0.4454900026321411,-0.06561180204153061,2.499394655227661,-0.05680365487933159,1.1309443712234497,-0.18224775791168213
38.1,0.7630857229232788,0.49445828795433044,2.365328073501587,0.0772259533405304,1.8685039281845093,-0.0009757712832652032
38.15,0.9980251789093018,1.0530205965042114,2.8061141967773438,-0.04772183671593666,3.1199798583984375,0.11851944774389267
38.2,1.2451000213623047,1.2165213823318481,0.2779112160205841,-0.5637456178665161,4.428283214569092,-0.1957453489303589
38.25,-0.41718941926956177,1.2959271669387817,-0.3396661579608917,-0.9768002033233643,3.98157000541687,-0.2016594409942627
38.3,0.8856023550033569,0.7544088959693909,-1.1313400268554688,-1.2044517993927002,2.0896811485290527,0.222150981426239
38.35,1.5383665561676025,0.06519972532987595,-1.8926339149475098,-1.663304328918457,1.945982813835144,0.4504527747631073
38.4,1.0689845085144043,-0.956472635269165,-2.3401498794555664,-1.6022931337356567,2.303936719894409,0.5582786798477173
38.45,-1.0324296951293945,-1.3795920610427856,-1.9860373735427856,-1.2886881828308105,3.1669154167175293,0.2203904241323471
38.5,-3.340149164199829,-0.9847230315208435,-0.035288870334625244,-0.9384167194366455,3.37445068359375,0.0628441795706749
38.55,-3.590095281600952,-1.4935215711593628,0.45751693844795227,-0.6267814636230469,2.02846360206604,0.24073117971420288
38.6,-2.0393996238708496,-1.9531556367874146,0.3296961784362793,-0.07908716797828674,0.4004802703857422,0.6629971265792847
38.65,-0.1579934060573578,-1.2167006731033325,0.4691951870918274,0.7739317417144775,-0.36796241998672485,1.0431445837020874
38.7,2.0070314407348633,2.2303946018218994,1.0357681512832642,1.7182660102844238,-0.4607528746128082,0.5773056149482727
38.75,0.3715747594833374,2.1686251163482666,4.1806559562683105,1.0532798767089844,0.6497180461883545,-0.22209136188030243
38.8,-0.7965057492256165,3.5748438835144043,2.6102519035339355,0.6536155939102173,0.30264022946357727,-0.8386247158050537
38.85,3.036116600036621,5.610056400299072,0.348251074552536,0.20737048983573914,-0.05361998453736305,-0.33899617195129395
38.9,-4.800607681274414,-8.145681381225586,-2.6389782428741455,0.3946327567100525,-0.40615546703338623,0.4035957455635071
38.95,-0.5008194446563721,2.9463789463043213,-3.1762795448303223,1.2983571290969849,-1.1499321460723877,-0.8234965801239014
39.0,-0.8932519555091858,-1.0312634706497192,-0.891900360584259,0.2202424705028534,0.19017165899276733,-0.4794936180114746
39.05,-0.5277310609817505,-0.8623420000076294,-0.47257813811302185,0.8374245166778564,0.16759051382541656,-0.47968608140945435
39.1,-0.6324387788772583,-0.5415315628051758,0.3127327561378479,0.7069060206413269,-0.11383885890245438,-0.6533697247505188
39.15,1.0749338865280151,-0.773086667060852,1.2401127815246582,0.6927553415298462,-0.49763578176498413,-0.39832738041877747
39.2,0.9948177933692932,-1.164845585823059,0.2248402088880539,0.48688963055610657,-0.48325279355049133,-0.15794585645198822
39.25,-0.9024611711502075,-1.0744991302490234,0.8834322094917297,0.1526055485010147,-0.3935215175151825,-0.07721631973981857
39.3,0.007898762822151184,-0.5947695374488831,0.405558317899704,0.39090755581855774,-1.068930745124817,-0.37685835361480713
39.35,0.256905198097229,0.15044410526752472,2.4582316875457764,0.6668850183486938,-1.057430386543274,-0.5773916244506836
39.4,-0.21374905109405518,-0.5830687880516052,2.827138900756836,0.3225165605545044,-0.9311118721961975,-0.6058596968650818
39.45,0.9924501180648804,-1.2594443559646606,1.1626907587051392,0.19362306594848633,-1.6519064903259277,-0.9432204961776733
39.5,4.371063232421875,-1.695044994354248,0.2810167372226715,0.5221545100212097,-2.222839593887329,-1.5379374027252197
39.55,2.412710428237915,0.5357626676559448,-2.2908449172973633,0.727914035320282,-1.1767539978027344,-1.5406674146652222
39.6,1.4064134359359741,0.11506543308496475,-2.851093292236328,0.5476359724998474,0.3362905979156494,-0.48655834794044495
39.65,-6.144876480102539,2.931877613067627,-2.8381850719451904,0.573091983795166,1.8255910873413086,0.5488287210464478
39.7,-3.4182119369506836,-3.8931002616882324,-7.023997783660889,-0.13319048285484314,0.8876361846923828,0.418636679649353
39.75,-5.341631889343262,-1.4288567304611206,-3.28872013092041,0.3102583885192871,1.349234938621521,0.3683578372001648
39.8,-4.636364936828613,0.43676304817199707,-2.5082101821899414,0.4721916913986206,0.5719300508499146,-0.36416348814964294
39.85,0.8561440110206604,0.5687522292137146,-1.971754550933838,0.4586939811706543,-0.4471748471260071,-0.8893606066703796
39.9,0.5892849564552307,0.7325916290283203,-0.465257853269577,0.5580668449401855,-0.13405027985572815,-0.6988162994384766
39.95,-0.4261762499809265,0.879769504070282,0.4235139489173889,0.44953879714012146,-0.14934416115283966,-0.5310924053192139
40.0,1.4213502407073975,0.7167329788208008,1.202759027481079,0.4363066554069519,-0.28588157892227173,-0.5420275330543518
40.05,-0.1776825189590454,0.18061266839504242,2.6918559074401855,0.45914655923843384,0.05792693421244621,-0.3005676865577698
40.1,0.8217700123786926,0.1820029765367508,-0.3965701758861542,-0.14847180247306824,-0.32555264234542847,-0.3575257956981659
40.15,-0.6054619550704956,1.9236814975738525,-0.5755000710487366,-0.06011229008436203,-0.23522019386291504,-0.2868339717388153
40.2,-0.44813185930252075,2.9853546619415283,-0.10460685193538666,-0.05328190326690674,-0.3426983654499054,-0.4138626754283905
40.25,-0.4722678065299988,2.742128610610962,-0.5284338593482971,-0.27106672525405884,-0.3500272333621979,-0.45526498556137085
40.3,1.490646243095398,1.302168846130371,-1.8137909173965454,-0.4297080338001251,-0.35602307319641113,-0.5880790948867798
40.35,0.7982746958732605,1.3756247758865356,-0.0015690401196479797,-0.07534124702215195,-0.11294549703598022,-0.2935452461242676
40.4,0.11885738372802734,1.8861238956451416,1.014962077140808,0.03982172906398773,-0.014551118947565556,-0.04901930317282677
40.45,-0.13937462866306305,0.9278699159622192,0.4838923215866089,-0.006632279604673386,-0.03603651002049446,-0.07146524637937546
40.5,-0.23915350437164307,0.9816581606864929,1.042273759841919,0.10277993232011795,-0.019233528524637222,-0.15430478751659393
40.55,-0.15015846490859985,1.3733636140823364,1.4234932661056519,0.13154402375221252,-0.039940960705280304,-0.15948787331581116
40.6,-0.6323015093803406,2.1375772953033447,1.7442411184310913,0.052842095494270325,-0.17580103874206543,-0.16001532971858978
40.65,0.5208950638771057,1.6705858707427979,0.35721156001091003,-0.16294920444488525,-0.4083465039730072,-0.3636460304260254
40.7,1.9347858428955078,1.33172607421875,0.5249747037887573,-0.013741672039031982,-0.3065611720085144,-0.40793654322624207
40.75,2.5450222492218018,0.9004802703857422,0.922584593296051,0.1585656702518463,-0.10797899216413498,-0.29228758811950684
40.8,2.0840916633605957,0.08150281012058258,-0.042512115091085434,0.11257041990756989,0.21779096126556396,0.040247563272714615
40.85,-1.7261866331100464,0.23460590839385986,0.15441544353961945,0.1455175280570984,0.7019634246826172,0.4683052599430084
40.9,-0.008847296237945557,-0.6770086884498596,-0.5920373201370239,-0.24294517934322357,-0.019172977656126022,0.046960972249507904
40.95,2.8587260246276855,-0.026673419401049614,1.8642823696136475,0.13118195533752441,-0.37383371591567993,-0.09856384247541428
41.0,1.830845832824707,-3.987231731414795,5.171267986297607,0.8660548329353333,0.34024670720100403,0.3157152235507965
41.05,5.832786560058594,-3.5133070945739746,7.024801254272461,1.3720533847808838,1.0947390794754028,0.909328281879425
41.1,0.5377792119979858,1.6690047979354858,4.732774257659912,0.8019399642944336,1.8877389430999756,1.9995067119598389
41.15,-1.68975830078125,4.120400905609131,4.534167766571045,-0.9481905102729797,2.1291863918304443,2.3081483840942383
41.2,-1.0644451379776,3.054990291595459,1.5371006727218628,-2.380398988723755,1.2190239429473877,1.697960615158081
41.25,1.3186631202697754,1.273940086364746,-2.558596611022949,-2.658581256866455,-0.9046069979667664,1.28163480758667
41.3,2.7682526111602783,-1.018398642539978,-2.9739208221435547,-2.8900444507598877,-1.2379523515701294,2.169501781463623
41.35,1.7971811294555664,-3.0574491024017334,-1.8957557678222656,-2.2857959270477295,0.4993791878223419,2.228910446166992
41.4,-1.476875901222229,-2.845073938369751,-1.7881277799606323,-1.8309659957885742,3.0900771617889404,0.899630069732666
41.45,-2.435849666595459,-2.4941372871398926,0.9582734107971191,-1.848569631576538,2.2153987884521484,0.597238302230835
41.5,-1.4565497636795044,-1.7944108247756958,0.11754943430423737,-1.3537794351577759,0.161065474152565,1.378472924232483
41.55,0.6515206098556519,-1.9994361400604248,-0.6881015300750732,-1.1704275608062744,0.12542858719825745,1.4109786748886108
41.6,-0.06696084141731262,-1.824052095413208,1.0467113256454468,-1.491247534751892,1.2084896564483643,0.4555021822452545
41.65,-1.066479206085205,-0.6607045531272888,1.3537611961364746,-1.429161548614502,0.9230467677116394,0.34668341279029846
41.7,-1.130731463432312,-1.067631721496582,1.5019810199737549,-0.9910029172897339,0.5348456501960754,0.2753445506095886
41.75,-0.8702428936958313,-0.9763574600219727,1.9678175449371338,-0.888457179069519,0.9685996770858765,-0.27231770753860474
41.8,-0.5790261030197144,0.004158083349466324,1.1663585901260376,-0.9258942604064941,0.9480683207511902,-0.2050473392009735
41.85,-5.7636308670043945,31.129901885986328,-7.19001579284668,-1.3984150886535645,0.8636835217475891,0.5497658848762512
41.9,-2.7146568298339844,-9.782254219055176,5.722873687744141,-2.0186963081359863,0.32946154475212097,2.2252509593963623
41.95,-2.2391715049743652,-1.3790756464004517,-22.53302764892578,-0.8416013717651367,0.5517881512641907,1.3837881088256836
42.0,-3.5781683921813965,-3.371288776397705,-3.472660779953003,-1.6925660371780396,1.4668245315551758,0.6201693415641785
42.05,-1.7027790546417236,0.4085378646850586,-5.641299247741699,-1.0588301420211792,0.23494131863117218,0.991873025894165
42.1,-0.5394418239593506,-0.3075419068336487,-2.487489700317383,-1.2903181314468384,0.1275757998228073,0.6635252237319946
42.15,1.5497982501983643,2.754879951477051,-4.8633012771606445,-1.041299819946289,-0.17390155792236328,0.757642388343811
42.2,-0.13870716094970703,1.3819228410720825,-1.1606608629226685,-1.2519919872283936,0.0013037248281762004,0.5636624097824097
42.25,1.4990721940994263,0.20702068507671356,-1.0886110067367554,-0.8489495515823364,-0.07590657472610474,0.687014639377594
42.3,0.2617521286010742,0.6438770890235901,-0.22980335354804993,-0.8264641761779785,-0.040222711861133575,0.4578251540660858
42.35,1.1440765857696533,1.079014778137207,-0.602726399898529,-0.4803013205528259,0.19503253698349,0.5183324813842773
42.4,-0.8944271206855774,0.5880881547927856,0.10059268027544022,-0.36766019463539124,0.32868343591690063,0.2635994851589203
42.45,-1.6130387783050537,0.9937049746513367,-0.22586917877197266,-0.15410923957824707,0.13527221977710724,0.20872847735881805
42.5,0.6241307854652405,1.852437138557434,-1.7864114046096802,0.20098721981048584,-0.058239422738552094,0.33067989349365234
42.55,-0.3147170841693878,1.156678318977356,-0.4905056357383728,0.22632074356079102,-0.007230497896671295,0.09048763662576675
42.6,-0.5231224298477173,0.8641873598098755,0.040886469185352325,0.34639763832092285,-0.0073804063722491264,-0.07652094960212708
42.65,-0.5662103891372681,0.2465849667787552,0.49537408351898193,0.4636112451553345,-0.037249282002449036,-0.11196105927228928
42.7,-0.852013111114502,0.4738036096096039,-0.0219289381057024,0.5375890135765076,-0.07057057321071625,-0.21879799664020538
42.75,-0.39426231384277344,0.043021224439144135,-0.09872305393218994,0.6522380709648132,-0.12980709969997406,-0.3274843096733093
42.8,-0.5310308337211609,0.39227113127708435,0.40264955163002014,0.7880823612213135,-0.2311401218175888,-0.5354366898536682
42.85,0.5059478282928467,1.0961447954177856,0.46221253275871277,0.9072415232658386,-0.4025880694389343,-0.609241783618927
42.9,0.6626842617988586,0.6272011399269104,0.9516840577125549,1.1230759620666504,-0.35381054878234863,-0.6323649883270264
42.95,1.6047639846801758,0.21585078537464142,0.28582024574279785,1.39295494556427,-0.30368104577064514,-0.6950312852859497
43.0,0.724117636680603,0.2549467086791992,0.5337872505187988,1.5112535953521729,-0.2603510022163391,-0.9835193753242493
43.05,0.43135136365890503,-0.01817324571311474,-0.13354821503162384,1.721621036529541,-0.4379587769508362,-1.1483172178268433
43.1,0.332488477230072,-0.7898837924003601,-0.5910841226577759,1.8721963167190552,-0.6399909853935242,-1.1014200448989868
43.15,-0.8424026966094971,-0.898405134677887,-0.2813397943973541,2.008490562438965,-0.7634534239768982,-0.8382371664047241
43.2,0.5798101425170898,-1.0191375017166138,-0.9128921627998352,2.1852166652679443,-0.8434531688690186,-0.40854448080062866
43.25,0.9848432540893555,-0.6111727952957153,-0.10803980380296707,2.1179425716400146,-0.5470902323722839,-0.17708727717399597
43.3,1.2412265539169312,-0.7338763475418091,-0.08537806570529938,1.8992208242416382,-0.010789893567562103,-0.39070722460746765
43.35,-1.0124537944793701,0.20358192920684814,1.2155355215072632,1.450783371925354,0.5681942701339722,-0.8917896747589111
43.4,0.2677402198314667,-0.30460262298583984,1.0481300354003906,1.1977938413619995,0.2537744343280792,-1.137200117111206
43.45,2.632279872894287,-0.6261436343193054,-0.3564397990703583,1.3981056213378906,-0.15343834459781647,-1.1143778562545776
43.5,0.1759435534477234,-0.5893364548683167,1.331024408340454,1.2482022047042847,0.5515455603599548,-1.156705617904663
43.55,-0.32567858695983887,-0.06601041555404663,1.6931359767913818,1.126312017440796,-0.09038900583982468,-1.072500228881836
43.6,0.281271755695343,-0.029195794835686684,0.3102559745311737,0.9680917859077454,-0.7389111518859863,-1.0036952495574951
43.65,1.05030357837677,-0.259254515171051,0.6864539384841919,0.7633433938026428,-0.6707573533058167,-0.8269664645195007
43.7,0.382620632648468,-0.6492682099342346,1.0884815454483032,0.5971982479095459,-0.5501500964164734,-0.5496429800987244
43.75,0.5364454984664917,-0.765788197517395,1.5047805309295654,0.46518126130104065,-0.7093273997306824,-0.4589504897594452
43.8,0.5797157287597656,-0.593521237373352,-0.2826773226261139,0.2825796902179718,-1.032217025756836,-0.36638057231903076
43.85,-0.8059810400009155,-0.053642239421606064,-0.018527958542108536,0.2507615089416504,-1.01121187210083,-0.38430488109588623
43.9,-1.0919991731643677,0.19333279132843018,1.03684401512146,0.4346584975719452,-1.1191259622573853,-0.6457183957099915
43.95,0.9496475458145142,0.1976604461669922,0.8713202476501465,0.3434547185897827,-1.7920010089874268,-1.0243881940841675
44.0,3.6258890628814697,-0.5793631076812744,1.3880009651184082,0.20237070322036743,-1.7517163753509521,-1.0788458585739136
44.05,3.4474563598632812,-1.7646230459213257,2.2980082035064697,-0.03698885440826416,-1.0197532176971436,-0.8141054511070251
44.1,2.4612557888031006,-3.1823182106018066,2.1149330139160156,-0.14747647941112518,-0.537882387638092,-0.5880022048950195
44.15,3.1371216773986816,-3.516681432723999,0.31084099411964417,-0.10371506214141846,-0.5430055856704712,-0.6197831034660339
44.2,2.194493293762207,-2.8855175971984863,-4.412458419799805,-0.08292940258979797,-0.0443451926112175,-0.8161298632621765
44.25,-4.5013508796691895,3.770038366317749,-2.944589138031006,0.47987377643585205,1.749228596687317,0.04383257031440735
44.3,-4.389798641204834,4.627109050750732,-4.7292094230651855,0.13603518903255463,0.44429811835289,-0.06546030938625336
44.35,-2.0390427112579346,2.6131556034088135,-4.698474884033203,0.26380455493927,0.2756880223751068,-0.19926591217517853
44.4,-3.8995373249053955,2.057791233062744,-0.7814915180206299,0.6880040168762207,0.9140099883079529,-0.16490717232227325
44.45,-2.7199676036834717,1.5036100149154663,0.6023513674736023,0.46229302883148193,0.36813750863075256,-0.4514144957065582
44.5,1.406045913696289,0.020780477672815323,-0.47694525122642517,0.07597425580024719,-0.5623069405555725,-0.6687131524085999
44.55,0.6593960523605347,-0.2819252908229828,-0.3864213824272156,0.21675705909729004,-0.20577788352966309,-0.3533332943916321
44.6,-1.8038678169250488,0.5857774615287781,0.5981985926628113,0.41733190417289734,0.16819718480110168,-0.09846924245357513
44.65,-1.7631385326385498,1.7830241918563843,0.774635910987854,0.3636998236179352,-0.04897579178214073,-0.22423908114433289
44.7,-1.0657131671905518,2.139211893081665,0.8888667225837708,0.2868180274963379,-0.15755188465118408,-0.3690508008003235
44.75,0.15982168912887573,1.7503540515899658,0.48943719267845154,0.1726885586977005,-0.1807771921157837,-0.4634007215499878
44.8,1.0147366523742676,1.6888066530227661,-0.3168546259403229,0.009390085935592651,-0.17870718240737915,-0.38307374715805054
44.85,0.5629989504814148,1.3532592058181763,-0.979030430316925,-0.033937036991119385,-0.16361750662326813,-0.24323952198028564
44.9,0.34308287501335144,0.7328615188598633,-1.1776138544082642,-0.004441969096660614,-0.18059594929218292,-0.20389589667320251
44.95,0.6320263743400574,0.5284957885742188,-0.7453494668006897,0.013808917254209518,-0.19476835429668427,-0.15149551630020142
45.0,0.29825112223625183,0.6266728043556213,0.12828409671783447,0.07129629701375961,-0.07530276477336884,-0.028223395347595215
45.05,0.782249927520752,0.22280025482177734,0.36937785148620605,0.022867754101753235,-0.021599337458610535,-0.0409800261259079
45.1,1.7853374481201172,-0.03206739202141762,0.1806313395500183,-0.04315968602895737,0.015847453847527504,-0.05333799868822098
45.15,0.714551568031311,0.16997909545898438,0.6363478899002075,0.037947580218315125,0.2109890878200531,0.056390080600976944
45.2,0.7527605295181274,0.2533884048461914,0.8287055492401123,-0.11354349553585052,0.00457810191437602,-0.1178680956363678
45.25,1.6908196210861206,0.353416383266449,0.4515021741390228,-0.3068320155143738,-0.21505184471607208,-0.3037105202674866
45.3,1.4857301712036133,0.9682455658912659,0.07168769836425781,-0.3263731002807617,-0.18302419781684875,-0.20762445032596588
45.35,-0.18458718061447144,1.9512035846710205,-0.04017406329512596,-0.26791468262672424,-0.0921822339296341,-0.12847670912742615
45.4,-0.5518860816955566,1.7866299152374268,-0.936041533946991,-0.3591161370277405,-0.26930609345436096,-0.3446808457374573
45.45,1.0621981620788574,0.5061520934104919,-1.6604735851287842,-0.3487829566001892,-0.5091751217842102,-0.5800377726554871
45.5,1.5303577184677124,0.5229386687278748,-0.45092400908470154,-0.007206618785858154,-0.4249143600463867,-0.42452141642570496
45.55,1.8086719512939453,1.2387038469314575,1.3917690515518188,0.33326032757759094,-0.47157710790634155,-0.17748837172985077
45.6,1.3590188026428223,1.058768391609192,4.242054462432861,0.879474401473999,-0.17161238193511963,0.09518911689519882
45.65,2.154695510864258,-1.7046986818313599,9.988198280334473,1.0061585903167725,0.7958323359489441,0.5323737263679504
45.7,2.883458137512207,-1.9544936418533325,8.388117790222168,0.0258980393409729,1.362865924835205,1.3035190105438232
45.75,-0.247208833694458,2.0874485969543457,4.018228054046631,-1.4568748474121094,0.705089271068573,1.6421153545379639
45.8,-2.287825584411621,2.635985851287842,0.7070649266242981,-3.0313024520874023,-0.4575442373752594,1.491146206855774
45.85,0.7626118659973145,1.95142662525177,-1.7253942489624023,-3.6726648807525635,-1.0298123359680176,1.8875941038131714
45.9,0.417309045791626,2.665919303894043,-4.093127250671387,-3.545872449874878,-0.07694888114929199,2.0517423152923584
45.95,-1.7874469757080078,-1.2647391557693481,-4.277837753295898,-3.4408507347106934,1.0888370275497437,1.366820216178894
46.0,-2.5648865699768066,-5.376558303833008,-2.255060911178589,-2.786118507385254,1.420846939086914,0.6927569508552551
46.05,-2.2230992317199707,-6.361549377441406,-1.1298463344573975,-1.6345999240875244,1.118147373199463,0.4764566123485565
46.1,-0.7807080745697021,-5.313751697540283,-1.0434327125549316,-0.78072589635849,0.8290876746177673,0.45254144072532654
46.15,-0.24669870734214783,-3.683272361755371,-1.5362015962600708,-0.1415063738822937,0.8726481795310974,0.11067777127027512
46.2,-1.1515766382217407,-2.926624059677124,-1.565136432647705,0.5034140348434448,0.9290145039558411,-0.48607563972473145
46.25,-2.286914825439453,-1.3789787292480469,-1.3118398189544678,1.1326072216033936,0.5636947154998779,-0.7592206597328186
46.3,-1.477004885673523,0.9460594058036804,-1.2938232421875,1.569709062576294,-0.15568988025188446,-0.43569013476371765
46.35,-0.5220914483070374,2.4651997089385986,0.04147062823176384,1.8978043794631958,-0.7514377236366272,-0.14787529408931732
46.4,0.8698012828826904,2.8232967853546143,2.6440913677215576,1.7889623641967773,-0.7887179255485535,-0.02135639078915119
46.45,1.556875228881836,3.1703057289123535,4.44318962097168,1.2642055749893188,-0.5601465702056885,-0.26120391488075256
46.5,1.890839695930481,3.336940288543701,3.088425397872925,0.49963122606277466,0.34154239296913147,-0.6296805143356323
46.55,-1.3843719959259033,0.9474108219146729,0.6400492191314697,-0.11432771384716034,1.1866214275360107,-0.6427238583564758
46.6,-4.4700422286987305,-1.4224748611450195,-3.476529121398926,0.39821523427963257,-0.8422152400016785,-0.00031641675741411746
46.65,-1.4200226068496704,-0.7001382112503052,-4.412720203399658,1.0980199575424194,-2.3141441345214844,0.024631183594465256
46.7,2.7663731575012207,1.06236732006073,-2.2575182914733887,0.8314433693885803,-1.1720740795135498,-0.14352430403232574
46.75,1.7553224563598633,0.8442659378051758,-1.3563003540039062,0.26082926988601685,-0.15015742182731628,0.04751712083816528
46.8,-1.0484801530838013,-0.037686292082071304,0.10730883479118347,0.21010957658290863,-0.43069806694984436,0.08045167475938797
46.85,0.8307003974914551,0.18875789642333984,0.26541808247566223,0.29238179326057434,-1.5396842956542969,0.0027481592260301113
46.9,1.5394096374511719,0.26831525564193726,-0.20004697144031525,0.1709444522857666,-1.6323237419128418,-0.04200487583875656
46.95,-0.5349063873291016,-0.1246337890625,-0.43313634395599365,0.04487292841076851,-1.0491085052490234,-0.04425763338804245
47.0,-0.3852207660675049,-0.11526775360107422,-0.31822723150253296,0.06895752996206284,-1.063300609588623,-0.10158927738666534
47.05,0.3601609766483307,0.19536876678466797,-0.12635226547718048,0.08068706095218658,-1.1892660856246948,-0.14021183550357819
47.1,0.4372422993183136,0.4365253746509552,0.11777982860803604,0.04264767840504646,-1.0698643922805786,-0.1466735452413559
47.15,0.6410497426986694,0.47936442494392395,0.3939253091812134,-0.043890681117773056,-0.9118379950523376,-0.1598762422800064
47.2,0.931167483329773,0.17094990611076355,0.21055085957050323,-0.16644927859306335,-0.8033207654953003,-0.1562659591436386
47.25,1.1373531818389893,0.17346663773059845,-0.23356975615024567,-0.23463240265846252,-0.658163845539093,-0.13214938342571259
47.3,0.6694948673248291,0.20719335973262787,-0.40523144602775574,-0.2772175371646881,-0.4301894009113312,-0.1695636510848999
47.35,0.4757615029811859,0.14067648351192474,-0.31641480326652527,-0.2937561869621277,-0.24028459191322327,-0.19447998702526093
47.4,0.6261897683143616,0.23956774175167084,-0.3222353160381317,-0.3756978511810303,-0.034153733402490616,-0.1441248208284378
47.45,0.49338215589523315,0.2437276691198349,-0.7735268473625183,-0.6172804832458496,0.17818255722522736,-0.19980110228061676
47.5,-0.0418354868888855,0.5576515197753906,-2.2455077171325684,-0.7851109504699707,0.09034311026334763,-0.334715873003006
47.55,-0.9630056023597717,-0.01387884933501482,-2.748615264892578,-0.6902686357498169,-0.2870243191719055,-0.21804489195346832
47.6,-1.496269702911377,-0.5725946426391602,-0.4423554241657257,-0.35441598296165466,-0.4247151017189026,0.019290510565042496
47.65,-1.6602908372879028,0.1382075697183609,1.3887492418289185,0.1400488018989563,-0.2529725134372711,-0.11639232933521271
47.7,-2.219078540802002,-0.011156921274960041,-0.04228180646896362,0.3730235993862152,-0.873977541923523,-0.3179057836532593
47.75,-1.9001729488372803,-0.03417102247476578,-0.5471338033676147,0.3578813374042511,-2.2542731761932373,-0.17260049283504486
47.8,-0.5333347916603088,0.2988815903663635,0.45019620656967163,0.2731124460697174,-2.728717088699341,-0.258210688829422
47.85,0.9771831035614014,-0.3637257516384125,0.24528257548809052,0.3246282637119293,-2.0794591903686523,-0.6908074617385864
47.9,1.404371738433838,-0.8418952822685242,0.42496946454048157,0.6480568051338196,-1.3319936990737915,-0.7538958191871643
47.95,0.9391040802001953,-0.370059072971344,0.2917426526546478,0.7775735855102539,-1.0827401876449585,-0.5490856766700745
48.0,0.8582253456115723,-0.007329026702791452,0.2448270320892334,0.7035548090934753,-1.0998197793960571,-0.322295606136322
48.05,0.15213686227798462,-0.01764390990138054,1.0036470890045166,0.7013915777206421,-0.978294312953949,-0.1591079980134964
48.1,-0.5687113404273987,-0.6209745407104492,1.9420969486236572,0.6022646427154541,-1.127190351486206,0.04846391826868057
48.15,0.1298345923423767,-1.0751734972000122,1.8395788669586182,0.31944364309310913,-1.4716726541519165,0.3225537836551666
48.2,0.24238473176956177,-0.32828235626220703,1.0712414979934692,0.2043713927268982,-0.9382030963897705,0.6658541560173035
48.25,-0.8386943340301514,0.8226539492607117,1.0975679159164429,0.1703423261642456,0.004318526480346918,0.9455463886260986
48.3,-1.0267943143844604,3.0633931159973145,0.5940024852752686,-0.08870866894721985,-0.211813285946846,0.9876003265380859
48.35,-2.332101821899414,3.878593921661377,-0.5007233023643494,-0.06783169507980347,-0.4525057375431061,1.0996357202529907
48.4,-4.529720306396484,0.5593665242195129,0.20147672295570374,-0.327875018119812,0.7312014698982239,0.7788403630256653
48.45,2.2768359184265137,-0.4344531297683716,1.8528437614440918,-0.7741649746894836,0.2676774263381958,-0.05065147578716278
48.5,5.989710807800293,1.151224970817566,4.409282684326172,-0.30135342478752136,-1.1452369689941406,-0.04892081767320633
