Time [s],Acc_x [m/s^2],Acc_y [m/s^2],Acc_z [m/s^2],Gyro_x [1/s],Gyro_y [1/s],Gyro_z [1/s]
0.0,-0.0020650909282267094,0.008999825455248356,-0.0007812181138433516,-0.001534316805191338,0.001875743386335671,0.004060571547597647
0.05,-0.004033839795738459,0.00833988282829523,-0.0004996054922230542,-0.001534316805191338,0.0018757606158033013,0.0040605636313557625
0.1,-0.009089922532439232,-0.008551597595214844,0.02530590072274208,-0.0004919122438877821,0.0005171359516680241,0.003420585533604026
0.15,-0.012696776539087296,-0.05018043890595436,0.10915093868970871,0.0019630128517746925,-0.0012666786788031459,0.0023085912689566612
0.2,-0.007783565670251846,-0.036757469177246094,0.12410923838615417,0.0011276849545538425,0.009000933729112148,0.00377842178568244
0.25,-0.055018771439790726,-0.03574848175048828,0.05844884738326073,0.003067429643124342,0.015325270593166351,0.0006013894453644753
0.3,-0.05079128220677376,-0.05977630987763405,0.09982240200042725,-0.0028281279373914003,0.007577007636427879,0.0003468322684057057
0.35,-0.009250745177268982,-0.048043254762887955,0.12434554100036621,-0.0008211003732867539,0.012785929255187511,-0.00034636666532605886
0.4,-0.05816426873207092,0.00823402963578701,0.057906754314899445,0.000941342324949801,0.003948024939745665,0.0011683155316859484
0.45,-0.039242107421159744,-0.009004590101540089,0.06527208536863327,0.000987769104540348,-0.012988670729100704,0.002923770574852824
0.5,-0.03059065341949463,-0.016249656677246094,-0.005730427801609039,0.0009381445124745369,-0.024939430877566338,0.002823738381266594
0.55,-0.05759907513856888,-0.047928813844919205,0.08234655857086182,0.00300728646107018,-0.03605589270591736,0.0033114897087216377
0.6,0.02886664681136608,-0.04723454266786575,0.0364457406103611,-5.112818325869739e-05,-0.029518388211727142,0.0010167356813326478
0.65,0.016905181109905243,-0.0054035191424191,0.027329932898283005,0.0015027658082544804,-0.01745343580842018,0.0044336882419884205
0.7,0.03781675547361374,0.009919166564941406,0.028503872454166412,-0.005839454010128975,-0.014196339063346386,-0.003332665655761957
0.75,-0.02371497079730034,-0.0076265339739620686,-0.021966055035591125,-0.0032419818453490734,0.00032330170506611466,-0.0023903455585241318
0.8,0.025070570409297943,-0.02803993597626686,0.040996208786964417,-0.0024772717151790857,-0.00785388145595789,-0.003251746529713273
0.85,-0.04097728058695793,-0.03087330050766468,0.011994396336376667,0.0018446543253958225,-0.005365870427340269,0.00042822680552490056
0.9,-0.0005788933485746384,-0.05309010297060013,-0.021395035088062286,-0.0015913436654955149,-0.012729063630104065,-0.0027873872313648462
0.95,-0.02034909278154373,-0.06876659393310547,0.09627465158700943,-0.0034775338135659695,-0.016781119629740715,-0.002620877930894494
1.0,-0.02624494582414627,-0.0153656005859375,0.025874949991703033,-0.001829524408094585,-0.006909175775945187,-0.003486562753096223
1.05,-0.0667896419763565,-0.06988430768251419,-0.0018016942776739597,-0.002219688380137086,0.00415751663967967,-0.003652118379250169
1.1,-0.086822010576725,-0.09260749816894531,0.08080310374498367,0.003786377375945449,0.0030996580608189106,0.00032501976238563657
1.15,-0.06092383712530136,-0.07350826263427734,0.07719958573579788,-0.005028990097343922,0.009123205207288265,-0.003967451862990856
1.2,-0.020336681976914406,-0.03257179632782936,-0.007351780775934458,0.000803314964286983,0.012793286703526974,-0.0031668273732066154
1.25,-0.01950026862323284,-0.09040547162294388,0.07322261482477188,-0.005590085871517658,0.012375444173812866,-0.004865695722401142
1.3,0.019338199868798256,-0.05164814740419388,-0.002860371256247163,-0.011522797867655754,0.014444921165704727,-0.013724861666560173
1.35,0.029396740719676018,-0.04286861792206764,0.01258140429854393,-0.02032926306128502,0.005994284059852362,-0.019872378557920456
1.4,0.04152517765760422,-0.02513790689408779,0.014274302870035172,-0.022285759449005127,0.0076811169274151325,-0.02346515655517578
1.45,-0.14126156270503998,0.020742425695061684,0.032786041498184204,-0.007294918410480022,0.012065636925399303,-0.010800892487168312
1.5,-0.1984836310148239,-0.009485235437750816,0.0032385210506618023,0.0005902033299207687,-0.042718976736068726,-0.00622879434376955
1.55,0.020547714084386826,0.06763362884521484,-0.1460704803466797,-0.004454763140529394,-0.10994600504636765,-0.022879373282194138
1.6,0.33576154708862305,-0.03862956166267395,-0.3358551859855652,0.008489247411489487,-0.15867647528648376,-0.04349995031952858
1.65,0.7093503475189209,-0.1604490876197815,-0.4626043438911438,0.03122931718826294,-0.17621436715126038,-0.03839681297540665
1.7,0.9559145569801331,-0.19881734251976013,-0.310111939907074,0.07336559146642685,-0.17576582729816437,-0.02222636714577675
1.75,0.7741481065750122,-0.10298353433609009,-0.25358861684799194,0.08473681658506393,-0.05496076121926308,-0.01754811406135559
1.8,0.14117173850536346,-0.10241607576608658,-0.4892998933792114,0.04217532277107239,0.058123309165239334,-0.0377613864839077
1.85,-0.2838186025619507,0.028432847931981087,-0.6319748759269714,-0.0019924230873584747,-0.021626101806759834,-0.09867468476295471
1.9,-0.7196328043937683,-0.06868837773799896,-0.6142541766166687,-0.0746878981590271,-0.32275548577308655,-0.15616163611412048
1.95,-0.7657842040061951,-0.048663102090358734,0.17986199259757996,-0.04101243242621422,-0.6761134266853333,-0.1307091861963272
2.0,-0.7454051375389099,0.1402502804994583,0.5679190158843994,-0.12925311923027039,-0.7618837356567383,-0.1831677258014679
2.05,-0.9715251326560974,0.15927325189113617,1.3915104866027832,-0.13630279898643494,-0.6506249308586121,-0.24456530809402466
2.1,-0.14702175557613373,-0.5750189423561096,0.545945405960083,-0.17156919836997986,-0.30641576647758484,-0.28728386759757996
2.15,-0.31453824043273926,-0.06645966321229935,-0.5426140427589417,-0.15342310070991516,-0.00817561149597168,-0.20549340546131134
2.2,-1.7454262971878052,0.42831140756607056,-2.802861452102661,-0.25235408544540405,-0.03600296750664711,-0.10000866651535034
2.25,0.7876619696617126,-0.22787392139434814,-1.9006747007369995,-0.3217874765396118,-0.34582915902137756,0.11306622624397278
2.3,1.0804764032363892,-0.49276652932167053,-0.8247213959693909,-0.378158837556839,-0.6160789132118225,0.18852736055850983
2.35,-0.9037097692489624,-0.9616996049880981,-2.019240379333496,-0.09093639254570007,0.04679999500513077,0.159645676612854
2.4,-3.0859413146972656,-0.39757248759269714,-2.3469417095184326,0.3285136818885803,0.450977087020874,0.28475233912467957
2.45,-4.360953330993652,1.6658549308776855,-1.1440925598144531,-0.05571962893009186,-0.06251873075962067,-0.09811050444841385
2.5,1.9466990232467651,-2.6907618045806885,0.20813484489917755,-0.6963682770729065,-0.11486843228340149,-0.5781264305114746
2.55,1.0080292224884033,-0.42997846007347107,0.3169994354248047,-0.3455857038497925,0.45572349429130554,0.033433299511671066
2.6,-0.301714152097702,-0.42340287566185,-1.378201961517334,-0.5737773776054382,-0.35291004180908203,0.1873307079076767
2.65,0.3330225944519043,0.04515831544995308,-1.9973809719085693,-0.7797523140907288,-0.8012692928314209,0.3858887851238251
2.7,-0.10604625940322876,0.9737568497657776,-2.227504253387451,-0.8366891741752625,-0.5057095885276794,0.22097457945346832
2.75,-0.9383925199508667,-0.7902966737747192,-2.0611443519592285,-0.6495621204376221,-0.02227221429347992,0.16659943759441376
2.8,-3.935377836227417,-1.5267841815948486,-5.451809883117676,-0.7886756658554077,-0.49051347374916077,0.017498135566711426
2.85,-2.0294106006622314,0.6594324707984924,-3.110464096069336,-0.7243037819862366,-2.16049861907959,-0.13766060769557953
2.9,-2.3652985095977783,2.904524326324463,0.39739441871643066,-0.4980790317058563,-2.7357053756713867,-0.1933317631483078
2.95,-1.2125837802886963,1.4939911365509033,3.810398578643799,-0.13210368156433105,-1.9014053344726562,-0.22638092935085297
3.0,-0.4915255308151245,-0.7918835282325745,0.7476457953453064,-0.32944488525390625,-1.695133090019226,0.34258052706718445
3.05,-0.24918104708194733,0.225922629237175,0.2848280072212219,-0.10599668323993683,-2.3738462924957275,-0.6737896203994751
3.1,0.652161180973053,-0.6645804047584534,2.137725591659546,1.057782530784607,-2.0151097774505615,-1.004502773284912
3.15,-0.6927124261856079,1.851706862449646,3.9342832565307617,1.4110562801361084,-2.250843048095703,-0.31538039445877075
3.2,1.391545295715332,2.1581757068634033,0.7462228536605835,1.209833025932312,-3.378821849822998,-0.2682610750198364
3.25,3.452540874481201,-0.43598008155822754,0.38425394892692566,1.1291216611862183,-4.462757587432861,-0.40957531332969666
3.3,3.802664041519165,-3.1235899925231934,3.256575107574463,0.9773927927017212,-4.9133758544921875,-0.35731977224349976
3.35,-2.4948394298553467,-2.6854124069213867,5.05206298828125,0.27145206928253174,-3.7290263175964355,-0.09833282232284546
3.4,-2.703421115875244,0.53420090675354,1.5585048198699951,0.18726131319999695,-2.256563186645508,-0.2459782361984253
3.45,-3.2024314403533936,2.6736483573913574,-1.0149976015090942,0.35368597507476807,-1.838387131690979,-0.5914576053619385
3.5,-0.6182434558868408,-0.6977434754371643,-2.249948263168335,0.10856197774410248,-1.3203004598617554,-0.5970776081085205
3.55,3.5370936393737793,2.1472854614257812,-2.3296613693237305,-0.9748972058296204,-0.09886470437049866,0.7509658932685852
3.6,1.5432748794555664,8.216852188110352,-0.384494811296463,-1.961942195892334,-0.07395043224096298,1.0676944255828857
3.65,1.4844300746917725,-4.911004066467285,2.618610382080078,-0.8776475787162781,-1.8940410614013672,-0.5643965005874634
3.7,2.5198049545288086,-3.001776695251465,5.477536678314209,-1.1078450679779053,-0.22602470219135284,0.9878019094467163
3.75,1.0406907796859741,-1.2839080095291138,1.9448848962783813,-1.4911513328552246,-0.9241546392440796,-0.054744359105825424
3.8,1.376321792602539,-1.8191077709197998,0.5390638113021851,-1.330918312072754,-0.9674433469772339,0.1400974988937378
3.85,0.8537123203277588,-0.14124205708503723,1.3276958465576172,-1.5950417518615723,-0.9363117218017578,0.10293186455965042
3.9,0.658959150314331,-0.19792376458644867,-1.5001890659332275,-1.2301025390625,-1.373574137687683,0.2155643254518509
3.95,0.24774616956710815,-0.6589251756668091,-1.666969656944275,-0.8720230460166931,-0.8110944032669067,0.16300822794437408
4.0,0.05638355016708374,0.040269818156957626,-1.1998686790466309,-0.9471457600593567,-0.5404984951019287,0.16850462555885315
4.05,-0.47770261764526367,-0.4277411103248596,-1.3902899026870728,-0.6560368537902832,-0.8024500608444214,0.13405367732048035
4.1,-0.9092293381690979,0.05623341724276543,-1.6626559495925903,-0.724169135093689,-0.3673155903816223,0.06428622454404831
4.15,-0.6735427975654602,0.8336601853370667,-2.5310873985290527,-0.4210910499095917,0.20016346871852875,-0.06967057287693024
4.2,-0.6883017420768738,1.3513261079788208,-2.9462978839874268,0.08939625322818756,0.31729069352149963,-0.20013980567455292
4.25,-1.027179479598999,2.568523645401001,-4.118044853210449,1.1210623979568481,-0.40823033452033997,-0.5381755232810974
4.3,0.1462346315383911,2.7490780353546143,2.1531903743743896,2.5092403888702393,-0.3552601635456085,-0.7725834250450134
4.35,8.564947128295898,0.6267727017402649,8.117828369140625,2.3071489334106445,2.3155977725982666,-0.07653472572565079
4.4,4.297404766082764,-0.35217586159706116,3.3868422508239746,1.9484782218933105,1.7585961818695068,0.20421670377254486
4.45,6.0021185874938965,-0.00043983719660900533,4.453876972198486,1.6302375793457031,-0.7122780680656433,0.18346549570560455
4.5,3.376909017562866,-1.1783591508865356,4.5219807624816895,1.1291412115097046,-2.9127085208892822,0.4691019058227539
4.55,-1.6834038496017456,-2.00858736038208,4.496823787689209,0.471070796251297,-4.886013507843018,-0.4811689853668213
4.6,-4.331499099731445,-0.672563374042511,-0.47828665375709534,0.351787269115448,-3.523914337158203,-0.4881748855113983
4.65,-2.102155923843384,-0.8375435471534729,-1.0838875770568848,0.4364125728607178,-1.2024554014205933,0.3383208215236664
4.7,1.441387414932251,-1.5713646411895752,0.7174410820007324,0.15159793198108673,-0.6608790755271912,0.05035489797592163
4.75,3.023069381713867,0.9408473968505859,0.3883346915245056,-0.14851726591587067,-0.8001191020011902,-0.12755446135997772
4.8,0.45101988315582275,0.3666686713695526,-1.6622254848480225,0.016136128455400467,-1.268741250038147,-0.11882568895816803
4.85,-0.6570729613304138,2.795698404312134,-0.24921631813049316,0.03250180929899216,-1.0456656217575073,-0.23692569136619568
4.9,0.8627972602844238,-2.481445550918579,2.780033826828003,-0.10839414596557617,-0.4845556616783142,-0.09506906569004059
4.95,1.8728880882263184,0.6925908327102661,5.075939178466797,-1.2662237882614136,-0.5471781492233276,-0.4972180128097534
5.0,0.2853083610534668,2.4805452823638916,3.6551551818847656,-0.5615890622138977,-2.1049299240112305,-0.9961880445480347
5.05,-1.613306999206543,-0.20439614355564117,1.9112051725387573,-0.019579395651817322,-3.1098177433013916,-0.3496380150318146
5.1,-1.9629502296447754,-0.6054238080978394,2.3330962657928467,-0.23924580216407776,-2.2291100025177,-0.13176456093788147
5.15,-2.4137721061706543,0.27905771136283875,1.5305349826812744,-0.4995450973510742,-1.761055588722229,-0.5301762223243713
5.2,-1.2979683876037598,0.038383565843105316,0.3991314172744751,-0.4032050371170044,-1.5703908205032349,-0.466912180185318
5.25,-1.3927780389785767,0.2496711015701294,0.37639304995536804,-0.26537489891052246,-1.3288524150848389,-0.42381349205970764
5.3,-0.008696049451828003,0.3074827194213867,-1.1644480228424072,-0.2831432819366455,-1.2858314514160156,-0.3992961645126343
5.35,-0.3063366413116455,0.17995935678482056,0.9874081611633301,-0.19323474168777466,-0.376974880695343,-0.2740541100502014
5.4,-0.9645272493362427,0.9807122349739075,5.096523284912109,-0.19787482917308807,0.09466409683227539,-0.36615458130836487
5.45,1.08120596408844,-0.7567188143730164,-0.06934411823749542,-0.16695521771907806,-0.41169273853302,-0.3040032684803009
5.5,0.06616384536027908,-0.038458824157714844,0.3242757022380829,-0.10718610882759094,-1.0013912916183472,-0.16414758563041687
5.55,0.7507362365722656,0.26731008291244507,-1.4676849842071533,-0.07166644930839539,-1.4438060522079468,-0.14007841050624847
5.6,1.4312207698822021,0.39769357442855835,-1.3764374256134033,0.10138039290904999,-0.8698641657829285,-0.07716921716928482
5.65,1.1768927574157715,0.5386810302734375,0.13190144300460815,0.3142155706882477,-0.14531782269477844,0.18375322222709656
5.7,1.532130479812622,0.441009521484375,0.529168426990509,0.4152740240097046,-0.19585174322128296,0.4924769997596741
5.75,1.8859899044036865,0.20739929378032684,0.024426830932497978,0.5483091473579407,-0.8453443050384521,0.8187921047210693
5.8,-0.60434889793396,0.16472262144088745,5.029694557189941,0.6776702404022217,-1.1010820865631104,0.8707556128501892
5.85,-4.681124687194824,1.6886566877365112,10.938051223754883,0.498160719871521,-0.13478338718414307,0.34934425354003906
5.9,-0.7432366609573364,0.44020289182662964,3.273789882659912,0.5124495029449463,-0.4839753806591034,-0.22595688700675964
5.95,2.582087755203247,-0.06704440712928772,-0.10380733758211136,0.38743680715560913,-1.653565764427185,-0.15182451903820038
6.0,3.620924711227417,1.0124176740646362,-1.8042445182800293,0.34667250514030457,-1.6991218328475952,-0.1464695781469345
6.05,1.6706864833831787,0.7050675749778748,-0.8219530582427979,0.08005960285663605,-0.8513528108596802,0.46820276975631714
6.1,-1.118417739868164,0.17027007043361664,1.256975769996643,-0.3130977749824524,-0.962554931640625,0.8624792695045471
6.15,-1.8858046531677246,0.08017080277204514,2.3993873596191406,-0.6797309517860413,-1.9939563274383545,0.6883988380432129
6.2,-2.4044418334960938,0.5130540728569031,-0.5292186141014099,-0.9542192816734314,-2.7293927669525146,0.2533350884914398
6.25,-1.1969120502471924,-1.7792675495147705,-3.3115994930267334,-1.0556094646453857,-3.3962411880493164,0.26870015263557434
6.3,0.40436476469039917,0.15566055476665497,-2.295966386795044,-1.2390563488006592,-2.89984393119812,0.10947493463754654
6.35,0.2322741150856018,-0.7917272448539734,-2.1309545040130615,-1.5414230823516846,-1.7565191984176636,0.16794921457767487
6.4,-0.3676953613758087,-1.3237706422805786,-1.8160046339035034,-1.4692108631134033,-1.8619941473007202,0.3696005940437317
6.45,0.8562089204788208,-2.1514689922332764,-2.042527437210083,-0.9200696349143982,-2.005664825439453,0.23176324367523193
6.5,2.251246690750122,-2.237739086151123,-1.7665152549743652,-0.4954996109008789,-1.5373871326446533,0.13950958847999573
6.55,1.9485852718353271,-1.6271337270736694,-0.40077996253967285,0.28408339619636536,-0.73732990026474,-0.2126602679491043
6.6,1.756725788116455,1.9081337451934814,1.616349458694458,0.683066725730896,-0.42951399087905884,-0.4565562903881073
6.65,2.7534449100494385,4.7545294761657715,1.438798189163208,-0.039235107600688934,-0.5437142252922058,-0.15681035816669464
6.7,-0.33631783723831177,-1.4835788011550903,0.23607361316680908,-0.2671814262866974,0.1352708339691162,0.07823536545038223
6.75,-8.425134658813477,-2.807406187057495,-2.3594233989715576,1.166907787322998,1.396095871925354,-0.8158863186836243
6.8,-0.46300506591796875,-4.142308712005615,-6.326687335968018,1.195009708404541,-0.7901726365089417,-0.35109567642211914
6.85,-0.5686314105987549,0.2154264897108078,-0.5712253451347351,1.7427489757537842,-1.0126243829727173,0.15141677856445312
6.9,-0.9511450529098511,-0.9035559296607971,-0.7043615579605103,1.2557114362716675,-0.8304449915885925,-0.14012263715267181
6.95,1.2967973947525024,-0.4251185655593872,0.0017139061819761992,1.2031447887420654,-0.49066752195358276,-0.24975988268852234
7.0,0.15057231485843658,-0.17935848236083984,0.8875921368598938,0.8400631546974182,0.3966781198978424,-0.30439940094947815
7.05,-1.2360167503356934,-0.9323340058326721,0.7888985872268677,0.7157878875732422,0.6321827173233032,-0.14745543897151947
7.1,-0.6670905351638794,-0.12212080508470535,1.2741191387176514,0.853204607963562,-0.04627205803990364,-0.2146574705839157
7.15,1.2314883470535278,-0.5204001069068909,2.000704288482666,0.7586566209793091,-0.7433449625968933,-0.21563123166561127
7.2,-0.12919247150421143,-0.42919254302978516,1.7439582347869873,0.8333197832107544,-0.20017443597316742,-0.19674618542194366
7.25,0.08571898937225342,0.46330177783966064,1.8182893991470337,0.7659784555435181,0.1873105764389038,-0.20117706060409546
7.3,0.3145345449447632,1.6477177143096924,1.903727412223816,0.4935108721256256,0.2500053346157074,-0.07244005799293518
7.35,1.5557427406311035,1.7871763706207275,2.9516117572784424,0.32284244894981384,0.24863743782043457,0.05537912994623184
7.4,2.4220099449157715,2.8359110355377197,3.3577282428741455,-0.22768853604793549,0.17796815931797028,0.41640326380729675
7.45,2.600407123565674,2.8576290607452393,0.9009998440742493,-1.5759315490722656,-0.2925359010696411,1.032116413116455
7.5,-0.7522832751274109,3.412015438079834,-0.6706682443618774,-2.392557144165039,0.617304801940918,1.2761245965957642
7.55,-4.5538177490234375,1.6885188817977905,-2.60707426071167,-1.9392268657684326,3.141741991043091,0.14795584976673126
7.6,-8.421612739562988,-2.2677524089813232,-0.25105777382850647,-1.9307589530944824,0.665589451789856,0.12519238889217377
7.65,-2.659998893737793,-8.8324556350708,-2.602555513381958,-2.0033576488494873,-1.6833823919296265,-0.3639465272426605
7.7,-0.6329375505447388,-3.6142399311065674,-5.817793369293213,-1.1054387092590332,-3.162954568862915,0.3280513286590576
7.75,3.995063066482544,-2.811643123626709,-3.0620205402374268,-0.8651927709579468,-3.266385078430176,0.9579536318778992
7.8,3.430163860321045,-1.799171805381775,0.5672073364257812,-0.39124220609664917,-0.4699232876300812,0.33723413944244385
7.85,0.4566449522972107,-3.416654109954834,-0.2644481360912323,0.07320792973041534,1.1960340738296509,-0.45511847734451294
7.9,-1.4655768871307373,0.22251905500888824,0.9035243988037109,0.3927322328090668,1.0395984649658203,-1.171146273612976
7.95,0.7745466828346252,1.8522493839263916,3.022369384765625,-0.01764664053916931,0.5224639773368835,-0.8581728339195251
8.0,2.0734989643096924,1.8695298433303833,0.0648186132311821,-0.3631933629512787,0.14712518453598022,-0.019132530316710472
8.05,0.14120769500732422,2.282758951187134,-1.845638394355774,0.6191754341125488,0.16962216794490814,0.09843399375677109
8.1,0.4028644561767578,-6.006232738494873,-2.9846408367156982,0.2638256847858429,-1.1702606678009033,0.3607152998447418
8.15,3.173708915710449,2.2646780014038086,-0.9237735271453857,1.7948341369628906,0.5652638077735901,-0.2743922770023346
8.2,0.9540400505065918,2.2416746616363525,1.4108316898345947,1.0619746446609497,0.3288381099700928,-0.051965903490781784
8.25,0.3926583230495453,-0.4634877145290375,-0.7373263239860535,0.9700835943222046,-0.7651835083961487,-0.04985608160495758
8.3,0.29747408628463745,-1.1745911836624146,-0.6134344935417175,1.230513095855713,-0.2181604951620102,-0.32763469219207764
8.35,0.9040539860725403,-0.30323413014411926,1.2520450353622437,1.2346651554107666,0.3475646376609802,-0.47164973616600037
8.4,0.4445994198322296,0.45342549681663513,1.7320282459259033,1.1714510917663574,0.8217301964759827,-0.16803859174251556
8.45,-0.35914677381515503,-0.28737446665763855,1.9270665645599365,0.7257188558578491,0.3915577828884125,-0.1629670113325119
8.5,0.034113168716430664,-0.4162445366382599,1.5687391757965088,0.4473455846309662,0.2440406233072281,-0.1963924914598465
8.55,1.5209702253341675,0.03109161928296089,0.22612851858139038,0.4666050672531128,0.6019519567489624,-0.17516186833381653
8.6,0.3659344017505646,0.9726792573928833,1.3050612211227417,0.5462874174118042,0.6830297112464905,-0.04202832654118538
8.65,2.3555171489715576,1.2927350997924805,2.20169734954834,0.32156068086624146,0.5224050879478455,0.10425488650798798
8.7,3.4285781383514404,2.2430202960968018,2.4264075756073,-0.17411252856254578,0.48232999444007874,0.4733109176158905
8.75,3.168545722961426,2.995558738708496,1.5237373113632202,-1.057507872581482,0.711923360824585,1.0554099082946777
8.8,1.015275239944458,2.4060280323028564,-1.8690654039382935,-1.5589056015014648,1.6282622814178467,1.2966519594192505
8.85,-2.5922460556030273,2.458353281021118,-1.7593950033187866,-1.486197829246521,2.8467586040496826,0.9237403273582458
8.9,-2.908885955810547,1.3650391101837158,-1.42867112159729,-1.472320556640625,1.8135753870010376,0.4180188477039337
8.95,-1.9746603965759277,-0.5499887466430664,-2.623354911804199,-1.962235927581787,-0.091963030397892,0.5451853275299072
9.0,-0.10569477081298828,-0.5909396409988403,-3.027340888977051,-0.8357107043266296,-1.3513511419296265,0.7243217825889587
9.05,1.109801173210144,-2.4493207931518555,-2.309826135635376,-0.3104587197303772,-1.401684284210205,1.068865180015564
9.1,2.4042046070098877,-1.7763770818710327,-0.11301688849925995,0.1955057978630066,-0.926699697971344,0.6381269097328186
9.15,2.5595755577087402,-1.4663403034210205,0.6702831983566284,-0.09869273006916046,-0.18693116307258606,0.21176274120807648
9.2,2.0417747497558594,-0.07482441514730453,1.2670071125030518,0.23771560192108154,0.38465356826782227,0.1662367433309555
9.25,1.9008238315582275,3.254641056060791,2.887575626373291,0.39942771196365356,-0.11989923566579819,0.01785028725862503
9.3,3.6218771934509277,1.6060000658035278,0.5498095750808716,-0.06856967508792877,-1.0108088254928589,0.1845240592956543
9.35,4.943965435028076,0.9943588376045227,-0.5473164916038513,-0.4474369287490845,0.11631450057029724,-0.23992295563220978
9.4,-5.057376861572266,-1.8382959365844727,-0.8185164928436279,0.03708520531654358,1.5217965841293335,-0.7849558591842651
9.45,-7.185392379760742,-2.447053909301758,-2.225308895111084,0.7975879311561584,0.26304349303245544,-0.5778245329856873
9.5,-1.2387996912002563,1.1168242692947388,-3.492433786392212,1.2218512296676636,-0.9620680212974548,-0.8529830574989319
9.55,-1.7292912006378174,-0.32002636790275574,-0.6402546763420105,1.1506729125976562,-1.0682865381240845,-0.46089062094688416
9.6,-0.07799889892339706,-1.1297255754470825,-0.10528590530157089,1.1545602083206177,-0.7829931378364563,-0.7746670842170715
9.65,1.8427759408950806,-0.2784386873245239,0.1019018143415451,1.4749070405960083,0.05268913134932518,-0.7971830368041992
9.7,-0.6224730014801025,0.7082797288894653,1.0772804021835327,1.0193454027175903,0.9457479119300842,-0.6400530934333801
9.75,-0.31207627058029175,-0.22137922048568726,2.538478136062622,0.41120249032974243,0.060505930334329605,-0.25132420659065247
9.8,1.021467685699463,-0.8881608247756958,1.0989155769348145,0.439691424369812,-0.1810348778963089,-0.43945929408073425
9.85,0.08604133129119873,-1.0740033388137817,2.2370009422302246,0.4879878759384155,-0.1934928447008133,-0.34174343943595886
9.9,-0.03583967685699463,-0.7924490571022034,2.4258687496185303,0.3770960569381714,-0.38104048371315,-0.3907185196876526
9.95,1.244628667831421,-0.24083715677261353,1.156282901763916,0.20601648092269897,-0.47201651334762573,-0.4100627601146698
10.0,2.99249267578125,1.1735172271728516,1.4300240278244019,0.17547205090522766,-0.29160547256469727,-0.34345027804374695
10.05,3.806210994720459,2.4151744842529297,2.782120704650879,-0.42680421471595764,-0.49900203943252563,0.16770745813846588
10.1,4.053022384643555,4.141534328460693,1.547911524772644,-1.8394434452056885,-1.367614507675171,1.52808678150177
10.15,-3.9938278198242188,2.905017375946045,-0.43595272302627563,-2.085442543029785,0.5136768817901611,1.7706499099731445
10.2,-15.760348320007324,0.41574665904045105,0.6419105529785156,-1.7752012014389038,2.365859270095825,0.7529512643814087
10.25,-2.081655502319336,-1.6404087543487549,-2.6770260334014893,-1.9470866918563843,-0.34702104330062866,1.0545978546142578
10.3,-2.2033793926239014,-1.9489152431488037,-2.698737382888794,-1.636568546295166,-2.1188416481018066,0.6951355934143066
10.35,1.0925613641738892,-3.1892614364624023,-1.5241034030914307,-0.7813296318054199,-2.928422212600708,0.7857575416564941
10.4,3.287404775619507,-1.473181128501892,-0.4710843861103058,-0.10952407121658325,-3.8128180503845215,0.6888332366943359
10.45,4.744208335876465,-2.6408004760742188,-2.10213041305542,0.5942648649215698,-2.818495035171509,0.8418834805488586
10.5,2.8961985111236572,0.5657947659492493,-2.2180018424987793,1.0324240922927856,-0.9752785563468933,0.9386895895004272
10.55,-0.1023327112197876,3.898770809173584,1.8132778406143188,0.2875814139842987,-1.814600944519043,1.0209523439407349
10.6,0.19709527492523193,6.898954391479492,2.313431739807129,-1.0379314422607422,-2.5472776889801025,0.15277597308158875
10.65,-0.7995502948760986,3.377936840057373,-1.8274191617965698,-0.7992894053459167,0.1953991949558258,-1.577715277671814
10.7,-3.2279138565063477,1.4366514682769775,-2.218794345855713,-0.521579921245575,-0.2810651957988739,-1.0517354011535645
10.75,-0.22175395488739014,-0.6940012574195862,-1.2401992082595825,-0.5531742572784424,-1.3252147436141968,-0.20894847810268402
10.8,-0.9091231226921082,-0.11815836280584335,-1.9802452325820923,-0.5332252383232117,-1.0940847396850586,-0.2361079603433609
10.85,0.45689624547958374,0.9669275879859924,-0.579764187335968,-0.739054262638092,-1.2133948802947998,-0.23981361091136932
10.9,-1.530583143234253,-0.515049934387207,-0.08338305354118347,-0.7641013264656067,-0.7466520667076111,-0.7462685704231262
10.95,-2.1545398235321045,-0.9629287719726562,-0.574516773223877,-0.3361608386039734,-0.43721237778663635,-0.5599353313446045
11.0,-1.1001070737838745,-0.17240041494369507,0.4659043252468109,-0.5304685235023499,-1.0258697271347046,-0.19243307411670685
11.05,-0.1963185966014862,0.12204746901988983,0.7745549082756042,-0.6113938689231873,-0.923854410648346,-0.2012258917093277
11.1,-0.7301656007766724,-0.08253949880599976,1.0123975276947021,-0.6661450266838074,-0.4424154460430145,-0.5610777735710144
11.15,-0.7357696294784546,-0.1453237235546112,0.1937362402677536,-0.5581881999969482,-0.4420885443687439,-0.5348621010780334
11.2,-0.09207695722579956,-0.4420061409473419,1.2023802995681763,-0.6075494289398193,-0.6184482574462891,-0.36221662163734436
11.25,0.29661133885383606,0.019024871289730072,1.2872705459594727,-0.2947796583175659,-0.2579725980758667,-0.41181671619415283
11.3,-0.25183361768722534,-0.010196667164564133,0.22038254141807556,-0.20822317898273468,-0.20882253348827362,-0.3248506188392639
11.35,0.33137914538383484,0.3017931282520294,0.36783456802368164,-0.10897037386894226,-0.36120015382766724,-0.03049977496266365
11.4,0.2537634074687958,0.19769766926765442,0.43138638138771057,0.006584932096302509,-0.20153817534446716,0.018758606165647507
11.45,-0.02917315997183323,0.03513050824403763,0.056027960032224655,0.08426196873188019,-0.03564021363854408,-0.007529475260525942
11.5,-0.06081410497426987,0.026380550116300583,0.15664082765579224,0.01407797820866108,-0.04591419920325279,0.030090032145380974
11.55,-0.05005882307887077,0.13506032526493073,0.056897617876529694,-0.010363037697970867,-0.036261606961488724,0.004846218042075634
11.6,-0.08120319247245789,0.09716130793094635,-0.05157747119665146,0.022132348269224167,0.0025964754167944193,-0.02737075835466385
11.65,0.10624966770410538,0.1892271190881729,-0.14292128384113312,-0.02986382693052292,-0.011346813291311264,-0.021098604425787926
11.7,0.07926946133375168,0.19741633534431458,-0.08451065421104431,-0.015528438612818718,-0.04368513822555542,0.013258569873869419
11.75,-0.02098425105214119,0.1163635402917862,-0.0638406053185463,0.005525681190192699,-0.052559733390808105,0.024651700630784035
11.8,-0.020092735067009926,0.12064458429813385,0.03424937278032303,0.008540099486708641,-0.05108899250626564,0.03428392484784126
11.85,-0.02419331669807434,0.10220053046941757,0.14185096323490143,0.009170453995466232,-0.034873779863119125,0.03238234668970108
11.9,-0.10406554490327835,0.1233387216925621,0.11853406578302383,0.0006150351837277412,-0.00817736517637968,0.027969978749752045
11.95,-0.15326376259326935,0.1322202980518341,0.07511341571807861,-0.01768474467098713,0.016690803691744804,0.024669663980603218
12.0,-0.1811574101448059,0.15509703755378723,0.08279698342084885,-0.019299328327178955,0.021936867386102676,0.018809068948030472
12.05,-0.14153003692626953,0.10013105720281601,0.09201206266880035,-0.021338896825909615,0.027660181745886803,0.025088919326663017
12.1,0.08031252771615982,0.20624449849128723,0.2610051929950714,-0.011150998994708061,0.03235641121864319,0.04264148697257042
12.15,0.3886372148990631,0.336028128862381,0.5533524751663208,0.029679905623197556,0.09743702411651611,0.0780721977353096
12.2,0.8306927680969238,0.5283613801002502,1.1617287397384644,0.1750355064868927,0.2769446074962616,0.15581241250038147
12.25,0.2839178442955017,0.27705198526382446,1.1107202768325806,0.5100823640823364,0.6127790212631226,0.24897383153438568
12.3,-0.49734604358673096,0.21084316074848175,0.7075892686843872,0.842343270778656,0.6907791495323181,0.26764583587646484
12.35,-0.8107505440711975,0.39880672097206116,1.3536772727966309,0.9451490044593811,0.2647596597671509,0.30304694175720215
12.4,0.05787980556488037,-0.9672556519508362,2.065606117248535,0.8849287033081055,0.3687661290168762,0.3393254280090332
12.45,-0.4462098479270935,-0.20118524134159088,-0.217046320438385,1.0089949369430542,1.0957727432250977,0.048337943851947784
12.5,0.07093536853790283,0.008324582129716873,-1.3615851402282715,1.2328212261199951,0.9897321462631226,0.37132009863853455
12.55,-0.09086433053016663,0.765299916267395,-0.6048943996429443,1.4172780513763428,0.011458546854555607,0.5374259948730469
12.6,-1.185661792755127,0.054645560681819916,-1.7147902250289917,0.9754428863525391,-0.6034525036811829,0.7020473480224609
12.65,-0.26901090145111084,-2.1744391918182373,-1.790189266204834,0.7486783266067505,-1.0226420164108276,0.8011558055877686
12.7,-0.6411768794059753,-2.1474740505218506,-0.5698885917663574,0.7072697877883911,-1.4579929113388062,0.8444691896438599
12.75,-1.5303775072097778,-0.9120417237281799,-0.7733524441719055,0.6433796882629395,-1.3333196640014648,0.7655800580978394
12.8,0.3229296803474426,0.20545198023319244,0.29092937707901,0.3516279458999634,-1.3879789113998413,0.8022192716598511
12.85,1.4561903476715088,-0.04135996103286743,0.7368218898773193,0.08485051989555359,-1.2396067380905151,0.4195069670677185
12.9,1.3824515342712402,0.4892101287841797,0.015972763299942017,-0.00047741085290908813,-0.8236887454986572,0.19511286914348602
12.95,0.7779180407524109,-0.10522754490375519,-0.5554153323173523,0.0665191113948822,-0.6177198886871338,0.2873672544956207
13.0,0.6244628429412842,-0.32446104288101196,-0.39850106835365295,0.09031274914741516,-0.8047925233840942,0.42565253376960754
13.05,0.2285381257534027,0.43346884846687317,-0.5404539704322815,-0.10444385558366776,-0.9842467308044434,0.24473512172698975
13.1,0.11859350651502609,0.33362773060798645,-0.13794724643230438,-0.15056243538856506,-1.1337872743606567,-0.08369456231594086
13.15,0.7334559559822083,0.08083629608154297,1.0625581741333008,-0.2192288637161255,-1.0122894048690796,-0.2965707778930664
13.2,0.1727927029132843,0.1546316295862198,0.19542762637138367,-0.2919035255908966,-0.46518632769584656,-0.38112199306488037
13.25,-0.8531091213226318,0.21323397755622864,-1.7923959493637085,-0.3030615448951721,-0.08288498967885971,-0.5750764012336731
13.3,-2.2266671657562256,-0.019799135625362396,-0.6755491495132446,-0.33609670400619507,-0.8448944091796875,-0.5691214203834534
13.35,-3.3562347888946533,0.3397465944290161,-3.2006399631500244,-0.536445140838623,-1.749926209449768,-0.40098926424980164
13.4,-2.102128028869629,0.25892549753189087,-2.5362467765808105,-0.6058528423309326,-1.8361345529556274,-0.6234157681465149
13.45,-4.370275020599365,3.3987958431243896,3.5195670127868652,-0.48927703499794006,-2.3614110946655273,-0.24105185270309448
13.5,-13.171595573425293,5.1026692390441895,7.5623955726623535,-0.42279988527297974,-3.449794292449951,-0.2578009366989136
13.55,0.13756738603115082,0.3174915611743927,-0.01892661303281784,-0.2890810966491699,-4.467056751251221,-0.29558271169662476
13.6,-2.965184450149536,0.9215177297592163,3.2970023155212402,-0.23549948632717133,-4.007776737213135,-0.12386897206306458
13.65,-0.25154203176498413,0.08680921792984009,1.4269959926605225,0.2698131799697876,-2.439387083053589,0.1233186274766922
13.7,0.6769345998764038,-0.36642175912857056,0.1872500479221344,0.6999709606170654,-1.8047558069229126,0.19286425411701202
13.75,0.7481565475463867,-0.12170226871967316,-0.7462610006332397,1.03446364402771,-1.8792247772216797,0.23281607031822205
13.8,1.3390436172485352,0.09414283186197281,-0.871893048286438,1.08046555519104,-2.149911642074585,-0.016427138820290565
13.85,0.8339275121688843,-0.013298064470291138,0.5642267465591431,0.563720703125,-2.459416151046753,-0.04252735897898674
13.9,-0.4613242447376251,-0.49201488494873047,1.1092256307601929,0.40038442611694336,-2.62640118598938,-0.16326457262039185
13.95,-0.5631158351898193,-0.4892253875732422,0.7147944569587708,0.31201043725013733,-2.3717992305755615,-0.056972987949848175
14.0,-1.7837090492248535,0.19066061079502106,0.17179115116596222,0.11375251412391663,-1.8439682722091675,0.20999306440353394
14.05,-2.2943267822265625,0.07203208655118942,-0.7112674117088318,-0.00947607308626175,-1.1928399801254272,0.2554168105125427
14.1,-1.9314649105072021,-2.5857551097869873,-0.18098106980323792,-0.6721959114074707,-0.36157700419425964,0.4997139871120453
14.15,-0.47038960456848145,-5.123992443084717,5.498343467712402,-1.701019525527954,0.8395652174949646,1.3570936918258667
14.2,2.1628894805908203,-4.739139556884766,3.340794324874878,-0.9048992991447449,-0.7832579016685486,-0.3214441239833832
14.25,-1.4677395820617676,-2.555825710296631,5.462160110473633,-0.6127022504806519,-1.9685702323913574,-0.2256392240524292
14.3,-0.42063307762145996,-0.2247370332479477,5.279516696929932,-1.123301386833191,-2.924733877182007,-0.5133436322212219
14.35,-4.107512474060059,-1.6060563325881958,-3.268080711364746,-0.9071173071861267,-2.15482234954834,-0.335285484790802
14.4,1.2986944913864136,-2.80448842048645,-0.20076404511928558,-1.142044186592102,0.7244589328765869,-0.06045587360858917
14.45,1.6570096015930176,1.070204734802246,0.8654917478561401,-0.8464454412460327,-0.11225120723247528,-0.495225727558136
14.5,0.29454362392425537,-0.2061702013015747,-2.6966214179992676,-0.20546770095825195,-0.4778607487678528,-0.14154992997646332
14.55,-0.6288460493087769,1.3614903688430786,-2.261845588684082,-0.6226389408111572,0.7998355627059937,-0.26759836077690125
14.6,0.49631041288375854,-0.4640265107154846,0.5579336881637573,-0.33279991149902344,0.9180088639259338,-0.08504614233970642
14.65,-0.3089377284049988,-3.118591785430908,1.6421008110046387,0.21376650035381317,0.3297807574272156,-0.05276717618107796
14.7,-3.5021886825561523,-3.756258726119995,-0.7942137718200684,-0.25956350564956665,-0.6307876110076904,-0.23312370479106903
14.75,-0.21274888515472412,2.072427988052368,0.7851558923721313,-0.6842305660247803,-0.8164541721343994,-0.17217384278774261
14.8,-1.440429449081421,5.120611667633057,-1.5787116289138794,-0.6763585805892944,-0.5737470984458923,-0.3455800712108612
14.85,1.94143545627594,6.681180953979492,-1.648110032081604,-0.6789610385894775,0.3772919178009033,-0.484221488237381
14.9,0.4119805097579956,5.11655855178833,-2.3524057865142822,-0.47230827808380127,-0.19119511544704437,-0.2700403928756714
14.95,-2.063478946685791,0.6201696395874023,-5.510539531707764,-0.006969194859266281,-1.1532163619995117,0.10254647582769394
15.0,0.7002580165863037,0.7013748288154602,-7.517024040222168,0.35188987851142883,-0.632537841796875,0.00044869587873108685
15.05,2.3216841220855713,5.936133861541748,-2.1267383098602295,1.9649252891540527,-0.19902881979942322,0.5537612438201904
15.1,-5.328982830047607,0.712315022945404,3.317074775695801,4.106588840484619,-0.7346367239952087,1.2940559387207031
15.15,-0.6971861124038696,2.5511648654937744,0.5165002942085266,5.2473530769348145,-0.3705101013183594,1.3808249235153198
15.2,4.119614124298096,-0.26389890909194946,6.5668721199035645,5.662825584411621,0.35346928238868713,2.0706305503845215
15.25,-4.643641471862793,-7.762869834899902,-3.322619915008545,4.6163153648376465,-0.27924948930740356,1.0790152549743652
15.3,-2.6041457653045654,-7.080368518829346,-2.406087875366211,2.4368443489074707,-0.06085481494665146,0.862697184085846
15.35,0.041398465633392334,-5.54529333114624,1.8498437404632568,0.3263292908668518,-0.34403225779533386,1.0742707252502441
15.4,-0.5899650454521179,-6.080076217651367,1.2267976999282837,1.3106234073638916,-0.46183258295059204,0.19731074571609497
15.45,-0.873344361782074,-4.737171173095703,0.666017472743988,0.6041520833969116,-0.39470088481903076,-0.14473749697208405
15.5,-0.4813118875026703,-3.9160919189453125,-0.11617756634950638,-0.15385398268699646,-0.2179957628250122,-0.16539882123470306
15.55,-0.6175916790962219,-2.2829010486602783,0.560955286026001,-0.962073802947998,0.029054393991827965,-0.1601819396018982
15.6,0.1391579955816269,-1.3927994966506958,0.14426515996456146,-1.4023751020431519,-0.06340568512678146,-0.011353734880685806
15.65,1.0817501544952393,1.5677568912506104,0.6229798793792725,-1.8194730281829834,-0.22732006013393402,0.5423580408096313
15.7,-0.6602835655212402,9.168745040893555,-0.46668532490730286,-1.4820550680160522,-0.5441293120384216,0.8835641741752625
15.75,-1.523974895477295,-2.612565755844116,-2.144920587539673,-0.7022830247879028,-0.300939679145813,0.7303982973098755
15.8,1.1323884725570679,0.4028959274291992,-0.288199782371521,-1.5664620399475098,-0.4338908791542053,0.03664484992623329
15.85,-1.529780387878418,0.5914852023124695,0.41645675897598267,-1.2896939516067505,-0.7721058130264282,-0.28258246183395386
15.9,-1.981574535369873,-1.3004199266433716,-1.9802347421646118,-1.289272665977478,-0.4379030466079712,-0.2584824562072754
15.95,2.078896999359131,0.6329050064086914,2.206850051879883,-1.784123182296753,0.47140195965766907,0.2631654441356659
16.0,1.3980777263641357,1.052724838256836,0.4258994162082672,-1.4347237348556519,-0.4712854027748108,-0.5452455282211304
16.05,-1.2621979713439941,1.507335901260376,-0.3501119017601013,-1.311941146850586,-0.9231052994728088,-0.6945319175720215
16.1,1.5836293697357178,0.35745903849601746,0.8294370174407959,-1.403982162475586,-0.3713766634464264,-0.6814092397689819
16.15,0.31736844778060913,-0.12479309737682343,-0.4622122645378113,-1.3436939716339111,-0.7128164172172546,-0.8885008692741394
16.2,0.037585675716400146,-0.41096603870391846,-1.7833271026611328,-1.1964651346206665,-0.8127610683441162,-1.0385289192199707
16.25,-0.10537075996398926,-0.8894874453544617,-1.9772378206253052,-0.924636721611023,-0.5080987215042114,-1.120678424835205
16.3,-0.2627931833267212,-1.2959901094436646,-1.7568241357803345,-0.9098241925239563,0.10759923607110977,-0.9650343656539917
16.35,0.44346320629119873,-1.2836848497390747,-0.639177680015564,-0.7453770637512207,0.8042902946472168,-0.6208239197731018
16.4,1.715846061706543,0.31961148977279663,-0.17738263309001923,-0.4413551092147827,0.687160313129425,-0.5036049485206604
16.45,1.4256315231323242,-0.14005576074123383,-0.2866642475128174,0.020670294761657715,0.4872533082962036,-0.07333756983280182
16.5,0.23219755291938782,-0.25488191843032837,-0.8526554703712463,0.14290574193000793,0.5628767013549805,-0.04605285823345184
16.55,0.8228320479393005,0.498045951128006,0.018478453159332275,0.26690059900283813,0.6930714845657349,-0.03659863397479057
16.6,1.143418550491333,-0.8144532442092896,1.1712993383407593,0.4401915371417999,0.42413005232810974,0.14102104306221008
16.65,0.6472585797309875,-2.5017716884613037,0.6675155162811279,0.3875897228717804,-0.16308948397636414,0.21982799470424652
16.7,1.7758820056915283,0.2526998221874237,0.700674831867218,0.5910776853561401,-0.1446704864501953,-0.18835362792015076
16.75,0.19343870878219604,0.0317382775247097,0.12760232388973236,0.6637466549873352,-0.5477044582366943,-0.1076245903968811
16.8,-0.6725077629089355,2.6187498569488525,-2.0635123252868652,0.926592230796814,-0.8466914296150208,-0.06979616731405258
16.85,-0.8611767292022705,1.8540699481964111,-2.2375099658966064,1.5068694353103638,-0.6137276887893677,0.3253221809864044
16.9,-0.46733659505844116,-1.0682231187820435,-0.998464047908783,1.0592122077941895,0.02761826105415821,0.682274341583252
16.95,1.6627237796783447,-4.389778137207031,2.596470594406128,2.1969282627105713,-0.3541811406612396,0.9264206290245056
17.0,-0.23237961530685425,-3.239010810852051,-0.09857433289289474,1.0470521450042725,-0.9090253710746765,0.15093934535980225
17.05,-1.2189874649047852,-3.474245071411133,1.0326356887817383,-0.09193859994411469,-0.7573149800300598,-0.4237901568412781
17.1,-1.9486684799194336,-2.6962175369262695,1.5472499132156372,-1.0550521612167358,-1.1524001359939575,-1.2052290439605713
17.15,-2.3240206241607666,-1.3783578872680664,-0.034127376973629,-1.2248843908309937,-0.845329761505127,-1.3384032249450684
17.2,-2.3750176429748535,0.30693450570106506,-0.10782270133495331,-0.9629586935043335,-0.5643309950828552,-1.3290890455245972
17.25,-1.3514541387557983,1.8847450017929077,0.5462879538536072,-0.5238587260246277,0.004138380754739046,-0.8666467070579529
17.3,2.046097993850708,1.5866814851760864,-1.2627935409545898,-0.5897310972213745,0.27889057993888855,-0.3213502764701843
17.35,2.785637855529785,1.2908800840377808,-2.100334644317627,-0.8162084817886353,0.02320917695760727,-0.02634107880294323
17.4,1.334891438484192,-0.11210358142852783,-1.1054731607437134,-0.6198810935020447,-0.6971344351768494,0.028353068977594376
17.45,-1.640794038772583,0.16866491734981537,-4.259715557098389,-0.368269681930542,-1.2796701192855835,0.10554958134889603
17.5,-0.5010913014411926,-0.618833601474762,-0.9532322883605957,0.15096087753772736,-0.29247456789016724,0.11439647525548935
17.55,1.284339427947998,-0.1407996267080307,-0.5721491575241089,-0.07899481058120728,0.0434681661427021,-0.18905958533287048
17.6,2.9575045108795166,-0.47129178047180176,-0.3729550540447235,-0.3682890236377716,-0.5421905517578125,-0.11380268633365631
17.65,3.537045478820801,2.893061637878418,-0.895283579826355,-0.2567167580127716,-1.17599618434906,0.0931214839220047
17.7,1.7474795579910278,6.782173156738281,-3.8412938117980957,0.3992289900779724,-1.7442288398742676,0.8906853199005127
17.75,0.5832034945487976,0.1636771559715271,-1.8056981563568115,0.8852959275245667,-0.3339161276817322,2.0812647342681885
17.8,-0.6945860385894775,-1.1141834259033203,4.783689022064209,0.31770458817481995,1.4299525022506714,1.356176495552063
17.85,1.934861183166504,0.6347485184669495,3.459054470062256,-0.4773927330970764,0.3211056590080261,0.12908783555030823
17.9,0.6617431640625,1.2223635911941528,1.3279637098312378,-0.21713468432426453,-0.8623784184455872,-0.3301382064819336
17.95,0.016673535108566284,1.2743569612503052,-0.9355149269104004,0.050910890102386475,-1.1849554777145386,-0.39419373869895935
18.0,-0.191839337348938,-0.20422755181789398,-2.854220390319824,0.014782138168811798,-0.42960721254348755,-0.1885260045528412
18.05,0.16999715566635132,-1.1550885438919067,0.07002376765012741,-0.47761934995651245,1.171789288520813,-0.010356982238590717
18.1,0.3818685710430145,-0.7136363983154297,1.8850910663604736,-0.4446520507335663,1.085186243057251,-0.13740310072898865
18.15,-0.514985203742981,-0.9399329423904419,-1.7416672706604004,0.09027501195669174,-0.04453032463788986,0.07859810441732407
18.2,-0.12230503559112549,-0.6987162828445435,-2.9511706829071045,0.022753030061721802,0.3578034043312073,0.370879590511322
18.25,0.4981861710548401,1.2917557954788208,1.2479417324066162,-0.10927917063236237,1.2460594177246094,0.6460373997688293
18.3,-0.7667714357376099,2.320979595184326,3.450002431869507,0.34040290117263794,0.981518030166626,0.9611809849739075
18.35,-1.194927453994751,-1.0144386291503906,0.9959166049957275,0.8373579978942871,0.5111547112464905,0.8730501532554626
18.4,-1.3593344688415527,2.0112662315368652,2.0863285064697266,0.8557143211364746,0.769615888595581,0.861705482006073
18.45,-1.961364507675171,0.2992030382156372,-0.13202987611293793,1.8003422021865845,0.1241135224699974,1.086125373840332
18.5,-1.1847405433654785,-1.57947838306427,0.8050620555877686,2.2709033489227295,0.7220603823661804,1.047006368637085
18.55,0.5562601089477539,-1.7676422595977783,1.6820753812789917,1.7350884675979614,0.8216603994369507,1.2480387687683105
18.6,0.19908744096755981,-0.9317055940628052,0.783637285232544,2.0066938400268555,0.7440595626831055,1.1932510137557983
18.65,-0.5836719274520874,1.3656092882156372,0.6265875697135925,2.346639394760132,1.0285130739212036,1.2612931728363037
18.7,-1.85259211063385,1.7796252965927124,1.7636150121688843,2.3250632286071777,1.36237633228302,1.260573148727417
18.75,-1.3698691129684448,1.7854350805282593,-0.1341623216867447,1.4502798318862915,1.660908579826355,0.6846005916595459
18.8,-0.032034050673246384,3.2919554710388184,0.16464151442050934,0.20462968945503235,1.9140719175338745,-0.15903246402740479
18.85,1.5889488458633423,1.7460404634475708,-1.2636045217514038,-0.6114693880081177,1.9328806400299072,-0.40010571479797363
18.9,2.6616804599761963,-2.3854923248291016,-0.25635048747062683,-0.3180835545063019,1.9903557300567627,0.12321517616510391
18.95,2.7050580978393555,-5.033018112182617,-3.365926504135132,0.25918102264404297,0.8306065797805786,-0.1767662763595581
19.0,-0.45709162950515747,-5.476737976074219,-1.2818878889083862,-0.3849499821662903,0.34331709146499634,-0.5080506801605225
19.05,-1.1784943342208862,-4.33683443069458,0.056262027472257614,-1.7675495147705078,0.6059701442718506,-0.42839547991752625
19.1,-0.555670976638794,-2.2183592319488525,1.8889821767807007,-3.271710157394409,1.0096160173416138,-0.30333250761032104
19.15,0.5325257778167725,-1.0597516298294067,2.8457555770874023,-4.286118030548096,1.0724374055862427,-0.7990444302558899
19.2,0.3890131711959839,0.7633516788482666,4.9569902420043945,-4.122384071350098,0.7947699427604675,-1.8403384685516357
19.25,-0.27782368659973145,3.79496431350708,3.7587945461273193,-3.5305416584014893,0.6237676739692688,-1.7262818813323975
19.3,-5.245918273925781,5.182219982147217,-2.2645606994628906,-2.6430583000183105,1.1431472301483154,-1.0802453756332397
19.35,-2.058835506439209,7.039812088012695,-3.6667144298553467,-0.4297221899032593,4.0261335372924805,-0.0998159646987915
19.4,3.7739474773406982,9.647041320800781,-7.099649906158447,1.621565580368042,7.369315147399902,1.9390110969543457
19.45,9.449702262878418,-6.754419326782227,-8.896785736083984,1.1544623374938965,3.7681500911712646,2.111875534057617
19.5,-5.451592445373535,-0.9769018292427063,0.13240140676498413,-1.129974126815796,-1.1207185983657837,1.1846177577972412
19.55,1.075943112373352,-3.791388511657715,-0.9933793544769287,-0.4380122125148773,-0.4807719886302948,-0.5006973743438721
19.6,-0.4667739272117615,1.814892053604126,0.9934884309768677,-0.1916186511516571,-0.12811942398548126,1.0469868183135986
19.65,-0.7682245969772339,3.560342311859131,1.4048075675964355,0.1312391310930252,1.3910408020019531,0.6667962074279785
19.7,1.998089075088501,-0.7032977938652039,-0.20441482961177826,-0.11629649996757507,3.3040807247161865,0.5144571661949158
19.75,3.224261522293091,1.0354546308517456,-2.8253679275512695,-0.3661297559738159,3.038115978240967,0.5367202758789062
19.8,1.225387454032898,0.4741973280906677,-1.576059341430664,-0.09259766340255737,1.9651553630828857,0.42431485652923584
19.85,-0.23435461521148682,0.006156891118735075,-1.5676785707473755,-0.22931496798992157,2.3913729190826416,0.4181475341320038
19.9,-0.7976154685020447,0.26448631286621094,-3.0979716777801514,-0.408164918422699,2.2913455963134766,0.3630768358707428
19.95,-0.9480942487716675,0.04566190019249916,-2.9359962940216064,-0.31350329518318176,1.4253394603729248,0.28597065806388855
20.0,-2.1020448207855225,-0.15346044301986694,-1.4219129085540771,-0.23371121287345886,1.0130410194396973,0.3483508229255676
20.05,-3.1963768005371094,-0.1926974058151245,-0.7029557228088379,-0.30696117877960205,0.7196621298789978,0.40598535537719727
20.1,-2.4742143154144287,-0.18921177089214325,-0.7842221856117249,-0.34597525000572205,0.7054417729377747,0.26979854702949524
20.15,-2.7209229469299316,0.6182567477226257,-0.6121840476989746,-0.3221345543861389,0.6148070096969604,0.12311548739671707
20.2,-4.622649192810059,2.530574321746826,0.4568322002887726,-0.3589100241661072,0.4641377031803131,-0.3250771164894104
20.25,-1.4126559495925903,2.4328675270080566,2.5611603260040283,-0.4183828830718994,0.9858440160751343,-1.2740836143493652
20.3,0.5915753841400146,2.6241142749786377,1.7244298458099365,-0.5380758047103882,1.256527304649353,-1.8176506757736206
20.35,2.5894412994384766,1.7423486709594727,-2.3103206157684326,-0.26737624406814575,2.5396368503570557,-1.877097249031067
20.4,2.4692459106445312,-0.7681325078010559,-2.465762138366699,0.4326651692390442,1.5359574556350708,-1.5587974786758423
20.45,1.4386775493621826,-0.8083012700080872,-2.821916341781616,0.3617416024208069,-0.2790391743183136,-1.4430854320526123
20.5,1.259203553199768,-0.8560783267021179,-0.10631366819143295,0.1077960729598999,-1.2152576446533203,-1.2271443605422974
20.55,1.4745612144470215,-1.4478245973587036,3.2844982147216797,-0.3306451439857483,-1.5853520631790161,-0.8346366286277771
20.6,0.7708320617675781,-2.883408784866333,1.10689377784729,-0.2478780597448349,-0.899823784828186,-0.6184626817703247
20.65,-0.11221885681152344,-2.604632616043091,0.14126035571098328,0.0997980386018753,0.5777496695518494,-0.31389904022216797
20.7,-0.9916126728057861,-1.1826648712158203,1.9219917058944702,0.5091918706893921,0.917234480381012,0.3030625283718109
20.75,-2.8379642963409424,0.6150906682014465,2.2146761417388916,0.23130865395069122,0.0915117934346199,0.19735193252563477
20.8,-2.8272664546966553,0.9304717183113098,0.8804678320884705,0.47860902547836304,0.4275369942188263,0.04579974338412285
20.85,-1.8325260877609253,2.910174608230591,-1.3810304403305054,0.39810460805892944,-0.13249298930168152,0.3509892225265503
20.9,1.4558403491973877,5.48342752456665,-4.488306045532227,-0.11676354706287384,-0.9124925136566162,0.4275999665260315
20.95,6.495266914367676,-4.015773773193359,1.2221710681915283,-0.8346153497695923,-2.083890438079834,0.02878301776945591
21.0,2.8432211875915527,0.566134512424469,5.1809797286987305,0.2541411817073822,-1.0734425783157349,1.301395297050476
21.05,1.7154557704925537,1.1093111038208008,-2.8695342540740967,-0.29659637808799744,0.5206648111343384,0.8308489322662354
21.1,2.8527438640594482,0.8807830214500427,-1.1931411027908325,-0.1632365733385086,-0.14029715955257416,0.6662523150444031
21.15,0.6500954627990723,-0.33746713399887085,3.9943645000457764,-0.05535563826560974,-0.6095963716506958,0.6336119771003723
21.2,0.8054507970809937,-0.591769278049469,0.979306697845459,-0.05146533250808716,1.8866362571716309,0.6415737271308899
21.25,0.11513710021972656,0.2679089903831482,-3.212677478790283,-0.21308588981628418,2.3105833530426025,0.7556816339492798
21.3,-1.2578376531600952,0.0779610201716423,-0.9136368036270142,-0.1909908801317215,1.2412662506103516,0.34237098693847656
21.35,-0.4565736651420593,-0.003939603455364704,0.06050676107406616,-0.39011508226394653,1.0742263793945312,0.08954893052577972
21.4,-0.642730712890625,0.05210211127996445,-0.7212885618209839,-0.4991275370121002,1.3415303230285645,0.003953149542212486
21.45,-0.45662960410118103,-0.19327454268932343,-1.4087175130844116,-0.6490170955657959,1.4659361839294434,-0.06097346916794777
21.5,-0.7130321264266968,-0.0716552883386612,-1.6877591609954834,-0.7431911826133728,1.2780134677886963,-0.028107626363635063
21.55,-0.5181254148483276,0.07016275823116302,-1.7453011274337769,-0.9405500888824463,1.2474231719970703,-0.03540755808353424
21.6,0.07140040397644043,-0.02418334037065506,-2.146162986755371,-0.982598066329956,1.4006532430648804,0.04440661519765854
21.65,0.28804993629455566,0.596214234828949,-2.98138427734375,-0.7576180100440979,1.4216161966323853,0.33978334069252014
21.7,1.1980186700820923,1.9905110597610474,-1.3650264739990234,-0.5083216428756714,0.8825404644012451,0.5323736071586609
21.75,4.2045111656188965,2.4648725986480713,3.884085178375244,-0.20728318393230438,0.2662945091724396,0.4702044725418091
21.8,2.7044143676757812,-0.8710166811943054,2.307323455810547,0.09323806315660477,1.4565078020095825,0.115263432264328
21.85,1.019099473953247,-1.435171365737915,-0.21464261412620544,-0.22777315974235535,3.2910268306732178,-0.26111456751823425
21.9,-3.720820903778076,-0.7676839232444763,-1.1324450969696045,-0.33099567890167236,3.556643486022949,-0.3696621060371399
21.95,-4.95988655090332,-2.3537302017211914,0.3910784423351288,-0.1774701029062271,2.567085027694702,-0.38439440727233887
22.0,-3.484127998352051,-1.8832716941833496,1.3922163248062134,0.0992206484079361,0.7725453972816467,0.32706061005592346
22.05,-0.45131242275238037,-0.2490978091955185,0.969521701335907,0.3939349055290222,-0.3687441349029541,0.9288704991340637
22.1,0.5744332075119019,0.9245425462722778,1.6120599508285522,1.1236119270324707,-0.03457977622747421,0.5780444145202637
22.15,0.861992359161377,0.3741827607154846,2.5821280479431152,1.2388126850128174,0.5400412678718567,0.0411173440515995
22.2,0.3750198185443878,-0.01641748659312725,1.3997244834899902,0.28860411047935486,1.1893877983093262,-0.06686750799417496
22.25,-0.40414753556251526,0.2717343270778656,1.380210041999817,0.14200371503829956,1.466558575630188,-0.3114387094974518
22.3,-0.5289262533187866,0.44866669178009033,0.8099106550216675,-0.02386331558227539,1.044477105140686,-0.5020294785499573
22.35,0.7850111722946167,0.6743603348731995,1.3783615827560425,-0.2403777539730072,0.3783504366874695,-0.44008418917655945
22.4,1.5677697658538818,1.12031090259552,1.6228482723236084,-0.554532527923584,0.23600082099437714,-0.3417128920555115
22.45,2.0336074829101562,0.605430543422699,0.27847352623939514,-0.7326398491859436,0.4212660491466522,-0.17676973342895508
22.5,0.9201868772506714,0.22357651591300964,-0.273971825838089,-0.6469760537147522,0.7308117747306824,0.19045303761959076
22.55,-0.09923543781042099,-0.3198757469654083,0.05833270773291588,-0.424419641494751,0.48934808373451233,0.5883321166038513
22.6,-2.0566964149475098,-0.5431517362594604,1.4923443794250488,-0.0838259607553482,0.5593656301498413,0.4962866008281708
22.65,-0.08462482690811157,-0.7950126528739929,-1.410549283027649,0.056987956166267395,0.6056796908378601,0.3510757386684418
22.7,1.8033699989318848,1.5674811601638794,0.813391387462616,0.9157769680023193,0.4417213201522827,-0.15191200375556946
22.75,0.44556695222854614,2.3111307621002197,2.1361210346221924,-0.1912800520658493,1.2177674770355225,-0.36747533082962036
22.8,-1.4983775615692139,-1.6343251466751099,0.11618270725011826,-0.7241305708885193,2.1568045616149902,-0.2947779893875122
22.85,-3.057781219482422,-1.4081449508666992,0.6119003295898438,0.15485814213752747,0.8784375190734863,-0.027748744934797287
22.9,-1.0380432605743408,0.40275681018829346,0.6565669775009155,0.5886469483375549,-0.49780452251434326,-0.4856143295764923
22.95,3.064542055130005,0.44088640809059143,0.36139801144599915,0.4708433747291565,-1.1658965349197388,-0.3323293626308441
23.0,-0.6501927375793457,-0.24123667180538177,0.4614756107330322,0.1624893993139267,0.37724965810775757,-0.08955954015254974
23.05,-2.0212996006011963,-0.11344994604587555,0.5007476210594177,0.3039957284927368,0.3294847905635834,-0.15767845511436462
23.1,-0.6053866147994995,-0.24005983769893646,0.47074416279792786,0.3467019200325012,-0.5405312776565552,-0.20089110732078552
23.15,0.18559491634368896,0.06171320751309395,-0.2741464674472809,0.3289455473423004,-0.675612211227417,-0.1281205266714096
23.2,-0.4875549376010895,0.016739867627620697,-0.16036555171012878,0.47378939390182495,-0.22039315104484558,-0.17771396040916443
23.25,-0.4336303770542145,-0.2906942367553711,0.11031567305326462,0.5152016878128052,0.008151418529450893,-0.1653614342212677
23.3,0.42808935046195984,0.028150562196969986,0.8168910145759583,0.35698026418685913,-0.08178867399692535,-0.13910742104053497
23.35,1.06556236743927,-0.42260658740997314,0.2893140912055969,0.05565180629491806,0.12100552022457123,-0.07981536537408829
23.4,-1.8219079971313477,0.16523851454257965,0.782800018787384,0.1344798505306244,0.44204601645469666,0.09998932480812073
23.45,-0.8545256853103638,-0.19447040557861328,-0.4217062294483185,0.0423736497759819,0.02692834474146366,-0.0514705628156662
23.5,0.22614605724811554,-0.36539751291275024,-0.7180504202842712,-0.06361202895641327,0.010289903730154037,0.01094107050448656
23.55,-0.6500138640403748,0.3119679093360901,-0.40932372212409973,-0.10152964293956757,0.1625230759382248,0.13044634461402893
23.6,1.776631236076355,0.32982438802719116,-0.3377397358417511,-0.4242674708366394,-0.35188570618629456,0.06168033927679062
23.65,2.9480528831481934,-0.2980262339115143,1.031123399734497,-1.0975326299667358,-0.5943701267242432,0.21698692440986633
23.7,0.8222761154174805,0.10651682317256927,0.4268512427806854,-1.536089539527893,-0.33791378140449524,0.41720131039619446
23.75,-0.22799229621887207,1.2377835512161255,-0.2090945988893509,-1.2075867652893066,-0.09308557212352753,0.5777685046195984
23.8,-3.6337876319885254,2.747790813446045,-1.8517680168151855,-1.9152743816375732,-0.10788839310407639,0.9489450454711914
23.85,-4.065564155578613,0.9660475850105286,-2.0128393173217773,-2.566481590270996,0.3684074580669403,1.0369257926940918
23.9,-2.262712240219116,0.36225616931915283,-1.2524237632751465,-2.239668130874634,0.5077674984931946,0.7367908954620361
23.95,1.8282263278961182,-2.118973970413208,-0.20067739486694336,-2.5635790824890137,0.08203954249620438,0.8700375556945801
24.0,-4.606485843658447,1.9930834770202637,-0.7370662689208984,-2.482869863510132,0.01805247738957405,1.2680093050003052
24.05,-5.605221748352051,4.581053256988525,-3.2429280281066895,-1.2776192426681519,-0.3434904217720032,0.7488299608230591
24.1,-1.3547905683517456,5.99508810043335,-2.1598758697509766,-1.2616689205169678,-0.6538279056549072,0.6828987002372742
24.15,-6.675106048583984,26.716197967529297,-10.526955604553223,-0.4289396405220032,-0.4485585391521454,0.1197650358080864
24.2,0.7826701402664185,1.0455961227416992,-1.1169712543487549,-1.8567545413970947,-0.9791792631149292,1.1865637302398682
24.25,2.114785671234131,0.22894182801246643,-0.32906293869018555,-1.530195713043213,-0.5807056427001953,1.221627950668335
24.3,-0.21635839343070984,0.22620394825935364,-0.20109744369983673,-1.5675151348114014,-0.1741500049829483,1.056312918663025
24.35,0.6065834760665894,0.3561649024486542,-0.5414888262748718,-1.4974032640457153,-0.06407876312732697,1.2170255184173584
24.4,0.030175313353538513,1.217133641242981,0.435869961977005,-1.361462116241455,0.1208462044596672,0.8976581692695618
24.45,0.4211600422859192,2.3040173053741455,0.8170534372329712,-1.0215827226638794,0.22988350689411163,0.5745165944099426
24.5,0.17262975871562958,2.081178903579712,0.6131187677383423,-0.7584636807441711,0.24995866417884827,0.3481571078300476
24.55,-0.15803200006484985,1.5318958759307861,0.25268837809562683,-0.46060630679130554,0.18219245970249176,0.10978789627552032
24.6,-0.03014948219060898,0.8165942430496216,-0.1719433069229126,-0.16462057828903198,0.12497857958078384,0.0032403096556663513
24.65,0.27600204944610596,0.38945868611335754,-0.4938306212425232,0.0770721286535263,0.09309050440788269,0.008271712809801102
24.7,0.473106324672699,-0.15021711587905884,-0.6232181787490845,0.1701059639453888,0.10305120795965195,0.023718995973467827
24.75,0.317399263381958,-0.17713455855846405,-0.7100575566291809,0.18571466207504272,0.13124871253967285,-0.01097976416349411
24.8,-0.16335749626159668,1.1176425218582153,-1.1054842472076416,0.2234218418598175,0.10105718672275543,-0.1196238100528717
24.85,-0.06700009107589722,2.2433998584747314,-0.7965591549873352,0.25169214606285095,-0.014728335663676262,-0.18951533734798431
24.9,0.17765922844409943,2.129739999771118,-0.28679630160331726,0.37791773676872253,-0.05815083160996437,-0.251713365316391
24.95,0.549656331539154,0.6627016663551331,0.9086197018623352,0.6312692761421204,0.02517356351017952,-0.4201093018054962
25.0,1.0104563236236572,1.0317708253860474,0.9916345477104187,1.1298383474349976,0.28909409046173096,-0.4704924523830414
25.05,0.8730143904685974,0.21162797510623932,1.2321888208389282,1.3056693077087402,0.521587073802948,-0.7317967414855957
25.1,0.37408533692359924,-0.147216796875,1.0948755741119385,1.326332688331604,0.6485067009925842,-1.0147289037704468
25.15,-0.5020642280578613,-0.12089437991380692,1.4328272342681885,1.3017712831497192,0.6879839897155762,-1.2401652336120605
25.2,-0.6934247612953186,-0.5295343399047852,1.6002130508422852,1.2819005250930786,0.5778875350952148,-1.4112913608551025
25.25,-0.39852508902549744,-0.6411142349243164,1.2433665990829468,1.1880558729171753,0.3859046399593353,-1.6628175973892212
25.3,0.3485356271266937,0.09777352958917618,-0.5768320560455322,1.0404911041259766,0.3409988284111023,-1.637557864189148
25.35,-0.6814452409744263,-0.20119382441043854,-0.5694325566291809,0.9504418969154358,0.6273984313011169,-1.6560750007629395
25.4,-2.1410939693450928,-0.9963674545288086,-0.6788613200187683,1.157531976699829,0.6905011534690857,-1.61185622215271
25.45,-2.891313076019287,-0.41547006368637085,-1.3935490846633911,1.8604729175567627,0.3084568977355957,-1.6625185012817383
25.5,-0.5535942912101746,0.8348551988601685,-1.1561334133148193,2.168886184692383,-0.435625821352005,-1.3843233585357666
25.55,2.3952765464782715,-0.5590803623199463,-1.4835700988769531,2.2119171619415283,-1.494921326637268,-0.5997242331504822
25.6,4.596872806549072,-2.1644234657287598,0.16172073781490326,1.4940240383148193,-0.9722346067428589,-0.44726473093032837
25.65,1.455931305885315,-1.3715354204177856,1.4928840398788452,1.1247868537902832,1.0747016668319702,-0.2776862382888794
25.7,-1.6256293058395386,-0.2929934561252594,1.3856273889541626,0.6228705644607544,1.443008542060852,-0.04493372514843941
25.75,-0.27279916405677795,0.05950549989938736,0.5075843930244446,0.4136422276496887,0.5455120205879211,-0.2521168291568756
25.8,-1.0328773260116577,0.11637124419212341,0.6655941605567932,0.334744393825531,0.09422855824232101,0.12035021930932999
25.85,-0.47209763526916504,-0.07520674169063568,-0.1401316523551941,0.4308933615684509,0.10780802369117737,0.17637678980827332
25.9,0.674413800239563,-0.46212872862815857,0.09336927533149719,0.5717757940292358,0.7065680623054504,0.031548481434583664
25.95,-0.8303410410881042,-0.6552390456199646,2.193885326385498,0.5293445587158203,1.4181185960769653,0.1760137528181076
26.0,-0.5942980051040649,-0.06590639799833298,3.7746670246124268,0.39845114946365356,0.6909077167510986,0.1643478274345398
26.05,2.0487825870513916,1.2929764986038208,3.0804316997528076,0.0023718439042568207,-0.5656690001487732,0.08287286013364792
26.1,1.549870252609253,2.6567442417144775,2.491237163543701,-0.7157129645347595,-0.4258173704147339,0.34465327858924866
26.15,-1.6994694471359253,1.0796692371368408,1.6718173027038574,-1.006115436553955,-0.4795445203781128,0.5617721080780029
26.2,-0.5103812217712402,3.267758846282959,2.8422675132751465,-0.48962917923927307,-1.6194195747375488,0.5953210592269897
26.25,-1.6206815242767334,-0.06258004158735275,-0.2880200147628784,-0.4681950807571411,-2.7967066764831543,0.5706192851066589
26.3,-1.2786540985107422,-1.1945725679397583,-2.7580409049987793,-0.8325363993644714,-2.940034866333008,-0.15625065565109253
26.35,7.357715606689453,-1.9449416399002075,-0.5739518404006958,-0.6296930313110352,-3.276869058609009,-0.4482371509075165
26.4,4.028882026672363,0.13362868130207062,1.1897101402282715,-0.6425614356994629,-2.9959733486175537,0.1177905797958374
26.45,0.9822561144828796,-0.16556651890277863,-0.24192817509174347,-1.1845488548278809,-1.050922155380249,-0.171998530626297
26.5,-2.005049705505371,-0.9750280976295471,-1.6048952341079712,-1.0459343194961548,-0.4356284439563751,-0.29987064003944397
26.55,2.21134090423584,-2.239234685897827,0.1289968341588974,-0.24237464368343353,-0.3606216609477997,-0.3827769160270691
26.6,1.4187248945236206,-1.8708504438400269,0.46875619888305664,0.18391695618629456,0.0013795392587780952,-0.5600428581237793
26.65,-2.7095115184783936,0.6905052065849304,-0.9123237729072571,0.5503027439117432,0.6594046354293823,-1.1053457260131836
26.7,1.1117208003997803,1.464077115058899,1.7429256439208984,0.9633134603500366,0.73311448097229,-1.2407093048095703
26.75,0.160389244556427,1.5525039434432983,2.490156650543213,0.8572546243667603,1.1117067337036133,-0.9090319275856018
26.8,0.29308032989501953,2.6060965061187744,1.3187081813812256,0.8589010238647461,0.7881202101707458,-0.10983549058437347
26.85,-3.2829651832580566,6.848905563354492,-3.235949993133545,1.064854383468628,-0.17217998206615448,0.31386998295783997
26.9,1.3039484024047852,-3.890045404434204,-2.3885481357574463,-0.03461821377277374,-1.2938963174819946,0.41324806213378906
26.95,0.3095395565032959,-2.2728729248046875,-6.312308311462402,0.486128568649292,1.322499394416809,-0.4281105697154999
27.0,-1.4569263458251953,2.2683870792388916,-0.4680950343608856,0.2660910189151764,1.3612768650054932,0.11705619096755981
27.05,-0.7585462331771851,-3.176370620727539,-2.9708025455474854,-0.5135861039161682,1.1290019750595093,-0.4043988287448883
27.1,1.680492639541626,-0.6636431217193604,-2.4472973346710205,-0.13489072024822235,1.1916550397872925,0.05184853449463844
27.15,-0.21963195502758026,0.7083998322486877,-0.8556020855903625,0.2570369243621826,1.8313175439834595,-0.17443117499351501
27.2,-0.20931777358055115,-0.06903553009033203,-0.1317630112171173,0.14411050081253052,1.6664515733718872,-0.10510047525167465
27.25,0.7188652753829956,0.07602973282337189,-0.5756543874740601,0.05860939994454384,1.6336870193481445,0.1678125113248825
27.3,-1.807359218597412,0.5889169573783875,0.7867440581321716,0.16273854672908783,1.7179076671600342,0.14710316061973572
27.35,-4.384024620056152,3.0618503093719482,3.0729575157165527,0.3336485028266907,1.6862950325012207,-0.025635909289121628
27.4,-0.2760220170021057,1.646044135093689,1.8483439683914185,0.5716190338134766,1.5022965669631958,0.052059605717659
27.45,2.209871768951416,0.38561245799064636,1.1883530616760254,0.5718601942062378,1.3889524936676025,0.24868080019950867
27.5,1.2618306875228882,0.7898999452590942,2.366989850997925,0.3645709156990051,1.0867358446121216,0.299920916557312
27.55,0.007239341735839844,0.6203194856643677,1.3447837829589844,0.1238362044095993,0.8193255662918091,0.4333747625350952
27.6,0.685009777545929,1.5088465213775635,0.9832242727279663,0.15478453040122986,0.6344648003578186,0.1684148758649826
27.65,2.426755428314209,1.8236342668533325,1.7966214418411255,0.1471029818058014,0.5186302065849304,0.36977419257164
27.7,0.871559739112854,0.006140659563243389,-0.14841826260089874,-0.06137654185295105,0.7063987255096436,0.37867245078086853
27.75,0.731945812702179,0.2849569320678711,0.5854300260543823,-0.07452167570590973,0.7212021946907043,0.2489282190799713
27.8,1.3946539163589478,0.10087580233812332,0.3327726721763611,0.02460639923810959,0.5629758834838867,0.24730825424194336
27.85,1.0191094875335693,-0.02752978354692459,-0.3752601742744446,0.11367626488208771,0.46649405360221863,0.262145072221756
27.9,0.9686298966407776,0.4579658806324005,0.5406461358070374,0.0949525237083435,0.3079838156700134,0.23820702731609344
27.95,0.7484716176986694,0.2306690514087677,1.5407270193099976,0.012164968997240067,0.09636290371417999,0.07211404293775558
28.0,0.8938462138175964,0.028994563966989517,1.671517252922058,0.014472104609012604,-0.25649040937423706,-0.016321944072842598
28.05,1.031550407409668,0.2149810940027237,1.1834725141525269,0.1458672434091568,-0.8387799859046936,0.09209292382001877
28.1,0.7045512795448303,0.1893778145313263,1.112044334411621,0.08522013574838638,-1.2530759572982788,0.16613397002220154
28.15,0.5843741297721863,0.5121641755104065,1.1447105407714844,0.05994611233472824,-1.3637512922286987,0.27365246415138245
28.2,-0.01849961280822754,1.6271402835845947,1.6376250982284546,0.24388836324214935,-1.203865885734558,0.35695695877075195
28.25,-0.976195216178894,0.47470009326934814,-0.017196984961628914,0.2810893952846527,-1.7037914991378784,0.4772340953350067
28.3,-1.390777826309204,-1.4797087907791138,-1.6930328607559204,-0.2418138086795807,-2.0637075901031494,0.8772876262664795
28.35,0.6829159259796143,-1.4977257251739502,-1.8206831216812134,-0.3839113414287567,-2.106614351272583,0.6682316064834595
28.4,0.7075927257537842,-1.0290586948394775,-0.8118390440940857,-0.2068372368812561,-1.549407958984375,0.31750133633613586
28.45,0.5270640850067139,-0.8959104418754578,-0.8631165623664856,-0.09689229726791382,-0.7753324508666992,-0.09177293628454208
28.5,2.294757843017578,-0.25780218839645386,-0.9652188420295715,-0.031321022659540176,-0.5575996041297913,-0.20121845602989197
28.55,1.0460985898971558,-0.5100260972976685,0.3796105682849884,0.017632804811000824,-0.4059268534183502,-0.24857737123966217
28.6,-2.37648606300354,0.08341999351978302,2.205965042114258,-0.3362896740436554,0.09121055901050568,-0.4942070245742798
28.65,0.6193248629570007,4.384072780609131,0.8847900032997131,-0.4357307255268097,1.1514664888381958,-1.2349706888198853
28.7,-3.702324151992798,3.1163651943206787,2.8502025604248047,-0.33722755312919617,0.7828433513641357,-1.07150399684906
28.75,0.5328859090805054,-1.0194294452667236,-1.2069405317306519,0.1768740713596344,-0.6776042580604553,-0.09951058775186539
28.8,-6.833958625793457,-1.8488625288009644,-0.4391430616378784,0.34896403551101685,0.016552584245800972,-0.08284007012844086
28.85,-2.2849795818328857,0.31328216195106506,0.12268384546041489,0.7678406834602356,-0.0828007236123085,-0.6619008183479309
28.9,0.2259436547756195,-0.3957367539405823,0.3246214687824249,0.8553442358970642,-1.1911643743515015,-0.40125933289527893
28.95,-0.8964179754257202,-0.06634894758462906,1.3947703838348389,0.6905075907707214,-0.8109259009361267,-0.27411898970603943
29.0,-0.12193956971168518,0.1591053456068039,0.9577988386154175,0.8386173248291016,-0.9501214027404785,-0.2816659212112427
29.05,0.29363876581192017,-0.32124999165534973,0.8241511583328247,0.6488945484161377,-0.9015206694602966,-0.32372403144836426
29.1,0.6263999342918396,-0.20066170394420624,0.7436952590942383,0.6290833950042725,-0.49440276622772217,-0.1821627914905548
29.15,-0.4580784738063812,-0.10123059153556824,0.7750458717346191,0.6998910307884216,-0.35046160221099854,-0.23671677708625793
29.2,-0.435883104801178,-0.5452098846435547,0.7789164185523987,0.4668472409248352,-0.6713144183158875,-0.115918830037117
29.25,-0.2879309058189392,-0.6399297714233398,1.509364128112793,0.5039983987808228,-0.7697059512138367,-0.2430269867181778
29.3,0.09799367189407349,-0.22063349187374115,1.8088319301605225,0.5935382843017578,-0.7137414813041687,-0.3507120907306671
29.35,0.08218502998352051,-0.34337711334228516,1.026735782623291,0.43873560428619385,-0.7188935279846191,-0.2566831111907959
29.4,-0.5566213726997375,0.23492437601089478,-0.173170804977417,0.31504571437835693,-0.37397730350494385,-0.2162054479122162
29.45,1.7966830730438232,0.4823293685913086,0.8113650679588318,0.4182473123073578,-0.19284547865390778,-0.1731872409582138
29.5,2.6137337684631348,0.7694425582885742,1.5285446643829346,0.48903119564056396,0.22697488963603973,-0.10419368743896484
29.55,-0.8753750920295715,3.1148581504821777,1.3285006284713745,-0.14593487977981567,0.06348798424005508,0.24152608215808868
29.6,4.349288463592529,0.5801476836204529,4.0151143074035645,-1.1522111892700195,-1.2546626329421997,0.28229326009750366
29.65,1.7073180675506592,0.6736258864402771,-0.09751834720373154,-1.7457263469696045,0.4091155529022217,0.9031179547309875
29.7,-3.7965211868286133,0.7901451587677002,-2.467480182647705,-1.6514523029327393,2.3299777507781982,0.7176036834716797
29.75,-3.8945677280426025,-0.17949189245700836,-3.0672242641448975,-1.0881606340408325,0.7242074012756348,0.22042913734912872
29.8,-1.1017146110534668,-1.1121712923049927,-2.0321033000946045,-0.5995287299156189,-1.7653650045394897,0.29063886404037476
29.85,2.6242241859436035,-1.071789026260376,-1.0818966627120972,-0.27764344215393066,-2.6747677326202393,0.6688423752784729
29.9,3.576871633529663,-0.9992660284042358,-1.5906819105148315,0.073414146900177,-2.7265214920043945,1.2432918548583984
29.95,1.7733099460601807,-0.19842734932899475,-0.7834705114364624,0.1286526620388031,-1.8627322912216187,1.0928716659545898
30.0,-4.8484296798706055,0.7614710330963135,-4.472717761993408,-0.20498262345790863,-0.4652562439441681,0.5040420889854431
30.05,-1.5787079334259033,-1.3448677062988281,-0.7384969592094421,-0.48593223094940186,0.9290769696235657,-0.1303318291902542
30.1,-4.199249267578125,-2.8714165687561035,-0.688548743724823,-0.5903285145759583,0.5153629779815674,-0.33908483386039734
30.15,-2.750608205795288,0.2575371265411377,2.360123634338379,-0.47610247135162354,-1.097067952156067,-0.1347872018814087
30.2,1.1078568696975708,-1.1909085512161255,0.2763417661190033,-0.27479514479637146,-2.171168565750122,-0.011648292653262615
30.25,3.5169405937194824,0.7517040967941284,-1.454465627670288,-0.28503960371017456,-1.7326171398162842,-0.08301690220832825
30.3,2.008089780807495,1.8666926622390747,-0.7597690224647522,-0.11333569139242172,-0.6245666742324829,0.04621393233537674
30.35,-1.1123771667480469,-2.3756015300750732,-1.349304437637329,-0.517005980014801,-0.8659771680831909,-1.1781952381134033
30.4,0.6369078755378723,0.3058929443359375,0.23351828753948212,-0.29569211602211,-1.3915528059005737,-0.9150636196136475
30.45,-0.009206384420394897,-1.0074912309646606,-0.7143149971961975,-0.5959059000015259,-0.8444919586181641,-0.6623508334159851
30.5,-0.308719277381897,-1.8271405696868896,-1.4664138555526733,-0.171097993850708,-0.39533188939094543,-0.9826103448867798
30.55,-0.18917471170425415,-0.4896717667579651,0.002618619007989764,-0.24213913083076477,-1.2581478357315063,-0.571019172668457
30.6,1.129716396331787,-0.14986710250377655,1.2690343856811523,-0.15127673745155334,-1.0293806791305542,-0.32542160153388977
30.65,0.1373441219329834,-0.6300630569458008,1.3807728290557861,-0.24517986178398132,-0.33895930647850037,-0.5591881275177002
30.7,-1.010418176651001,-0.9917812943458557,0.20904716849327087,-0.0915764793753624,-0.12417732924222946,-0.46127939224243164
30.75,-1.1011731624603271,0.6948500275611877,-1.1724203824996948,-0.13933788239955902,-0.4596109986305237,-0.257894903421402
30.8,0.22382982075214386,-0.03754905238747597,-0.681204617023468,-0.153498113155365,-0.6323158144950867,-0.243910551071167
30.85,0.49834322929382324,0.24671266973018646,-0.3986509442329407,0.05155787616968155,-0.4862690269947052,-0.14662863314151764
30.9,0.7586841583251953,0.24001406133174896,-0.30230435729026794,-0.020107533782720566,-0.36561423540115356,-0.04951300844550133
30.95,0.3172447383403778,0.060181599110364914,-0.3677738308906555,0.0178694911301136,-0.12511064112186432,0.011355707421898842
31.0,0.019995108246803284,0.2695360481739044,-0.38741883635520935,0.06243976950645447,0.043893132358789444,0.10170508921146393
31.05,-0.18928146362304688,0.22310546040534973,-0.17423738539218903,0.06011686474084854,0.1667809635400772,0.14666523039340973
31.1,-0.4654708504676819,0.03932954743504524,-0.401132732629776,0.07227432727813721,0.25558561086654663,0.1929289847612381
31.15,-0.26465746760368347,0.022005071863532066,-0.8840745687484741,0.11900529265403748,0.29341259598731995,0.2569045424461365
31.2,-0.30618634819984436,0.14321613311767578,-1.1689397096633911,0.188028946518898,0.3243338167667389,0.3069193661212921
31.25,0.15609487891197205,0.24265097081661224,-1.2132515907287598,0.2275434285402298,0.33018985390663147,0.31499776244163513
31.3,0.7042864561080933,-0.5461026430130005,-1.3629825115203857,0.03407200053334236,0.28398358821868896,0.17413412034511566
31.35,1.40205979347229,-0.2919837534427643,-1.8580167293548584,-0.07211054861545563,0.40544337034225464,0.14485810697078705
31.4,1.9757928848266602,-0.7791445255279541,-0.9120410680770874,-0.09304308891296387,0.45444393157958984,0.21172136068344116
31.45,1.1949541568756104,-0.7679721713066101,1.091030240058899,0.246667742729187,0.5118053555488586,0.29184389114379883
31.5,-0.04698359966278076,0.9791309237480164,2.302539348602295,0.49044930934906006,0.5962134599685669,0.3984406292438507
31.55,-0.31942951679229736,0.39299601316452026,3.2401492595672607,0.5859572887420654,0.6664255857467651,0.5350542664527893
31.6,-3.10978102684021,5.225078582763672,4.4867730140686035,0.7410535216331482,0.4284217357635498,0.6058852672576904
31.65,-0.2441396713256836,-0.8345298767089844,2.837644577026367,-0.24325081706047058,-0.2945016622543335,-0.06564781814813614
31.7,-1.9145766496658325,-3.473829984664917,0.8511514067649841,0.03778044879436493,0.03781571239233017,-0.3532715141773224
31.75,-2.0248169898986816,-1.5176211595535278,-1.4390239715576172,0.5248954892158508,0.20288129150867462,-0.005362796597182751
31.8,0.8073694705963135,2.0015459060668945,-2.9492506980895996,0.34418174624443054,-0.10212856531143188,-0.038054607808589935
31.85,-0.033014655113220215,0.9422808885574341,-1.0606852769851685,0.8447480201721191,-0.31076687574386597,0.43400809168815613
31.9,-0.45994821190834045,-0.5946474671363831,-1.3994415998458862,0.696144700050354,-2.353970527648926,0.48036515712738037
31.95,0.6456729173660278,0.9114838242530823,-0.9959661364555359,1.1830384731292725,-1.5855660438537598,0.45335909724235535
32.0,4.218873500823975,0.045511968433856964,-0.47766947746276855,1.4136683940887451,-1.7095606327056885,0.2640925347805023
32.05,3.0708227157592773,-0.7288504242897034,5.3134050369262695,1.323906421661377,-3.2109920978546143,0.4148365557193756
32.1,3.347719192504883,-1.0064984560012817,5.048449516296387,0.8742059469223022,-1.451216697692871,0.6974174976348877
32.15,-1.1536004543304443,2.037659168243408,3.812065362930298,-0.005797654390335083,-0.7222779989242554,0.7791271805763245
32.2,-2.0281476974487305,1.7014259099960327,1.178633689880371,-0.15715686976909637,0.015032226219773293,0.37267041206359863
32.25,-2.44680118560791,0.7921832203865051,1.8991563320159912,-0.2968829572200775,0.024215321987867355,-0.14463189244270325
32.3,-3.51224946975708,0.2818843722343445,-0.7924067974090576,-0.560931921005249,0.20417971909046173,-0.34400737285614014
32.35,-1.3786563873291016,-0.6126193404197693,1.0985493659973145,-0.43413496017456055,-0.36418280005455017,-0.6342524886131287
32.4,-1.2354044914245605,-0.561274528503418,0.3293766677379608,-0.22115309536457062,0.14654430747032166,-0.24065622687339783
32.45,-1.59348726272583,-0.5172805786132812,-0.40383830666542053,-0.17219628393650055,0.24445919692516327,0.12103211879730225
32.5,-1.5948618650436401,-0.5134420394897461,0.17377027869224548,-0.17741180956363678,-0.43936192989349365,0.07337743043899536
32.55,-1.7250770330429077,-0.3702210485935211,0.7764104008674622,-0.14480900764465332,-0.6441918015480042,0.1033351719379425
32.6,-1.5586879253387451,-0.0946759432554245,0.18638312816619873,-0.16698312759399414,-0.3625483214855194,0.19318699836730957
32.65,-1.1947588920593262,-0.11235234141349792,-0.5490491390228271,-0.21346992254257202,-0.47169214487075806,0.18435513973236084
32.7,-0.6793177127838135,-0.0394267812371254,-0.3209308981895447,-0.21947699785232544,-0.9585553407669067,0.09352666139602661
32.75,0.4654775559902191,-0.33074766397476196,-0.404248982667923,-0.2559877038002014,-1.2069646120071411,0.061880022287368774
32.8,0.4664532244205475,-0.2663593888282776,-0.31676849722862244,-0.3017030656337738,-1.1744284629821777,0.16711163520812988
32.85,0.17445403337478638,-0.17692379653453827,-0.5733119249343872,-0.4168396592140198,-1.0698384046554565,0.15073691308498383
32.9,-0.39951223134994507,-0.05519392341375351,-1.3264967203140259,-0.4930935502052307,-1.0354957580566406,-0.03553645685315132
32.95,-0.805556058883667,-0.4284621775150299,-4.749319553375244,-0.5027613043785095,-0.7112693190574646,-0.2235819399356842
33.0,-3.2773218154907227,0.4812146723270416,-2.917621612548828,-0.6156970262527466,-0.13543087244033813,-0.22995777428150177
33.05,-3.946474552154541,0.8171942830085754,-0.5860006213188171,-0.6994737386703491,-0.7138187885284424,-0.06540639698505402
33.1,-3.3184397220611572,0.19300861656665802,-0.24650464951992035,-0.5518180727958679,-1.8410886526107788,-0.3344762325286865
33.15,-3.7728190422058105,2.0179696083068848,0.7398644685745239,-0.13564665615558624,-1.7841343879699707,-0.4461345970630646
33.2,-3.0925629138946533,2.3014683723449707,0.8502219319343567,0.31468719244003296,-1.056135892868042,-0.7875944972038269
33.25,1.2686549425125122,-0.19655820727348328,-4.01425838470459,0.509270191192627,-2.5188450813293457,-1.0845496654510498
33.3,4.94277286529541,-0.2939484119415283,1.4617637395858765,0.7660892009735107,-3.4918746948242188,-1.0003550052642822
33.35,0.25656557083129883,2.9371321201324463,3.019942283630371,1.197004795074463,-3.041382074356079,-0.5948153734207153
33.4,-0.13465118408203125,-0.3822316825389862,3.405101776123047,2.090285062789917,-3.086193323135376,-0.7504056096076965
33.45,0.044890642166137695,-2.6051571369171143,2.678414821624756,2.1550207138061523,-2.468639850616455,-0.6489876508712769
33.5,-1.5288829803466797,-2.727811336517334,2.1679534912109375,1.2335153818130493,-2.1055080890655518,0.013596647419035435
33.55,-1.7387163639068604,-2.2059478759765625,1.4644488096237183,0.5566560626029968,-1.8641266822814941,0.1797715574502945
33.6,-2.732661724090576,1.4411146640777588,-1.3739839792251587,0.3388962149620056,-1.4535973072052002,0.05513172224164009
33.65,-6.335981369018555,2.5815892219543457,-1.7717267274856567,-0.16181440651416779,-0.24517811834812164,0.5463531613349915
33.7,-1.0378443002700806,-1.4952317476272583,-1.8805456161499023,0.08069047331809998,1.0646483898162842,1.0480027198791504
33.75,3.577877998352051,-1.5304951667785645,-0.34821292757987976,-0.9649287462234497,0.905068576335907,1.2648508548736572
33.8,0.8247551321983337,8.575922012329102,3.7512967586517334,-2.0550684928894043,-0.5563914775848389,0.5063971877098083
33.85,1.461577296257019,-4.871429443359375,3.0150086879730225,0.00878259539604187,-2.380676746368408,-0.7798981666564941
33.9,2.2646570205688477,5.453695774078369,3.014683485031128,-2.178788900375366,0.24634143710136414,0.9530141353607178
33.95,2.0133473873138428,2.084707498550415,0.49405914545059204,-1.2592852115631104,-0.34629881381988525,0.07051996141672134
34.0,-1.327252984046936,-0.7793179154396057,0.3897757828235626,-1.2244620323181152,0.22963157296180725,0.6640386581420898
34.05,0.7006179094314575,0.0016117247287184,1.8705235719680786,-1.1619786024093628,1.0351505279541016,0.43466174602508545
34.1,0.011600673198699951,-0.932386577129364,-1.1106473207473755,-0.8001930713653564,0.9552260041236877,0.34253990650177
34.15,0.7406297922134399,-1.06471848487854,-1.0264496803283691,-1.0251779556274414,1.3890047073364258,0.41145992279052734
34.2,1.2603355646133423,-0.22303596138954163,-1.903946876525879,-0.9829107522964478,0.6982205510139465,0.5891278386116028
34.25,-2.5816497802734375,-0.17811578512191772,-2.242990732192993,-0.7454822063446045,0.4402831792831421,0.4652174115180969
34.3,-1.1332972049713135,1.4055215120315552,-2.8829009532928467,-0.7687798738479614,0.8270205855369568,0.35489174723625183
34.35,-4.529378890991211,0.7452576160430908,-1.5685877799987793,-0.3924277424812317,0.6341698169708252,0.17969533801078796
34.4,-3.4440548419952393,1.5752052068710327,-1.9010047912597656,-0.24851125478744507,1.0774011611938477,-0.2254718393087387
34.45,-2.8465051651000977,2.262479066848755,-1.8263022899627686,0.37925487756729126,0.8112424612045288,-1.0494749546051025
34.5,-2.0691380500793457,3.21262526512146,1.2945610284805298,1.21370267868042,0.7789373397827148,-1.7399818897247314
34.55,1.8946077823638916,1.0247021913528442,2.3961069583892822,1.4091870784759521,2.3830909729003906,-1.655655860900879
34.6,1.4079632759094238,1.2640525102615356,1.4268152713775635,1.505874752998352,1.5694373846054077,-0.9203265905380249
34.65,1.5445621013641357,-0.6566296815872192,0.9438112378120422,1.9126394987106323,-0.11581086367368698,-1.408958911895752
34.7,2.3135721683502197,-3.32157039642334,2.4789388179779053,1.9898066520690918,-1.1039022207260132,-1.28931725025177
34.75,2.2577178478240967,-4.957058906555176,3.2973179817199707,1.182682991027832,-2.1561825275421143,-0.888929009437561
34.8,-0.20750629901885986,-4.735390663146973,3.0054450035095215,0.043832167983055115,-2.197498321533203,-0.49529820680618286
34.85,-3.6180813312530518,-3.2048513889312744,2.3584561347961426,-0.5431240797042847,-0.25733381509780884,-0.2766556143760681
34.9,-2.4146294593811035,0.9818966388702393,-1.3367574214935303,-0.13940249383449554,1.6452621221542358,0.2991591989994049
34.95,-1.8025522232055664,6.709569931030273,-5.852975368499756,0.8228942155838013,1.8992677927017212,0.673598051071167
35.0,-0.26703548431396484,1.015799641609192,0.027392560616135597,0.1800469160079956,0.2207481861114502,-0.28648078441619873
35.05,7.53279447555542,17.58516502380371,4.486320495605469,-0.5369608402252197,1.202610969543457,0.6636353135108948
35.1,8.612009048461914,-4.342185974121094,5.356590747833252,-0.15896394848823547,-2.264817237854004,-0.4975742995738983
35.15,0.6705611944198608,1.457169771194458,5.3453874588012695,-1.6167168617248535,-1.3548040390014648,1.0811995267868042
35.2,3.6676573753356934,0.009543235413730145,0.3287543058395386,-1.032989263534546,-0.3765883147716522,0.45419827103614807
35.25,-2.3014466762542725,-0.6897019147872925,1.3535127639770508,-1.1072325706481934,-0.455418199300766,1.1038440465927124
35.3,0.37594911456108093,-0.7350502610206604,-0.10797534883022308,-1.203002691268921,1.0440677404403687,1.2588406801223755
35.35,0.45653989911079407,-0.9030143618583679,-1.2345454692840576,-1.2150839567184448,1.4190531969070435,1.1931281089782715
35.4,-1.6168018579483032,0.07394225150346756,-1.0393669605255127,-1.1691780090332031,0.6614008545875549,0.9381710886955261
35.45,-1.8983906507492065,-0.7399044036865234,-1.928065538406372,-0.7593110203742981,0.5911626219749451,0.797143280506134
35.5,-0.411410927772522,0.4284076988697052,-2.0640788078308105,-0.7584356069564819,1.0485403537750244,0.5378221869468689
35.55,-1.9358283281326294,1.4136401414871216,-2.5118868350982666,-0.5178601145744324,0.612898051738739,0.47374454140663147
35.6,-4.861285209655762,0.9672940969467163,-1.6937274932861328,-0.3775995075702667,0.6336946487426758,0.3001675605773926
35.65,-3.5814414024353027,1.9725555181503296,-2.6956188678741455,-0.2682555615901947,0.8343417644500732,-0.22991500794887543
35.7,-5.111329555511475,2.0175929069519043,-0.04356873035430908,0.35045650601387024,0.15626247227191925,-1.1533604860305786
35.75,-3.176422595977783,2.9915452003479004,1.8994786739349365,0.7920807003974915,0.00089850282529369,-2.3247783184051514
35.8,2.895451068878174,2.161606788635254,0.47031569480895996,0.956538736820221,1.9629201889038086,-2.2447564601898193
35.85,2.250725507736206,1.4089317321777344,-1.3518409729003906,1.2690858840942383,1.4510005712509155,-1.5668622255325317
35.9,3.514413356781006,-1.316235899925232,-1.0547659397125244,1.463766098022461,-0.7506637573242188,-1.8241281509399414
35.95,3.143357276916504,-1.3562138080596924,1.5834511518478394,1.7049717903137207,-1.4753116369247437,-1.782931923866272
36.0,1.5205013751983643,-4.769893169403076,3.7427847385406494,0.8098148107528687,-2.201221227645874,-1.2673603296279907
36.05,-0.16760385036468506,-5.3732404708862305,4.657171726226807,-0.4612705707550049,-2.206555128097534,-0.7522080540657043
36.1,-3.0402541160583496,-1.3648604154586792,2.628927230834961,-0.45102426409721375,-0.7223588228225708,-0.1970684975385666
36.15,-1.3158894777297974,2.828984498977661,-2.14700984954834,0.30754736065864563,1.6934301853179932,0.2535931468009949
36.2,-4.222466945648193,9.203592300415039,-7.849295139312744,1.0169974565505981,2.0562245845794678,1.5065151453018188
36.25,-1.1538430452346802,0.4859267473220825,-0.35118046402931213,0.38043513894081116,0.31056395173072815,0.14146515727043152
36.3,3.1274731159210205,2.241985559463501,6.603386878967285,-0.355782687664032,-0.2202257663011551,-0.01391620747745037
36.35,3.050823211669922,-2.4123034477233887,0.41890010237693787,-0.5955955386161804,-1.5237945318222046,-0.20380127429962158
36.4,2.355135917663574,0.917648434638977,4.2885003089904785,-0.22949954867362976,-0.6843998432159424,1.0606749057769775
36.45,6.7912678718566895,-1.5446478128433228,-0.8176969289779663,-0.6882166862487793,-0.09746184945106506,0.35518839955329895
36.5,0.7950894832611084,-0.8076316118240356,2.110463857650757,-0.5207847356796265,-0.5727177262306213,0.7756973505020142
36.55,0.723268985748291,-0.3866148591041565,1.711061954498291,-0.9066485166549683,0.36972638964653015,1.2577440738677979
36.6,-0.5789717435836792,-0.7879048585891724,-0.12763217091560364,-0.6913354992866516,0.6957898139953613,1.2637336254119873
36.65,-1.9609005451202393,-0.7070607542991638,-0.25882694125175476,-0.6831785440444946,1.2467759847640991,1.2489818334579468
36.7,-1.5214407444000244,-0.14218805730342865,-1.831440806388855,-0.7577548027038574,1.4862852096557617,1.1718829870224
36.75,-1.934664249420166,-0.3449649512767792,-1.816673755645752,-0.5750477313995361,1.2756764888763428,0.9193336367607117
36.8,-1.5298773050308228,-0.5415849685668945,0.02372303418815136,-0.3158954381942749,1.0551432371139526,0.5876442790031433
36.85,-1.9765839576721191,-0.2613610625267029,-0.5899187326431274,-0.358407199382782,0.8783912062644958,0.09230879694223404
36.9,-3.8186452388763428,-1.2089794874191284,0.3243628144264221,-0.2861221432685852,0.4652230143547058,-0.3641260862350464
36.95,1.2095699310302734,3.378200054168701,-1.2854702472686768,-0.6369300484657288,1.4151355028152466,-0.7590665817260742
37.0,1.4618034362792969,7.974382400512695,1.494478464126587,-0.7165683507919312,1.6595091819763184,0.0018353259656578302
37.05,3.4197089672088623,1.4365673065185547,3.486070394515991,-0.4179039001464844,1.503053069114685,0.004586160182952881
37.1,3.219052314758301,0.8925658464431763,5.195155620574951,-0.7639719843864441,1.7142645120620728,0.15019257366657257
37.15,3.4366679191589355,0.8465042114257812,1.973212718963623,-1.1125917434692383,2.856558084487915,-0.10402543097734451
37.2,2.1291685104370117,0.28279197216033936,-0.9743643999099731,-1.3642995357513428,3.673257827758789,-0.38741880655288696
37.25,0.3780686855316162,-0.9567787647247314,-3.664762258529663,-1.2868342399597168,3.981504201889038,-0.6958117485046387
37.3,-0.8898516893386841,-1.6493055820465088,-3.5648536682128906,-0.8026058673858643,3.522899627685547,-0.9097230434417725
37.35,-1.019771695137024,-1.0565615892410278,-2.103802442550659,-0.4789792001247406,2.3475935459136963,-0.9327083230018616
37.4,0.14820875227451324,-1.2964469194412231,-0.3635684549808502,-0.29747873544692993,1.6989850997924805,-0.7844014763832092
37.45,0.23923009634017944,-1.2435027360916138,-0.010165892541408539,0.08856692910194397,1.9460879564285278,-0.4672513008117676
37.5,0.5684420466423035,-0.5619469285011292,0.967035710811615,0.3674350082874298,1.7253004312515259,-0.06317922472953796
37.55,-1.3346517086029053,0.8111345767974854,2.0702412128448486,0.2401151806116104,1.4281193017959595,-0.010945265181362629
37.6,0.5558212995529175,-1.2898446321487427,0.7991897463798523,-0.06417648494243622,0.6826677918434143,-0.20040984451770782
37.65,2.933608055114746,1.0256797075271606,3.4834916591644287,0.15666526556015015,0.1663389801979065,0.2812950313091278
37.7,-3.217792510986328,-0.3437260091304779,0.7029134035110474,-0.4208291172981262,1.1753653287887573,-0.3022042512893677
37.75,0.7290528416633606,0.011342966929078102,0.06962361931800842,0.5770292282104492,-0.3918047249317169,-0.7720165252685547
37.8,3.310756206512451,0.10614098608493805,2.124676465988159,0.2432602196931839,-0.5289300680160522,-0.2570721209049225
37.85,-2.1752476692199707,-1.129873275756836,-1.526847243309021,0.03677663579583168,0.8517637252807617,-0.04750349000096321
37.9,0.29089927673339844,0.05052660033106804,-0.3770520091056824,0.8876881003379822,-0.07452429831027985,-0.20700377225875854
37.95,1.5424435138702393,-0.6757317781448364,0.43701979517936707,0.38255465030670166,0.5264312624931335,-0.2856499254703522
38.0,-0.5925377607345581,0.43104276061058044,-0.4841556251049042,0.3806917071342468,1.8759838342666626,-0.1282115876674652
38.05,-2.8850018978118896,0.04221738874912262,-0.8054242134094238,0.20339646935462952,1.7682639360427856,-0.3423924446105957
38.1,0.11501550674438477,-0.28831008076667786,0.16849052906036377,0.16844335198402405,1.0815194845199585,-0.2746328115463257
38.15,0.041581057012081146,-0.08454514294862747,0.20480875670909882,0.3039013147354126,1.4179012775421143,-0.21426935493946075
38.2,-0.6765740513801575,-0.30768296122550964,0.35289958119392395,0.2791658341884613,1.8115195035934448,-0.20225325226783752
38.25,-0.693751335144043,-0.008776607923209667,0.7495682835578918,0.338821142911911,1.7644927501678467,-0.14384832978248596
38.3,-0.49589258432388306,-0.19826313853263855,1.162363886833191,0.38029834628105164,1.6035914421081543,-0.1597966104745865
38.35,-0.46090608835220337,-0.3178099989891052,1.8674489259719849,0.45167219638824463,1.5538426637649536,-0.18403998017311096
38.4,-0.48491764068603516,-0.6291818022727966,2.7426462173461914,0.5688483715057373,1.356353759765625,-0.21366523206233978
38.45,0.6172155737876892,-0.7577667832374573,2.8657848834991455,0.6279217600822449,0.9463209509849548,-0.2833198308944702
38.5,0.9049603939056396,-0.6351566314697266,3.175546169281006,0.6514785289764404,0.708337128162384,-0.361133873462677
38.55,1.1551579236984253,-0.03478144109249115,2.855379819869995,0.5237039923667908,0.5346941947937012,-0.4559064507484436
38.6,2.676619529724121,0.8332862854003906,1.2875359058380127,0.2015858292579651,0.41986387968063354,-0.41373440623283386
38.65,4.40773344039917,1.647139549255371,0.4658397138118744,0.1291428804397583,0.8144306540489197,-0.2452775537967682
38.7,3.689741611480713,2.6481707096099854,2.8085129261016846,-0.04203630983829498,0.4610952138900757,0.35893514752388
38.75,3.852811336517334,1.3873623609542847,0.009555541910231113,-0.886457085609436,-0.23605981469154358,1.4721860885620117
38.8,0.605742871761322,2.443438768386841,-0.2481444627046585,-1.420572280883789,-0.45232710242271423,2.6026077270507812
38.85,-5.276247501373291,0.33491548895835876,0.5776891708374023,-1.6480367183685303,2.699376344680786,1.6220966577529907
38.9,-3.1737184524536133,-0.44833552837371826,0.33545204997062683,-2.173679828643799,0.4119221866130829,1.5770212411880493
38.95,-4.072795391082764,-0.5758036375045776,-0.9268665909767151,-2.6638073921203613,-1.2662156820297241,2.2893548011779785
39.0,-1.9666306972503662,-3.275381565093994,-1.6507591009140015,-1.9270052909851074,-1.4363842010498047,1.8206270933151245
39.05,0.4567779302597046,-4.428008556365967,-3.7815983295440674,-0.9629517793655396,-1.9095760583877563,1.700495719909668
39.1,2.2811989784240723,-3.0023295879364014,-1.6306734085083008,-0.5693106651306152,-0.9707075357437134,1.3586814403533936
39.15,2.1557137966156006,-2.2703022956848145,-0.47939929366111755,-0.5442020297050476,-0.02963152527809143,1.2489261627197266
39.2,2.3898069858551025,-0.6340438723564148,1.3153023719787598,-0.7533162832260132,0.7692461609840393,0.30707934498786926
39.25,-1.0918763875961304,-0.6377038359642029,3.10725998878479,-0.8601071834564209,0.13633131980895996,0.29857388138771057
39.3,2.5577664375305176,-0.9260704517364502,1.1663860082626343,-0.4034988582134247,-0.8645554184913635,0.8044405579566956
39.35,2.92746639251709,-2.1480183601379395,0.9975066184997559,-0.11290815472602844,-0.6948370933532715,0.6685355305671692
39.4,-1.6520400047302246,0.18391810357570648,-0.044263649731874466,-0.5600116848945618,-0.40949493646621704,0.5564810037612915
39.45,-10.070310592651367,3.465289831161499,-8.992286682128906,-1.7232708930969238,-0.993146538734436,2.26290225982666
39.5,-0.3343903422355652,-5.9850993156433105,-2.1052021980285645,-0.9757522344589233,0.6186014413833618,1.010650396347046
39.55,-8.962693214416504,5.037267684936523,-2.4447126388549805,-0.8286751508712769,-0.5243802666664124,-0.9397873282432556
39.6,1.0759683847427368,-2.917131185531616,-1.4919840097427368,-1.2043339014053345,-0.3054484724998474,1.3776960372924805
39.65,-1.9741878509521484,-0.3929624855518341,-3.0474846363067627,-1.5492336750030518,0.10473106056451797,0.6263487339019775
39.7,-0.23460343480110168,-0.2843189537525177,-0.7105661630630493,-0.9223009347915649,-0.04338749125599861,0.9368020296096802
39.75,-1.3977982997894287,0.8545553088188171,-0.9776754975318909,-0.6714985966682434,-0.03330168500542641,0.8458300828933716
39.8,-0.8704659342765808,-0.2154235690832138,0.12656016647815704,-0.5829435586929321,-0.27765953540802,0.7531791925430298
39.85,0.0837850421667099,-0.07668592780828476,-0.46770262718200684,-0.3743477463722229,-0.31020641326904297,0.7948024868965149
39.9,-0.7179582715034485,0.30997759103775024,-0.3618532717227936,-0.5743047595024109,-0.2007359266281128,0.5417400002479553
39.95,-0.6208233833312988,-0.13193222880363464,0.24169684946537018,-0.6038291454315186,-0.22954349219799042,0.37999093532562256
40.0,0.20311391353607178,0.6053772568702698,-0.5049775838851929,-0.5034395456314087,-0.3278160095214844,0.2586037516593933
40.05,-0.6763260364532471,1.2554389238357544,-1.1299705505371094,-0.4150543212890625,-0.2671443819999695,0.1490045189857483
40.1,-0.8000388145446777,0.992432713508606,-1.3000363111495972,-0.4211198687553406,-0.27995359897613525,0.033575624227523804
40.15,-0.19468136131763458,1.1262685060501099,-0.04020582139492035,-0.4037189483642578,-0.4421171545982361,-0.14966419339179993
40.2,-0.43438097834587097,1.2745543718338013,-0.5747141242027283,-0.054811425507068634,-0.3588718771934509,-0.14458875358104706
40.25,-0.5340468883514404,1.0342284440994263,0.05318880453705788,0.19488286972045898,-0.2140321582555771,-0.2513456344604492
40.3,0.04336509108543396,0.6533365845680237,0.44772806763648987,0.32546567916870117,-0.1826774924993515,-0.40360984206199646
40.35,-0.21613070368766785,0.3082037568092346,1.1201674938201904,0.4066616892814636,-0.1671667993068695,-0.5315214395523071
40.4,-0.37035679817199707,1.0541577466938179e-05,1.1406984329223633,0.5645515322685242,-0.07205341756343842,-0.5370725393295288
40.45,-0.4859464168548584,0.6487628221511841,0.8421352505683899,0.6478040814399719,0.09679476916790009,-0.6186923384666443
40.5,0.195046067237854,0.6607027649879456,1.0046554803848267,0.6656734943389893,0.10934179276227951,-0.7700148224830627
40.55,0.32035407423973083,0.770356297492981,1.136389136314392,0.7993335723876953,0.05123046040534973,-0.8679242730140686
40.6,0.16043275594711304,0.7058869004249573,0.64253169298172,0.977861762046814,-0.07638667523860931,-0.9765616059303284
40.65,-0.20385098457336426,0.5926705598831177,0.8244785666465759,1.1343271732330322,-0.3573926091194153,-1.2363598346710205
40.7,-0.33219674229621887,0.17229372262954712,0.9596331119537354,1.2670544385910034,-0.8121569156646729,-1.4487617015838623
40.75,-0.1824735701084137,-0.308196097612381,-0.568853497505188,1.522409200668335,-1.1730694770812988,-1.2046021223068237
40.8,1.3971434831619263,-0.34352508187294006,-1.382810115814209,1.7631571292877197,-1.1125638484954834,-0.816773533821106
40.85,2.2468461990356445,-0.710549533367157,-0.41126152873039246,1.735472321510315,-0.22622668743133545,-0.8737370371818542
40.9,-0.3809592127799988,-0.21436980366706848,-0.6005397439002991,1.5414093732833862,0.6449577212333679,-1.2719415426254272
40.95,-0.08579245209693909,-0.005054498557001352,-1.0302261114120483,1.511521816253662,0.6312788128852844,-1.4661611318588257
41.0,0.990256667137146,-0.30768975615501404,-0.774465799331665,1.8950953483581543,0.6230087876319885,-1.233838677406311
41.05,1.2961394786834717,-0.8562003970146179,0.49379053711891174,2.1540298461914062,0.6873795390129089,-0.8867826461791992
41.1,-0.19108787178993225,-1.4443541765213013,1.1389728784561157,2.140695333480835,1.0920504331588745,-1.1434495449066162
41.15,0.21622657775878906,-1.276403546333313,2.0648248195648193,2.0650794506073,1.332282543182373,-1.3772317171096802
41.2,1.093825101852417,-0.40542230010032654,1.0586435794830322,2.222306489944458,1.0849812030792236,-1.2127776145935059
41.25,-0.1842421293258667,-0.5394678115844727,1.2300788164138794,2.221508264541626,0.687113344669342,-0.8053856492042542
41.3,0.7473146319389343,1.3000069856643677,1.9203665256500244,2.039991855621338,0.20023629069328308,-0.631039023399353
41.35,2.5480165481567383,-0.07509232312440872,4.943188190460205,1.007137656211853,-0.03800376504659653,-0.32390525937080383
41.4,4.070256233215332,-1.940247893333435,1.910557746887207,0.200687438249588,0.6525388360023499,-0.023955373093485832
41.45,1.084632158279419,-2.8607380390167236,-0.5043101906776428,0.04088294506072998,1.0578393936157227,0.5063692927360535
41.5,-5.002408981323242,-3.250999689102173,-3.488154649734497,0.106898233294487,1.3007129430770874,0.49277785420417786
41.55,-4.489614486694336,-0.6127222776412964,-1.2632720470428467,0.2693262994289398,1.2248170375823975,0.36464884877204895
41.6,-3.1618001461029053,-2.290513515472412,2.5853195190429688,0.29184043407440186,1.1134752035140991,0.6075653433799744
41.65,-1.2609528303146362,-3.1969053745269775,3.385352373123169,0.6057443618774414,0.9414851665496826,0.042381953448057175
41.7,-0.16289222240447998,-1.415035367012024,1.5357716083526611,0.6993568539619446,0.21934445202350616,-0.30663371086120605
41.75,-0.44819700717926025,-0.42427459359169006,-3.8187007904052734,0.26900383830070496,-0.3499112129211426,0.013600470498204231
41.8,1.2587816715240479,1.8694982528686523,-7.458179950714111,0.09115172177553177,-0.26248639822006226,-0.33206507563591003
41.85,-3.38861346244812,1.2476513385772705,-3.6522278785705566,0.3983168601989746,0.5044611096382141,0.531466543674469
41.9,-1.0474891662597656,1.718116044998169,-3.765932559967041,0.6201654672622681,-0.13134945929050446,0.06163277477025986
41.95,-1.8275368213653564,0.12684158980846405,-2.237759828567505,0.6114647388458252,-0.06630338728427887,0.09014277905225754
42.0,-0.16009736061096191,0.3967924118041992,-2.729740619659424,0.5362123847007751,-0.2531101405620575,-0.059153079986572266
42.05,0.2283245325088501,0.6951665878295898,-2.441061019897461,0.6244114637374878,-0.08735328912734985,-0.11947915703058243
42.1,0.9268822073936462,1.340138554573059,-0.21104027330875397,0.6126710176467896,0.12909062206745148,0.03712243586778641
42.15,-0.19953632354736328,1.275386929512024,1.4599446058273315,0.49974524974823,0.29635709524154663,0.24960151314735413
42.2,-0.3564518988132477,1.1484729051589966,0.8166221976280212,0.375383198261261,0.07950394600629807,0.08938717097043991
42.25,0.38222986459732056,1.6854288578033447,0.08171775192022324,0.3040492534637451,0.1248629167675972,0.08337634801864624
42.3,0.3069031238555908,1.9375288486480713,-0.5420936346054077,0.3689873516559601,0.2096501737833023,0.07253071665763855
42.35,0.5389083623886108,2.04988694190979,-0.8110790848731995,0.42548277974128723,0.16881288588047028,0.06071413680911064
42.4,-0.5535890460014343,1.4111262559890747,0.3238008916378021,0.38715147972106934,0.15136484801769257,0.20674580335617065
42.45,-1.1436042785644531,0.8788158893585205,1.3003935813903809,0.3461083471775055,0.13079142570495605,0.04074213653802872
42.5,-0.16402238607406616,1.4382401704788208,-0.27212175726890564,0.31522223353385925,0.03595232591032982,-0.2753070294857025
42.55,-0.051531821489334106,1.3859654664993286,-0.2517384886741638,0.3942726254463196,0.011469746008515358,-0.28475838899612427
42.6,-0.23917409777641296,1.0319615602493286,0.5379304885864258,0.3552587926387787,-0.04553389176726341,-0.3125631809234619
42.65,0.7223148345947266,0.959931492805481,0.6458366513252258,0.22909899055957794,-0.1660386323928833,-0.47602343559265137
42.7,0.22749018669128418,0.8240892291069031,1.6845048666000366,0.09113267064094543,-0.1190810576081276,-0.3631895184516907
42.75,1.761617660522461,1.2925444841384888,1.603594183921814,-0.0062309205532073975,-0.08134981244802475,-0.5303529500961304
42.8,0.30944857001304626,0.6833687424659729,1.6152470111846924,-0.04174807667732239,-0.02283342555165291,-0.2770860493183136
42.85,2.0971615314483643,0.9818468689918518,1.2376537322998047,-0.004936933517456055,-0.07160433381795883,-0.6807286739349365
42.9,3.0216808319091797,0.8627223968505859,2.4241325855255127,0.02691975235939026,-0.16011041402816772,-0.8262434005737305
42.95,3.4070568084716797,-1.6414216756820679,3.6571779251098633,0.04800128936767578,-0.4286758005619049,-1.1142222881317139
43.0,5.974003314971924,-6.609210968017578,7.827999114990234,-0.3807864785194397,-0.8266598582267761,-1.319067358970642
43.05,4.352042198181152,-1.9659308195114136,2.565319776535034,-1.9174007177352905,-1.734215497970581,-0.6469517946243286
43.1,4.059793949127197,1.5072556734085083,3.0876364707946777,-2.416259527206421,-1.7237098217010498,0.18933673202991486
43.15,1.1064244508743286,2.8746492862701416,1.8645209074020386,-3.578944206237793,-1.5033830404281616,1.622970700263977
43.2,-0.04892098903656006,3.0880684852600098,-2.3214240074157715,-4.139878273010254,-0.2752860486507416,2.692182779312134
43.25,-7.306489944458008,-2.129971504211426,-6.58310604095459,-2.378636598587036,0.7850714325904846,2.8954715728759766
43.3,-4.1221442222595215,-2.7012100219726562,-2.4725310802459717,-3.2711892127990723,0.37218427658081055,3.2587966918945312
43.35,-2.6622915267944336,-4.547366142272949,-1.508172869682312,-2.101487159729004,-0.17621923983097076,2.4549646377563477
43.4,-0.05015921592712402,-4.926851272583008,-1.6321865320205688,-1.1816788911819458,-0.6042442917823792,1.6239888668060303
43.45,0.2746891379356384,-3.299262523651123,-1.041394591331482,-0.8716247081756592,-0.2026839554309845,0.5828847885131836
43.5,-0.9008289575576782,-3.21408748626709,0.7018463015556335,-0.4457407295703888,0.05843721702694893,0.029563058167696
43.55,0.17587365210056305,-0.7210665345191956,0.3550529479980469,0.06403803080320358,-0.21705025434494019,-0.06878237426280975
43.6,2.391775608062744,-0.35650554299354553,0.22570209205150604,0.28915366530418396,-0.6884029507637024,0.3166061341762543
43.65,1.6185013055801392,-0.5178785920143127,2.00661301612854,0.09192550927400589,-0.4177922308444977,0.38648784160614014
43.7,0.08711528778076172,-1.9178377389907837,3.71844482421875,-0.31321975588798523,0.17209959030151367,0.3655918836593628
43.75,0.2764670252799988,-0.5356588959693909,-0.38619378209114075,0.04532130807638168,-0.17912381887435913,0.3492266833782196
43.8,3.326526403427124,0.7772186994552612,-2.068474531173706,0.24707409739494324,-0.5199463367462158,0.34998974204063416
43.85,2.8463075160980225,0.13932500779628754,0.04109884053468704,-0.12657839059829712,-0.012954898178577423,-0.04310767352581024
43.9,1.0837914943695068,-1.8769171237945557,2.6098880767822266,-0.42412886023521423,0.1994645744562149,-0.12324459850788116
43.95,1.2245020866394043,-2.4492204189300537,2.6657049655914307,-0.19325029850006104,-0.3355374038219452,-0.05396037921309471
44.0,2.2761082649230957,0.899439811706543,0.8141615986824036,-0.27236291766166687,-0.9470586180686951,0.30782651901245117
44.05,2.2408323287963867,13.282458305358887,-2.758409261703491,-0.9575514197349548,-0.9114215970039368,0.9456164240837097
44.1,-5.290855884552002,-17.263507843017578,-3.014547348022461,-3.1584315299987793,-0.5469605922698975,0.9752430319786072
44.15,-10.532913208007812,-1.2289303541183472,-9.812569618225098,-2.178072929382324,0.6770801544189453,0.7727158665657043
44.2,1.3808202743530273,2.6944580078125,-5.433034420013428,-0.6098463535308838,-0.932461678981781,1.5822298526763916
44.25,-2.363828182220459,0.2253676801919937,-0.8227301836013794,-1.3918702602386475,0.208642840385437,0.5375314950942993
44.3,-0.36948055028915405,0.062232062220573425,0.6057915687561035,-0.932318925857544,-0.14530189335346222,0.3653639554977417
44.35,0.45220547914505005,0.2990093529224396,0.3640555441379547,-0.5408917665481567,-0.02455449290573597,0.6401094794273376
44.4,-0.4192434251308441,0.2959175705909729,0.04066990688443184,-0.4310174584388733,0.007464288733899593,0.45551949739456177
44.45,-1.0410985946655273,0.408788800239563,-0.3110184669494629,-0.29319483041763306,0.05862520635128021,0.5563116073608398
44.5,0.0565909743309021,0.3575935363769531,-0.7882994413375854,-0.20508861541748047,0.28179869055747986,0.4959959089756012
44.55,0.5779077410697937,0.40377047657966614,-0.22613444924354553,-0.20515774190425873,0.5678861737251282,0.30892661213874817
44.6,-1.2314236164093018,0.7031165957450867,1.22761869430542,-0.11882542073726654,0.6107932329177856,0.00010808472870849073
44.65,-0.4439881443977356,1.1009961366653442,0.7015455961227417,-0.024091653525829315,0.5131821632385254,0.1036721020936966
44.7,0.1540905386209488,0.4981451630592346,0.23302336037158966,0.07224148511886597,0.3436752259731293,0.007797842845320702
44.75,-0.3630574941635132,0.5535793900489807,0.11007145047187805,0.1106608659029007,0.18859617412090302,-0.1343761384487152
44.8,-0.5702091455459595,0.7241812348365784,-0.6135934591293335,0.21928660571575165,0.03633955493569374,-0.16660603880882263
44.85,-0.08195281028747559,0.3913097679615021,-1.0184497833251953,0.21309083700180054,-0.10224991291761398,-0.2868688702583313
44.9,0.5705175399780273,0.10887619107961655,-0.68156498670578,0.15397755801677704,-0.08324427157640457,-0.3581387400627136
44.95,0.742451548576355,-0.005104100331664085,0.15364524722099304,0.14986072480678558,-0.027080774307250977,-0.39237141609191895
45.0,1.2142372131347656,-0.04122929647564888,0.7154183387756348,0.13274790346622467,-0.08823566138744354,-0.4795567989349365
45.05,1.4109787940979004,0.1740073710680008,0.6289532780647278,0.13616350293159485,-0.24789093434810638,-0.5434606075286865
45.1,1.4921674728393555,0.17482846975326538,0.33466851711273193,0.19348108768463135,-0.3496042490005493,-0.5752054452896118
45.15,0.5387977361679077,0.454933226108551,0.5827733874320984,0.14409905672073364,-0.39477795362472534,-0.776164174079895
45.2,0.5703335404396057,0.6805658340454102,-0.4190307855606079,0.22487810254096985,-0.43073585629463196,-0.8634016513824463
45.25,0.8236314058303833,0.15247057378292084,0.4356442093849182,0.2492278814315796,-0.4720422327518463,-1.0167031288146973
45.3,0.3601840138435364,0.28359514474868774,2.084608793258667,0.4410361349582672,-0.6057555675506592,-1.0624279975891113
45.35,-0.07812315225601196,0.32975491881370544,1.7041321992874146,0.8073340654373169,-0.989806592464447,-0.9312326312065125
45.4,0.39603307843208313,0.33559420704841614,0.8462523818016052,1.185640811920166,-1.205445408821106,-0.7666764259338379
45.45,0.7994288802146912,0.17638586461544037,0.3247477412223816,1.3540706634521484,-0.8808899521827698,-0.875878632068634
45.5,-0.4174406826496124,0.09458926320075989,-0.16369010508060455,1.326808214187622,-0.4682532250881195,-1.1730575561523438
45.55,0.48769548535346985,0.34122559428215027,-1.1357252597808838,1.2839608192443848,-0.3101978898048401,-1.252573847770691
45.6,1.8069796562194824,-0.42264094948768616,-0.112543486058712,1.3204388618469238,-0.27776089310646057,-1.287093162536621
45.65,-0.4825136363506317,-0.37928488850593567,0.020001210272312164,1.5611848831176758,-0.1683703511953354,-1.0034388303756714
45.7,-1.7515552043914795,0.04201420769095421,-0.3235543966293335,1.872938632965088,-0.25522851943969727,-0.4862513244152069
45.75,-1.6943979263305664,0.24580489099025726,-0.5134016871452332,1.8593062162399292,-0.6077057123184204,-0.33917176723480225
45.8,1.3068948984146118,0.8027182221412659,-0.004883360583335161,1.9514657258987427,-1.0213907957077026,-0.37555062770843506
45.85,1.1614930629730225,-1.4318209886550903,0.3947025537490845,1.8304601907730103,-0.7491191029548645,-0.3363967835903168
45.9,1.3999922275543213,-0.8336803317070007,1.266972303390503,1.9311692714691162,0.03944389149546623,-0.43609437346458435
45.95,1.6842703819274902,-0.0012522351462394,1.0174449682235718,1.7883398532867432,0.9175448417663574,-0.2935889959335327
46.0,-0.5057120323181152,0.5752431154251099,0.3479043245315552,1.3700600862503052,1.6543054580688477,-0.07770218700170517
46.05,-1.2195836305618286,0.4443780481815338,1.3971571922302246,1.2478392124176025,1.7780108451843262,-0.17358718812465668
46.1,-0.15909183025360107,-0.43770214915275574,2.404698610305786,1.1196953058242798,0.7794586420059204,-0.06000657379627228
46.15,0.7962120771408081,-0.6223288178443909,0.5814859867095947,0.7674251794815063,0.39244043827056885,-0.22524021565914154
46.2,1.1126060485839844,-0.4680509865283966,3.4771461486816406,0.5272496938705444,0.7648295164108276,-0.09862524271011353
46.25,-0.24506008625030518,0.587783932685852,1.8301100730895996,0.3563006818294525,0.8439843058586121,0.1359224170446396
46.3,1.487107753753662,-0.03125002235174179,2.224160671234131,0.12253376841545105,0.0876244306564331,0.02769654057919979
46.35,1.2953901290893555,0.06900215893983841,2.3438079357147217,-0.008333958685398102,-0.2953975200653076,0.2243320196866989
46.4,2.1225037574768066,-0.5997564196586609,0.78317791223526,-0.31482699513435364,-0.6369752287864685,0.3796948194503784
46.45,0.4159579873085022,0.8987447023391724,1.212264895439148,-0.6378570795059204,-0.23278459906578064,0.984724760055542
46.5,0.5230720639228821,0.6898594498634338,1.2781918048858643,-1.0978204011917114,-0.10129933804273605,1.2214329242706299
46.55,-2.0565452575683594,1.0541574954986572,-0.48518532514572144,-1.1251717805862427,0.9743134379386902,1.057032823562622
46.6,-3.5773138999938965,0.971612274646759,-1.129014015197754,-1.1944704055786133,0.3626560866832733,0.6905166506767273
46.65,-3.918182134628296,1.7415337562561035,-0.3409631550312042,-1.17263925075531,-0.9217529892921448,0.3637092709541321
46.7,-1.2461462020874023,0.7969905138015747,-1.7022933959960938,-0.9405788779258728,-2.6255478858947754,0.20905084908008575
46.75,-1.559920072555542,0.4821472764015198,-3.3468849658966064,-0.8671018481254578,-3.360569953918457,0.35973742604255676
46.8,2.783341884613037,-1.0858968496322632,-2.666543483734131,-0.6467283964157104,-2.8069188594818115,0.08601929247379303
46.85,2.0698719024658203,-1.2682907581329346,-2.2781879901885986,-0.39837753772735596,-1.6884394884109497,0.04739052429795265
46.9,1.5393519401550293,-0.8509190082550049,-1.6985623836517334,0.4648417830467224,-1.3838996887207031,0.2899650037288666
46.95,0.40388649702072144,-0.511398434638977,-1.672367811203003,0.5392282605171204,-0.5159522891044617,0.035852834582328796
47.0,-0.2980434000492096,0.3954057991504669,-1.6041784286499023,0.4628576934337616,-0.0957837626338005,0.0438864603638649
47.05,-0.9827764630317688,0.38085275888442993,-1.3915109634399414,0.7265245318412781,-1.0833966732025146,0.028450781479477882
47.1,0.6244584321975708,0.36211490631103516,-0.05435597151517868,0.7423652410507202,-1.1283338069915771,-0.217071533203125
47.15,1.416859745979309,0.17725840210914612,-0.9469417333602905,0.7490531802177429,-0.9475817680358887,-0.27453112602233887
47.2,2.588306188583374,0.5163706541061401,-0.6347849369049072,0.8301204442977905,-0.793129563331604,-0.259760320186615
47.25,1.671570062637329,0.7338037490844727,-0.02603127248585224,0.6935195922851562,-0.4840858578681946,0.02542215771973133
47.3,-0.0485997349023819,1.1529065370559692,0.6154038310050964,0.5238472819328308,-0.2553037405014038,0.23876953125
47.35,-1.0797206163406372,0.057602982968091965,1.3453210592269897,0.31952792406082153,-0.3697003424167633,0.1917525976896286
47.4,-1.5116304159164429,-0.00774370925500989,1.7109479904174805,0.10366300493478775,-0.4443238377571106,-0.001573514542542398
47.45,-1.6871979236602783,-0.06711374968290329,1.669661045074463,-0.13225573301315308,-0.46349772810935974,-0.20846347510814667
47.5,-1.0924549102783203,-0.025279903784394264,1.4490796327590942,0.020708993077278137,-0.5362296104431152,-0.25465354323387146
47.55,0.04368174076080322,0.007331884000450373,1.3512216806411743,0.0950774997472763,-0.5462482571601868,0.0011143805459141731
47.6,0.3250739574432373,-0.5726252198219299,0.9910255670547485,0.22816956043243408,-0.45146241784095764,0.02566438540816307
47.65,-0.7502177953720093,-0.48542118072509766,0.3998241126537323,0.27052104473114014,-0.4058450758457184,0.20459231734275818
47.7,-0.42008480429649353,-0.40499117970466614,0.24153396487236023,0.4567798376083374,-0.5016859769821167,0.3650690019130707
47.75,-0.1936110258102417,0.313484251499176,0.5455787181854248,0.4937775731086731,-0.5789086222648621,0.4648697078227997
47.8,-1.8145043849945068,1.1102098226547241,4.384713172912598,-0.044546425342559814,-1.075864315032959,0.2120579183101654
47.85,0.4623847007751465,-0.747129499912262,0.40097978711128235,-0.5286519527435303,-0.5566967725753784,-0.19672146439552307
47.9,0.1646045744419098,0.09250351786613464,-0.971364438533783,-0.32062822580337524,0.7097412943840027,0.3408048152923584
47.95,-2.0988364219665527,0.3850966989994049,-0.5622770190238953,-0.36507856845855713,0.12677599489688873,0.3208008110523224
48.0,-0.8700261116027832,-0.3417091369628906,-1.0187289714813232,-0.41810545325279236,-0.39134129881858826,0.12862229347229004
48.05,0.2817697525024414,-0.32649046182632446,-0.06353341042995453,-0.4841967821121216,-0.48607155680656433,0.27856236696243286
48.1,-0.4090656638145447,-0.14005470275878906,-0.12867936491966248,-0.49400588870048523,0.1988900899887085,0.3480682969093323
48.15,-1.7067811489105225,-0.22066591680049896,-1.3920420408248901,-0.644539475440979,0.49842575192451477,0.2759644389152527
48.2,-3.4621503353118896,0.1407843977212906,-2.0953283309936523,-0.6774981617927551,0.17691278457641602,0.19908742606639862
48.25,4.103603363037109,-1.5701029300689697,5.929942607879639,-0.5547322034835815,-0.3660597801208496,-0.06696175783872604
48.3,-3.221297264099121,0.8634886145591736,4.019561767578125,-0.5464240312576294,-1.069799780845642,-0.22877003252506256
48.35,-0.7684711217880249,2.1306357383728027,3.704439401626587,-0.5436145067214966,-1.2431974411010742,-0.20844827592372894
48.4,-1.2748547792434692,1.485506296157837,2.5859620571136475,-0.8588199615478516,-0.8533304929733276,-0.35009390115737915
48.45,-1.8094372749328613,-0.2700948417186737,-1.2164790630340576,-0.613425612449646,-1.284961462020874,-0.5693662762641907
48.5,-4.024312973022461,-2.3885552883148193,-4.183752059936523,-0.6910115480422974,-2.9335696697235107,-0.22897030413150787
