Time [s],Acc_x [m/s^2],Acc_y [m/s^2],Acc_z [m/s^2],Gyro_x [1/s],Gyro_y [1/s],Gyro_z [1/s]
0.0,-0.01931758224964142,0.13392259180545807,-0.039605800062417984,-0.009452160447835922,0.042722396552562714,-0.011948782950639725
0.05,0.025051960721611977,0.13834096491336823,-0.020626544952392578,-0.02028050273656845,0.027226975187659264,-0.0015161809278652072
0.1,-0.0025681289844214916,0.12960530817508698,0.011163486167788506,-0.022176530212163925,0.02601017989218235,0.0008443110273219645
0.15,-0.0506138950586319,0.06978321820497513,-0.03905387967824936,-0.012182312086224556,0.039785485714673996,0.003940528258681297
0.2,-0.015923913568258286,0.07759285718202591,-0.02185146138072014,-0.010195044800639153,0.04405615106225014,0.0002875970967579633
0.25,-0.018502594903111458,0.14364434778690338,0.01840401254594326,-0.009662654250860214,0.035206083208322525,0.00626189773902297
0.3,-0.01855751872062683,0.14025594294071198,0.03856976702809334,-0.0071980999782681465,0.017347559332847595,0.0061924150213599205
0.35,-0.0352385975420475,0.16965200006961823,0.029354434460401535,0.0037237433716654778,0.033098429441452026,-0.006837606895714998
0.4,-0.06941720843315125,0.15189267694950104,-2.1204210497671738e-05,0.00976513884961605,0.04677863419055939,-0.012071453034877777
0.45,-0.08266269415616989,0.09720613062381744,-0.029519660398364067,0.004143376834690571,0.04166559875011444,-0.010772359557449818
0.5,-0.03504328802227974,0.10442830622196198,-0.0527166910469532,0.00010432396084070206,0.03980542719364166,-0.011390017345547676
0.55,-0.004025911912322044,0.12669755518436432,-0.06440147012472153,-0.0027226791717112064,0.025088440626859665,-0.005394968669861555
0.6,-0.01120652724057436,0.12357617914676666,-0.00769056798890233,-0.006626143120229244,0.010722401551902294,0.002859672298654914
0.65,-0.007323453202843666,0.14682675898075104,-0.000573048135265708,-0.0017854725010693073,0.008984353393316269,0.014682061038911343
0.7,-0.026912609115242958,0.18143941462039948,-0.004094154108315706,0.004641344770789146,0.0016291412757709622,0.02760109305381775
0.75,-0.04298340901732445,0.18200112879276276,-0.004920849110931158,0.01054919883608818,-0.004107380285859108,0.03197408467531204
0.8,-0.019235432147979736,0.1513700634241104,0.035264626145362854,0.01670721545815468,-0.0034363113809376955,0.025832634419202805
0.85,-0.05008310824632645,0.21705439686775208,0.012061011977493763,0.01621255651116371,-0.005590386223047972,0.023908643051981926
0.9,-0.10393331944942474,0.16098403930664062,0.07014821469783783,0.006704283412545919,-0.0314718522131443,0.02355816401541233
0.95,-0.0484791100025177,0.01276587974280119,0.07234764844179153,0.0203406922519207,-0.01761927828192711,0.002871460746973753
1.0,0.08577537536621094,0.28507140278816223,0.21326947212219238,0.08025065809488297,-0.006753433030098677,-0.031011244282126427
1.05,0.2740240693092346,0.23603443801403046,0.04997570440173149,0.07799357175827026,0.010190395638346672,-0.03479386866092682
1.1,-0.23622752726078033,0.04675007611513138,-0.39668571949005127,0.010000200010836124,0.10563989728689194,-0.011510677635669708
1.15,-0.31971874833106995,0.08787822723388672,-0.27693381905555725,-0.05136921629309654,-0.04522408917546272,0.030105818063020706
1.2,-0.013443130999803543,0.15314199030399323,0.06845398247241974,-0.06885816156864166,-0.1379568874835968,0.03082061931490898
1.25,0.0930056944489479,0.12336540967226028,0.22450222074985504,-0.025131553411483765,-0.03532618284225464,-0.001152927870862186
1.3,0.2069229632616043,0.236362487077713,0.29424965381622314,0.035658858716487885,-0.008301042020320892,-0.0020086884032934904
1.35,0.0966348648071289,0.209598571062088,0.18301479518413544,0.0668315589427948,0.017579346895217896,0.020150076597929
1.4,-0.171613410115242,0.21127797663211823,0.14334528148174286,0.08695119619369507,0.039137136191129684,0.01605195924639702
1.45,-0.10526221990585327,0.3652620315551758,0.5539287328720093,0.12067151069641113,-0.037238068878650665,-0.032019808888435364
1.5,-0.12531113624572754,0.3566283881664276,0.9621181488037109,0.16132253408432007,-0.027503015473484993,-0.09213617444038391
1.55,0.06324493885040283,0.4912538528442383,1.4409950971603394,0.22683273255825043,0.12618885934352875,-0.18728449940681458
1.6,0.3709172010421753,0.4509296417236328,1.779047966003418,0.3039356470108032,0.42004045844078064,-0.27072566747665405
1.65,0.8990964293479919,-0.015910184010863304,1.8429001569747925,0.3931735157966614,0.9331010580062866,-0.38667070865631104
1.7,1.4330379962921143,-0.23201467096805573,1.396445393562317,0.4994342625141144,1.5909922122955322,-0.5105963945388794
1.75,1.3803162574768066,-0.14408963918685913,0.1367044895887375,0.49400579929351807,2.1718506813049316,-0.5408326387405396
1.8,-0.2662299573421478,-0.32819366455078125,-0.9315985441207886,0.3949228823184967,2.6033475399017334,-0.3379147946834564
1.85,-1.5114070177078247,-0.09071546047925949,-0.9204744100570679,0.17910030484199524,2.3632144927978516,-0.008218917064368725
1.9,-1.1358778476715088,-0.212954580783844,-0.8209856748580933,-0.17845037579536438,1.4444705247879028,0.31335383653640747
1.95,-0.42042532563209534,0.18363098800182343,-1.0183029174804688,-0.44647645950317383,0.8315290808677673,0.5616855621337891
2.0,-0.6592667698860168,0.6911030411720276,-1.2821100950241089,-0.554436445236206,0.5970136523246765,0.850963294506073
2.05,-2.116469383239746,0.5269346237182617,-1.0595223903656006,-0.5729595422744751,0.2138834446668625,1.036600947380066
2.1,-2.794908046722412,-0.4232923090457916,-1.553605556488037,-0.5479559302330017,-0.7388604283332825,0.8857141137123108
2.15,-0.5879860520362854,-0.21866892278194427,-1.6329458951950073,-0.20503918826580048,-1.572522759437561,0.4819805324077606
2.2,1.236365795135498,0.29721084237098694,-0.7782959938049316,0.28923752903938293,-1.4687105417251587,0.09890184551477432
2.25,1.2791509628295898,0.8893625140190125,0.4888626039028168,0.5683330297470093,-0.9320459961891174,-0.04962041601538658
2.3,0.41848284006118774,0.92585289478302,0.7590063810348511,0.5385900139808655,-0.4939243197441101,-0.09814875572919846
2.35,0.8273236155509949,0.7716714143753052,1.0737186670303345,0.224918931722641,-0.6726292371749878,-0.013232028111815453
2.4,0.9266843795776367,0.7057657837867737,0.9170769453048706,-0.23881828784942627,-0.32181861996650696,-0.049174949526786804
2.45,0.7019022703170776,0.05850415304303169,-0.02663114294409752,-0.5314475297927856,0.11555975675582886,-0.0636906698346138
2.5,0.17252403497695923,-0.31966400146484375,-0.4354313910007477,-0.3994879722595215,0.4232189953327179,-0.18554213643074036
2.55,-0.12549012899398804,-0.16877269744873047,-0.3819236755371094,-0.13859498500823975,0.11292902380228043,-0.23985739052295685
2.6,-0.35531413555145264,0.008599279448390007,-0.3908753991127014,0.06904084235429764,-0.48574668169021606,-0.1956297904253006
2.65,-0.1474442183971405,0.27038291096687317,-0.01767103560268879,0.3105463683605194,-0.5819970369338989,-0.3141843378543854
2.7,0.15751025080680847,0.6020432114601135,0.3911628723144531,0.3512074053287506,-0.4974620044231415,-0.3769071102142334
2.75,1.2311289310455322,0.20695695281028748,0.3624427616596222,0.3062446415424347,-0.12507519125938416,-0.4635182321071625
2.8,0.9825182557106018,0.1492777317762375,0.5315231084823608,0.2761707007884979,0.16854257881641388,-0.31438928842544556
2.85,2.070666790008545,-0.18387407064437866,0.9709690809249878,0.09507863223552704,0.10532614588737488,0.014184322208166122
2.9,3.1000571250915527,-0.12550820410251617,1.4459964036941528,-0.05503469705581665,0.16455063223838806,0.38692373037338257
2.95,4.419624328613281,0.23382115364074707,0.9552140235900879,-0.16676202416419983,0.8149475455284119,0.7152020335197449
3.0,2.9544029235839844,-0.15500429272651672,-1.1354377269744873,-0.20023876428604126,1.7962960004806519,1.2698436975479126
3.05,-6.483611106872559,-0.35184985399246216,-2.178975820541382,0.41196486353874207,2.3056716918945312,1.2712193727493286
3.1,-13.265300750732422,0.253670871257782,0.704094409942627,0.5845050811767578,0.7485640645027161,-0.4256122410297394
3.15,-0.12440471351146698,2.777265787124634,-0.25782227516174316,0.11266422271728516,-1.7421702146530151,-2.2114291191101074
3.2,4.63225793838501,1.4771170616149902,-1.2751587629318237,0.02725851535797119,-1.6044772863388062,-2.478778600692749
3.25,4.726250171661377,-1.7395105361938477,0.1295078843832016,0.5593001842498779,-0.8521227240562439,-1.4577364921569824
3.3,3.4496123790740967,-0.7509070038795471,2.397171974182129,0.6530026197433472,-0.40832287073135376,-0.5209470391273499
3.35,1.7476005554199219,-0.09613987058401108,1.0639781951904297,0.09631213545799255,-0.3449297845363617,0.011418089270591736
3.4,1.280280590057373,0.269293874502182,0.0474025197327137,-0.17577117681503296,-0.30369120836257935,0.2875189185142517
3.45,-0.49588078260421753,1.3622952699661255,0.5635124444961548,0.22130747139453888,0.7155580520629883,0.16142036020755768
3.5,0.2618141174316406,0.5017223954200745,-0.05964290350675583,0.013596227392554283,0.758159875869751,0.0044825999066233635
3.55,1.3958102464675903,0.6446143388748169,-0.16847343742847443,-0.2632257044315338,0.34408435225486755,0.1372598558664322
3.6,0.11201691627502441,1.5233728885650635,0.1553238034248352,-0.46524545550346375,0.08087421953678131,0.602774977684021
3.65,-0.5892801880836487,1.0056573152542114,-0.3531247079372406,-0.6521149277687073,-0.12355519086122513,0.877947986125946
3.7,-1.105980396270752,-0.031123220920562744,-0.19170629978179932,-0.5488814115524292,0.19114035367965698,0.6696889996528625
3.75,-0.8896881341934204,-0.6514960527420044,0.08391577750444412,-0.41762489080429077,0.29422006011009216,0.26965346932411194
3.8,-0.11482404172420502,-0.45573049783706665,0.059243813157081604,-0.38880056142807007,0.149700328707695,0.10575111955404282
3.85,-0.3899890184402466,-0.05942061170935631,-0.09314427524805069,-0.3903330862522125,0.2553901970386505,0.13004766404628754
3.9,-1.8552286624908447,-0.562714695930481,-0.4316515624523163,-0.42797616124153137,0.27081596851348877,0.27184298634529114
3.95,-2.42234206199646,-0.38963237404823303,-0.9983423352241516,-0.46716606616973877,0.08157932013273239,0.3061431348323822
4.0,-2.594095230102539,0.5876969695091248,-0.7901044487953186,-0.36340656876564026,-0.09461313486099243,0.26060745120048523
4.05,-2.5055508613586426,0.7837963104248047,-0.48102158308029175,-0.3466145694255829,-0.531743586063385,0.1072409451007843
4.1,0.18300852179527283,0.6262398362159729,0.3327527642250061,-0.40382689237594604,-0.9099839925765991,-0.041486211121082306
4.15,0.6958188414573669,0.3311062455177307,0.4095066487789154,-0.5377333164215088,-0.2882477641105652,-0.14748917520046234
4.2,0.3741157650947571,0.7852603197097778,0.7473018169403076,-0.6268492937088013,0.12109126150608063,-0.08005865663290024
4.25,0.024823788553476334,0.04272747039794922,0.10897622257471085,-0.8490906953811646,0.1365688294172287,0.09680084139108658
4.3,-0.889083206653595,-0.1812172383069992,-0.3807634711265564,-0.836362361907959,0.02208847738802433,0.2349778413772583
4.35,-1.2908214330673218,1.17762291431427,-0.3863716721534729,-0.8327139019966125,-0.21913449466228485,0.19315944612026215
4.4,-0.7316224575042725,1.3569804430007935,-0.3250586688518524,-1.0047467947006226,-0.6485315561294556,0.3778170049190521
4.45,-0.22301308810710907,1.3650552034378052,-0.12715213000774384,-1.317344307899475,-0.7813243865966797,0.4337797164916992
4.5,0.23062735795974731,0.8762046098709106,0.04267169535160065,-1.5340089797973633,-0.7901127338409424,0.45888927578926086
4.55,1.291890263557434,-0.09790700674057007,-0.03588343411684036,-1.379394769668579,-0.4009837806224823,0.05804511904716492
4.6,1.592407464981079,0.3141595125198364,0.1596890389919281,-1.0869873762130737,0.21030937135219574,-0.38370367884635925
4.65,2.3027503490448,0.9831955432891846,-0.009504125453531742,-1.0510303974151611,0.886711597442627,-0.6810409426689148
4.7,1.3735377788543701,0.69220370054245,-0.8114984631538391,-1.1641844511032104,1.7726986408233643,-1.2319700717926025
4.75,-0.18926632404327393,-0.41152381896972656,-1.5138620138168335,-1.2335938215255737,2.086181640625,-1.4469139575958252
4.8,-1.2496877908706665,-1.956895112991333,-1.6624832153320312,-1.073900580406189,1.8053972721099854,-1.0738437175750732
4.85,-3.074336051940918,-3.7686848640441895,-1.5874807834625244,-0.4820837676525116,1.3126481771469116,-0.6293339133262634
4.9,-2.758037805557251,-1.5586456060409546,-1.4391072988510132,0.19984552264213562,0.4143117070198059,0.01696030981838703
4.95,-1.381084680557251,0.2685871124267578,-0.8101685047149658,0.5338709354400635,-0.34480297565460205,0.6161054372787476
5.0,-0.3816875219345093,0.6557188630104065,-0.8781222701072693,0.6339622735977173,-0.7399353384971619,0.6637707352638245
5.05,0.5533450245857239,1.229224443435669,-0.703045129776001,0.6095577478408813,-0.777769148349762,0.5455909371376038
5.1,0.8876678943634033,1.536240816116333,0.250612735748291,0.39421939849853516,-0.5915834903717041,0.4427006244659424
5.15,1.1343525648117065,2.171717882156372,0.41489139199256897,0.010818958282470703,-0.30734387040138245,0.19093844294548035
5.2,1.8124439716339111,1.5775779485702515,0.2467249035835266,-0.41170454025268555,0.18585537374019623,-0.1778215616941452
5.25,-0.21541988849639893,-1.4260207414627075,0.8131841421127319,-0.8568025827407837,0.5200203061103821,0.11159924417734146
5.3,-0.07995472848415375,-4.062136173248291,0.1332853138446808,-0.3694678246974945,0.25363147258758545,0.29485949873924255
5.35,-1.7820286750793457,-0.9162742495536804,-0.8615383505821228,0.6167747974395752,0.2561008632183075,-0.3855245113372803
5.4,-0.9935259819030762,2.0702927112579346,0.176853746175766,0.7671299576759338,-0.13461928069591522,0.19179148972034454
5.45,1.399382472038269,1.9298166036605835,0.4226267635822296,0.3790905177593231,-0.4330271780490875,0.6258362531661987
5.5,0.4632788598537445,0.7630168199539185,0.47695228457450867,0.0661650151014328,0.008500270545482635,-0.2263982743024826
5.55,-0.2826119363307953,0.17198753356933594,0.058870118111371994,0.019617557525634766,0.06464649736881256,-0.43555766344070435
5.6,0.1788460910320282,-0.30647850036621094,-0.3548540472984314,0.025751503184437752,-0.06587887555360794,-0.00952077191323042
5.65,0.22562716901302338,-0.20187662541866302,-0.5442262887954712,0.07671990990638733,0.17316094040870667,-0.03601853922009468
5.7,1.0745962858200073,-0.12197963148355484,-0.7591357827186584,0.17613202333450317,0.600730836391449,-0.2532040774822235
5.75,-0.9329876899719238,-0.5676366090774536,0.5743517279624939,0.3444918394088745,0.5235334038734436,0.48715639114379883
5.8,-0.5794792175292969,-0.15612798929214478,0.28740471601486206,0.42347419261932373,0.000511043006554246,0.6810305118560791
5.85,0.08264891058206558,0.6651163697242737,-0.009725323878228664,0.5079525113105774,-0.15786157548427582,0.15779496729373932
5.9,0.15138399600982666,0.9165374040603638,-0.10387346148490906,0.35722509026527405,-0.026150573045015335,-0.3496672213077545
5.95,0.38700035214424133,0.3690415024757385,0.12118299305438995,0.18475978076457977,-0.005677864886820316,-0.23937968909740448
6.0,0.7430069446563721,0.6149206757545471,0.30003032088279724,0.16459861397743225,-0.05709508806467056,-0.016195911914110184
6.05,0.5167138576507568,0.7422972321510315,0.23782525956630707,0.08155407011508942,-0.004787619225680828,0.03268171846866608
6.1,0.3206471800804138,0.34812837839126587,-0.0682125985622406,-0.03433012217283249,0.08366367965936661,0.01054149866104126
6.15,0.10497288405895233,-0.04071710258722305,-0.39554867148399353,-0.08389148116111755,0.10435592383146286,0.038006819784641266
6.2,0.08327381312847137,-0.14788055419921875,-0.3601560592651367,-0.05669352412223816,0.07834544032812119,0.10979745537042618
6.25,0.05606020987033844,0.0918884426355362,-0.06746193021535873,0.020945120602846146,0.04731280356645584,0.11826054006814957
6.3,0.27470701932907104,0.43334493041038513,-0.0980110615491867,0.078163743019104,0.036457549780607224,0.060196321457624435
6.35,0.23190689086914062,0.6089716553688049,-0.07444068789482117,0.05448867753148079,0.10004710406064987,-0.036634936928749084
6.4,0.5364299416542053,0.6535578966140747,-0.0010013689752668142,-0.06271758675575256,0.16964854300022125,-0.12047548592090607
6.45,0.44008880853652954,0.27674776315689087,-0.07952534407377243,-0.24571728706359863,0.2406100630760193,-0.19144688546657562
6.5,0.1494089663028717,0.03987220674753189,-0.5111640095710754,-0.3001260757446289,0.2081073522567749,-0.09135173261165619
6.55,0.054858624935150146,-0.11695192754268646,-0.6236071586608887,-0.1962348222732544,0.0013853468699380755,0.21846801042556763
6.6,0.025243163108825684,-0.23744870722293854,-0.3186887800693512,-0.030133232474327087,-0.10362260788679123,0.4051980972290039
6.65,-0.3492594063282013,-0.15751269459724426,0.025859344750642776,0.06556078046560287,-0.13185837864875793,0.3239438533782959
6.7,0.2813282012939453,0.4441567361354828,-0.09057337045669556,0.05829985812306404,-0.17041756212711334,0.1482994556427002
6.75,1.8837230205535889,2.1846554279327393,0.11610524356365204,-0.11476854979991913,0.09129755944013596,-0.20549675822257996
6.8,0.1828436404466629,0.19685842096805573,0.5179383754730225,-0.2464618682861328,0.5387467741966248,-0.42580103874206543
6.85,-1.1774812936782837,-0.9065430164337158,0.8848756551742554,-0.1662132740020752,0.190463587641716,0.0012206279207020998
6.9,0.5830658078193665,-0.3051433563232422,-0.08212221413850784,0.17260412871837616,-0.36246639490127563,0.41068437695503235
6.95,0.11398742347955704,0.2840166389942169,0.01634642295539379,0.28572311997413635,-0.15817557275295258,-0.06755054742097855
7.0,0.10812711715698242,0.6725588440895081,0.16061963140964508,0.28060466051101685,-0.1449061632156372,-0.03635266795754433
7.05,0.556101381778717,0.4665862023830414,-0.1564793586730957,0.1657387614250183,-0.20940625667572021,0.17252473533153534
7.1,0.41579461097717285,0.19896036386489868,-0.010105535387992859,0.10557150095701218,-0.05202848091721535,0.08555195480585098
7.15,-0.03561513125896454,0.13798236846923828,0.1573428064584732,0.11752812564373016,0.09390246123075485,-0.03701923415064812
7.2,-0.026374734938144684,0.13704873621463776,0.036242835223674774,0.14456835389137268,0.05307218059897423,0.013986717909574509
7.25,0.09492345154285431,0.2306375801563263,0.022947868332266808,0.16843880712985992,0.02798445336520672,0.03335313871502876
7.3,0.19666868448257446,0.12639811635017395,0.009574176743626595,0.16880716383457184,0.0927974060177803,-0.049498263746500015
7.35,-0.042502883821725845,-0.7136955857276917,-0.043167583644390106,0.2041805535554886,0.12399191409349442,-0.08301978558301926
7.4,0.17217175662517548,-1.8523809909820557,-0.30667853355407715,0.4367963671684265,0.12426804006099701,-0.11904380470514297
7.45,0.3074875473976135,-2.148854970932007,-1.697271466255188,0.9375838041305542,0.4129321575164795,-0.49482348561286926
7.5,-0.8413463234901428,0.3196459114551544,-0.7336679100990295,1.4848417043685913,0.1674816757440567,-0.6282322406768799
7.55,0.5170780420303345,-0.1485709547996521,-0.9406802654266357,1.8830996751785278,-0.5558950304985046,-0.1289949268102646
7.6,0.3646608889102936,1.2718240022659302,0.3204626441001892,2.0358095169067383,-0.7827068567276001,-0.05019712448120117
7.65,-1.0990530252456665,1.1668033599853516,0.8535008430480957,1.9843769073486328,-0.6441724896430969,-0.1565745323896408
7.7,-1.1048190593719482,1.8020793199539185,1.3293721675872803,1.634343147277832,-0.4458751678466797,-0.5857589840888977
7.75,1.0195133686065674,1.926224946975708,1.9259849786758423,1.2990477085113525,-0.6388000845909119,-0.6899781227111816
7.8,1.8956714868545532,1.1702653169631958,1.8619433641433716,0.6734300255775452,-0.661418080329895,-0.5676186084747314
7.85,3.27860689163208,0.18733327090740204,0.8327829837799072,0.2107982188463211,-0.3413059115409851,-0.3483980596065521
7.9,0.6456533670425415,0.7884380221366882,0.03933393955230713,0.1548233926296234,0.6989575028419495,-0.10687942057847977
7.95,-3.997403621673584,1.1452778577804565,-1.119583010673523,-0.04326336458325386,0.9890942573547363,-0.12933892011642456
8.0,-4.455992698669434,1.494308352470398,-1.2904043197631836,-0.29550445079803467,-0.11884386092424393,-0.5459724068641663
8.05,0.17445480823516846,0.7302438616752625,-2.259528636932373,-0.6654345393180847,-1.6980326175689697,-0.6368589401245117
8.1,1.4302057027816772,-0.3255022168159485,-2.563689708709717,-0.7565556168556213,-1.7486798763275146,-0.5839114189147949
8.15,1.4416046142578125,-0.8603724837303162,-2.203442096710205,-0.3867523670196533,-1.5599491596221924,-0.6035546660423279
8.2,1.7114313840866089,-1.4703682661056519,-1.8257611989974976,-0.17776907980442047,-1.7367424964904785,-0.4613765478134155
8.25,1.797300934791565,-1.0574636459350586,-1.4718965291976929,-0.07915134727954865,-2.086820602416992,-0.2596612274646759
8.3,2.3017969131469727,-0.3891553282737732,0.3770410716533661,-0.10637784004211426,-2.880733013153076,-0.10845006257295609
8.35,1.951034665107727,-0.14621450006961823,2.572911262512207,0.06448408961296082,-3.008831262588501,0.032047174870967865
8.4,1.1375305652618408,1.054147720336914,4.512031555175781,0.5891868472099304,-2.4271328449249268,0.17315612733364105
8.45,-0.7548434734344482,1.3678921461105347,4.085690021514893,0.9340472221374512,-1.240392804145813,0.3144698441028595
8.5,-2.290271282196045,1.190658450126648,2.633671760559082,0.9424266815185547,-0.3890117406845093,0.3462209701538086
8.55,-3.5962982177734375,1.0466945171356201,2.448884963989258,0.7398263216018677,-0.24465708434581757,0.1535305231809616
8.6,-2.7221858501434326,-0.2825683653354645,4.004920959472656,0.7014635801315308,-0.3614785075187683,-0.17125354707241058
8.65,-2.230072259902954,-1.5704962015151978,4.897299289703369,0.8879243731498718,0.3767573833465576,-0.353025883436203
8.7,-0.8875887393951416,-2.4799418449401855,4.922098159790039,0.7812978625297546,1.2974958419799805,-0.34550389647483826
8.75,0.874213457107544,-2.987506866455078,3.660336971282959,0.6779406666755676,2.0914816856384277,-0.18517902493476868
8.8,3.60984468460083,-2.6650161743164062,1.667511224746704,0.6509209275245667,2.6004464626312256,-0.010848596692085266
8.85,7.297413349151611,0.6739544868469238,-0.39575809240341187,0.3728529214859009,3.2838170528411865,0.06556432694196701
8.9,2.349015712738037,2.908240795135498,-3.977182149887085,-0.45286431908607483,3.777297258377075,0.8588188886642456
8.95,-4.422077178955078,2.177053689956665,-4.458738327026367,-1.7897355556488037,1.192059874534607,1.5779962539672852
9.0,0.40774238109588623,-0.7850846648216248,-3.488952159881592,-2.381849765777588,-2.566927433013916,1.8545722961425781
9.05,3.915877342224121,-0.8501937985420227,-0.9395343661308289,-1.3021026849746704,-1.895298957824707,1.4150710105895996
9.1,3.72994327545166,-0.2949416935443878,-0.5552774667739868,-0.4063665270805359,0.758661150932312,0.5102236866950989
9.15,2.550002336502075,-0.20100195705890656,-0.9590891599655151,0.09129295498132706,1.9104911088943481,0.10729368776082993
9.2,0.7794775366783142,-1.1079835891723633,-1.7442275285720825,0.22828170657157898,1.3934452533721924,0.15795686841011047
9.25,0.6592967510223389,-1.7459203004837036,-1.3383643627166748,0.4024636149406433,-0.2404153048992157,0.2893550395965576
9.3,2.1777877807617188,-1.8550759553909302,0.36604544520378113,0.7494490742683411,-1.0266385078430176,0.003085626056417823
9.35,1.2691471576690674,-0.37067610025405884,2.171600818634033,1.0587913990020752,-0.11688432842493057,-0.7371982336044312
9.4,-0.5132455825805664,1.357295036315918,2.894820213317871,1.6413543224334717,0.8451683521270752,-0.9369511604309082
9.45,-0.45799708366394043,-0.6904909014701843,2.5257318019866943,1.7010459899902344,1.2786004543304443,-0.7014901638031006
9.5,-3.811859607696533,-1.2091115713119507,0.7326806783676147,1.6912764310836792,2.313230514526367,-0.21076953411102295
9.55,-5.055623531341553,-0.11274656653404236,0.45654940605163574,1.4271198511123657,2.22607421875,0.027364002540707588
9.6,-4.1682024002075195,-0.26833561062812805,0.16316960752010345,1.0504344701766968,1.4156287908554077,-0.05440722405910492
9.65,-2.9021711349487305,-0.03334347903728485,-0.1661001443862915,0.9005797505378723,0.8870014548301697,-0.1324092447757721
9.7,-2.6090667247772217,0.7948941588401794,-0.014148414134979248,0.8570564985275269,0.9549437165260315,-0.07197047770023346
9.75,-2.7504868507385254,1.5505714416503906,0.6319258809089661,0.7785764932632446,0.6882147789001465,-0.04934085160493851
9.8,-2.4262681007385254,2.7126026153564453,1.242156744003296,0.4673581123352051,0.1521730273962021,-0.17990630865097046
9.85,-2.259286642074585,3.838310480117798,1.3781037330627441,0.19786867499351501,-0.07695525884628296,-0.1291569173336029
9.9,-2.9956562519073486,4.512267589569092,0.8844478130340576,-0.06546777486801147,0.32148274779319763,0.2241756021976471
9.95,-2.2045793533325195,4.147806644439697,0.32925277948379517,-0.45052143931388855,0.2538166344165802,0.08809622377157211
10.0,-1.6172022819519043,3.9646430015563965,0.1383671760559082,-0.7455935478210449,-0.03428720310330391,-0.09927347302436829
10.05,-2.745028018951416,3.5685932636260986,0.7369012236595154,-0.9627128839492798,-0.30086299777030945,-0.16512107849121094
10.1,-2.719805955886841,3.180063486099243,-0.41927921772003174,-1.0019280910491943,-0.9124190211296082,-0.36870941519737244
10.15,-2.527459144592285,2.210015296936035,-0.04845483601093292,-0.6417471766471863,-0.46368125081062317,-0.5296071767807007
10.2,-2.9599900245666504,1.8406916856765747,-0.6768791675567627,-0.5203183889389038,-0.3744312822818756,-0.5780985355377197
10.25,-3.1758790016174316,0.497037798166275,-0.9423274397850037,-0.7274976968765259,-0.6709362864494324,-0.481456995010376
10.3,-2.0487654209136963,-1.2400686740875244,-0.7162681818008423,-1.1367998123168945,-1.3714436292648315,-0.4308030307292938
10.35,-0.4567846953868866,-3.781269073486328,-1.289283037185669,-1.0235483646392822,-1.189301609992981,-0.4524137079715729
10.4,0.31214532256126404,-4.793810844421387,-1.0696097612380981,-0.8080828189849854,-1.149518609046936,-0.29197797179222107
10.45,1.1386901140213013,-5.20546293258667,-0.8083322644233704,-1.0047193765640259,-1.821079969406128,-0.09115009009838104
10.5,2.590611219406128,-3.983562707901001,-0.6561964750289917,-1.0387340784072876,-2.48502254486084,0.10706143826246262
10.55,1.9822403192520142,-4.705049991607666,-2.0376968383789062,-0.4342637062072754,-2.771486759185791,0.06833827495574951
10.6,2.572460889816284,-2.780763626098633,-1.2609987258911133,0.6402908563613892,-2.738250732421875,-0.2896769344806671
10.65,2.8476459980010986,-0.6962869763374329,-1.1182901859283447,1.468529224395752,-2.02541184425354,-0.49774131178855896
10.7,4.581518173217773,2.120579242706299,-0.5796148180961609,1.7946420907974243,-2.2417798042297363,-0.7773299217224121
10.75,5.531249046325684,3.0030429363250732,1.2691824436187744,1.9736254215240479,-2.9534261226654053,-1.2757030725479126
10.8,4.983847141265869,2.1759848594665527,3.1435163021087646,2.3979904651641846,-2.9333736896514893,-1.174591064453125
10.85,2.1196036338806152,2.3765509128570557,3.6133925914764404,2.8487730026245117,-2.1481616497039795,-0.4405163824558258
10.9,1.5584547519683838,0.6827802062034607,4.040598392486572,2.998867988586426,-1.4857219457626343,0.26858556270599365
10.95,0.6558889150619507,0.34860795736312866,2.9451475143432617,2.651994228363037,-0.8299023509025574,0.7959399819374084
11.0,0.7388087511062622,-2.034914255142212,1.4817190170288086,1.7992439270019531,-0.12282445281744003,0.4869121313095093
11.05,1.5202958583831787,-2.229440927505493,-0.19960282742977142,0.746269702911377,0.5825874209403992,0.6927107572555542
11.1,1.2649986743927002,0.5156031847000122,0.44062539935112,-0.48635590076446533,0.7826033234596252,0.981285035610199
11.15,1.0902332067489624,1.7506935596466064,0.3076426684856415,-1.3613542318344116,0.5907313227653503,0.46177881956100464
11.2,2.0331969261169434,2.149606943130493,0.6011400818824768,-1.6319124698638916,0.5859279632568359,0.3851749002933502
11.25,2.0601468086242676,3.1831231117248535,0.4210594892501831,-1.8210927248001099,0.6790919899940491,0.6860830187797546
11.3,1.6805634498596191,2.693211793899536,0.2182968407869339,-1.8838963508605957,0.44125062227249146,0.436002641916275
11.35,1.8185648918151855,2.4740138053894043,-0.3579401969909668,-1.789600133895874,0.41682514548301697,0.2756136357784271
11.4,1.064117431640625,2.271704912185669,-1.1855732202529907,-1.5087794065475464,0.8897114992141724,0.3437712788581848
11.45,0.7090567946434021,0.8591854572296143,-1.9251171350479126,-1.2172398567199707,1.1156269311904907,0.08279135078191757
11.5,1.3252683877944946,0.3180667757987976,-1.3030740022659302,-0.7682490348815918,0.9695917963981628,-0.07546569406986237
11.55,-0.5109368562698364,0.014762897975742817,-1.0087954998016357,-0.4246445596218109,1.001434326171875,0.2746516466140747
11.6,-4.247555732727051,-1.017849326133728,0.519993245601654,-0.6520764231681824,0.27162930369377136,0.4063056409358978
11.65,-7.31174373626709,-0.4139314889907837,2.597611904144287,-1.6944034099578857,-0.6362907290458679,0.09100653231143951
11.7,-6.2857584953308105,-2.704087018966675,1.3537404537200928,-2.885824680328369,-0.5293219685554504,-0.08013776689767838
11.75,-6.171145439147949,-2.6071629524230957,-1.5273871421813965,-2.367669105529785,1.1315839290618896,0.04930409416556358
11.8,-5.188899993896484,-1.5999350547790527,-2.063103675842285,-1.7697100639343262,1.2521382570266724,-0.6766074299812317
11.85,-2.469172716140747,-3.0748558044433594,-0.8614858984947205,-1.722692847251892,-0.01665964163839817,-1.098581075668335
11.9,-0.025349974632263184,-3.8756322860717773,0.912144124507904,-1.3631526231765747,-0.8983383178710938,-0.5498135685920715
11.95,2.1267828941345215,-1.3507109880447388,2.1734871864318848,-0.7226765155792236,-1.0659395456314087,0.6019381284713745
12.0,2.606694459915161,1.3304215669631958,2.4343783855438232,-0.22650578618049622,-1.17071533203125,1.1506563425064087
12.05,2.077188730239868,1.5986683368682861,2.342427968978882,0.007747948169708252,-0.44872355461120605,1.1476590633392334
12.1,-0.045511484146118164,0.24495886266231537,0.8367661833763123,-0.13902276754379272,0.5724301934242249,1.3211817741394043
12.15,-0.3340548872947693,-1.2988873720169067,0.016269482672214508,-0.2342931032180786,0.9352628588676453,1.2704013586044312
12.2,0.3950847089290619,-2.184108018875122,-0.17283372581005096,-0.02259993553161621,1.3931816816329956,1.1364282369613647
12.25,-0.4924025237560272,-2.180460214614868,-1.4227914810180664,0.36368435621261597,2.0683250427246094,0.8137226104736328
12.3,-0.638603925704956,-1.4504271745681763,-1.3354240655899048,0.5296197533607483,1.8822060823440552,0.5431662797927856
12.35,-0.433704674243927,-1.4943734407424927,-0.9844900965690613,0.6797646284103394,1.3716858625411987,0.49604281783103943
12.4,-0.5362447500228882,-1.7978270053863525,-0.1776351034641266,0.8746278285980225,1.0250731706619263,0.43215158581733704
12.45,0.39295774698257446,-2.0236284732818604,0.49894651770591736,0.8539760708808899,0.7358646392822266,0.3445410430431366
12.5,0.4842149019241333,-1.914219617843628,0.9130735397338867,0.7628947496414185,1.2574121952056885,0.4151431620121002
12.55,-0.6814432144165039,-1.7293617725372314,0.004784186836332083,0.602262020111084,1.767140507698059,0.6745254993438721
12.6,0.1415044665336609,0.3521023392677307,-0.41272246837615967,0.40271952748298645,1.2268898487091064,0.6254553198814392
12.65,-0.68309086561203,1.9115841388702393,-1.0354734659194946,0.11860190331935883,0.693684458732605,0.5330572724342346
12.7,-2.005707025527954,1.2684869766235352,-0.6469292044639587,0.014943897724151611,-0.08337114006280899,0.5849734544754028
12.75,-1.3215527534484863,0.6641578674316406,-0.5356473326683044,0.16420520842075348,-0.3171726167201996,0.39607805013656616
12.8,-0.2347937524318695,0.271431028842926,-0.9653640389442444,0.18231041729450226,0.35735803842544556,0.12286235392093658
12.85,-0.1080552488565445,1.905787706375122,-0.4095465838909149,0.009533984586596489,0.7536483407020569,0.03668316826224327
12.9,-0.09483933448791504,3.6296019554138184,1.3588716983795166,-0.37518176436424255,0.31588298082351685,0.11195044964551926
12.95,0.19675582647323608,3.532949924468994,1.3583382368087769,-0.21297183632850647,-0.4882066547870636,0.36340832710266113
13.0,-0.8893652558326721,4.046738147735596,-1.0838220119476318,0.34079211950302124,0.6566172242164612,0.4012899100780487
13.05,-3.523022174835205,4.042726039886475,0.7080809473991394,0.7025044560432434,1.281842589378357,0.32006946206092834
13.1,-0.7552797794342041,4.286510944366455,1.5214331150054932,0.2914184033870697,-0.3666515648365021,-0.106770820915699
13.15,-0.963316798210144,3.275871515274048,1.859483242034912,-0.03800945729017258,-0.12491541355848312,-0.26794880628585815
13.2,0.0025554299354553223,3.4524054527282715,1.4751251935958862,0.037916481494903564,0.5289837718009949,-0.3361038267612457
13.25,-0.6825655698776245,3.205040454864502,-0.418720006942749,-0.0033939778804779053,0.3311969041824341,-0.36183837056159973
13.3,-0.41773509979248047,2.388307809829712,-0.979842483997345,-0.01380951702594757,-0.27324914932250977,-0.5243066549301147
13.35,-0.9868699312210083,1.7843505144119263,0.22126318514347076,0.1551733911037445,-0.42940694093704224,-0.7634472250938416
13.4,-1.3707098960876465,0.3517025113105774,2.8646364212036133,-0.26044148206710815,0.6498702764511108,-1.4011356830596924
13.45,1.5626003742218018,2.382192850112915,2.043911933898926,-0.2415645718574524,2.0493898391723633,-1.4376977682113647
13.5,0.5928681492805481,2.0985214710235596,-0.8276944756507874,-0.35331737995147705,2.6897125244140625,-1.5871894359588623
13.55,1.4256635904312134,1.7392497062683105,-2.070875406265259,-0.37530064582824707,1.524903655052185,-1.7657636404037476
13.6,1.3381190299987793,0.22917388379573822,-2.6036596298217773,-1.0481796264648438,-0.28069183230400085,-1.6198811531066895
13.65,2.163853645324707,-1.2606505155563354,-2.4428904056549072,-1.3910024166107178,-1.2243521213531494,-1.3125381469726562
13.7,1.08364737033844,-2.0724711418151855,-1.465203046798706,-1.4899146556854248,-1.2790255546569824,-0.9279659986495972
13.75,0.2883806526660919,-2.686720609664917,-1.005702018737793,-1.535500407218933,-1.131286382675171,-0.7247663736343384
13.8,0.7110980749130249,-3.2192039489746094,-0.6937497854232788,-1.5586045980453491,-1.2204089164733887,-0.5189212560653687
13.85,0.6639546751976013,-3.5180063247680664,0.06211517006158829,-1.4609169960021973,-1.1551660299301147,-0.29714545607566833
13.9,0.2921558618545532,-3.0432491302490234,0.6653174161911011,-1.2521166801452637,-0.9125813245773315,-0.061041004955768585
13.95,-0.5574758052825928,-2.47975754737854,1.037973403930664,-1.1714451313018799,-0.7561855316162109,0.17848733067512512
14.0,-0.7058085203170776,-2.1757166385650635,1.1557424068450928,-1.0595136880874634,-0.8860557675361633,0.3319718837738037
14.05,-0.4154384732246399,-1.9218248128890991,1.5928281545639038,-0.7606515288352966,-1.1061989068984985,0.35966548323631287
14.1,-0.2775493860244751,-1.3197662830352783,2.4780545234680176,-0.3928595781326294,-1.1256136894226074,0.34094300866127014
14.15,-0.271190881729126,-0.48496171832084656,2.8626937866210938,-0.2661662995815277,-1.0378592014312744,0.303728312253952
14.2,0.17595362663269043,-0.20202554762363434,2.5829596519470215,-0.24287588894367218,-0.7392460703849792,0.2998126149177551
14.25,-0.4226277470588684,0.35507768392562866,1.6263543367385864,-0.07414750009775162,-0.1262136995792389,0.3050245940685272
14.3,-0.9245944023132324,0.5622491836547852,0.7493996620178223,0.012944795191287994,0.2046469897031784,0.2439352124929428
14.35,-0.5785592198371887,0.1523866057395935,0.7416311502456665,0.05291185528039932,0.2273886352777481,0.0668446272611618
14.4,-0.26989850401878357,-0.7670556902885437,0.5777900815010071,0.2244906723499298,0.1993815302848816,-0.018924996256828308
14.45,-0.2748952805995941,-1.772951364517212,0.5105172395706177,0.6289347410202026,0.4502863883972168,0.009878192096948624
14.5,-0.5204157829284668,-2.602268934249878,0.2115008533000946,0.8213074207305908,0.6821234226226807,0.049831323325634
14.55,-0.8533746004104614,-2.5416371822357178,-0.34675541520118713,0.5870282649993896,0.8189180493354797,0.017883511260151863
14.6,-1.2622753381729126,-0.9812414050102234,-0.4781351089477539,-0.011724581941962242,0.6959362626075745,0.0015964667545631528
14.65,-0.6505353450775146,-0.528762936592102,0.44979360699653625,-0.5820056200027466,-0.08468718826770782,0.05094834417104721
14.7,0.08079302310943604,-1.472353219985962,1.6066838502883911,-0.323588103055954,-0.4353298842906952,0.31329774856567383
14.75,-1.5023545026779175,-2.405799388885498,1.0769453048706055,0.3100295960903168,0.24013876914978027,0.4435693323612213
14.8,-3.151012659072876,-2.714761257171631,0.14905110001564026,0.5686143636703491,0.7561849355697632,0.2899100184440613
14.85,-1.9554840326309204,-2.2153406143188477,0.22415585815906525,-0.24801895022392273,0.05401813983917236,0.1891019642353058
14.9,-0.20682939887046814,-0.5335970520973206,0.06068174168467522,-1.2702522277832031,-0.5828551054000854,0.5333213210105896
14.95,2.2337727546691895,3.4493184089660645,0.5165331959724426,-1.5143241882324219,0.1827504187822342,0.7054070234298706
15.0,2.1614651679992676,4.375878810882568,-0.7459281086921692,-1.3514955043792725,1.1615835428237915,0.5413785576820374
15.05,1.384419560432434,1.9904273748397827,-0.716158390045166,-0.8884899616241455,1.485548496246338,0.22863228619098663
15.1,1.9492695331573486,0.45686644315719604,-0.25773200392723083,-0.5237835645675659,1.7748403549194336,-0.40425390005111694
15.15,2.3056282997131348,-0.15075954794883728,-0.7545225620269775,-0.43008649349212646,2.1242027282714844,-0.9991118311882019
15.2,2.290116310119629,-0.02018626406788826,-0.6145639419555664,-0.48709410429000854,1.9606114625930786,-0.7778201103210449
15.25,0.0385248064994812,0.29556089639663696,-0.8918905258178711,-0.6833970546722412,1.7947494983673096,-0.223530575633049
15.3,-0.12264859676361084,2.047487497329712,-1.3655893802642822,-0.676078736782074,1.4234071969985962,0.1694573312997818
15.35,-0.0910274088382721,2.6140196323394775,-0.9484596848487854,-0.511165201663971,1.0811766386032104,0.32861265540122986
15.4,0.8393871784210205,3.0229010581970215,-1.3937995433807373,-0.24886904656887054,1.0507755279541016,0.138633593916893
15.45,-0.11156892776489258,3.989719867706299,-0.9287953972816467,0.13248507678508759,1.0902966260910034,0.08566294610500336
15.5,-0.7313679456710815,4.3215651512146,0.02719145454466343,0.5286961793899536,0.6873249411582947,0.3037258982658386
15.55,-1.4135009050369263,5.502248287200928,0.28928637504577637,0.6786904335021973,0.6274116039276123,0.11269481480121613
15.6,-1.9958125352859497,5.41138219833374,0.8582094311714172,0.30053216218948364,0.38336750864982605,-0.021168576553463936
15.65,-1.0333771705627441,4.837229251861572,0.49455204606056213,-0.2044985592365265,-0.2351822853088379,0.06789620965719223
15.7,-0.49657490849494934,3.866881847381592,-0.3000440001487732,-0.715843915939331,-0.42831671237945557,-0.0913153886795044
15.75,-0.26815319061279297,1.9182941913604736,-0.8342419862747192,-0.9845587015151978,-0.5670496821403503,-0.1642470508813858
15.8,-0.03464150428771973,0.9698907732963562,-1.7172850370407104,-1.0191879272460938,-0.6919265389442444,-0.17211566865444183
15.85,-0.2556648254394531,0.0582333467900753,-1.9788579940795898,-0.9565929174423218,-0.7396482825279236,-0.022243019193410873
15.9,0.1469937562942505,-0.9392939209938049,-1.2874215841293335,-0.6967661380767822,-1.0524446964263916,0.2863357365131378
15.95,0.2518244981765747,-1.4871150255203247,-0.5131864547729492,-0.18789124488830566,-1.3180150985717773,0.3675002157688141
16.0,0.49006086587905884,-2.0174152851104736,-0.2486068606376648,0.47435101866722107,-1.5216329097747803,0.2232983559370041
16.05,0.7465686798095703,-1.0084857940673828,-1.1031464338302612,1.1155027151107788,-1.7127126455307007,-0.037902601063251495
16.1,0.885787844657898,0.7180167436599731,-0.2988353669643402,1.376428484916687,-1.9660874605178833,-0.32645532488822937
16.15,1.273756980895996,0.04767328128218651,0.5772615075111389,1.3780219554901123,-2.3076071739196777,-0.32484859228134155
16.2,2.3303189277648926,-0.3817605972290039,1.8001255989074707,1.7829269170761108,-2.4941415786743164,-0.17257654666900635
16.25,3.3099594116210938,-2.164792776107788,3.4453251361846924,2.2852487564086914,-1.5590524673461914,-0.3223607540130615
16.3,-0.5547674894332886,-2.9491589069366455,1.7131469249725342,2.0060839653015137,-0.2941334545612335,-0.16916199028491974
16.35,1.3497354984283447,-4.766067981719971,2.535874605178833,0.7078680992126465,-0.7105420231819153,-0.5626446008682251
16.4,2.734743118286133,-5.0912766456604,2.5447494983673096,-0.01615583896636963,-0.24337898194789886,-0.9533448815345764
16.45,2.030449867248535,-2.767096757888794,2.1629607677459717,0.04692080616950989,0.5522838234901428,-0.7064576745033264
16.5,0.8065478801727295,0.4100332260131836,2.0563342571258545,-0.04778183996677399,0.5852678418159485,0.08480622619390488
16.55,0.09318053722381592,3.7708818912506104,2.813811779022217,0.0068818628787994385,0.5153270363807678,0.9548909664154053
16.6,-2.26646089553833,4.394197463989258,3.001091957092285,0.16858983039855957,0.9471104145050049,1.2744776010513306
16.65,-3.4173054695129395,1.7199478149414062,1.4515784978866577,0.07416874170303345,2.145580530166626,0.5612543225288391
16.7,-3.568582057952881,-0.24770189821720123,0.38764306902885437,-0.05481646955013275,2.7230026721954346,-0.4740169942378998
16.75,-2.566652536392212,-2.079918384552002,-0.024476325139403343,-0.48812711238861084,1.9357938766479492,-0.7182013988494873
16.8,-1.8024810552597046,-2.600707530975342,0.3313707411289215,-0.6062716245651245,1.0972180366516113,-0.43111541867256165
16.85,-1.4455063343048096,-1.9424432516098022,-0.11353334039449692,-0.5137096643447876,0.8951092958450317,0.045157961547374725
16.9,-1.2047659158706665,-0.4479580819606781,-1.0461702346801758,-0.3965412974357605,0.9219841957092285,0.5435964465141296
16.95,-0.927675187587738,-1.243526577949524,-1.0775377750396729,-0.48083779215812683,0.7863842844963074,0.9154838919639587
17.0,-0.9722630977630615,-1.5521175861358643,-0.8693745136260986,-0.41503676772117615,0.6858764290809631,1.2033815383911133
17.05,-0.7959253191947937,-0.08310795575380325,-1.0609596967697144,-0.5782833099365234,0.36847031116485596,1.520962119102478
17.1,-0.6613812446594238,-0.13970662653446198,-0.9528496265411377,-0.36455750465393066,-0.6362066864967346,1.6900898218154907
17.15,0.855357825756073,0.0060377889312803745,-0.5657107830047607,0.13858604431152344,-1.2634375095367432,1.3806322813034058
17.2,-0.38581135869026184,0.7815514802932739,-0.25759825110435486,0.5736302733421326,-0.8356510400772095,0.7112231850624084
17.25,-0.6575424671173096,1.460969090461731,-0.5847263336181641,0.747660756111145,-1.1029748916625977,0.2693914473056793
17.3,1.009628176689148,1.743322730064392,-0.3758818507194519,0.728227972984314,-2.0736794471740723,0.09931810945272446
17.35,1.952704906463623,0.16597376763820648,0.6423822641372681,0.8301361799240112,-2.2942302227020264,0.15092752873897552
17.4,1.768325686454773,0.2601633667945862,1.3777475357055664,1.1255489587783813,-1.9239380359649658,0.12025908380746841
17.45,2.2193470001220703,1.0650397539138794,2.620734214782715,1.1316845417022705,-1.9205819368362427,-0.17441660165786743
17.5,1.6130502223968506,1.0244112014770508,4.002511024475098,0.8596319556236267,-1.8961008787155151,-0.07701721042394638
17.55,0.5678050518035889,1.127628207206726,4.846637725830078,0.30305731296539307,-1.3755007982254028,0.00022679749235976487
17.6,-0.5381420850753784,0.5951947569847107,1.9147471189498901,-0.48798346519470215,-0.28976133465766907,-0.04282496124505997
17.65,-1.4640530347824097,0.5682165026664734,-3.7517027854919434,-0.4461129903793335,0.39663106203079224,-0.4106115698814392
17.7,-2.621964454650879,1.486303448677063,-3.107705593109131,0.8705642223358154,0.5846301317214966,-0.7942628860473633
17.75,2.129906177520752,0.009782844223082066,1.5218582153320312,1.3046680688858032,0.11230258643627167,-1.0027856826782227
17.8,1.396944522857666,-0.529757559299469,1.2217761278152466,0.8741963505744934,0.6046693921089172,-0.5654283761978149
17.85,1.4065428972244263,-0.9121819734573364,1.11045241355896,-0.13787786662578583,-0.43995338678359985,-0.30231577157974243
17.9,2.012157678604126,-0.5511798858642578,1.8376438617706299,-0.9857852458953857,-1.1533987522125244,-0.06491711735725403
17.95,0.5351486802101135,0.03017040528357029,1.5179853439331055,-1.0423208475112915,-0.62381911277771,0.3365403711795807
18.0,-0.8523488640785217,0.6768035292625427,1.1858855485916138,-0.6365968585014343,0.12264316529035568,0.49772152304649353
18.05,-0.8617863655090332,-0.5623418688774109,1.376581072807312,-0.17642435431480408,0.538652241230011,0.36539241671562195
18.1,-0.39906471967697144,-1.166011095046997,1.1179224252700806,0.210528165102005,1.2848378419876099,0.1121135726571083
18.15,-0.41985926032066345,0.48525717854499817,0.309220552444458,0.2597624361515045,1.8568788766860962,-0.07393287867307663
18.2,-0.7979580163955688,1.7623798847198486,-0.33204978704452515,-0.020040560513734818,1.4955765008926392,0.00537679111585021
18.25,-1.7411531209945679,0.7207545638084412,-0.1711273193359375,-0.06687057018280029,0.4976416528224945,0.2663615643978119
18.3,-0.2692808508872986,0.16862769424915314,0.823908269405365,0.29022136330604553,0.10690342634916306,0.13448388874530792
18.35,-0.6845434308052063,0.3936757743358612,0.8448972702026367,0.5625545978546143,0.7392508387565613,-0.07316327840089798
18.4,-0.7638464570045471,0.5262231826782227,0.9313579797744751,0.4739041328430176,0.7292106747627258,-0.2637411057949066
18.45,-0.22505012154579163,0.3330974280834198,1.0650402307510376,0.26053139567375183,0.22654958069324493,-0.3013378083705902
18.5,-0.14051422476768494,0.4430828094482422,0.998565673828125,0.25155845284461975,0.336078405380249,-0.2762157618999481
18.55,-0.4540747404098511,0.11539167165756226,0.951647162437439,0.2387768030166626,0.46304216980934143,-0.22952057421207428
18.6,0.057807087898254395,-0.28878793120384216,1.154015064239502,0.13505586981773376,0.43720680475234985,-0.26342374086380005
18.65,0.06425514817237854,-0.41645535826683044,0.9267353415489197,0.015382476150989532,0.6267487406730652,-0.21722300350666046
18.7,-0.08523114025592804,-0.027353307232260704,0.25297829508781433,-0.0898103266954422,0.7937611937522888,-0.06494540721178055
18.75,-0.5333124399185181,0.1906290054321289,-0.09743840992450714,-0.22794945538043976,0.6744179129600525,0.15175864100456238
18.8,-0.5795919895172119,0.26921558380126953,-0.341202050447464,-0.3237910568714142,0.42517223954200745,0.3154289126396179
18.85,-0.6754820346832275,0.36226367950439453,-0.4075622260570526,-0.30172064900398254,0.37567225098609924,0.3644471764564514
18.9,-1.046873927116394,0.19673728942871094,-0.5362699031829834,-0.3265475630760193,0.24861276149749756,0.35272279381752014
18.95,-0.8439488410949707,0.15436744689941406,-0.7097065448760986,-0.38302886486053467,-0.16512708365917206,0.3119766116142273
19.0,-0.5522568225860596,0.053078655153512955,-0.5841633081436157,-0.44458991289138794,-0.6448522210121155,0.25506845116615295
19.05,0.0557166263461113,-0.0356597825884819,-0.19301286339759827,-0.39129939675331116,-1.1243987083435059,0.18611407279968262
19.1,0.5698174834251404,-0.0787801593542099,0.20526164770126343,-0.26214274764060974,-1.445776343345642,0.05720053240656853
19.15,0.7835559844970703,-0.11133956909179688,0.6843160390853882,-0.13094016909599304,-1.4984726905822754,-0.01602989435195923
19.2,0.4103275239467621,0.07731342315673828,0.6590856313705444,-0.05571667477488518,-1.4938920736312866,-0.031081199645996094
19.25,0.02004939317703247,0.19355584681034088,0.4590185284614563,-0.02435971237719059,-1.6358451843261719,-0.07805793732404709
19.3,-0.24433055520057678,0.40195944905281067,0.07021139562129974,0.1367875039577484,-1.6720730066299438,-0.2440534383058548
19.35,-0.09877470135688782,1.0470620393753052,0.2515246570110321,0.4701569974422455,-1.5853110551834106,-0.435445636510849
19.4,0.6789183616638184,1.134456753730774,1.3155980110168457,0.6754246950149536,-1.6351840496063232,-0.4528125524520874
19.45,1.157943844795227,-0.003495273180305958,2.643235683441162,0.7592144012451172,-1.36178719997406,-0.3116830885410309
19.5,0.6349816918373108,-0.7795050144195557,2.823108434677124,0.7693467140197754,-0.7969516515731812,-0.005118131637573242
19.55,0.44716453552246094,-0.9025280475616455,2.928990602493286,0.610398530960083,-0.41352179646492004,0.19090135395526886
19.6,0.3536332845687866,-0.3731929361820221,3.2194766998291016,0.32839202880859375,-0.09338001906871796,0.27542465925216675
19.65,-0.000984787940979004,0.35226142406463623,2.8829023838043213,0.0485263466835022,0.39043641090393066,0.35225924849510193
19.7,-0.47059857845306396,0.6589497923851013,2.0077121257781982,-0.1877119541168213,0.9440528154373169,0.3371695280075073
19.75,-0.4526287317276001,0.5637511610984802,1.4614020586013794,-0.3252416253089905,1.380271077156067,0.18255405128002167
19.8,0.05874323844909668,0.9940147995948792,1.3082479238510132,-0.5003427863121033,1.6175541877746582,0.002350257243961096
19.85,0.8168543577194214,0.9416714906692505,0.4731791019439697,-0.8351382613182068,1.8992030620574951,-0.09942946583032608
19.9,0.08361870050430298,0.24106605350971222,-1.001716136932373,-1.0524051189422607,2.0222089290618896,-0.04548117518424988
19.95,-0.35380256175994873,-0.4850606918334961,-1.8085311651229858,-1.065454363822937,1.8593510389328003,-0.01611528918147087
20.0,-0.3236895203590393,-0.03702728450298309,-2.0854687690734863,-1.1435418128967285,1.3235231637954712,-0.10191752761602402
20.05,0.5809064507484436,0.07310117781162262,-2.03391695022583,-1.1953973770141602,0.4772476851940155,0.2084353268146515
20.1,0.9133042097091675,-0.2858552038669586,-1.358462929725647,-0.8689237833023071,0.3498578667640686,0.4787387549877167
20.15,0.9322125911712646,-0.27833452820777893,-1.4057555198669434,-0.5447238683700562,0.5309473872184753,0.5525497794151306
20.2,0.6871327757835388,-0.0894707515835762,-1.7275440692901611,-0.35813653469085693,0.8018954396247864,0.6112709641456604
20.25,0.08826464414596558,-0.012760062702000141,-2.067230463027954,-0.31108027696609497,0.9006077647209167,0.8103910684585571
20.3,-0.8134934902191162,-0.2595157325267792,-2.039808750152588,-0.29199329018592834,0.5532511472702026,1.1507035493850708
20.35,-1.925295352935791,-0.8424226641654968,-1.2795151472091675,0.03104269504547119,-0.002418368589133024,1.2985483407974243
20.4,-1.1890363693237305,-0.4535456895828247,-0.41304826736450195,0.4803480803966522,-0.5341256260871887,0.9708188772201538
20.45,-0.8729549050331116,0.5275678634643555,0.5621430277824402,0.744952917098999,-0.23818965256214142,0.2671743333339691
20.5,-0.9811452627182007,1.1143999099731445,1.0667299032211304,0.7683046460151672,-0.06640809774398804,-0.19010034203529358
20.55,-0.2806882858276367,0.7926912903785706,1.433098554611206,0.5626983046531677,-0.5457865595817566,-0.25973695516586304
20.6,1.3625863790512085,0.5934735536575317,0.9655888676643372,0.33681821823120117,-0.8583943843841553,-0.2662855088710785
20.65,0.5330287218093872,-0.3564005196094513,0.49496597051620483,0.3425319790840149,-0.3257557451725006,-0.4213208258152008
20.7,-0.016499966382980347,-0.4418230652809143,0.09378005564212799,0.4521321654319763,0.08526463806629181,-0.5799884796142578
20.75,-0.1828068494796753,-0.12502959370613098,0.021869627758860588,0.5468540191650391,0.12297279387712479,-0.7121362686157227
20.8,0.6993183493614197,0.3879185616970062,0.44814014434814453,0.5618641376495361,-0.07922987639904022,-0.7347589731216431
20.85,1.2878570556640625,0.4059869050979614,0.624505341053009,0.4428742229938507,-0.06171286478638649,-0.6060317754745483
20.9,0.43308699131011963,0.26146891713142395,0.6199711561203003,0.37314143776893616,0.16743920743465424,-0.3196536600589752
20.95,-0.005251556634902954,0.1404857486486435,0.6291627883911133,0.24612107872962952,-0.01724354177713394,-0.0574197843670845
21.0,0.5279808044433594,0.2122040092945099,0.6701145172119141,0.1708700805902481,-0.12215223908424377,0.07001274079084396
21.05,0.7096110582351685,0.4318457543849945,0.5346848368644714,0.1382749080657959,0.2117312103509903,0.09107879549264908
21.1,0.2313564419746399,0.703886091709137,0.31574681401252747,0.04390781745314598,0.5153705477714539,0.14313377439975739
21.15,0.1042228490114212,0.5299654603004456,0.21879877150058746,-0.08844815194606781,0.4450088143348694,0.2133995145559311
21.2,0.3650209903717041,0.10999681800603867,0.25892314314842224,-0.18035158514976501,0.4118116796016693,0.254273921251297
21.25,0.11430785059928894,0.02207852713763714,-0.08215396106243134,-0.21774563193321228,0.4702453911304474,0.20707391202449799
21.3,-0.0644778460264206,0.1491556316614151,-0.001278659445233643,-0.18518371880054474,0.4826567471027374,0.07293111830949783
21.35,0.2170567810535431,-0.12400149554014206,-0.15269704163074493,-0.21620310842990875,0.2048555463552475,-0.04662574082612991
21.4,-0.35130393505096436,-0.07195569574832916,-0.23422253131866455,-0.25946348905563354,-0.1305244117975235,-0.26569634675979614
21.45,0.47304993867874146,-0.201625794172287,-0.7397750020027161,-0.12583960592746735,-0.22409896552562714,-0.49977871775627136
21.5,0.31469962000846863,-0.056168511509895325,-0.7051180005073547,0.11911356449127197,-0.007482361048460007,-0.5872218608856201
21.55,0.913314163684845,0.09918413311243057,-0.5611245632171631,0.14293022453784943,0.0419919528067112,-0.4390212893486023
21.6,0.3369666635990143,0.12920860946178436,-0.2590460777282715,0.06041939929127693,-0.04219203069806099,-0.15613240003585815
21.65,1.3652992248535156,0.21312914788722992,0.16586662828922272,-0.05766240134835243,-0.3572959005832672,0.1527942419052124
21.7,1.0904765129089355,1.3650943040847778,0.6282716989517212,-0.13048478960990906,0.04192991927266121,0.4041638970375061
21.75,-0.49305805563926697,0.7807503342628479,0.8341288566589355,-0.11202338337898254,0.40176618099212646,0.6221327185630798
21.8,-0.5747692584991455,0.3916787803173065,1.2894651889801025,-0.10191060602664948,0.34757718443870544,0.5635274648666382
21.85,-1.4472650289535522,0.18072403967380524,0.630611777305603,-0.11196389049291611,0.8389992713928223,0.19727887213230133
21.9,-2.2830917835235596,0.6189908385276794,-0.07159598171710968,-0.2135213166475296,1.230333685874939,-0.14624297618865967
21.95,-2.9730753898620605,0.16828906536102295,-0.7055791616439819,-0.36510908603668213,0.8910720944404602,-0.24063026905059814
22.0,-2.6226377487182617,-0.04270755872130394,-0.8845732808113098,-0.4077181816101074,-0.1211983859539032,-0.1501726657152176
22.05,-1.480758786201477,0.3274526298046112,-0.34868308901786804,-0.29771873354911804,-0.8491241335868835,-0.09571895748376846
22.1,-1.5181663036346436,0.4655742347240448,0.2488289177417755,-0.12734171748161316,-1.000057339668274,-0.20242513716220856
22.15,-1.1543822288513184,0.7609500885009766,0.7722833752632141,-0.07641817629337311,-1.02412748336792,-0.4673100411891937
22.2,-0.3301525115966797,0.46254730224609375,0.5870736241340637,-0.1965762823820114,-0.9948599338531494,-0.6424034237861633
22.25,0.5557020902633667,-0.9670506715774536,1.1256197690963745,-0.22659270465373993,-0.7047498226165771,-0.6802679300308228
22.3,1.1573786735534668,0.009957307018339634,1.5942456722259521,0.18328280746936798,-0.5084459781646729,-0.4632453918457031
22.35,0.5552656650543213,-1.4360581636428833,1.1460249423980713,-0.4033747911453247,-0.8317939043045044,0.05773943290114403
22.4,-0.2103610634803772,-0.2214852124452591,0.7439108490943909,0.20910102128982544,-0.4526388943195343,-0.17038662731647491
22.45,0.09424072504043579,0.27855396270751953,0.6588459610939026,0.5934495329856873,-0.04358585178852081,-0.3337278366088867
22.5,-0.9355788826942444,0.2658681273460388,0.6462320685386658,0.5625283718109131,0.07012678682804108,-0.14395342767238617
22.55,0.06163156032562256,-0.00918489322066307,1.2519676685333252,0.021631665527820587,-0.45376092195510864,0.16717806458473206
22.6,0.062136948108673096,-0.017786076292395592,1.1037156581878662,-0.24688556790351868,-0.3439823389053345,0.21288789808750153
22.65,-0.4432833790779114,0.47216320037841797,0.7310643792152405,-0.29894545674324036,-0.17122678458690643,0.13865496218204498
22.7,-0.26149654388427734,1.501537561416626,0.15207873284816742,-0.406639039516449,-0.36728307604789734,0.08486765623092651
22.75,0.5304076671600342,0.7238723039627075,-0.2285946011543274,-0.5405588150024414,-0.3824275732040405,0.07154181599617004
22.8,-0.7198034524917603,-1.0370732545852661,-0.4241965115070343,-0.4204011559486389,0.17451806366443634,0.05223244056105614
22.85,-0.7475635409355164,-0.8184901475906372,-0.7821536660194397,-0.39422276616096497,0.05046607926487923,0.073218934237957
22.9,-0.046581774950027466,0.49309930205345154,-0.6183053851127625,-0.4484739601612091,-0.6727173328399658,0.37366974353790283
22.95,0.5561203360557556,0.48176300525665283,-0.34982848167419434,-0.516879677772522,-1.230180263519287,0.6742642521858215
23.0,-0.6022012233734131,0.48024943470954895,-0.18583400547504425,-0.2191307097673416,-0.6970428228378296,0.6305908560752869
23.05,-1.6180341243743896,-0.03872780129313469,-1.1938526630401611,0.16962718963623047,-0.06761247664690018,-0.05765023082494736
23.1,0.39507925510406494,0.3416186273097992,-0.8372058868408203,0.15982164442539215,0.15038198232650757,-0.4839823246002197
23.15,0.7876681089401245,0.2379246950149536,-0.9836283922195435,0.11542466282844543,0.290493905544281,-0.4225941598415375
23.2,0.7722358107566833,-0.05551808699965477,-0.542729377746582,0.18082642555236816,-0.19604916870594025,0.03205777704715729
23.25,1.0002790689468384,-0.36935800313949585,-0.6010778546333313,0.16458529233932495,-0.4266182780265808,0.3592595160007477
23.3,-0.8976752758026123,-0.014290839433670044,-0.5249887704849243,0.2766759991645813,-0.45361313223838806,0.4813556373119354
23.35,-0.09236924350261688,0.8183537721633911,0.13155138492584229,0.21366648375988007,-0.610890805721283,0.2270774394273758
23.4,-0.3860781192779541,1.0994187593460083,0.013371579349040985,0.2593271732330322,-0.3356272578239441,-0.00217273342423141
23.45,-0.0033334121108055115,0.7175808548927307,0.08407600969076157,0.29267776012420654,-0.39796194434165955,-0.17999020218849182
23.5,0.19078904390335083,0.7243652939796448,-0.0012982171028852463,0.27886876463890076,-0.4428568184375763,-0.3027610778808594
23.55,0.21570122241973877,0.3337602913379669,0.010006423108279705,0.15038040280342102,-0.48030951619148254,-0.2805658280849457
23.6,0.28018784523010254,-0.15624523162841797,0.17283253371715546,0.09572629630565643,-0.4746072590351105,-0.25849077105522156
23.65,0.6901198625564575,0.09389691799879074,0.01953691989183426,0.2156122773885727,-0.37053385376930237,-0.26661109924316406
23.7,-0.009360600262880325,0.13863660395145416,-0.10381326824426651,0.13840165734291077,-0.7610959410667419,-0.22359488904476166
23.75,1.3282585144042969,0.3510161340236664,0.4199913740158081,0.007248580455780029,-1.4143179655075073,-0.0621471107006073
23.8,0.19876420497894287,0.7313871383666992,1.036889672279358,0.012194553390145302,-1.1870099306106567,0.013138447888195515
23.85,0.4483471214771271,-0.25208383798599243,1.3671330213546753,0.02285967394709587,-1.207411289215088,-0.14396533370018005
23.9,0.057200610637664795,-0.3292590081691742,1.4014736413955688,0.19285617768764496,-0.8013333082199097,-0.18619318306446075
23.95,0.8519762754440308,-0.004922895692288876,1.6694941520690918,0.35280928015708923,-0.43312010169029236,-0.08387687057256699
24.0,0.7799556255340576,0.615391731262207,1.609079122543335,0.2343272864818573,-0.23096944391727448,0.07432226836681366
24.05,-1.0988588333129883,0.23945988714694977,1.3693416118621826,-0.1197376400232315,-0.29140880703926086,0.33019012212753296
24.1,-2.5949573516845703,0.8496150374412537,0.36478883028030396,-0.39299464225769043,0.15994852781295776,0.1684257984161377
24.15,-2.3244998455047607,0.38456904888153076,0.8896774053573608,-0.43235042691230774,0.7296091914176941,-0.41076987981796265
24.2,2.2881951332092285,-0.7889605164527893,0.9821231365203857,-0.15143916010856628,1.5465575456619263,-0.8554887771606445
24.25,0.2848294973373413,-1.060957908630371,-2.923253297805786,0.36314964294433594,2.350764751434326,-0.20182886719703674
24.3,-2.5975635051727295,0.14005951583385468,-3.9856696128845215,-0.24914176762104034,0.8245956897735596,0.5517817139625549
24.35,-0.8285754919052124,-0.17341136932373047,-1.2757213115692139,-1.4946982860565186,-2.410667896270752,1.1991024017333984
24.4,-1.0915933847427368,2.0777244567871094,3.4323763847351074,-1.756494164466858,-3.314661741256714,1.4142978191375732
24.45,-4.183681488037109,2.6554088592529297,-0.3153046667575836,-0.7040342092514038,0.1070438027381897,-0.05473735183477402
24.5,0.37195494771003723,0.36124899983406067,0.3648481070995331,-0.22568818926811218,0.6345441341400146,-1.203189492225647
24.55,-0.3250243365764618,-0.5679712891578674,-0.4770682454109192,-0.3222450613975525,0.210902601480484,-0.620667576789856
24.6,-0.73368239402771,0.8776503205299377,0.2731006145477295,-0.7909290194511414,-0.34962141513824463,-0.21769356727600098
24.65,-1.018308162689209,0.740753173828125,0.5157707333564758,-0.9918732643127441,0.13740912079811096,-0.2666699290275574
24.7,1.151953101158142,-2.5456573963165283,0.5591365694999695,-0.19955790042877197,1.062926173210144,-0.8802629113197327
24.75,-0.6794468760490417,-0.6622781753540039,-2.5009775161743164,0.7784543633460999,1.1889735460281372,-0.19358545541763306
24.8,-1.4050413370132446,2.481516122817993,0.09621340781450272,0.17740678787231445,-0.024600166827440262,0.5543950796127319
24.85,-2.374572515487671,2.3013038635253906,0.40708136558532715,-0.7124441862106323,-0.304004430770874,0.49363261461257935
24.9,2.1844322681427,-1.6710426807403564,2.0248301029205322,-0.2313573807477951,0.5973514914512634,-0.5171054005622864
24.95,-0.1999584436416626,-0.7222546935081482,-2.778991222381592,1.2393826246261597,1.9106477499008179,-0.8329077959060669
25.0,-2.8180692195892334,0.347900390625,-3.1771061420440674,0.9196028709411621,0.9052344560623169,-0.17328692972660065
25.05,-0.9845172762870789,0.3679647743701935,-1.5310951471328735,-0.18183283507823944,-1.058902382850647,0.6288989186286926
25.1,-0.10464447736740112,0.40931418538093567,0.5987008810043335,-0.1185048371553421,-1.243847370147705,0.4509095251560211
25.15,-1.0002357959747314,0.45183470845222473,-0.5428057312965393,0.7143034934997559,-0.2723952829837799,-0.13321708142757416
25.2,-0.7216454744338989,0.48745638132095337,-1.0947697162628174,0.9877520799636841,-0.4159504175186157,-0.22772565484046936
25.25,-0.10700632631778717,0.1279001384973526,-0.23936140537261963,0.7422386407852173,-1.08572518825531,-0.13936828076839447
25.3,0.18358376622200012,0.028400424867868423,0.2209882289171219,0.407855749130249,-1.4411736726760864,-0.006524580996483564
25.35,0.17985141277313232,0.18461132049560547,0.4421904385089874,0.13446937501430511,-1.5958927869796753,0.11236009746789932
25.4,-0.09635674953460693,0.6188592910766602,0.7786806225776672,-0.0450299009680748,-1.621705412864685,0.22105975449085236
25.45,-0.6711586713790894,0.5948390960693359,0.9597771167755127,-0.15519309043884277,-1.368181824684143,0.1681549996137619
25.5,-1.0534693002700806,0.7858667373657227,1.4449751377105713,-0.158360555768013,-0.9760875701904297,-0.012891752645373344
25.55,-0.6962376236915588,0.32648465037345886,0.09291093796491623,-0.013492703437805176,-0.36764559149742126,-0.17193056643009186
25.6,-0.6916502714157104,-0.3409768044948578,0.23489946126937866,-0.4671902060508728,-0.672847330570221,-0.36575937271118164
25.65,0.2406267672777176,-0.5562506318092346,0.19326479732990265,-0.09645606577396393,-0.6549873352050781,-0.25703972578048706
25.7,0.07577873021364212,-0.22762776911258698,-0.07705932855606079,0.6579357385635376,0.10086538642644882,0.01744268089532852
25.75,-0.38857996463775635,0.04173945635557175,-0.26585909724235535,0.5689259171485901,0.014232924208045006,0.30213844776153564
25.8,-0.6321187019348145,-0.006148446351289749,1.5028597116470337,0.059351809322834015,-0.4674444794654846,0.31708863377571106
25.85,-1.0173776149749756,-0.025262001901865005,1.270047903060913,0.04488968849182129,-0.07474716007709503,0.2744823098182678
25.9,-0.9053530693054199,-0.27694714069366455,0.8289329409599304,0.06370426714420319,0.3536786437034607,0.20829686522483826
25.95,-0.7820133566856384,-0.13987740874290466,0.6025013327598572,-0.06981457769870758,0.536296546459198,0.16169817745685577
26.0,-0.5543397665023804,0.23357483744621277,0.7332162857055664,-0.3048021197319031,0.4455808401107788,0.2237151861190796
26.05,-0.7006109952926636,0.36249440908432007,0.757179319858551,-0.3432362675666809,0.5525366067886353,0.33012181520462036
26.1,-0.8783085942268372,0.5842494964599609,0.7300225496292114,-0.26998797059059143,0.8630131483078003,0.31694328784942627
26.15,-0.7079171538352966,0.44338226318359375,0.38767579197883606,-0.24726331233978271,1.1071964502334595,0.10809281468391418
26.2,-0.5086218118667603,0.4326372444629669,-0.005651695188134909,-0.2940189838409424,1.2415424585342407,-0.048219773918390274
26.25,-0.30146682262420654,0.5507813096046448,-0.6870359778404236,-0.4527721107006073,1.3076046705245972,-0.08479804545640945
26.3,-0.4525938630104065,0.06914713233709335,-0.881208062171936,-0.6675198078155518,1.3685396909713745,-0.009291398338973522
26.35,-0.5678768754005432,0.9062424898147583,-1.1052675247192383,-0.4961080849170685,1.5228567123413086,0.0865345373749733
26.4,-1.2863749265670776,0.5355978608131409,-1.1334176063537598,0.029157716780900955,1.3992387056350708,0.002902606502175331
26.45,-0.774219810962677,-0.7909422516822815,-1.8374674320220947,-0.07683127373456955,0.032720498740673065,0.16718794405460358
26.5,0.8980493545532227,-0.11148922890424728,-0.5963321924209595,-0.08640264719724655,-0.3573395013809204,0.30890676379203796
26.55,-1.116231083869934,-0.08880902081727982,-1.3417348861694336,0.309115469455719,-0.2734306752681732,-0.06929817795753479
26.6,0.9258577823638916,1.084767460823059,0.9983481764793396,0.7648265361785889,0.0007400859612971544,-0.4275023341178894
26.65,0.2073194980621338,0.2470264881849289,0.0020843108650296926,0.9988231658935547,0.6319116950035095,-0.5392082333564758
26.7,0.8025953769683838,0.5031748414039612,0.7298513650894165,0.7046027779579163,0.03241109848022461,-0.29397639632225037
26.75,0.5303700566291809,0.7289896607398987,1.0910850763320923,0.4127994775772095,-0.3552691340446472,-0.15198324620723724
26.8,0.7971009016036987,0.09835716336965561,2.1105995178222656,0.38591694831848145,-0.26961857080459595,-0.06796441227197647
26.85,0.2255920171737671,-0.3842717111110687,1.1860859394073486,0.4686000943183899,0.3867816627025604,-0.14150628447532654
26.9,0.1401159167289734,-0.19668297469615936,0.5881944298744202,0.13295333087444305,0.5876744389533997,-0.1455637514591217
26.95,0.2959356904029846,-0.2313699871301651,0.15297281742095947,-0.3297395706176758,0.43507084250450134,-0.04977738484740257
27.0,0.47959667444229126,-0.13845156133174896,-0.16783997416496277,-0.48560458421707153,0.32345083355903625,0.033800505101680756
27.05,-0.05991367995738983,0.010702156461775303,-0.556294858455658,-0.3814106285572052,0.34189850091934204,0.10666105151176453
27.1,-0.4556468427181244,-0.2712755501270294,-0.5618022084236145,-0.29307061433792114,0.15656356513500214,0.23869101703166962
27.15,-0.2840191125869751,-0.18711473047733307,-0.3828287124633789,-0.19531260430812836,0.03940487653017044,0.3107641339302063
27.2,-0.36148008704185486,-0.04036617651581764,-0.4679163098335266,-0.1260334700345993,0.05765830725431442,0.30052071809768677
27.25,-0.17775869369506836,0.2104978710412979,-0.05413850396871567,-0.02854181081056595,-0.0020304236095398664,0.25155192613601685
27.3,0.07946398854255676,0.622709333896637,0.6605163216590881,0.17530539631843567,0.03791005164384842,0.1627994179725647
27.35,-0.4934176504611969,1.8485623598098755,0.9554935097694397,0.344476580619812,0.3400924801826477,0.022636543959379196
27.4,-1.190736174583435,1.649760365486145,1.9323729276657104,0.36014220118522644,0.38977110385894775,-0.07130555808544159
27.45,-0.9127710461616516,3.4023993015289307,2.524167537689209,0.19201169908046722,0.7517649531364441,-0.4759805202484131
27.5,-0.7692133188247681,1.0667572021484375,1.6697916984558105,-0.18840458989143372,1.0720666646957397,-0.7955280542373657
27.55,0.41303861141204834,-2.0292818546295166,1.020462155342102,-0.5208662152290344,0.836670458316803,-0.7779324650764465
27.6,1.558457374572754,-1.7101527452468872,0.11788474768400192,-0.7422943115234375,1.1738567352294922,-0.5562871098518372
27.65,0.6700750589370728,-0.9800739288330078,-1.1972099542617798,-1.0371735095977783,1.0073485374450684,0.048484548926353455
27.7,0.18302643299102783,-1.2876073122024536,-1.0346757173538208,-0.9464544653892517,-0.05861871689558029,1.0285314321517944
27.75,0.8471125960350037,-0.5450773239135742,0.2573535442352295,-0.23858672380447388,-0.426237553358078,1.5617671012878418
27.8,-2.123124837875366,0.13450036942958832,0.6223627328872681,0.5487803816795349,0.3775447607040405,1.1825839281082153
27.85,-3.0805952548980713,0.7041366696357727,1.1841648817062378,0.5927917957305908,-0.04627159982919693,0.8363640904426575
27.9,-1.938795804977417,1.652787208557129,2.2632853984832764,0.25877705216407776,-0.3041374981403351,0.2742225229740143
27.95,-1.0276933908462524,1.487081527709961,1.786648154258728,-0.2606353461742401,0.27453887462615967,-0.32367146015167236
28.0,-0.2637682557106018,-0.9893304109573364,0.02731013298034668,-0.9153664112091064,0.09308052808046341,-0.12870365381240845
28.05,0.46338000893592834,-1.3035774230957031,-0.9357621669769287,-0.41197970509529114,0.29584580659866333,0.020582623779773712
28.1,-1.4914524555206299,-0.22465810179710388,-0.4463016092777252,0.3964446783065796,0.13810832798480988,0.20594722032546997
28.15,-1.7130777835845947,0.8818655014038086,0.6796674728393555,0.5703797340393066,-0.33267199993133545,0.42344096302986145
28.2,-0.9650697708129883,0.6813172698020935,0.825042188167572,0.3096081614494324,-0.5095992088317871,0.20785729587078094
28.25,-0.1344882994890213,0.04677674546837807,0.4327508211135864,0.17590995132923126,-0.3410986661911011,-0.13430659472942352
28.3,-0.18399205803871155,-0.6329289078712463,0.18920005857944489,0.18166692554950714,-0.3135692775249481,-0.14271269738674164
28.35,-0.013792961835861206,0.00715539650991559,0.4667251408100128,0.1694149374961853,-0.5964559316635132,0.03924458473920822
28.4,0.7552801370620728,0.6492577195167542,0.9437035322189331,0.2470203936100006,-0.6086189150810242,0.08744335919618607
28.45,0.6105354428291321,0.455448180437088,1.4412341117858887,0.3745071291923523,-0.04555296525359154,-0.05023634806275368
28.5,0.6711399555206299,0.48988059163093567,1.2895634174346924,0.08140230178833008,0.3309450149536133,-0.1129995584487915
28.55,0.5251306295394897,0.7383623719215393,0.8340370655059814,-0.41480010747909546,0.4983580410480499,-0.18592284619808197
28.6,-0.11198945343494415,1.1203185319900513,0.5260050892829895,-0.7469987869262695,0.4687792658805847,-0.29469573497772217
28.65,0.9314472079277039,-0.44617652893066406,-0.3757958710193634,-1.0652714967727661,-0.26622071862220764,0.021767059341073036
28.7,2.1321280002593994,-0.5095872282981873,-0.2356828898191452,-0.3988400101661682,0.028225667774677277,-0.17366914451122284
28.75,1.9410303831100464,-0.8105945587158203,-0.5862622261047363,0.21264979243278503,0.7394734025001526,-0.33391648530960083
28.8,-0.03292587399482727,-0.6239643692970276,-0.6626414060592651,0.2753400504589081,0.8297519683837891,-0.04078662768006325
28.85,0.7008278965950012,0.24369053542613983,0.4151187837123871,0.04578112065792084,-0.046200599521398544,0.5518279671669006
28.9,-0.2012505829334259,1.157404899597168,1.026100754737854,-0.01559630036354065,0.016733350232243538,0.6074126958847046
28.95,0.2518644630908966,0.7186318039894104,0.0012913360260426998,-0.13963909447193146,0.5414862036705017,0.06268895417451859
29.0,-0.5146872401237488,0.3118171691894531,0.11309438198804855,-0.2223619818687439,0.809963583946228,-0.17178384959697723
29.05,-1.4804372787475586,-0.69782555103302,-0.38828790187835693,-0.5266025066375732,-0.23123979568481445,0.2969263792037964
29.1,2.221334934234619,0.4658167064189911,-0.18581190705299377,-0.11441057920455933,-0.5365782380104065,0.028221340849995613
29.15,0.5768842697143555,-0.2566213309764862,-0.7974502444267273,0.3271033763885498,0.7436339855194092,-0.6160917282104492
29.2,-2.3542943000793457,1.751851201057434,-0.1390739530324936,0.15529216825962067,0.4998023509979248,-0.45132917165756226
29.25,-0.30268725752830505,0.49267488718032837,-0.514686107635498,-0.3872377276420593,-1.3609387874603271,0.40642061829566956
29.3,1.9272668361663818,0.14571675658226013,0.9210662841796875,0.08773200958967209,-0.7141246199607849,-0.21993136405944824
29.35,-1.6505379676818848,1.1393566131591797,-0.33598676323890686,0.6642712354660034,1.1530781984329224,-1.275025486946106
29.4,-4.1209492683410645,3.03715443611145,0.24600468575954437,0.27717339992523193,0.7086688280105591,-1.5009489059448242
29.45,0.978074312210083,0.1464100182056427,0.8192246556282043,-0.6876857876777649,-1.024232029914856,-0.8785226345062256
29.5,3.9403018951416016,-3.6594746112823486,0.4686523377895355,-0.19139188528060913,0.43872785568237305,-1.5967261791229248
29.55,-1.0874804258346558,-2.815221071243286,-3.0769388675689697,1.6344637870788574,2.179260492324829,-1.8762370347976685
29.6,-3.522087574005127,-0.04587090015411377,-1.9374216794967651,1.3523634672164917,0.8378656506538391,-0.15663951635360718
29.65,-3.1407275199890137,3.054283380508423,1.1831871271133423,-0.6659404635429382,-2.08107852935791,1.4974881410598755
29.7,0.5292809009552002,4.404994487762451,5.520652770996094,-1.9177011251449585,-2.939875602722168,1.4120216369628906
29.75,0.4698171615600586,0.7384147047996521,2.6239242553710938,-1.5111149549484253,-0.25659626722335815,-0.3470723330974579
29.8,0.567051112651825,-3.376096487045288,-2.3087170124053955,0.8786047101020813,2.5795421600341797,-2.6665732860565186
29.85,-2.1323938369750977,-3.518702507019043,-2.8149008750915527,1.7028948068618774,1.6422406435012817,-1.4606930017471313
29.9,-0.17471414804458618,-0.8152351975440979,-1.2721554040908813,0.5858972072601318,-0.6626361012458801,0.7056810855865479
29.95,-0.37802594900131226,0.9065027236938477,1.9603384733200073,-0.29686421155929565,-1.6916645765304565,1.1832549571990967
30.0,0.7219302654266357,1.3930988311767578,3.9999685287475586,0.14237430691719055,-1.2913545370101929,1.0656006336212158
30.05,-1.834474802017212,0.4887360632419586,0.8534422516822815,1.0691745281219482,0.8981942534446716,-0.09727182239294052
30.1,-0.3560606837272644,0.45754343271255493,-0.6409106850624084,1.554707646369934,1.8365824222564697,-0.5200033187866211
30.15,-1.6943881511688232,0.12082185596227646,0.25418621301651,1.0817670822143555,0.9848184585571289,0.3039388060569763
30.2,-1.2573623657226562,0.6346883177757263,1.2361156940460205,0.14486482739448547,-0.31663551926612854,1.052729606628418
30.25,-1.093835473060608,2.1818103790283203,4.1769118309021,-0.7194356322288513,-1.0694520473480225,1.264487385749817
30.3,-2.7541279792785645,2.5591373443603516,3.937898874282837,-1.3379861116409302,0.3636990189552307,0.16567274928092957
30.35,-1.134752631187439,0.47418874502182007,1.2002679109573364,-1.5734548568725586,1.0002858638763428,-0.744880735874176
30.4,1.9906177520751953,-1.5881844758987427,-0.8012350797653198,-0.8833351135253906,1.6304397583007812,-1.3377686738967896
30.45,1.1830174922943115,-2.474368095397949,-2.4180099964141846,0.05173522233963013,2.4679677486419678,-1.4086418151855469
30.5,-1.7530733346939087,-0.21382048726081848,-2.1993460655212402,0.5732888579368591,2.1050779819488525,-0.3513740003108978
30.55,-0.44408512115478516,0.47647958993911743,-0.6025163531303406,0.14490067958831787,0.38747960329055786,1.1999400854110718
30.6,1.550715684890747,0.9054834246635437,0.3706977367401123,-0.07391774654388428,-0.32502245903015137,1.7433658838272095
30.65,0.8671015501022339,1.0717898607254028,-0.1557333916425705,-0.11909323930740356,0.6487014889717102,0.9980856776237488
30.7,0.5076184868812561,0.5803691148757935,-0.6915486454963684,-0.4551323652267456,1.7126821279525757,0.1061813160777092
30.75,-2.5782737731933594,1.8835258483886719,0.8543873429298401,-0.4342523217201233,1.0422470569610596,0.15505455434322357
30.8,1.341079831123352,-2.1691479682922363,-1.4806462526321411,-0.7004849314689636,-0.8399348258972168,0.91341632604599
30.85,1.5964481830596924,-0.6548756957054138,-1.0911200046539307,-0.4376094937324524,-0.06898147612810135,0.1629796028137207
30.9,-1.0842208862304688,-1.380458950996399,-2.353383779525757,-0.5388867855072021,1.796416163444519,-1.561775803565979
30.95,-0.783961296081543,-1.094193458557129,-2.6148080825805664,-0.09023052453994751,1.8478271961212158,-1.827952265739441
31.0,-1.749704122543335,-1.0541125535964966,-1.3707417249679565,0.5340477228164673,1.3740055561065674,-0.9396264553070068
31.05,-1.2648470401763916,0.1886100471019745,-0.3674529492855072,1.1795662641525269,0.19206655025482178,0.070775106549263
31.1,0.4654453992843628,1.5216782093048096,-0.14094676077365875,1.4471867084503174,-0.9057351350784302,0.7840279340744019
31.15,1.1859018802642822,2.5254547595977783,2.1859753131866455,1.4125099182128906,-1.0835210084915161,1.0256112813949585
31.2,1.5366206169128418,5.232680797576904,6.363633632659912,0.5369426012039185,-0.6753659844398499,1.0327601432800293
31.25,0.8657835721969604,1.8129550218582153,3.026074171066284,-0.8854238986968994,0.14601273834705353,0.9486147165298462
31.3,3.03714919090271,-0.7231385707855225,-2.7471354007720947,-1.7096836566925049,1.840147852897644,-0.7044098377227783
31.35,-1.8254244327545166,-3.542489528656006,-3.7680962085723877,-1.3830811977386475,3.5834195613861084,-1.8005499839782715
31.4,-6.162545204162598,-1.7990318536758423,0.27926790714263916,-0.4307847023010254,3.1786277294158936,-1.564353585243225
31.45,-3.9070420265197754,0.06768669933080673,2.5270683765411377,0.664603590965271,0.20857751369476318,0.16999633610248566
31.5,-1.3684784173965454,3.073561906814575,1.7550358772277832,1.38582181930542,-2.9575355052948,2.0928447246551514
31.55,5.806972503662109,2.3530936241149902,1.3942595720291138,0.9133060574531555,-3.6830904483795166,2.204535961151123
31.6,-0.007393002510070801,1.459859848022461,2.3303415775299072,-0.9763458967208862,0.6168594360351562,-0.42682182788848877
31.65,-1.65630042552948,-0.9851639270782471,0.5990530252456665,-1.4321610927581787,1.6571698188781738,-1.7071467638015747
31.7,-1.918644905090332,-2.6165449619293213,-0.9871171712875366,-0.6697295308113098,0.4249213635921478,-1.4703127145767212
31.75,-0.25108200311660767,-2.020578622817993,-1.8827701807022095,0.260558158159256,-0.6841440200805664,-0.7850739359855652
31.8,0.7635242342948914,1.7046940326690674,0.900104284286499,0.9847680330276489,-1.6570091247558594,0.4164573848247528
31.85,2.1643543243408203,2.3809854984283447,3.3917839527130127,0.4676796793937683,-2.9414098262786865,2.0193169116973877
31.9,4.126659393310547,2.6504225730895996,1.4196956157684326,-0.28231343626976013,-0.9767816066741943,0.7447900176048279
31.95,0.677894115447998,-1.383245587348938,0.022915737703442574,-0.9711272120475769,2.0007107257843018,-1.113940715789795
32.0,-2.689667224884033,-2.5308713912963867,-0.5710586905479431,-0.3612874150276184,1.9576096534729004,-1.6074843406677246
32.05,-1.9040210247039795,-1.689628005027771,-0.9682584404945374,0.5679789781570435,0.3833892345428467,-0.6746256351470947
32.1,0.2980844974517822,0.3373556435108185,0.20620214939117432,1.1545299291610718,-1.3492116928100586,0.8378385901451111
32.15,-0.28564393520355225,3.166285753250122,3.482867956161499,1.0026168823242188,-2.8324341773986816,2.408154010772705
32.2,3.648679256439209,3.0723986625671387,2.906219720840454,0.11757701635360718,-1.9120739698410034,1.5800162553787231
32.25,0.0973900556564331,0.7081890106201172,0.8790174126625061,-1.0054199695587158,1.3905186653137207,-0.3995842933654785
32.3,-0.3449459671974182,-2.284764528274536,-1.2465938329696655,-0.923509418964386,2.083177328109741,-1.1916409730911255
32.35,-2.0624072551727295,-2.980921983718872,-2.1276323795318604,-0.03509038686752319,1.4757307767868042,-0.8061798214912415
32.4,-2.554443836212158,-0.04772964492440224,-0.08038997650146484,0.9033292531967163,0.2279256135225296,0.08710436522960663
32.45,-2.996029853820801,2.194826126098633,2.118863582611084,1.2941372394561768,-2.1417415142059326,1.3944939374923706
32.5,2.7897942066192627,2.6084396839141846,1.78544020652771,0.4634518623352051,-2.463379144668579,1.149296760559082
32.55,-0.29711851477622986,0.4511909782886505,0.2831566035747528,-0.7185895442962646,0.6190239787101746,-0.7406524419784546
32.6,-0.853498637676239,-1.8996336460113525,-1.2756110429763794,-0.394368052482605,1.0127047300338745,-1.407746434211731
32.65,-1.4507900476455688,-1.874206781387329,-1.7599108219146729,0.37164145708084106,0.11261918395757675,-0.9914501309394836
32.7,-0.5784727334976196,-0.34950926899909973,-0.7150389552116394,0.9099032878875732,-1.3291219472885132,-0.17112497985363007
32.75,1.3784605264663696,1.659053087234497,1.1375060081481934,1.1221323013305664,-2.8824403285980225,0.5834329128265381
32.8,1.3619797229766846,2.5828697681427,3.5502171516418457,0.42859622836112976,-2.249661684036255,0.29376867413520813
32.85,1.0458039045333862,0.8899928331375122,1.430990219116211,-0.5496002435684204,-0.07359613478183746,-0.5773003697395325
32.9,1.9127838611602783,-0.6847380995750427,-0.7083465456962585,-0.637214183807373,0.9755565524101257,-0.8970340490341187
32.95,0.8175926804542542,-1.6681033372879028,-1.8797762393951416,-0.14190003275871277,1.0351369380950928,-0.5814138054847717
33.0,-0.17940622568130493,-0.8172159790992737,-1.0967847108840942,0.48331642150878906,0.48709529638290405,-0.059466756880283356
33.05,-0.39754676818847656,1.8995648622512817,1.6951440572738647,0.6166173219680786,-0.517035722732544,0.6282200813293457
33.1,0.981843113899231,1.998342752456665,2.2219839096069336,-0.3049977719783783,-0.4933445453643799,0.8549187779426575
33.15,1.833646297454834,0.9912225604057312,0.6168801784515381,-0.8175792098045349,1.2041760683059692,0.12627393007278442
33.2,1.4071648120880127,-1.5496463775634766,-2.197122573852539,-0.5942072868347168,2.2277777194976807,-0.5549696087837219
33.25,-1.9241423606872559,-1.4315816164016724,-1.9479275941848755,0.2122606635093689,2.316667079925537,-0.769451916217804
33.3,-2.462561845779419,0.1608627885580063,0.11721266806125641,0.7859429121017456,0.7167477607727051,-0.18421685695648193
33.35,-0.16711601614952087,0.8643093705177307,0.7703439593315125,0.834560215473175,-1.7865110635757446,1.1418918371200562
33.4,2.341907262802124,2.624619722366333,2.7999260425567627,0.15651267766952515,-2.0569849014282227,1.3862199783325195
33.45,1.179603099822998,1.2827445268630981,0.9424130916595459,-0.7843131422996521,0.4052276015281677,0.16752135753631592
33.5,0.7577065825462341,-0.5084590315818787,-1.1010349988937378,-0.9552794694900513,1.7857401371002197,-0.8223304152488708
33.55,-1.1634477376937866,-1.77101731300354,-2.0729165077209473,-0.20877426862716675,1.227630853652954,-0.7800217270851135
33.6,-0.4520501494407654,-1.4925729036331177,-1.224256157875061,0.5276236534118652,0.14497825503349304,-0.24132105708122253
33.65,0.015109777450561523,2.2252418994903564,2.0608346462249756,0.9292376041412354,-1.200021505355835,0.8024188280105591
33.7,3.009866237640381,0.9278538227081299,1.4569082260131836,0.23134160041809082,-1.587003469467163,1.2289220094680786
33.75,0.91032475233078,1.3215810060501099,0.9505462050437927,-0.3677213788032532,0.7846375703811646,0.17701973021030426
33.8,-0.367073118686676,-0.896302342414856,-0.9614397883415222,-0.5449737310409546,2.0216493606567383,-0.7940893769264221
33.85,-2.1423516273498535,-1.246430516242981,-1.5687998533248901,0.054478228092193604,1.6748698949813843,-0.9032716155052185
33.9,-2.316451072692871,0.30561912059783936,0.27192947268486023,0.6823472380638123,0.1112382560968399,-0.3414902091026306
33.95,0.06569859385490417,1.0670911073684692,1.0645416975021362,0.7484297156333923,-1.942610740661621,0.5833096504211426
34.0,2.5307960510253906,0.8380711078643799,0.4734709858894348,0.2907775044441223,-1.6926730871200562,0.45633652806282043
34.05,0.718924880027771,0.1667509526014328,0.143995001912117,-0.10105431824922562,0.3263131082057953,-0.3604465425014496
34.1,-1.0019690990447998,0.13989441096782684,0.5726298689842224,-0.051131993532180786,0.90557861328125,-0.6909923553466797
34.15,-0.6426568627357483,0.28949928283691406,0.08240335434675217,-0.04696342349052429,0.10541430115699768,-0.6234925389289856
34.2,0.82039475440979,0.17840585112571716,-0.5342443585395813,-0.07508990168571472,-0.28804513812065125,-0.5384044647216797
34.25,0.7599779367446899,0.5789405107498169,-0.2567797005176544,-0.06837666034698486,0.2389947772026062,-0.6974148154258728
34.3,-0.0762341320514679,0.4223356544971466,0.4168759882450104,-0.08508893847465515,0.46577689051628113,-0.7478060722351074
34.35,-0.0448402501642704,0.2751674950122833,-0.17460723221302032,-0.19849185645580292,-0.14801688492298126,-0.5031612515449524
34.4,0.5440776348114014,0.1903611272573471,-1.0022521018981934,-0.3768470883369446,-0.6419673562049866,-0.3214089870452881
34.45,0.2742186188697815,-0.19966694712638855,-1.0181365013122559,-0.43572497367858887,-0.7196080088615417,-0.0900055542588234
34.5,-2.0713210105895996,0.5433406233787537,-0.6118108630180359,-0.33654168248176575,-0.8961514830589294,0.07120437920093536
34.55,-3.9571311473846436,1.5717105865478516,-1.0061761140823364,-0.43148553371429443,-2.051671266555786,0.09015048295259476
34.6,-1.0111631155014038,1.1778737306594849,-2.5208261013031006,-0.6159327626228333,-3.407640218734741,-0.28547587990760803
34.65,0.7429951429367065,0.607534646987915,-2.712857246398926,-0.3629434108734131,-2.998878240585327,-1.0728905200958252
34.7,1.9147002696990967,0.16988970339298248,-2.8372933864593506,0.23914313316345215,-2.4047434329986572,-1.5071518421173096
34.75,1.8303734064102173,0.8198044896125793,-1.7212762832641602,0.6855796575546265,-2.443162202835083,-1.2490949630737305
34.8,1.730529546737671,0.4939624071121216,0.6948150396347046,0.5963424444198608,-2.9008779525756836,-0.898946225643158
34.85,1.311547040939331,-0.005585699342191219,2.237868547439575,0.4471180737018585,-2.7027599811553955,-0.8303812146186829
34.9,0.8426538705825806,0.9317827224731445,3.2354393005371094,0.058158159255981445,-2.492220163345337,-0.8368551135063171
34.95,0.8465344905853271,-0.7182000279426575,6.461361885070801,-0.8770912885665894,-2.661522626876831,-0.9917975664138794
35.0,-0.313124418258667,-1.2685027122497559,7.0339555740356445,-0.9780769944190979,-1.7594330310821533,-0.8188738822937012
35.05,-0.2050609588623047,-1.4574265480041504,6.254927635192871,-1.0418636798858643,-0.5807912945747375,-0.7212031483650208
35.1,0.8240251541137695,-1.6269879341125488,5.696871757507324,-1.2467478513717651,0.5179332494735718,-0.5014567375183105
35.15,2.2155723571777344,-1.1489536762237549,4.923525333404541,-0.9991860389709473,1.7172057628631592,0.006332018878310919
35.2,4.423441410064697,-1.0264043807983398,3.8368709087371826,-0.5812116861343384,2.962801933288574,0.3975515067577362
35.25,6.362821578979492,-0.7198188304901123,2.032261610031128,-0.1660742163658142,3.9939608573913574,0.6781126856803894
35.3,7.527405261993408,0.2321792095899582,-1.180687665939331,0.04682460427284241,4.715790271759033,0.9396730661392212
35.35,8.203252792358398,1.5125036239624023,-4.747985363006592,0.05166041851043701,5.177975177764893,1.1947356462478638
35.4,4.596349716186523,3.2741472721099854,-7.9011993408203125,0.06609764695167542,6.214869499206543,1.0520598888397217
35.45,0.03009510040283203,3.5629396438598633,-9.190654754638672,-0.37930843234062195,6.6236042976379395,0.9547203183174133
35.5,-4.420121669769287,3.019426107406616,-8.708574295043945,-0.9577816724777222,6.723478317260742,0.8719033002853394
35.55,-9.244375228881836,0.8526924252510071,-4.678684711456299,-1.38906991481781,6.483033180236816,0.9339449405670166
35.6,-9.906810760498047,-0.838763952255249,0.08156436681747437,-0.9994267821311951,5.365884304046631,1.1258958578109741
35.65,-7.681562423706055,-1.635239601135254,5.184047698974609,-0.4179339110851288,3.9805679321289062,1.0149415731430054
35.7,-3.491217613220215,-2.9955270290374756,6.3282036781311035,0.590602695941925,1.9660964012145996,0.3379588723182678
35.75,-2.2689218521118164,-1.6944137811660767,4.685373306274414,-0.013403430581092834,0.4271329343318939,-0.39854148030281067
35.8,-3.8628146648406982,0.10611213743686676,2.8188812732696533,-1.3126931190490723,-0.7615750432014465,-0.35158389806747437
35.85,-4.073256969451904,0.2159687876701355,1.961605191230774,-0.732977569103241,-1.8104387521743774,-0.9124608039855957
35.9,-3.791994571685791,0.5265023708343506,1.581648588180542,-0.29203078150749207,-2.7547714710235596,-0.7809709906578064
35.95,-4.1302690505981445,0.4796808660030365,-0.527230441570282,-0.1645975410938263,-3.561948299407959,-0.6917258501052856
36.0,-3.928068161010742,1.0516899824142456,-0.6256614327430725,-0.19814524054527283,-3.725766181945801,-1.151690125465393
36.05,-3.3794827461242676,1.3448896408081055,-2.1471588611602783,-0.46276819705963135,-3.5876851081848145,-1.4653531312942505
36.1,-1.1343156099319458,1.6810708045959473,-5.244350433349609,-0.4976193308830261,-3.705596446990967,-1.7598539590835571
36.15,2.0849883556365967,1.9623754024505615,-6.442547798156738,-0.17289197444915771,-4.045051097869873,-1.6041022539138794
36.2,4.726153373718262,1.2389475107192993,-4.419548034667969,-0.17902284860610962,-4.535866737365723,-1.1404826641082764
36.25,6.52924919128418,-0.37391912937164307,-0.3965311348438263,-0.43866825103759766,-4.84542989730835,-0.5009858012199402
36.3,6.650420665740967,-1.4206246137619019,2.1666407585144043,-0.6244010329246521,-4.3133134841918945,-0.061904631555080414
36.35,5.802037715911865,-1.3116178512573242,4.288080215454102,-0.2660074532032013,-2.6679189205169678,0.08778467774391174
36.4,4.558741569519043,-1.554189920425415,4.627988338470459,-0.5556936264038086,-1.3721333742141724,0.5275881886482239
36.45,4.216223239898682,-1.7926323413848877,4.12960958480835,-1.0887211561203003,-0.36228564381599426,1.138344645500183
36.5,3.6416444778442383,-0.5027942657470703,2.706376552581787,-1.0679528713226318,0.7648385763168335,1.5743905305862427
36.55,3.2259981632232666,0.0990210697054863,1.8941733837127686,-0.9279486536979675,1.451003909111023,1.8327052593231201
36.6,3.2978339195251465,0.49777910113334656,0.9175099730491638,-0.736372709274292,1.9177595376968384,1.923125147819519
36.65,2.3527071475982666,2.788208484649658,-0.3687787353992462,-0.4836629033088684,2.8088953495025635,1.71596360206604
36.7,0.4610632061958313,3.3183810710906982,-2.2028634548187256,-0.6085387468338013,3.5248517990112305,1.675666332244873
36.75,-0.8858485817909241,3.403359889984131,-2.237039804458618,-0.6066374182701111,4.046308517456055,1.5341342687606812
36.8,-2.425044298171997,3.051649570465088,-2.362638235092163,-0.8512775301933289,4.513408660888672,0.9581559896469116
36.85,-3.49031400680542,2.244738817214966,-2.7585132122039795,-1.1841657161712646,4.358676910400391,0.7904082536697388
36.9,-4.767224311828613,0.4571313261985779,-3.2465147972106934,-1.2280910015106201,4.269094944000244,0.7544276714324951
36.95,-4.911294937133789,-2.804378032684326,-0.0360855758190155,-1.0472748279571533,4.113539218902588,0.37378332018852234
37.0,-0.4265190362930298,-4.947826862335205,1.4332119226455688,-0.9882355332374573,3.3637945652008057,-0.004741090349853039
37.05,-0.2990243136882782,-1.7887632846832275,-0.02549666166305542,-0.8815670013427734,1.9655303955078125,-0.1765047311782837
37.1,-0.4789392352104187,-0.5353298783302307,-0.9866263270378113,-0.17046774923801422,1.1754478216171265,-0.25467491149902344
37.15,-1.4028301239013672,0.849420428276062,3.75980806350708,-0.37354618310928345,1.1711047887802124,-0.6929522752761841
37.2,-3.2891011238098145,0.6073595285415649,5.173778533935547,-1.108095645904541,0.13758991658687592,-0.1764862984418869
37.25,-4.973604202270508,1.6685799360275269,1.692825198173523,-0.45590272545814514,-1.9508445262908936,0.38473817706108093
37.3,-3.15566349029541,0.8778715133666992,-1.5038448572158813,-0.21159246563911438,-3.0079755783081055,0.596306562423706
37.35,-2.286190986633301,-0.02337748184800148,-1.5328422784805298,-0.06273114681243896,-3.2916359901428223,0.5788486003875732
37.4,-0.0337214469909668,0.0059433975256979465,-2.1446781158447266,-0.19792142510414124,-2.9802610874176025,0.6814954280853271
37.45,0.3713219165802002,-0.5998333692550659,-3.112952470779419,-0.4683671295642853,-2.8480584621429443,0.6336276531219482
37.5,1.093216061592102,-0.5250662565231323,-2.203298807144165,-0.33098718523979187,-2.634999990463257,0.392465740442276
37.55,3.2662670612335205,-0.3254048824310303,-1.6416337490081787,-0.1591137945652008,-2.6183316707611084,0.17043960094451904
37.6,5.158896446228027,-1.0112931728363037,-1.0051738023757935,0.02837768942117691,-2.228872776031494,0.03292232006788254
37.65,4.910309314727783,-0.7095726132392883,0.6011247038841248,0.20455802977085114,-1.4380747079849243,-0.21813054382801056
37.7,4.6554951667785645,-0.4060171842575073,1.6497770547866821,0.42931264638900757,-0.7599260807037354,-0.19037692248821259
37.75,3.2695465087890625,0.5443221926689148,1.4951913356781006,0.27221837639808655,-0.12722888588905334,-0.5215756297111511
37.8,2.0015869140625,1.1818344593048096,-0.22288355231285095,-0.2116883397102356,0.3670050799846649,-1.3244657516479492
37.85,-1.4298803806304932,0.14330953359603882,-0.3387531638145447,-0.37933188676834106,0.937582790851593,-1.868414282798767
37.9,-4.083853721618652,0.09583547711372375,-0.2697577476501465,-0.0789637565612793,0.2408292293548584,-1.4227023124694824
37.95,-2.985291004180908,-0.3241320848464966,-1.5912550687789917,0.16456499695777893,-1.4754204750061035,-0.08106771856546402
38.0,-0.7870208024978638,-1.3027621507644653,-1.6743111610412598,0.48981451988220215,-2.6289541721343994,0.9505571722984314
38.05,-0.32190263271331787,-0.7452888488769531,-1.1281037330627441,0.6541372537612915,-2.2635457515716553,0.3597351610660553
38.1,-1.8054420948028564,0.046244535595178604,-0.2887316346168518,1.0707265138626099,-1.6626325845718384,-0.2840133309364319
38.15,0.5628348588943481,2.230637788772583,-0.5617494583129883,1.3774715662002563,-1.9183341264724731,-0.2940637767314911
38.2,-0.1558883637189865,2.1246559619903564,0.4311201870441437,1.8071849346160889,-1.6568520069122314,-0.6998755931854248
38.25,-0.16457922756671906,0.9585180878639221,0.6056674122810364,1.9141957759857178,-0.9841362833976746,-1.1928787231445312
38.3,-0.505589485168457,2.3316738605499268,0.8881288766860962,1.7844970226287842,-0.9234216809272766,-1.1717244386672974
38.35,0.4291367530822754,1.6205313205718994,1.6492804288864136,0.9452375173568726,-1.636154055595398,-0.6886901259422302
38.4,1.7762303352355957,0.4044189751148224,2.716646671295166,0.278925359249115,-1.801159381866455,-0.5134568810462952
38.45,2.362307548522949,-0.49107468128204346,3.9933528900146484,-0.07356874644756317,-1.4095640182495117,-0.4230846166610718
38.5,2.5622804164886475,-1.246359944343567,3.8315727710723877,-0.4659487009048462,-0.7296477556228638,-0.20164750516414642
38.55,2.5541133880615234,-0.7171106934547424,2.7613682746887207,-0.6711982488632202,-0.01296947244554758,0.10646295547485352
38.6,2.150144100189209,-0.6905431747436523,1.874422311782837,-0.570901095867157,0.6232012510299683,0.3774515688419342
38.65,1.7955595254898071,-0.48342230916023254,1.6766493320465088,-0.21622256934642792,1.2625644207000732,0.465179443359375
38.7,2.1100914478302,-0.03459354490041733,1.7374316453933716,-0.07275477051734924,1.7696690559387207,0.49726855754852295
38.75,2.1333346366882324,0.8493320345878601,1.260919451713562,0.0009490251541137695,2.2128405570983887,0.5480555295944214
38.8,2.31231951713562,0.6584102511405945,-0.26168292760849,-0.13325244188308716,2.6077420711517334,0.7138926982879639
38.85,1.508933186531067,0.5306580066680908,-1.5555107593536377,-0.18834957480430603,3.237143039703369,1.022742509841919
38.9,0.41631412506103516,0.5663559436798096,-2.6960296630859375,-0.25585073232650757,3.645901918411255,1.5527610778808594
38.95,-2.511864185333252,0.906559944152832,-1.0353423357009888,-0.1538117527961731,3.379561424255371,1.5319647789001465
39.0,-3.4322524070739746,0.6417034268379211,0.6616912484169006,0.04584318399429321,2.815472364425659,1.281898856163025
39.05,-2.955336570739746,0.6644371747970581,0.41030555963516235,0.14970409870147705,2.2509570121765137,0.9988240003585815
39.1,-2.9794840812683105,0.5920933485031128,-0.4034305512905121,-0.041279762983322144,2.2393038272857666,0.8244807720184326
39.15,-2.9604108333587646,1.1998052597045898,-0.26335087418556213,-0.2442893236875534,2.0308244228363037,0.5878193974494934
39.2,-2.7022407054901123,-0.48795437812805176,0.6450473070144653,-0.0894852876663208,1.3238023519515991,0.7347657680511475
39.25,-1.4722670316696167,-1.5496877431869507,0.9982173442840576,0.2960585653781891,0.44225358963012695,0.608132004737854
39.3,-0.46129167079925537,-0.8880416750907898,0.6536866426467896,-0.01648053526878357,-0.19335396587848663,0.37849894165992737
39.35,1.504096508026123,0.6204320788383484,-0.4632505178451538,0.030283868312835693,-0.7724826335906982,-0.09471912682056427
39.4,2.5881588459014893,1.3772615194320679,-1.185043454170227,-0.027899250388145447,-0.6831997036933899,-0.3833247721195221
39.45,0.6526894569396973,-0.15331457555294037,0.2790752649307251,-0.4004010260105133,0.16556759178638458,-0.5024781823158264
39.5,-0.7316846251487732,-0.21223556995391846,0.9607229828834534,-0.22209730744361877,0.024315062910318375,-0.284562349319458
39.55,-1.4872121810913086,-0.4021255671977997,1.1463252305984497,0.017641594633460045,-0.47310319542884827,0.07713335752487183
39.6,-0.4693847596645355,0.0318259634077549,0.695851743221283,0.17725899815559387,-1.1661709547042847,0.26318058371543884
39.65,1.784301996231079,1.3587086200714111,-1.5010374784469604,-0.05796631798148155,-1.6445872783660889,0.16705834865570068
39.7,1.9964234828948975,0.7480347752571106,-1.996780276298523,-0.17825335264205933,-1.5017094612121582,0.01620662957429886
39.75,-0.01931270956993103,-1.0803624391555786,-0.88973468542099,-0.19893252849578857,-0.8802579641342163,0.1776917725801468
39.8,-0.9453800916671753,-1.446457028388977,-0.6767464876174927,-0.009978502988815308,-1.0572941303253174,0.4877447187900543
39.85,-0.30627691745758057,-0.5687628388404846,-0.7284486889839172,0.10287947207689285,-1.3708406686782837,0.24478280544281006
39.9,1.1141860485076904,0.9079238772392273,-0.021331600844860077,0.10723322629928589,-1.4012137651443481,-0.5358866453170776
39.95,0.14820151031017303,1.5337727069854736,0.11677145212888718,-0.0376666784286499,-1.0263010263442993,-1.4159947633743286
40.0,-0.7278607487678528,1.7409956455230713,0.040562015026807785,0.11429363489151001,-1.4582886695861816,-1.7633459568023682
40.05,1.1564685106277466,1.4062387943267822,-1.6362587213516235,0.10663467645645142,-2.494158983230591,-1.5469141006469727
40.1,2.6391797065734863,0.1138889417052269,-0.7867172360420227,0.20147788524627686,-2.4985525608062744,-1.4893791675567627
40.15,0.36357027292251587,-1.0999499559402466,0.11848943680524826,0.5465487837791443,-1.8105032444000244,-1.5973305702209473
40.2,-0.21064981818199158,0.05482577160000801,0.16400045156478882,0.5638908743858337,-1.157656192779541,-1.6241213083267212
40.25,0.496733695268631,2.2490627765655518,0.18246649205684662,0.4794546365737915,-1.4832017421722412,-0.9618411064147949
40.3,2.102414131164551,0.15515050292015076,0.8779069185256958,-0.021259024739265442,-2.108272075653076,-0.35021737217903137
40.35,2.888795852661133,-1.137558937072754,2.050859212875366,0.18360179662704468,-1.6222591400146484,-0.4180760979652405
40.4,2.6047513484954834,-0.9566575288772583,3.1026875972747803,0.5897297859191895,-0.7217559814453125,-0.4295518100261688
40.45,1.803404688835144,-1.6406986713409424,2.917778730392456,0.6546133756637573,-0.1466117799282074,-0.09020767360925674
40.5,1.553325891494751,-1.3342963457107544,1.9299713373184204,0.5668157339096069,0.46241098642349243,0.347027450799942
40.55,1.3689159154891968,-0.37726977467536926,1.0368192195892334,0.4990265667438507,1.0985451936721802,0.7471663355827332
40.6,0.5842815637588501,0.41553789377212524,0.5616146326065063,0.5230056643486023,1.594224452972412,1.0276108980178833
40.65,0.5607306361198425,0.5905504822731018,0.5570827722549438,0.32478997111320496,1.6808987855911255,1.2108144760131836
40.7,0.3109583854675293,1.1495620012283325,0.5123144388198853,0.18136829137802124,1.7745850086212158,1.298890471458435
40.75,-0.5112577676773071,1.1902037858963013,0.12933051586151123,0.10645359754562378,1.7485429048538208,1.4411368370056152
40.8,-2.3477771282196045,0.2996863126754761,0.3556608259677887,0.10830974578857422,1.5202473402023315,1.428512692451477
40.85,-1.6133503913879395,-0.9553320407867432,0.6838907599449158,0.28785306215286255,0.8131641149520874,0.8730247616767883
40.9,0.4359598457813263,-0.3251657783985138,0.4949474036693573,0.5236425399780273,0.5741620063781738,-0.054061952978372574
40.95,-0.008384495973587036,1.1707688570022583,0.4170854985713959,0.7414098381996155,1.0803498029708862,-0.35261616110801697
41.0,-0.7868188619613647,1.287581443786621,0.7317521572113037,0.6669990420341492,0.8948612213134766,-0.11663230508565903
41.05,-0.6795700192451477,-0.256384938955307,0.4585045874118805,0.30393874645233154,0.36906811594963074,0.08364029228687286
41.1,-0.36244380474090576,-0.880783200263977,0.047598980367183685,0.2458895444869995,0.2486514300107956,-0.12527480721473694
41.15,0.7150986194610596,0.6491681337356567,0.004014987498521805,0.1619342416524887,0.6211174726486206,-0.39767950773239136
41.2,1.9470523595809937,1.158534288406372,-0.3937160074710846,0.1331968754529953,0.33303162455558777,0.12779775261878967
41.25,0.8077105283737183,-0.8732366561889648,-1.5273007154464722,0.3432881236076355,0.15493863821029663,0.725490927696228
41.3,-3.3191986083984375,0.1290423423051834,2.169236660003662,0.5660011768341064,0.9853693842887878,0.36185261607170105
41.35,-4.377851963043213,1.253777265548706,2.243485689163208,0.14116297662258148,0.5347039699554443,-0.4007379114627838
41.4,0.41461336612701416,0.9618656039237976,-0.9213255047798157,-0.44906336069107056,-0.1307247132062912,-0.8897229433059692
41.45,1.8213554620742798,0.6609976291656494,-1.3695507049560547,-0.38074228167533875,-0.1961776316165924,-0.47936561703681946
41.5,1.1402044296264648,0.4491769075393677,0.1584872603416443,-0.1490764021873474,-0.6717220544815063,0.2736298441886902
41.55,1.6761139631271362,-0.19778722524642944,0.0703456848859787,-0.24001798033714294,-1.697069764137268,0.9530384540557861
41.6,1.8395256996154785,-0.36714640259742737,-0.20321860909461975,-0.0860239565372467,-1.3044726848602295,0.9758626222610474
41.65,0.21293513476848602,-0.03280163183808327,0.2562621533870697,0.0436391681432724,0.01636520028114319,0.5630384683609009
41.7,-0.6032332181930542,0.18170925974845886,0.2007637768983841,0.011624947190284729,0.11161661148071289,0.3296176791191101
41.75,-0.06471356749534607,0.13735105097293854,-0.06290515512228012,-0.058523982763290405,-0.7104476690292358,0.35732895135879517
41.8,0.8164167404174805,0.18786342442035675,-0.0006316760554909706,-0.03758728504180908,-1.3194265365600586,0.29548200964927673
41.85,1.951098084449768,0.23702633380889893,0.5968950390815735,-0.02327946200966835,-1.3690147399902344,0.08853037655353546
41.9,3.0882973670959473,0.6123945116996765,0.7696108222007751,-0.09539059549570084,-0.8502779006958008,-0.1469510793685913
41.95,2.699345588684082,0.40094202756881714,0.8711279630661011,-0.1897067427635193,-0.01713448390364647,-0.17724238336086273
42.0,1.9709904193878174,0.17419828474521637,0.029007507488131523,-0.33256375789642334,0.2793683707714081,-0.05217381566762924
42.05,0.9586030840873718,-0.1791819930076599,-0.42537885904312134,-0.2147941291332245,0.49493324756622314,-0.005993493366986513
42.1,0.009042739868164062,0.0993061363697052,-0.28072160482406616,-0.05366954207420349,0.994294285774231,-0.22850662469863892
42.15,0.09897026419639587,0.3480835556983948,-0.6094975471496582,-0.14102736115455627,0.9989878535270691,-0.13842466473579407
42.2,-0.20911335945129395,1.0081874132156372,-0.019366547465324402,-0.2207496017217636,1.0423229932785034,0.09364590048789978
42.25,-0.549825131893158,0.6156960129737854,-0.2717636823654175,-0.26761114597320557,1.226245403289795,0.3540293276309967
42.3,-2.4181721210479736,0.1065586656332016,0.18020249903202057,-0.4514343738555908,1.661435842514038,0.1422118842601776
42.35,-2.8643155097961426,-0.3944236934185028,-0.15414145588874817,-0.6076824069023132,1.1926896572113037,0.26192501187324524
42.4,-2.67118239402771,-0.6034032702445984,-0.3759840130805969,-0.3009876012802124,0.013534234836697578,0.4181292653083801
42.45,-1.712599277496338,-0.542373776435852,-0.3189903199672699,0.0972985178232193,-1.0733625888824463,0.5930686593055725
42.5,-0.4324374198913574,0.5186223983764648,0.28923895955085754,0.4121045470237732,-1.7304039001464844,0.5802943110466003
42.55,-0.675568163394928,1.2161893844604492,1.389752745628357,0.4178325831890106,-1.7553521394729614,0.37642648816108704
42.6,-0.27760279178619385,1.3842649459838867,1.6210277080535889,0.02915654331445694,-1.6332054138183594,0.16821390390396118
42.65,0.07392966747283936,0.03845496103167534,1.204774022102356,-0.39680537581443787,-1.2708531618118286,0.0031617230270057917
42.7,0.8444499373435974,-1.0455142259597778,1.0299897193908691,-0.45731887221336365,-1.0143334865570068,-0.2609727680683136
42.75,0.7056580185890198,-1.6910011768341064,1.2627673149108887,-0.30360156297683716,-0.6809322834014893,-0.423488050699234
42.8,0.14195984601974487,-0.8640004992485046,1.1923190355300903,0.04413866996765137,-0.518632173538208,-0.5559097528457642
42.85,0.4843061864376068,0.8344908952713013,0.7398076057434082,0.2693522870540619,-0.7100181579589844,-0.6766389012336731
42.9,0.3678859770298004,0.9034720659255981,-0.12589570879936218,0.3279241919517517,-0.34822818636894226,-0.7532711029052734
42.95,-1.605373740196228,1.1606788635253906,-0.19147035479545593,0.5165489912033081,0.3325856029987335,-0.9102782011032104
43.0,-0.09557106345891953,0.6625309586524963,0.06150004640221596,0.4758850932121277,-0.41107165813446045,-0.7605141401290894
43.05,1.9313809871673584,-0.47986504435539246,0.5041067004203796,0.4194076657295227,-0.9780921339988708,-0.46580007672309875
43.1,1.337148904800415,-0.4600868821144104,1.407257080078125,0.45761147141456604,-0.6933663487434387,-0.2156211882829666
43.15,1.5840705633163452,-0.23235799372196198,1.5266956090927124,0.17211584746837616,-0.6378620266914368,0.11955150961875916
43.2,1.3956489562988281,0.39498716592788696,1.5256602764129639,-0.09785601496696472,-0.22265608608722687,0.33994439244270325
43.25,0.2438420057296753,0.5480060577392578,1.1595958471298218,-0.21689286828041077,0.46099644899368286,0.39821872115135193
43.3,-0.16066020727157593,0.6091299057006836,1.221453070640564,-0.3018665313720703,0.69366455078125,0.36032453179359436
43.35,1.1904081106185913,1.6922409534454346,0.5947638750076294,-0.4055093824863434,0.777730405330658,0.3481124937534332
43.4,1.2189762592315674,1.2560780048370361,-0.15821108222007751,-0.4870263636112213,1.2042301893234253,0.3482256829738617
43.45,0.07077496498823166,-0.8826819658279419,-0.28662800788879395,-0.36872145533561707,1.6779459714889526,0.21596664190292358
43.5,0.7221766710281372,-1.4746780395507812,-1.258226752281189,-0.4725109338760376,1.9332644939422607,-0.13970844447612762
43.55,0.20168113708496094,0.9865992069244385,-2.791536331176758,-0.9573380947113037,2.4428985118865967,-0.3438233435153961
43.6,-2.9929070472717285,1.686702847480774,-1.6044918298721313,-1.011160969734192,2.102745771408081,0.18685387074947357
43.65,-2.53462553024292,-0.02893456630408764,-1.3634060621261597,-0.46411293745040894,0.5681756138801575,1.0402448177337646
43.7,-0.891125500202179,-0.31911948323249817,-1.1901066303253174,-0.10854929685592651,0.13070353865623474,0.9662622213363647
43.75,-1.6011865139007568,-0.7381259202957153,-0.47137242555618286,-0.12167713046073914,0.958919882774353,0.22299914062023163
43.8,-1.2312201261520386,-1.1745808124542236,-0.08892789483070374,0.002686217427253723,1.1200857162475586,-0.262340784072876
43.85,-1.0984101295471191,-0.5040770769119263,0.3434320092201233,-0.01878178119659424,0.9557213187217712,-0.6131663918495178
43.9,-0.40763387084007263,0.3340502083301544,-0.3964035212993622,-0.10600672662258148,0.22372759878635406,-0.5843667984008789
43.95,0.05975702404975891,0.9233123660087585,-0.8354063630104065,-0.007463708519935608,-0.1944550722837448,-0.3879861831665039
44.0,0.015722885727882385,0.7924176454544067,-0.31782424449920654,0.15807412564754486,-0.2964010536670685,-0.204792320728302
44.05,0.025769246742129326,0.4989205002784729,-0.04602568596601486,0.25566110014915466,-0.46608155965805054,-0.15163370966911316
44.1,0.13256657123565674,0.1921711266040802,0.18659158051013947,0.2585867643356323,-0.43026047945022583,-0.25900954008102417
44.15,0.23767854273319244,0.1883735954761505,0.26703986525535583,0.20038866996765137,-0.3028593957424164,-0.45135608315467834
44.2,0.3778957426548004,0.406953901052475,0.014542163349688053,0.16197246313095093,-0.2090086191892624,-0.6072612404823303
44.25,0.1720474660396576,0.44954878091812134,-0.07110010832548141,0.20084337890148163,-0.2876991927623749,-0.5611975789070129
44.3,0.059296220541000366,0.559242308139801,-0.04615732654929161,0.29375576972961426,-0.5943998098373413,-0.48274901509284973
44.35,0.4609931409358978,0.28252989053726196,-0.31149914860725403,0.25496983528137207,-0.8959347605705261,-0.50175940990448
44.4,1.1754984855651855,0.3949357271194458,0.004860966932028532,0.24655894935131073,-1.065811276435852,-0.46144774556159973
44.45,1.6170642375946045,0.020935140550136566,0.2792728543281555,0.30984634160995483,-1.2273441553115845,-0.4027290940284729
44.5,1.809658408164978,-0.5511788725852966,0.10973764955997467,0.32797911763191223,-1.159503698348999,-0.41220277547836304
44.55,1.6534003019332886,-0.6381787657737732,-0.3265307545661926,0.3950663208961487,-0.48922306299209595,-0.5882046818733215
44.6,1.0401792526245117,-0.21919438242912292,-0.07339061796665192,0.4565971791744232,0.4529010057449341,-0.7027587890625
44.65,-0.7914233207702637,-1.029328465461731,-0.03574957326054573,0.5875656008720398,0.988172173500061,-0.6081177592277527
44.7,-1.759624719619751,-1.2054083347320557,-0.26077529788017273,0.601556658744812,0.8695566058158875,-0.44452956318855286
44.75,-1.8179347515106201,0.39745521545410156,-0.7286474704742432,0.35060104727745056,0.20768973231315613,-0.2620709240436554
44.8,-1.3861048221588135,0.37598225474357605,0.17357966303825378,0.2565656006336212,-0.7376420497894287,0.024003859609365463
44.85,-0.07640096545219421,0.29147911071777344,0.42517226934432983,0.4241408705711365,-1.2182519435882568,-0.06529563665390015
44.9,0.22051502764225006,1.0372267961502075,0.7698714137077332,0.6262494325637817,-1.0069141387939453,-0.2205742597579956
44.95,1.1121217012405396,-0.22187618911266327,1.593195915222168,0.9222850203514099,-1.1785976886749268,-0.36332106590270996
45.0,2.370745897293091,-0.2789735198020935,0.9187222123146057,0.9297404885292053,-1.1943875551223755,-0.510162889957428
45.05,2.2372994422912598,0.4827529489994049,0.7743570804595947,1.038755178451538,-0.4739515781402588,-0.46783527731895447
45.1,0.9207249879837036,1.2305184602737427,1.7630242109298706,1.2743725776672363,0.14822788536548615,-0.268856018781662
45.15,1.159466028213501,1.202560544013977,1.1693183183670044,1.0839823484420776,0.08562270551919937,-0.24216699600219727
45.2,0.7809728980064392,1.369132161140442,1.4072798490524292,0.977634072303772,0.32083702087402344,-0.13007482886314392
45.25,-0.5027589797973633,0.8956470489501953,1.9397958517074585,0.7514212727546692,0.37238049507141113,0.0228289645165205
45.3,-0.06445837020874023,-0.06466396898031235,1.4821248054504395,0.2150845229625702,-0.03423371911048889,-0.009408975951373577
45.35,0.03297153115272522,-0.2214232236146927,0.969688355922699,-0.23064839839935303,-0.09835629910230637,0.004606805741786957
45.4,-0.4089776277542114,0.3534993827342987,0.5830746293067932,-0.5526905059814453,-0.11025635898113251,0.008513233624398708
45.45,0.7797533869743347,-0.35965728759765625,0.5228518843650818,-0.7600570917129517,-0.49754559993743896,-0.02679429203271866
45.5,0.40901893377304077,-1.178254246711731,0.7772695422172546,-0.5865073204040527,-0.33648908138275146,0.0773429349064827
45.55,-0.5253482460975647,-1.0088979005813599,-0.5629667639732361,-0.2676178812980652,0.3549879193305969,0.086418516933918
45.6,-0.6623489856719971,-0.12136934697628021,-1.4894723892211914,0.09558074176311493,0.5509211421012878,0.09400434046983719
45.65,-1.0319961309432983,0.1535024493932724,-0.753826916217804,0.25649768114089966,0.17026139795780182,0.13206927478313446
45.7,-0.015887677669525146,0.1674366295337677,-0.35173267126083374,0.37305647134780884,-0.12399967014789581,0.09243298321962357
45.75,0.6671485900878906,0.21476846933364868,0.19228555262088776,0.5369793176651001,-0.24435052275657654,0.04472218081355095
45.8,0.3847159445285797,0.4240007996559143,0.7176607251167297,0.708659827709198,-0.21997015178203583,0.055817559361457825
45.85,0.6771011352539062,0.3933869004249573,0.64222651720047,0.6692251563072205,-0.24235904216766357,0.07503332197666168
45.9,0.09546206891536713,0.08145521581172943,0.6055730581283569,0.6164654493331909,-0.16301847994327545,0.16412492096424103
45.95,-0.024951189756393433,0.09915444999933243,0.7928974628448486,0.5147147178649902,-0.01713293232023716,0.1683855801820755
46.0,-0.22273707389831543,0.3415946662425995,1.0561532974243164,0.26084673404693604,0.05927721783518791,0.12012366950511932
46.05,0.11085137724876404,0.9749260544776917,1.0198209285736084,-0.0469745472073555,0.09882640093564987,0.07353896647691727
46.1,0.2729049623012543,2.08392071723938,0.5729184746742249,-0.43604403734207153,0.09884224832057953,0.039334796369075775
46.15,0.1874588131904602,2.4014313220977783,0.9159132838249207,-0.8710017204284668,-0.027761397883296013,0.057564880698919296
46.2,0.5322962999343872,1.4038974046707153,1.2272440195083618,-1.0387252569198608,0.03679179772734642,0.03710925951600075
46.25,0.2416396290063858,0.2965717315673828,0.7283860445022583,-1.0668226480484009,0.2710970938205719,-0.05063031241297722
46.3,-0.4212114214897156,-0.43017110228538513,0.3413144052028656,-1.073042392730713,0.1720362901687622,-0.04766367748379707
46.35,-0.7157024145126343,-0.7610570788383484,0.03026008978486061,-1.0705499649047852,-0.017806410789489746,0.06479501724243164
46.4,-0.07714596390724182,-0.7934228181838989,-0.5035048723220825,-0.9602946639060974,-0.13912422955036163,0.14207832515239716
46.45,-0.6913924813270569,-0.8532658815383911,-1.1631017923355103,-0.7575552463531494,0.16430145502090454,0.16957919299602509
46.5,-0.6756905913352966,-0.5735569596290588,-1.1273648738861084,-0.5671894550323486,0.35623374581336975,0.1487976312637329
46.55,-1.4647985696792603,-0.4509631097316742,-1.0577222108840942,-0.4128573536872864,0.3812238276004791,0.1885821521282196
46.6,-1.7368696928024292,-1.0285418033599854,-0.7508751153945923,-0.3682120442390442,0.23083242774009705,0.18584489822387695
46.65,-1.1952227354049683,-1.8275326490402222,-0.06883569061756134,-0.4557937681674957,-0.22746016085147858,0.22367358207702637
46.7,2.236607074737549,-0.654176652431488,0.08784682303667068,-0.5024434924125671,-0.8306084871292114,0.19194664061069489
46.75,3.5903687477111816,0.8429587483406067,0.3920220732688904,-0.4336792230606079,-0.9831318855285645,0.14980240166187286
46.8,4.016651630401611,0.6934416890144348,-0.40540891885757446,0.05067029222846031,0.05965409055352211,-0.14651064574718475
46.85,1.046754002571106,2.0415871143341064,-0.9932140111923218,0.26214876770973206,2.0812227725982666,-0.44228097796440125
46.9,-1.1982309818267822,2.1302883625030518,-0.359718918800354,-0.07821690291166306,2.474536418914795,-0.16221490502357483
46.95,-0.856133222579956,0.7959996461868286,-0.9605819582939148,-0.5961079597473145,1.5538657903671265,0.20968188345432281
47.0,-0.25898027420043945,0.46099770069122314,-1.3010245561599731,-0.8302482962608337,1.1761054992675781,0.3892715573310852
47.05,-0.3072327971458435,0.4160805940628052,-1.4186840057373047,-0.8160399198532104,1.4316853284835815,0.42186054587364197
47.1,-0.5690833926200867,0.9240399599075317,-0.7998872995376587,-0.8052111864089966,1.4659655094146729,0.43764016032218933
47.15,-0.9882106781005859,1.2637510299682617,0.538764476776123,-0.7627695202827454,0.8084241151809692,0.6153038740158081
47.2,0.4591636657714844,1.3645278215408325,0.003953483887016773,-0.8402197957038879,-0.3595583736896515,1.0400347709655762
47.25,0.2435397356748581,0.04903509095311165,0.05223878100514412,-0.925952672958374,-0.18588398396968842,1.1552385091781616
47.3,-0.5259094834327698,-1.157340168952942,0.4682351052761078,-1.1878552436828613,0.32365289330482483,0.6065484285354614
47.35,-0.2651103734970093,-1.228089451789856,-0.22550314664840698,-1.3006269931793213,0.22250333428382874,0.17779190838336945
47.4,-0.19294728338718414,-0.7528268098831177,-0.592961847782135,-1.2421069145202637,0.10745003819465637,0.039368756115436554
47.45,-0.49414682388305664,-0.7320881485939026,-0.42775657773017883,-0.9015576839447021,-0.0861135721206665,0.06883304566144943
47.5,-0.2820936441421509,-0.8899813890457153,-0.23482674360275269,-0.6082684993743896,-0.2599466145038605,0.15504080057144165
47.55,0.0007695555686950684,-0.8052598237991333,-0.3900083005428314,-0.4016360342502594,-0.3914593756198883,0.06457328796386719
47.6,-0.07299444824457169,-0.532133162021637,-0.2989230751991272,-0.16397055983543396,-0.33565232157707214,-0.17947305738925934
47.65,-0.4239093065261841,-0.5080452561378479,0.05581250041723251,0.07783594727516174,-0.3655916452407837,-0.28223857283592224
47.7,-0.035668984055519104,-0.43166738748550415,-0.330605149269104,0.22547399997711182,-0.5383705496788025,-0.28396618366241455
47.75,0.10132993757724762,-0.43570616841316223,-0.48127076029777527,0.3988818824291229,-0.7886604070663452,-0.2239844650030136
47.8,0.45705732703208923,-0.6497831344604492,-0.5970154404640198,0.5535572171211243,-0.9707021117210388,-0.18025004863739014
47.85,0.9292009472846985,-0.11160368472337723,-0.2951286733150482,0.7953081130981445,-1.0593035221099854,-0.2191944569349289
47.9,1.7902905941009521,0.0689622163772583,-0.24318867921829224,0.8871400952339172,-1.1972084045410156,-0.22422745823860168
47.95,2.26889705657959,0.2826845049858093,-0.19264136254787445,1.0487775802612305,-1.1287040710449219,-0.21949762105941772
48.0,1.9599179029464722,0.34202495217323303,0.14294180274009705,1.2303966283798218,-0.844485878944397,-0.22016790509223938
48.05,1.7349213361740112,0.4959851801395416,0.10591325908899307,1.3050318956375122,-0.5192774534225464,-0.08679959923028946
48.1,0.9027152061462402,0.8806163668632507,0.11266536265611649,1.3107781410217285,-0.09920703619718552,0.13565099239349365
48.15,-0.7998372912406921,0.8760901093482971,0.20345354080200195,1.1032804250717163,0.00010703112639021128,0.49697524309158325
48.2,-1.4361212253570557,0.8525075912475586,0.13089555501937866,0.8806231021881104,-0.5094329714775085,0.6924381852149963
48.25,-0.8807888031005859,1.463165283203125,0.3251468539237976,0.6063185334205627,-1.0781991481781006,0.6257988810539246
48.3,-0.24584893882274628,1.3430129289627075,0.08408451825380325,0.26938891410827637,-1.36799156665802,0.45852354168891907
48.35,-1.1501030921936035,0.46660423278808594,-0.33924341201782227,-0.020425334572792053,-1.190883994102478,0.2788950204849243
48.4,-1.2980804443359375,0.2784614562988281,-1.059496521949768,-0.44221991300582886,-1.519913673400879,0.10961366444826126
48.45,0.8150096535682678,1.1214401721954346,-1.1153799295425415,-0.7708057165145874,-2.387911081314087,-0.1272864043712616
48.5,1.3030191659927368,0.047945089638233185,0.3316774368286133,-0.5669418573379517,-2.9845612049102783,-0.16887137293815613
