Time [s],Acc_x [m/s^2],Acc_y [m/s^2],Acc_z [m/s^2],Gyro_x [1/s],Gyro_y [1/s],Gyro_z [1/s]
0.0,0.0277871023863554,0.12035275995731354,-0.043642595410346985,0.0025652956683188677,-0.007330008782446384,-0.0021504994947463274
0.05,0.06373380869626999,0.09327222406864166,-0.010346679948270321,0.00248434254899621,0.04868609458208084,-0.008058975450694561
0.1,0.012262070551514626,0.08833790570497513,-0.04967550188302994,0.008432341739535332,0.09058348834514618,-0.016463642939925194
0.15,0.004519205540418625,0.0170898474752903,-0.05194845050573349,0.024149004369974136,0.07485797256231308,-0.008784475736320019
0.2,0.0018092915415763855,0.08728887140750885,-0.14896751940250397,0.038972802460193634,0.0509432815015316,-0.004243878647685051
0.25,0.023966897279024124,0.139497771859169,-0.08555798977613449,0.030526669695973396,0.0684087872505188,-0.01753143221139908
0.3,-0.034691378474235535,0.16665460169315338,-0.06636416167020798,0.022701526060700417,0.08464675396680832,-0.026165200397372246
0.35,0.03220311179757118,0.1613912731409073,-0.07635930180549622,0.021483145654201508,0.051737379282712936,-0.020938362926244736
0.4,0.05729746073484421,0.21520331501960754,-0.004333176650106907,0.015708325430750847,0.059448979794979095,-0.02210063673555851
0.45,0.008734618313610554,0.17652608454227448,0.0005221768515184522,0.0028984341770410538,0.06698380410671234,-0.02021894045174122
0.5,0.05236101150512695,0.19465354084968567,0.04350027069449425,-0.007683514151722193,0.040900569409132004,-0.016724344342947006
0.55,0.07758481055498123,0.20116427540779114,0.007615189999341965,-0.018011456355452538,0.025911206379532814,-0.010223133489489555
0.6,0.09571865200996399,0.16907504200935364,-0.0762905403971672,-0.01821575127542019,0.0011788742849603295,-0.0018064974574372172
0.65,0.03796299919486046,0.1558380275964737,-0.04102027043700218,-0.017987890169024467,-0.010943854227662086,0.00688953697681427
0.7,0.005112584680318832,0.14295484125614166,-0.008778921328485012,-0.020918508991599083,-0.01461555901914835,0.013329492881894112
0.75,0.07181716710329056,0.13285638391971588,-0.02157958783209324,-0.021557098254561424,-0.010243091732263565,0.010604177601635456
0.8,-0.012039920315146446,0.10418321192264557,-0.007479233201593161,-0.012028414756059647,-0.005905338563024998,0.015287688001990318
0.85,0.08978628367185593,0.12707902491092682,-0.0044514816254377365,0.005559845827519894,-0.032319482415914536,0.016699286177754402
0.9,-0.019271552562713623,0.13801957666873932,-0.008030439727008343,0.007065454963594675,-0.008538161404430866,0.01473724190145731
0.95,-0.005462083965539932,0.03337574750185013,-0.07315019518136978,0.01824195683002472,-0.03961190953850746,0.021809859201312065
1.0,0.12091732025146484,0.11102677881717682,0.14806199073791504,0.04489760100841522,-0.04373487830162048,0.006952368188649416
1.05,-0.48610952496528625,0.28458595275878906,0.18932382762432098,0.06975899636745453,0.0799827054142952,0.008318517357110977
1.1,0.13092607259750366,0.22455792129039764,-0.2627052366733551,0.049968890845775604,-0.1694335788488388,-0.005779286380857229
1.15,0.4972485303878784,0.21717460453510284,-0.3427603542804718,-0.0019543375819921494,-0.05479898303747177,-0.03796425834298134
1.2,-0.15609043836593628,0.1866922527551651,-0.09606758505105972,-0.0512697696685791,0.15268410742282867,-0.013714728876948357
1.25,-0.07120627909898758,0.05150413140654564,0.11929263919591904,-0.02711496688425541,-0.023906869813799858,0.028253355994820595
1.3,-0.1025199219584465,0.09308146685361862,0.2526038885116577,-0.02383139729499817,-0.053939707577228546,0.033587414771318436
1.35,-0.20470160245895386,0.19261647760868073,0.20404957234859467,-0.016200292855501175,-0.027446068823337555,0.012870462611317635
1.4,-0.060534849762916565,0.5450583100318909,0.4131765067577362,0.020417336374521255,-0.22226382791996002,0.046135567128658295
1.45,-0.3612387180328369,0.023874275386333466,-0.20668014883995056,0.08113060146570206,-0.8431681394577026,0.3137013614177704
1.5,0.9748467803001404,0.05867776647210121,-0.6437289714813232,0.20277127623558044,-1.743918776512146,0.6371514797210693
1.55,0.20108100771903992,-0.2575177848339081,-1.053694725036621,0.14861753582954407,-1.13473641872406,0.5088347792625427
1.6,-0.2394932508468628,-0.5124568939208984,-1.4339343309402466,0.007464326918125153,0.05250794067978859,0.16255992650985718
1.65,-0.5483146905899048,-0.025531752035021782,-1.1206190586090088,-0.21362066268920898,1.3902018070220947,-0.2533881962299347
1.7,-0.6440577507019043,0.0847463607788086,-0.6299838423728943,-0.4864988923072815,2.498619794845581,-0.5176166892051697
1.75,-0.668140172958374,-0.35564714670181274,-0.23427490890026093,-0.5644398927688599,3.002133369445801,-0.5460222363471985
1.8,0.38047078251838684,0.8338367342948914,-0.9796009659767151,-0.3362058103084564,2.9712111949920654,-0.24122990667819977
1.85,-0.6543590426445007,1.5620671510696411,0.6158315539360046,0.18756559491157532,3.1232993602752686,0.029953623190522194
1.9,0.011935710906982422,1.2905550003051758,2.0294203758239746,0.5808647871017456,2.2617106437683105,0.19743777811527252
1.95,0.22317290306091309,0.5458735823631287,3.271423578262329,0.8061543703079224,1.032557725906372,0.3416082561016083
2.0,-0.36421555280685425,-0.6370899081230164,1.9035298824310303,0.9625423550605774,-0.364063560962677,0.4751327633857727
2.05,1.0520623922348022,0.026733487844467163,-0.5346956253051758,0.9112493991851807,-0.9076626896858215,0.386772096157074
2.1,0.33539947867393494,0.07472038269042969,0.5469628572463989,0.5308860540390015,0.1841358244419098,0.20754164457321167
2.15,0.5928764343261719,-0.4799080491065979,0.4829947054386139,0.030908245593309402,0.36783796548843384,0.15731190145015717
2.2,0.7403383255004883,-0.11257652193307877,1.3360447883605957,-0.25435253977775574,0.49102455377578735,-0.03088551014661789
2.25,1.2008469104766846,0.3025417923927307,0.9006839394569397,-0.5666520595550537,0.5686243772506714,-0.08655194938182831
2.3,0.9962666034698486,0.10433008521795273,1.0911223888397217,-0.8078949451446533,0.5186626315116882,-0.046462856233119965
2.35,1.0923067331314087,0.41946420073509216,0.7184646129608154,-0.6805964112281799,-0.39511504769325256,0.13890907168388367
2.4,0.750245988368988,0.13265715539455414,-0.918391227722168,-0.5813695192337036,-0.6853119730949402,0.4187110960483551
2.45,0.2552732527256012,-0.06816667318344116,-1.0991833209991455,-0.3381856679916382,-0.46742671728134155,0.42179471254348755
2.5,-0.4320167899131775,-0.24407102167606354,-0.8053175806999207,-0.15537598729133606,-0.1479734480381012,0.2764758765697479
2.55,-0.48183581233024597,-0.47952085733413696,-0.7834177017211914,0.0837247371673584,-0.30070072412490845,0.019916005432605743
2.6,0.016011178493499756,0.25951677560806274,-0.8848398923873901,0.2911943793296814,-0.2788161337375641,-0.3014388084411621
2.65,1.041550874710083,0.6069155931472778,0.06238977611064911,0.150109201669693,0.38263195753097534,-0.4294278919696808
2.7,0.2691068649291992,-0.3230753242969513,0.12386064976453781,-0.08645741641521454,0.9176182746887207,-0.24504877626895905
2.75,0.6435551643371582,0.6459637880325317,0.09896977245807648,0.3556652069091797,0.04680586978793144,-0.1575832962989807
2.8,0.7164297103881836,0.9083300828933716,0.6577715277671814,0.5266376733779907,-0.6957311630249023,-0.11761382967233658
2.85,0.1386764645576477,0.37445253133773804,1.8262217044830322,0.18899300694465637,-0.8375355005264282,0.0260150246322155
2.9,-0.6982744932174683,0.05534156784415245,2.534456968307495,-0.11461304873228073,-1.1334272623062134,0.14497163891792297
2.95,-1.5640580654144287,-0.28073620796203613,2.6678240299224854,-0.3233503997325897,-1.6919219493865967,0.16426289081573486
3.0,-1.414543867111206,-0.8367292284965515,-0.1917141079902649,-0.553270161151886,-2.2082486152648926,-0.049647584557533264
3.05,3.5117077827453613,0.21847395598888397,-6.225264549255371,-0.18130812048912048,-1.972989797592163,-0.5706100463867188
3.1,8.241034507751465,1.24970543384552,-10.015815734863281,0.6787416934967041,0.47626158595085144,-0.3972541391849518
3.15,-1.4375102519989014,-0.06295308470726013,0.012634511105716228,1.5123519897460938,2.433258533477783,0.2594715356826782
3.2,-1.8957934379577637,0.4259565472602844,2.661818742752075,1.3599636554718018,1.3224674463272095,0.2622402012348175
3.25,-0.8603355884552002,-0.6003860235214233,4.942880630493164,1.1155048608779907,1.681552767753601,0.04734230786561966
3.3,-0.5808167457580566,-1.866847038269043,5.267936706542969,0.6305062770843506,1.3943365812301636,-0.3308463990688324
3.35,0.45886343717575073,-0.7135478258132935,2.4283413887023926,0.16408559679985046,-0.05611107125878334,-0.7188087701797485
3.4,2.9807791709899902,1.529329776763916,-1.8950382471084595,-0.00030410289764404297,-1.1562786102294922,-0.9182804226875305
3.45,2.7774453163146973,1.604325771331787,-1.2970649003982544,0.14474695920944214,-0.7835706472396851,-0.5785351991653442
3.5,1.4471688270568848,0.32360851764678955,0.12030091136693954,-0.10769462585449219,0.04036342725157738,-0.23945832252502441
3.55,0.39855098724365234,0.5121020674705505,2.6194605827331543,-0.5403191447257996,0.6203899383544922,-0.047706976532936096
3.6,1.4223122596740723,0.7881433367729187,-0.06937307119369507,-0.8585611581802368,-0.12769941985607147,0.14933915436267853
3.65,1.2838306427001953,2.0242207050323486,-0.6616692543029785,-0.21236419677734375,-1.159921646118164,0.35670456290245056
3.7,0.4349735975265503,1.1321479082107544,-0.10594264417886734,-0.21558043360710144,-0.8428824543952942,0.4712367653846741
3.75,-0.3757632374763489,-0.6963626146316528,0.43904638290405273,-0.6134948134422302,-0.002435893751680851,0.4287469983100891
3.8,-1.2003250122070312,-1.1594316959381104,0.8149740099906921,-0.8635239601135254,0.09867513924837112,0.3381299376487732
3.85,-1.3447988033294678,-0.42785945534706116,0.22030290961265564,-1.0136665105819702,-0.5076988935470581,0.26897865533828735
3.9,-0.6967741847038269,-0.3114033043384552,-0.9529198408126831,-1.0500872135162354,-0.782965362071991,0.249360591173172
3.95,-0.8328666687011719,-0.07413386553525925,-1.3679759502410889,-0.9645397067070007,-0.5307177305221558,0.21310065686702728
4.0,-0.9385713934898376,0.32119277119636536,-1.3872942924499512,-0.8075555562973022,-0.35070303082466125,0.14371496438980103
4.05,-0.3376174867153168,-0.016554800793528557,-1.1549773216247559,-0.5629194974899292,-0.29952266812324524,-0.012037180364131927
4.1,-0.5157479643821716,-0.31686118245124817,-0.46971264481544495,-0.2559972405433655,-0.07825912535190582,-0.1462152898311615
4.15,-0.47133004665374756,-0.2317238301038742,-0.20504868030548096,0.09097055345773697,-0.2398511916399002,-0.16514968872070312
4.2,-0.5181595683097839,0.038898445665836334,-0.09809991717338562,0.3273962140083313,-0.43512722849845886,-0.1513163447380066
4.25,-0.23657232522964478,0.0739603117108345,-0.29450011253356934,0.38319075107574463,-0.5538932681083679,-0.18470551073551178
4.3,0.20795679092407227,0.07740312069654465,-0.6939046382904053,0.32215195894241333,-0.3699881434440613,-0.26082172989845276
4.35,0.9245204925537109,0.2845879793167114,-1.0378245115280151,0.2581251263618469,0.0871894583106041,-0.3211333751678467
4.4,0.9858546257019043,0.5558883547782898,-0.7457977533340454,0.3750590682029724,0.5875944495201111,-0.32048022747039795
4.45,0.32902318239212036,0.7111139893531799,0.3252995014190674,0.6106777787208557,0.7372238636016846,-0.1451008915901184
4.5,-0.13632097840309143,0.3975725471973419,0.6712471842765808,0.715090811252594,0.25897690653800964,0.007777888793498278
4.55,0.06370171904563904,0.4017334282398224,0.726208508014679,0.5957005023956299,-0.1453171968460083,0.07199545949697495
4.6,0.06206569820642471,-0.23313145339488983,0.2412116378545761,0.26495277881622314,-0.09801135212182999,0.07605022192001343
4.65,0.4430723786354065,0.0486774705350399,0.1224130243062973,0.0018292739987373352,0.1654203087091446,0.12227343767881393
4.7,0.5458136200904846,0.5623283982276917,0.42200013995170593,-0.14923511445522308,0.652706503868103,0.1744324266910553
4.75,-0.2885669469833374,0.39251708984375,1.0054582357406616,-0.18791939318180084,0.8831217288970947,0.20822864770889282
4.8,-0.07139739394187927,0.01757522113621235,0.8619779348373413,-0.18180204927921295,0.43361175060272217,0.18317681550979614
4.85,0.402854323387146,-0.42449575662612915,0.5277279615402222,-0.2343447208404541,0.16710451245307922,0.1241346076130867
4.9,-0.111321359872818,0.1464853137731552,0.5170556306838989,-0.2938165068626404,0.1980511099100113,0.036997050046920776
4.95,0.9202389717102051,0.5579997301101685,0.2713983654975891,-0.24425336718559265,0.11890017241239548,-0.06317613273859024
5.0,-0.018165677785873413,-0.1351204514503479,0.7877066135406494,-0.11505875736474991,0.09702257066965103,-0.10352994501590729
5.05,-0.3677411675453186,-0.3335743546485901,0.03955681994557381,0.05239589512348175,-0.6318563222885132,0.016308080404996872
5.1,0.6151821613311768,0.1645727902650833,-0.4231482148170471,-0.015209127217531204,-0.9641116261482239,0.07746787369251251
5.15,0.37422385811805725,0.3998919427394867,-0.2838532030582428,-0.20250245928764343,-0.13802829384803772,-0.05458539351820946
5.2,-0.13587543368339539,-0.23798184096813202,0.3030693233013153,-0.18179628252983093,0.19053544104099274,-0.06354599446058273
5.25,0.04166027903556824,-0.1573181301355362,0.018343105912208557,0.05515165627002716,-0.4665389358997345,0.10899001359939575
5.3,0.06744065880775452,-0.09393975883722305,-0.706254243850708,0.029145479202270508,-0.7595199346542358,0.19733542203903198
5.35,0.6328439712524414,0.42614760994911194,-1.0822527408599854,-0.19554612040519714,-0.32356396317481995,0.06613345444202423
5.4,0.8581260442733765,1.081524133682251,-0.3607877790927887,-0.3056405484676361,0.825569748878479,-0.07063992321491241
5.45,-0.5171089172363281,0.3216695189476013,1.3761475086212158,-0.07772469520568848,1.5100290775299072,-0.11043006926774979
5.5,-0.6856151223182678,-0.5231925845146179,1.8009897470474243,0.3608010411262512,0.40344753861427307,0.09211970865726471
5.55,0.22765637934207916,0.1958913952112198,0.7138446569442749,0.46191880106925964,-0.5337618589401245,0.10422439128160477
5.6,-0.12462218105792999,0.7720328569412231,0.45538562536239624,0.09166336059570312,0.07299479842185974,-0.017962554469704628
5.65,0.08330605924129486,0.611849844455719,-0.26573196053504944,-0.04166340082883835,0.28212517499923706,-0.020819203928112984
5.7,0.12463637441396713,0.20878033339977264,-0.06016295403242111,0.15003181993961334,-0.043089449405670166,0.14576385915279388
5.75,-0.33874180912971497,-0.1586494892835617,0.18753543496131897,0.21501287817955017,-0.29032182693481445,0.2573327124118805
5.8,-0.19077938795089722,-0.011437433771789074,0.12601959705352783,-0.017238013446331024,-0.38566842675209045,0.18476223945617676
5.85,0.6437704563140869,0.4948073625564575,-0.2621563971042633,-0.3042369484901428,-0.24353604018688202,0.020803537219762802
5.9,0.3765655755996704,-0.06083391606807709,8.314394654007629e-05,-0.2802433371543884,0.11577700078487396,-0.06120330095291138
5.95,-0.09178902208805084,-0.4378682076931,0.2859446704387665,0.007568605709820986,-0.1641445755958557,0.02409115433692932
6.0,-0.016122959554195404,0.13789081573486328,0.14498965442180634,0.14126722514629364,-0.5039255619049072,0.08209114521741867
6.05,0.1414077877998352,0.44235140085220337,-0.11175919324159622,-0.04198497161269188,-0.3036154806613922,0.01982351392507553
6.1,0.44078850746154785,0.1517077088356018,-0.43272900581359863,-0.1936279535293579,-0.08449272066354752,-0.0682501420378685
6.15,0.5341318845748901,-0.01205056719481945,-0.6872181296348572,-0.15699708461761475,-0.0021336860954761505,-0.04205938056111336
6.2,0.5157983303070068,0.183232381939888,-0.5045660734176636,-0.01609685644507408,0.05444710701704025,0.042310722172260284
6.25,0.16675379872322083,0.19248966872692108,-0.18327735364437103,0.013792052865028381,0.26283568143844604,0.07552823424339294
6.3,0.10078845918178558,0.3155050575733185,0.19332927465438843,0.008802734315395355,0.44325000047683716,0.053271953016519547
6.35,-0.18415559828281403,0.1443176120519638,0.33422115445137024,0.059136681258678436,0.38536736369132996,0.06320104002952576
6.4,0.19740819931030273,-0.17255687713623047,0.03268339857459068,0.1430216133594513,0.09989353269338608,0.08696307241916656
6.45,0.24270379543304443,-0.36381053924560547,-0.06835125386714935,0.16681724786758423,0.100548155605793,0.09240502864122391
6.5,0.03140467032790184,0.12226201593875885,0.05946514755487442,0.18017831444740295,0.1383272260427475,0.07731408625841141
6.55,0.14975027740001678,0.5514784455299377,-0.010360267013311386,0.16073332726955414,0.08248644322156906,0.036680541932582855
6.6,0.19638971984386444,0.15610793232917786,-0.05696745961904526,0.09634401649236679,0.1749785989522934,-0.01077377237379551
6.65,0.1333714723587036,-0.07211972028017044,0.19059060513973236,0.05700107663869858,0.22448880970478058,-0.026436496526002884
6.7,0.3806494474411011,-0.09645654261112213,0.4958931505680084,0.022011417895555496,0.22658084332942963,-0.07232000678777695
6.75,-0.08784538507461548,0.3050689399242401,0.853480339050293,-0.0357741117477417,0.30163484811782837,-0.09532005339860916
6.8,0.044869840145111084,0.6266164779663086,0.9120988249778748,-0.009872028604149818,0.027636414393782616,-0.07183871418237686
6.85,-0.1874999701976776,0.467536985874176,-0.023879753425717354,0.00798274576663971,-0.4487322270870209,0.0010297595290467143
6.9,0.5887821912765503,0.42108359932899475,-1.0968475341796875,-0.12020301818847656,-0.7130534052848816,0.03770923241972923
6.95,0.45637255907058716,0.09565933793783188,-0.8885377645492554,-0.31408241391181946,-0.1834847331047058,0.039220958948135376
7.0,-0.21797962486743927,-0.04537489637732506,0.20072612166404724,-0.30819374322891235,0.3343169391155243,0.05397740378975868
7.05,-0.3117753267288208,0.1650085151195526,0.5509023070335388,-0.09436669945716858,0.13798612356185913,0.07835301756858826
7.1,-0.07327991724014282,0.2221384197473526,0.20090804994106293,0.01665743812918663,-0.17444713413715363,0.08828124403953552
7.15,-0.05346856638789177,0.14553166925907135,-0.1454147845506668,-0.009834717959165573,-0.1319189816713333,0.0464371033012867
7.2,-0.1390416920185089,-0.03875255212187767,-0.3257106840610504,-0.008439811877906322,0.013017801567912102,-0.007942994125187397
7.25,0.2948170304298401,0.06171422451734543,-0.5643224120140076,0.08208245784044266,0.06384167820215225,-0.031751278787851334
7.3,0.14794550836086273,0.12800125777721405,-0.3942325711250305,0.14625981450080872,0.24891933798789978,-0.023735083639621735
7.35,-0.05438459664583206,0.10008813440799713,-0.12877382338047028,0.15175104141235352,0.42634886503219604,-0.0273533146828413
7.4,-0.040975309908390045,-0.10738470405340195,0.044848062098026276,0.12387453019618988,0.4813370108604431,-0.044978950172662735
7.45,-0.01445799507200718,-0.13613320887088776,0.008648497052490711,0.06851663440465927,0.50385981798172,-0.09326470643281937
7.5,-0.15167424082756042,0.16417980194091797,0.01382139790803194,-0.006747312843799591,0.6313390731811523,-0.13117794692516327
7.55,0.4038660526275635,0.41220101714134216,-0.04220783710479736,-0.012106120586395264,0.7591639757156372,-0.1554708629846573
7.6,-0.026529520750045776,0.3442716598510742,0.3904881179332733,-0.02532927691936493,0.8509914875030518,-0.11330980807542801
7.65,0.5556179285049438,0.5787191987037659,0.08033658564090729,0.0637165904045105,0.5164335370063782,-0.08710688352584839
7.7,0.341744065284729,0.2419786900281906,0.09145881235599518,0.11848306655883789,0.4938215911388397,-0.01597641035914421
7.75,0.3262999653816223,0.13051606714725494,0.38285040855407715,0.23077979683876038,0.44332972168922424,0.02499840036034584
7.8,0.4812791049480438,0.4950628876686096,0.7220267057418823,0.26089316606521606,0.42595821619033813,0.0366850383579731
7.85,0.8488588929176331,0.0619058758020401,0.8672358393669128,0.13221684098243713,0.464937299489975,0.08925668895244598
7.9,0.8117756247520447,0.431151419878006,1.5476611852645874,0.04236894100904465,0.38385677337646484,0.20468653738498688
7.95,1.145569086074829,0.9953862428665161,1.4751806259155273,-0.015127018094062805,-0.027298957109451294,0.3448246419429779
8.0,2.01827073097229,0.8943130373954773,0.8701763153076172,-0.08074574172496796,-0.3969676196575165,0.43647077679634094
8.05,1.0970288515090942,0.8367672562599182,2.513697624206543,-0.005786240100860596,-0.5352365970611572,0.5495713353157043
8.1,-0.4260873794555664,0.7221544981002808,3.619141101837158,0.1270497441291809,-1.324650526046753,0.6530125141143799
8.15,-0.2672797441482544,0.491111695766449,2.2420098781585693,0.14642095565795898,-2.299553871154785,0.7690086364746094
8.2,-1.623023271560669,0.10742556303739548,0.9644356369972229,-0.1252579391002655,-2.4918551445007324,0.8767563700675964
8.25,-1.858527660369873,-0.40855228900909424,-0.8986799716949463,-0.26325613260269165,-2.835629940032959,0.8632528185844421
8.3,-1.7681310176849365,-0.4330978989601135,-1.9739446640014648,-0.45107680559158325,-2.9030117988586426,0.749847948551178
8.35,-0.9193909764289856,-0.7135419845581055,-2.571101427078247,-0.6767743229866028,-2.743945837020874,0.4695155620574951
8.4,-0.8437946438789368,-0.5401725769042969,-2.691650390625,-0.8129657506942749,-2.1856789588928223,0.049158498644828796
8.45,-0.7316434383392334,-0.026361383497714996,-2.7442915439605713,-0.7807877063751221,-1.6413075923919678,-0.2878890037536621
8.5,0.4573059678077698,-0.5524968504905701,-1.674828290939331,-0.1956961750984192,-1.299688696861267,-0.6174007654190063
8.55,-0.31123828887939453,-0.247707337141037,-1.6203901767730713,0.1540176421403885,-0.643438458442688,-0.4914720952510834
8.6,1.140282154083252,-0.4134663939476013,-1.0927951335906982,0.4426378905773163,-0.19446127116680145,-0.3206799030303955
8.65,-0.4463628828525543,-1.1905137300491333,-1.2403186559677124,0.851506233215332,1.0790953636169434,-0.46835485100746155
8.7,-2.631258726119995,-0.823398768901825,-1.624816656112671,1.276634693145752,1.376497507095337,-0.13540960848331451
8.75,-2.2484683990478516,0.6740931868553162,-0.44904613494873047,1.5819201469421387,0.859235942363739,0.2886952757835388
8.8,1.2647032737731934,0.9526940584182739,1.051079511642456,1.638134241104126,0.9319785237312317,0.2881413698196411
8.85,2.2227141857147217,1.9801428318023682,2.3586597442626953,1.4417966604232788,2.0551772117614746,0.05133918300271034
8.9,1.4071484804153442,1.220887303352356,2.7051470279693604,1.0391744375228882,0.9573038220405579,0.41097158193588257
8.95,2.8877363204956055,1.0827209949493408,1.3830922842025757,1.0179861783981323,-0.32156747579574585,0.8137959837913513
9.0,0.6998148560523987,-0.9262953996658325,0.9634257555007935,0.7024660706520081,0.38206613063812256,0.9850857257843018
9.05,1.4106152057647705,-1.2890101671218872,0.9549674987792969,0.49907004833221436,0.4158828556537628,0.7018393874168396
9.1,2.338728427886963,-1.260115623474121,1.6223418712615967,-0.028479307889938354,0.7813453674316406,0.4662467837333679
9.15,2.1787993907928467,-1.5500786304473877,2.1588709354400635,-0.4296377897262573,1.147137999534607,0.28732964396476746
9.2,2.150989294052124,-1.4473248720169067,2.4484214782714844,-0.35439255833625793,0.6576822400093079,0.08805523812770844
9.25,2.6279358863830566,-1.1338777542114258,1.713964581489563,-0.19890260696411133,-0.2248925119638443,-0.08131512999534607
9.3,2.4543795585632324,-1.575968861579895,1.1039050817489624,-0.28018438816070557,-0.4721279442310333,-0.18202924728393555
9.35,0.05961114168167114,0.1631440818309784,0.9858062863349915,-0.3762190341949463,-0.45878490805625916,-0.2959534227848053
9.4,-1.3156079053878784,-1.3338358402252197,-0.10039488226175308,-0.37999022006988525,-0.6302474141120911,-0.4152781367301941
9.45,-1.0847926139831543,0.9122944474220276,-0.11435770243406296,-0.04210536181926727,-0.8449056148529053,-0.4967863857746124
9.5,-1.2544054985046387,-0.5058985948562622,-0.8891894221305847,0.16166219115257263,-0.392698734998703,-0.20522330701351166
9.55,-3.800635814666748,-1.7109808921813965,-0.8057763576507568,0.2774977684020996,-0.018529968336224556,0.03962016850709915
9.6,-4.148581504821777,-0.9711058735847473,-1.0440144538879395,0.5101665258407593,-0.3006773591041565,0.08157471567392349
9.65,-2.563262701034546,-0.0491858571767807,-1.094597339630127,0.4546772241592407,-0.1415739208459854,-0.13339105248451233
9.7,-3.1774096488952637,0.03828798234462738,-0.9745495319366455,0.13819776475429535,0.8323898911476135,-0.22959408164024353
9.75,-2.582944393157959,1.7639657258987427,-0.7238368988037109,0.1278308779001236,1.424658179283142,-0.43444544076919556
9.8,-2.4692394733428955,2.034788131713867,-0.3126305043697357,0.08485603332519531,1.4898096323013306,-0.6033957600593567
9.85,-3.6556849479675293,3.603797197341919,-0.15219292044639587,0.4686051607131958,0.3513704836368561,-0.5506027936935425
9.9,-1.3071306943893433,4.9925618171691895,-0.6546458005905151,0.5859493613243103,-0.48191332817077637,-0.481219619512558
9.95,-0.7296538949012756,4.893387317657471,-0.3607637584209442,0.11714804172515869,0.14737169444561005,-0.2981018126010895
10.0,-1.3256936073303223,4.525404453277588,0.150227352976799,-0.20691844820976257,0.5209647417068481,-0.159803107380867
10.05,-0.5989896059036255,3.632567882537842,0.031366024166345596,-0.4830184876918793,0.3327522277832031,0.0015865067252889276
10.1,-1.423652172088623,2.1843998432159424,-0.06271536648273468,-0.700957715511322,0.6399477124214172,0.17796970903873444
10.15,-2.1736607551574707,0.8226938247680664,0.3389328718185425,-0.7950654029846191,0.6660522222518921,0.2649538218975067
10.2,-2.3441386222839355,0.34159550070762634,0.725149929523468,-0.6587635278701782,0.16369882225990295,0.14087410271167755
10.25,-2.015139579772949,-0.33638685941696167,0.7634756565093994,-0.4650712013244629,-0.189456969499588,-0.03879868984222412
10.3,-1.8447961807250977,-1.0223572254180908,1.2014079093933105,-0.28650832176208496,-0.47473326325416565,-0.2887195944786072
10.35,-1.3204113245010376,-1.1794054508209229,1.8967838287353516,-0.03339339792728424,-0.9876535534858704,-0.4666217863559723
10.4,-0.9144616723060608,-1.6964839696884155,2.5567691326141357,0.1550789624452591,-1.0761640071868896,-0.5753043293952942
10.45,-1.036402702331543,-2.622469425201416,2.5731964111328125,0.41188812255859375,-1.275669813156128,-0.6839817762374878
10.5,-0.5076283812522888,-3.862750768661499,2.205332040786743,0.38721010088920593,-1.4158008098602295,-0.4624435007572174
10.55,-0.7470963001251221,-4.135893821716309,1.835785150527954,0.11493583023548126,-1.7279484272003174,-0.20536458492279053
10.6,0.032612673938274384,-4.290639877319336,0.12473642081022263,0.11547764390707016,-2.7532687187194824,-0.14706970751285553
10.65,1.9169812202453613,-5.138111114501953,-1.8958133459091187,-0.16381263732910156,-3.9709911346435547,0.007355200592428446
10.7,4.410412311553955,-4.04205322265625,-0.128099262714386,-0.4784175157546997,-4.230447769165039,0.18306602537631989
10.75,2.707042932510376,-1.6221704483032227,-1.247383952140808,-0.3415723741054535,-2.194815158843994,0.1631723791360855
10.8,2.042667865753174,-0.4225604832172394,-3.303802013397217,0.0677437037229538,-1.650604009628296,0.22259706258773804
10.85,5.617568016052246,0.22248506546020508,-2.6916613578796387,0.3458765745162964,-2.6782379150390625,0.0781366154551506
10.9,6.371098518371582,0.8998981714248657,-1.881998896598816,0.16552385687828064,-2.0344114303588867,0.006126974709331989
10.95,4.275524139404297,5.589175224304199,-1.6448638439178467,0.28290432691574097,-0.18282145261764526,-0.1114065945148468
11.0,3.4069833755493164,6.918886184692383,-0.0036431164480745792,0.4625694751739502,1.067129373550415,-0.7768920063972473
11.05,2.2529263496398926,5.3641886711120605,-0.7264108061790466,0.5803512334823608,0.6950002908706665,-1.2550652027130127
11.1,4.610565185546875,4.318525314331055,0.07690199464559555,0.30851390957832336,-0.9033023118972778,-1.1994519233703613
11.15,7.4999189376831055,0.8077988624572754,1.2881144285202026,0.02766294777393341,-0.9238136410713196,-0.47183969616889954
11.2,5.762717247009277,1.2719253301620483,0.8256059885025024,-0.065400630235672,0.6592115759849548,0.7458696961402893
11.25,0.904270350933075,2.4881069660186768,-0.911638081073761,-0.5239260196685791,0.9255461096763611,1.4022880792617798
11.3,-0.2448102980852127,1.228805661201477,-0.47526463866233826,-0.6540379524230957,0.07358816266059875,1.3162140846252441
11.35,0.05748319625854492,0.9144974946975708,0.33671408891677856,-0.575140655040741,0.14828160405158997,0.8518797159194946
11.4,1.8735202550888062,1.3958714008331299,-0.3216804563999176,-0.7493039965629578,1.164276361465454,0.1335318684577942
11.45,3.444552421569824,3.5411365032196045,-0.07162938266992569,-0.7659002542495728,2.1669702529907227,-0.5120611786842346
11.5,1.8156630992889404,0.8461887836456299,-0.796467125415802,-1.046884298324585,3.317843437194824,-0.9249544739723206
11.55,-4.646442413330078,0.7584819197654724,-1.486462950706482,-0.8961949348449707,3.298201084136963,-0.8718069791793823
11.6,-2.7391843795776367,-0.3155786693096161,0.618109405040741,-0.5097728371620178,0.28552308678627014,-0.6260578632354736
11.65,-3.6980433464050293,-1.283501148223877,2.8028159141540527,-0.34338340163230896,0.29612821340560913,-0.10193004459142685
11.7,-6.779223918914795,-3.4838123321533203,2.3711230754852295,-0.18140378594398499,1.9475070238113403,0.197334885597229
11.75,-9.419291496276855,-4.775027275085449,1.6801201105117798,-0.26422980427742004,1.350660800933838,0.17407231032848358
11.8,-4.851544380187988,-4.538424968719482,-0.6687353849411011,-0.0667673647403717,-1.7515391111373901,0.5642943978309631
11.85,1.0503864288330078,-3.5900814533233643,-1.693979024887085,0.057936787605285645,-3.36914324760437,1.0592150688171387
11.9,-0.7404598593711853,-0.4978637993335724,-1.6672085523605347,-0.07315945625305176,-2.1315860748291016,1.3956124782562256
11.95,0.5546342730522156,1.1663858890533447,-0.6036520600318909,-0.3627845346927643,-0.8037160038948059,1.2158520221710205
12.0,0.05989407002925873,1.6148617267608643,0.5373018383979797,-0.34145936369895935,1.3742666244506836,0.7647310495376587
12.05,-0.39605724811553955,0.24571505188941956,2.0298492908477783,-0.11161527037620544,2.8712594509124756,0.39786162972450256
12.1,-2.7296905517578125,-3.352410078048706,1.2744410037994385,0.5607614517211914,2.26745867729187,0.44515153765678406
12.15,-0.7035548686981201,-3.1064414978027344,-0.23424756526947021,1.1893398761749268,-1.0826562643051147,0.6194223165512085
12.2,1.3122326135635376,-1.71321702003479,1.064976692199707,1.3030052185058594,-2.3457083702087402,0.19895100593566895
12.25,1.7713580131530762,-1.5355130434036255,0.628707766532898,0.5679478645324707,-1.267075538635254,-0.3049214780330658
12.3,0.2637513279914856,-2.2003133296966553,-0.08592040091753006,0.3184172511100769,-0.01823243871331215,-0.5384570956230164
12.35,-0.2067379653453827,-2.725531816482544,0.7301297187805176,0.6229454874992371,-0.44326597452163696,-0.533700704574585
12.4,0.2976100742816925,-2.575855016708374,1.074788212776184,1.1004772186279297,-1.764752984046936,-0.36695361137390137
12.45,0.5954954028129578,-2.289015531539917,0.5099110007286072,0.9242077469825745,-1.518625259399414,-0.3519342243671417
12.5,1.056024193763733,-2.0785677433013916,-0.6652714610099792,0.7192918658256531,-0.012069015763700008,-0.4489242434501648
12.55,-0.18958571553230286,-1.4998446702957153,-0.981971263885498,0.6586316823959351,1.0813190937042236,-0.36122044920921326
12.6,-0.3916592597961426,-0.6344643831253052,0.7989393472671509,0.7310459017753601,0.45122402906417847,-0.3184342682361603
12.65,0.37270498275756836,1.4185516834259033,-1.3378404378890991,0.7119247913360596,-0.5403253436088562,-0.3970355987548828
12.7,0.7314456701278687,1.7263176441192627,0.1518968790769577,0.6512937545776367,-0.5141277313232422,-0.3294496536254883
12.75,0.29845523834228516,1.3408253192901611,-1.7888041734695435,0.5129548907279968,0.540380597114563,-0.04460101202130318
12.8,0.04210534691810608,0.8592759370803833,-0.11211793124675751,0.4966185390949249,0.10323242098093033,-0.00987338274717331
12.85,-0.17606931924819946,0.13111117482185364,-0.4239346981048584,0.33342260122299194,-0.0695493072271347,-0.18184521794319153
12.9,0.35547399520874023,2.601625680923462,-1.1231184005737305,0.21551010012626648,-0.14244665205478668,-0.29360172152519226
12.95,0.12184279412031174,3.8672099113464355,0.13088737428188324,0.14004850387573242,0.2433939129114151,-0.2818863093852997
13.0,-0.40994036197662354,4.391574382781982,0.5216647982597351,0.3138374984264374,0.18216149508953094,-0.1576359122991562
13.05,-0.12216067314147949,4.804030895233154,2.2961087226867676,0.314804345369339,-0.1649126261472702,-0.09168987721204758
13.1,-0.5295181274414062,4.237331867218018,2.0012705326080322,0.07082819938659668,0.24691732227802277,-0.11061246693134308
13.15,-0.549087643623352,3.5704052448272705,1.908247709274292,-0.13093791902065277,0.05314019322395325,-0.10157053172588348
13.2,0.5497939586639404,3.1648125648498535,0.328729510307312,-0.3052399754524231,0.11947304755449295,-0.08055851608514786
13.25,0.74705970287323,2.7980778217315674,-1.045184850692749,-0.3525802493095398,0.06519480049610138,0.016452079638838768
13.3,0.4937778413295746,2.8589203357696533,-0.8947536945343018,-0.3108575642108917,-0.09391139447689056,0.11630850285291672
13.35,1.0491690635681152,2.712721347808838,-1.4948714971542358,-0.28720563650131226,-0.08623126149177551,0.1835305392742157
13.4,0.8560038805007935,1.5693353414535522,-0.357132226228714,-0.04988941550254822,-0.17168429493904114,0.4142623543739319
13.45,0.20333331823349,1.278565526008606,-0.8684412837028503,0.15698927640914917,-0.2298077493906021,0.6622044444084167
13.5,0.66620934009552,-0.046606987714767456,0.0758468508720398,0.39704442024230957,-0.4039161801338196,0.5818356871604919
13.55,-0.07603181898593903,-0.35763078927993774,0.2879403531551361,0.13295462727546692,0.07909930497407913,0.7314890623092651
13.6,-0.937079668045044,-1.0048800706863403,0.10844410955905914,-0.2494920790195465,0.7227178812026978,0.6847483515739441
13.65,-1.4830443859100342,-1.8865360021591187,0.19618384540081024,-0.5657760500907898,0.9851797223091125,0.39340007305145264
13.7,-1.1037647724151611,-2.3235018253326416,0.3951389193534851,-0.7466330528259277,0.8889535665512085,0.045791514217853546
13.75,-0.6980111598968506,-2.208699941635132,0.6728004217147827,-0.8363744020462036,0.7025471329689026,-0.11861393600702286
13.8,-0.8102861642837524,-2.1843388080596924,0.7416295409202576,-0.9728395938873291,0.6820794343948364,-0.1976778656244278
13.85,-0.827850878238678,-2.339381456375122,0.7400709390640259,-1.1288130283355713,0.7303950786590576,-0.3432595729827881
13.9,-1.2662023305892944,-1.8333152532577515,0.8253202438354492,-1.2642111778259277,0.8264424800872803,-0.46662238240242004
13.95,-1.0159804821014404,-1.4822075366973877,0.7617999911308289,-1.3666619062423706,0.8973288536071777,-0.6229416728019714
14.0,-1.0155233144760132,-1.2396166324615479,0.7053524255752563,-1.3550289869308472,1.1508386135101318,-0.7952879071235657
14.05,-0.8477702736854553,-0.9812281131744385,0.9387714862823486,-1.2311699390411377,1.1954830884933472,-0.9749700427055359
14.1,-0.8796534538269043,-0.5695649981498718,0.8732920289039612,-1.056193232536316,1.005213975906372,-1.0540395975112915
14.15,-0.5587320923805237,-0.37369832396507263,0.7113685607910156,-0.9487208724021912,0.29509517550468445,-0.9838044047355652
14.2,0.4895027279853821,-0.08130264282226562,0.4661996364593506,-0.8571428656578064,-0.26870980858802795,-0.6846586465835571
14.25,0.7579569816589355,-0.14468473196029663,-0.535417914390564,-0.7342747449874878,0.055466070771217346,-0.4248056411743164
14.3,2.0381548404693604,-1.1025714874267578,-0.7736122012138367,-0.45376038551330566,0.36681339144706726,-0.21133826673030853
14.35,2.0791282653808594,-1.2454509735107422,-0.11275860667228699,0.035203151404857635,0.7715244293212891,0.1457758992910385
14.4,-0.9741383194923401,-0.40446481108665466,-0.3290565013885498,0.48473936319351196,1.3644747734069824,0.4861595332622528
14.45,-3.297118902206421,-1.195461630821228,0.5137587189674377,0.6240584850311279,0.6379247903823853,0.7387481927871704
14.5,-0.4559076428413391,-1.7963593006134033,0.5968344211578369,0.8755263090133667,-0.338739812374115,0.6282966136932373
14.55,-0.9484090805053711,-2.6139132976531982,0.5524508357048035,0.8963308334350586,0.0490802600979805,0.472550630569458
14.6,-1.507249116897583,-2.1288957595825195,0.7195215821266174,0.7004297971725464,0.2947922945022583,0.26427632570266724
14.65,-1.4405943155288696,-0.953620195388794,1.0563592910766602,0.4396708607673645,0.0573883093893528,0.047775108367204666
14.7,-1.2526377439498901,-1.1630260944366455,0.754095733165741,0.2836664915084839,0.13230013847351074,-0.06873234361410141
14.75,-1.583774447441101,-0.7895796298980713,0.9844475388526917,0.14627937972545624,0.10135236382484436,-0.09631224721670151
14.8,-0.9150984883308411,-1.667737364768982,0.572167158126831,-0.048576969653367996,-0.0220169834792614,-0.05839723348617554
14.85,-0.8578392863273621,-2.3394529819488525,0.6692649126052856,-0.20226828753948212,-0.10293642431497574,0.03738319128751755
14.9,0.18017686903476715,-1.1101752519607544,0.34655115008354187,-0.6528217792510986,-0.3929387629032135,0.5857430696487427
14.95,1.8116281032562256,0.10202325135469437,-0.1645420640707016,-1.1572822332382202,-0.23046128451824188,0.9170687198638916
15.0,1.1138038635253906,0.6908198595046997,-0.3138934373855591,-1.2652949094772339,0.4732539653778076,0.9767493009567261
15.05,1.4353777170181274,1.0163443088531494,-1.6254609823226929,-1.2309263944625854,0.357898473739624,1.0143200159072876
15.1,2.01637601852417,1.507540225982666,-2.9051733016967773,-1.0244379043579102,0.27664583921432495,0.7640716433525085
15.15,1.7176883220672607,2.496211528778076,-2.6169846057891846,-1.0116708278656006,0.3070947825908661,0.2173309326171875
15.2,-0.2478226125240326,1.9026901721954346,-1.3262273073196411,-1.1914210319519043,0.47570279240608215,-0.42802828550338745
15.25,3.1653170585632324,1.1634248495101929,-0.3679005205631256,-1.006994605064392,-0.017950965091586113,-0.39111238718032837
15.3,3.338290214538574,2.6329550743103027,-1.3299586772918701,-0.6632841229438782,0.23790138959884644,0.06774739921092987
15.35,2.0220205783843994,3.15757155418396,-2.243624210357666,-0.408239483833313,0.7095804214477539,0.6335639357566833
15.4,0.6560785174369812,3.628263235092163,-2.4908430576324463,0.003056347370147705,0.7308987975120544,1.3163371086120605
15.45,-0.7758255004882812,3.0571274757385254,-1.0457704067230225,0.3949800431728363,1.0053209066390991,1.174454927444458
15.5,-1.2684032917022705,3.81113862991333,0.5653578639030457,0.8017950654029846,0.9271323084831238,0.8759177923202515
15.55,-0.4861440062522888,3.8973209857940674,2.0402355194091797,0.8327491283416748,0.8126314878463745,0.4638192653656006
15.6,-0.4280860424041748,4.194011211395264,2.8327434062957764,0.46681660413742065,0.8322439193725586,0.19363652169704437
15.65,-0.1362018585205078,3.7992117404937744,2.4996984004974365,-0.013776242733001709,0.5900799632072449,0.14094401895999908
15.7,-0.41034233570098877,3.4525275230407715,1.8958293199539185,-0.42057377099990845,0.1512480080127716,0.11785648763179779
15.75,-0.5013437271118164,2.6084558963775635,0.03541441261768341,-0.7476718425750732,-0.2181246429681778,0.07390396296977997
15.8,-0.41582930088043213,0.9497053027153015,-1.7117096185684204,-1.0154988765716553,-0.454459011554718,-0.014759484678506851
15.85,0.31033605337142944,0.39062899351119995,-2.06455135345459,-1.1077581644058228,-0.2754353880882263,-0.2625541687011719
15.9,0.48603880405426025,-0.22947971522808075,-1.6194874048233032,-0.8687422275543213,-0.002293350175023079,-0.4041140675544739
15.95,0.9336316585540771,-0.7962360382080078,-1.449315071105957,-0.16314184665679932,-0.023368891328573227,-0.3034016788005829
16.0,0.7567534446716309,-1.4215202331542969,-1.4410032033920288,0.5559992790222168,0.1305055022239685,-0.34953176975250244
16.05,-0.11301517486572266,-1.6608144044876099,-1.8687831163406372,1.0680394172668457,0.32380756735801697,-0.5642033219337463
16.1,0.572793185710907,-0.9921598434448242,-2.2065811157226562,1.1699023246765137,0.7456457018852234,-1.0567283630371094
16.15,0.9627484083175659,-0.35507386922836304,-0.8538954854011536,1.013646125793457,1.3311113119125366,-1.427964210510254
16.2,0.272929847240448,-0.8674126863479614,0.9252016544342041,1.269296646118164,1.4880801439285278,-1.4530901908874512
16.25,1.8700593709945679,-0.3985624611377716,1.506659746170044,1.6533589363098145,1.542346715927124,-1.3577029705047607
16.3,2.5610289573669434,-1.9014809131622314,2.1126272678375244,1.6918460130691528,1.4939007759094238,-0.9561558961868286
16.35,2.6161324977874756,-3.411810874938965,2.853299617767334,1.2964450120925903,1.6944334506988525,-0.671434760093689
16.4,1.787631869316101,-4.313472270965576,4.330289363861084,0.906024158000946,1.3057668209075928,-0.23587895929813385
16.45,0.9256815910339355,-3.574561357498169,4.408497333526611,0.40955907106399536,0.23105688393115997,-0.07384806871414185
16.5,-0.6816303730010986,-1.4329150915145874,3.1600351333618164,-0.11980324983596802,-1.1057218313217163,0.026662588119506836
16.55,-1.5369391441345215,1.0159540176391602,0.044003263115882874,-0.8211830258369446,-1.7870569229125977,0.35323530435562134
16.6,-2.323887825012207,2.781770944595337,-2.338545322418213,-1.6615016460418701,-1.0838043689727783,0.8785509467124939
16.65,-2.21397066116333,1.0822163820266724,-3.212794065475464,-2.3300676345825195,0.4177064299583435,0.7609722018241882
16.7,-3.326805591583252,-1.9321845769882202,-1.4148837327957153,-2.328989028930664,1.3870079517364502,-0.2516235411167145
16.75,-3.3662662506103516,-1.4139034748077393,-0.6411669254302979,-1.6652030944824219,0.47430339455604553,-0.8136144280433655
16.8,-1.255804419517517,-0.39870649576187134,-1.8182355165481567,-1.0169851779937744,-0.04498332366347313,-0.7793564796447754
16.85,-0.5336943864822388,0.26833730936050415,-1.4008108377456665,-0.8983790874481201,1.4097622632980347,-1.1850496530532837
16.9,-0.6407551169395447,2.7614309787750244,1.0793216228485107,-0.4386221170425415,2.806567430496216,-1.558510184288025
16.95,1.9185640811920166,2.9906647205352783,1.880115270614624,0.415898859500885,2.373781681060791,-1.5425838232040405
17.0,2.9452221393585205,1.3097765445709229,2.229738712310791,1.2289384603500366,0.4750511646270752,-0.7551968097686768
17.05,3.0903711318969727,-0.12802107632160187,0.05684326961636543,1.4820013046264648,-0.8044626116752625,0.6027722954750061
17.1,0.8759958744049072,1.9151594638824463,2.1366209983825684,1.3441048860549927,-0.4452688992023468,1.3062535524368286
17.15,0.2296520471572876,0.8833016753196716,4.086236000061035,1.1638381481170654,-1.0933690071105957,1.6545945405960083
17.2,-0.24500882625579834,0.24524103105068207,3.150739908218384,1.0867966413497925,-2.1886937618255615,1.4772714376449585
17.25,-1.224351406097412,-0.8368333578109741,3.6951425075531006,0.9257720708847046,-3.186929941177368,1.2963992357254028
17.3,-4.763389587402344,-3.9923441410064697,0.8185308575630188,0.6861365437507629,-3.7014424800872803,0.9374960660934448
17.35,0.24737024307250977,-3.601634979248047,-7.358902931213379,1.515423059463501,-4.735060691833496,0.21935194730758667
17.4,12.019610404968262,3.072843074798584,-4.288458824157715,1.998997449874878,-2.9899137020111084,-0.5203608870506287
17.45,0.505280077457428,0.20856107771396637,-1.5227241516113281,0.13040633499622345,2.1841821670532227,-0.22590406239032745
17.5,-1.712672472000122,0.05691605806350708,1.8448750972747803,0.24915537238121033,1.366161584854126,0.02665439061820507
17.55,0.28734922409057617,0.18407051265239716,2.158226728439331,0.03554052114486694,-0.5415512323379517,-0.13006465137004852
17.6,0.07885432243347168,0.5284843444824219,1.0913200378417969,-0.484358012676239,-1.2965571880340576,-0.06983684748411179
17.65,0.8792187571525574,0.8066760897636414,-0.6471477746963501,-0.8068297505378723,-1.742571234703064,0.00819524098187685
17.7,1.9181125164031982,0.3360540568828583,-1.2458796501159668,-0.9432744383811951,-1.5304824113845825,0.05162927880883217
17.75,1.6463215351104736,-0.7939805388450623,-1.4165924787521362,-1.1097540855407715,-0.628706693649292,-0.08935390412807465
17.8,0.971027672290802,-0.6901845335960388,-0.8878321647644043,-1.0313559770584106,0.2534102499485016,-0.27511271834373474
17.85,0.13781794905662537,-0.9651508927345276,-0.9348962306976318,-0.8780517578125,0.9554458856582642,-0.4586268365383148
17.9,-0.6441918611526489,0.27381518483161926,-0.7643049955368042,-0.6021121144294739,0.7491951584815979,-0.49827665090560913
17.95,1.4703114032745361,1.0838243961334229,-0.6820988655090332,-0.7412143349647522,0.3585453927516937,-0.7349754571914673
18.0,0.3764224350452423,1.1662980318069458,-0.6528847813606262,-0.8888171911239624,0.5861298441886902,-0.972099244594574
18.05,0.5052890181541443,0.9560796618461609,-0.9192108511924744,-0.7934185266494751,0.3967526853084564,-0.9284195303916931
18.1,0.9736847877502441,-1.5086604356765747,-0.8460445404052734,-0.47135603427886963,0.1265219748020172,-0.5504298806190491
18.15,0.926169753074646,-1.7829114198684692,-0.8691648840904236,-0.16758956015110016,0.37202829122543335,-0.1388704776763916
18.2,-0.9428959488868713,-0.5781098008155823,-0.8073008060455322,0.18653282523155212,0.8091610670089722,0.08974369615316391
18.25,-1.0076684951782227,0.8677731156349182,-0.4100012481212616,0.9140169620513916,0.7841110825538635,0.15256991982460022
18.3,-0.21295800805091858,0.6828461289405823,-0.12695550918579102,1.5442384481430054,0.5982216596603394,0.018420562148094177
18.35,0.1449003517627716,0.4567022919654846,-0.05831006541848183,1.6800329685211182,0.9564027786254883,-0.09269069135189056
18.4,-0.3763887584209442,0.8478842377662659,0.7100859880447388,1.7823638916015625,1.5233975648880005,-0.13768231868743896
18.45,-0.8301675319671631,1.089137077331543,2.013979196548462,1.906632900238037,1.4915825128555298,-0.16735972464084625
18.5,-1.0224848985671997,0.8579463362693787,2.4301867485046387,1.817725419998169,0.8983526825904846,-0.20435774326324463
18.55,-0.44114112854003906,0.2251948118209839,2.540687322616577,1.5307358503341675,0.5327900648117065,-0.28816917538642883
18.6,-0.052878737449645996,-0.2945358157157898,3.036240577697754,1.0231115818023682,0.5513162016868591,-0.26362210512161255
18.65,-0.08764886856079102,-0.5521623492240906,2.892697334289551,0.42698603868484497,0.44346651434898376,-0.19844472408294678
18.7,-0.20499908924102783,-0.40454599261283875,2.655545711517334,-0.16257302463054657,0.16719813644886017,-0.17427492141723633
18.75,-0.13853967189788818,-0.1959325522184372,2.5841474533081055,-0.695060133934021,-0.07532889395952225,-0.12874570488929749
18.8,-0.16513347625732422,0.3432597219944,2.386014461517334,-1.1587588787078857,-0.3536781072616577,-0.11533263325691223
18.85,0.16165941953659058,0.8166800141334534,1.7247964143753052,-1.4340254068374634,-0.6436593532562256,-0.10384033620357513
18.9,0.3517281115055084,0.7945948243141174,1.2041583061218262,-1.4607789516448975,-0.8424122929573059,-0.061956051737070084
18.95,0.0045677125453948975,0.30463504791259766,0.8506853580474854,-1.302591323852539,-1.07857346534729,0.018416205421090126
19.0,-0.029534533619880676,0.3699607849121094,0.3724268972873688,-1.0507028102874756,-1.526678204536438,0.16922864317893982
19.05,0.2565060257911682,0.5245075821876526,-0.07506681233644485,-0.8849886059761047,-1.6892870664596558,0.2901405692100525
19.1,0.12084697186946869,0.18892580270767212,-0.5065585374832153,-0.7661752700805664,-1.4631160497665405,0.27463415265083313
19.15,-0.11427979171276093,-0.09785651415586472,-0.6016293168067932,-0.5936828851699829,-1.1860625743865967,0.18917401134967804
19.2,0.14101919531822205,-0.2716693878173828,-0.7146640419960022,-0.33109796047210693,-1.1153117418289185,0.09663299471139908
19.25,0.5203206539154053,-0.47704410552978516,-0.43959295749664307,-0.008587080985307693,-0.9456198215484619,0.04913108050823212
19.3,-0.017788119614124298,-0.7825795412063599,-0.1271107792854309,0.31215134263038635,-0.6707474589347839,0.062120597809553146
19.35,-0.4415227770805359,-0.6129847168922424,-0.02243898995220661,0.5545359253883362,-0.6146525740623474,0.12558192014694214
19.4,-0.46985095739364624,-0.07651426643133163,-0.2070566564798355,0.6708751916885376,-0.695408284664154,0.13193495571613312
19.45,-0.06325147300958633,0.9379159212112427,-0.0672290101647377,0.7010321617126465,-0.536104142665863,0.0699273869395256
19.5,0.857642650604248,0.8033353686332703,0.2271316647529602,0.700271725654602,-0.03832071274518967,-0.015498909167945385
19.55,0.6491408348083496,-0.05189989134669304,0.26072317361831665,0.7019690871238708,0.5136387348175049,0.04335383325815201
19.6,-0.008940860629081726,0.12131309509277344,0.341366171836853,0.6207885146141052,0.41758862137794495,0.19731971621513367
19.65,0.43347373604774475,0.4573717713356018,0.4002205431461334,0.3284571170806885,0.14947906136512756,0.1640956997871399
19.7,0.07298488914966583,0.6855269074440002,0.5599529147148132,-0.046211160719394684,0.59950852394104,0.08730553090572357
19.75,-0.4080844521522522,0.4627237319946289,0.8950832486152649,-0.3094601631164551,1.1995816230773926,0.056795790791511536
19.8,-1.064009428024292,0.25679484009742737,1.2360676527023315,-0.3908064663410187,1.3580037355422974,0.09331534802913666
19.85,-1.2816743850708008,1.544113278388977,1.3745216131210327,-0.38253629207611084,0.959856390953064,0.16678956151008606
19.9,0.0837969183921814,1.0265790224075317,0.9429183602333069,-0.36083948612213135,0.7074629664421082,0.14380985498428345
19.95,-0.4393261671066284,-0.6310101747512817,0.622394323348999,-0.31431227922439575,0.7502169013023376,0.19438914954662323
20.0,-0.14131340384483337,-0.469734251499176,-0.2670659124851227,-0.12333783507347107,0.01383165642619133,0.3302198052406311
20.05,0.71425461769104,0.5123035311698914,-1.2967193126678467,-0.10839523375034332,-0.48122990131378174,0.3811098635196686
20.1,1.373155951499939,0.4377433955669403,-1.73527193069458,-0.2517358660697937,-0.07498548179864883,0.306397020816803
20.15,0.8951453566551208,-0.15276804566383362,-1.2399201393127441,-0.2751772403717041,0.7162594795227051,0.19101037085056305
20.2,0.15207217633724213,-0.3778362572193146,-0.47301968932151794,-0.084042027592659,1.030441403388977,0.1877329796552658
20.25,0.42383551597595215,-0.028913484886288643,0.17572925984859467,0.1507752239704132,0.8139918446540833,0.19716006517410278
20.3,0.34001126885414124,0.05163765326142311,0.5284141898155212,0.156075119972229,0.8228542804718018,0.13668806850910187
20.35,0.42833411693573,-0.228730246424675,0.7436624765396118,0.04228155314922333,0.8848018050193787,0.024393130093812943
20.4,0.33692654967308044,-0.3217640519142151,1.2531383037567139,0.08173907548189163,0.8734050989151001,-0.09623337537050247
20.45,0.0264815092086792,0.23958393931388855,1.4544984102249146,0.2564123272895813,0.5969851016998291,-0.11186008155345917
20.5,0.2503111660480499,0.6124783158302307,0.7197412848472595,0.44771432876586914,0.04918482154607773,-0.07557789981365204
20.55,0.6363630294799805,0.45968449115753174,-0.16846270859241486,0.48083221912384033,-0.08362381160259247,-0.008145860396325588
20.6,0.248175710439682,0.5573034882545471,0.05727123096585274,0.43527600169181824,0.12012679129838943,0.03603336960077286
20.65,0.05270138382911682,0.12459754943847656,0.3939429521560669,0.3601538836956024,0.16627514362335205,0.04930519685149193
20.7,-0.18912334740161896,0.04588218778371811,0.6064342260360718,0.27469396591186523,0.06829706579446793,0.05984938517212868
20.75,-0.03392304480075836,0.025317173451185226,0.430387020111084,0.07179437577724457,-0.037030529230833054,0.06465660780668259
20.8,-0.018090426921844482,-0.18964964151382446,0.6506890058517456,-0.17259721457958221,-0.01146326120942831,0.032914161682128906
20.85,-0.17752891778945923,0.4093761742115021,0.6148331165313721,-0.2445811778306961,-0.1562434434890747,-0.012040074914693832
20.9,0.09094762802124023,0.48516470193862915,0.2072007656097412,-0.21033242344856262,-0.465450644493103,-0.03702882304787636
20.95,0.3610830307006836,0.1254444420337677,-0.011869227513670921,-0.14679253101348877,-0.593774139881134,-0.0069435457699000835
21.0,0.12069526314735413,-0.07417584210634232,0.15718208253383636,-0.04739123955368996,-0.5057411193847656,0.061208873987197876
21.05,0.038555968552827835,0.027362821623682976,0.14819973707199097,0.04401747137308121,-0.4974078834056854,0.08611205965280533
21.1,0.1513896882534027,0.3026581108570099,0.03115588054060936,0.012273864820599556,-0.48749810457229614,0.02817673794925213
21.15,0.15193404257297516,0.2475767582654953,-0.21883054077625275,-0.053721871227025986,-0.3785252571105957,-0.06522855907678604
21.2,0.4124701917171478,0.12418180704116821,-0.4501643180847168,-0.043118562549352646,-0.34091970324516296,-0.11322326213121414
21.25,0.5623910427093506,0.028449123725295067,-0.6169673800468445,0.004518579691648483,-0.3383304178714752,-0.08095540851354599
21.3,0.6964472532272339,-0.0802726000547409,-0.8963853120803833,0.03247489780187607,-0.24007855355739594,-0.06009729206562042
21.35,0.5362915396690369,0.10862549394369125,-0.8180437088012695,-0.006333073601126671,-0.0017856654012575746,-0.04072080925107002
21.4,0.3857243061065674,0.1595679074525833,-0.818040132522583,-0.06183449551463127,0.2309044450521469,-0.04763253405690193
21.45,0.5372234582901001,0.35845670104026794,-0.8379033803939819,-0.09545017778873444,0.39040276408195496,-0.037124499678611755
21.5,0.49840834736824036,0.040046755224466324,-0.6699091196060181,-0.13107730448246002,0.6487938761711121,0.016196358948946
21.55,0.1303875744342804,0.24420742690563202,-0.021664846688508987,-0.08017806708812714,0.8719595670700073,0.0955708920955658
21.6,0.3976297974586487,0.1852712780237198,0.3819757401943207,-0.0553026981651783,0.8935844302177429,0.09900745749473572
21.65,0.3468380570411682,-0.060345668345689774,0.6951833963394165,-0.04984237998723984,1.0393108129501343,0.042467426508665085
21.7,-0.31309568881988525,0.2149323970079422,1.2518315315246582,0.004383843392133713,0.9356337785720825,0.07219146937131882
21.75,-0.6997937560081482,0.8512182235717773,1.3132963180541992,0.042227666825056076,0.5197363495826721,0.05185035616159439
21.8,-0.5783056020736694,-0.06600482016801834,0.5288556218147278,-0.047916948795318604,0.21793381869792938,0.025983866304159164
21.85,-0.254193514585495,-0.5654965043067932,-0.2998449504375458,-0.08293040096759796,0.043464645743370056,0.0201839879155159
21.9,-0.35472482442855835,-0.1849680244922638,-0.03696057200431824,-0.14276212453842163,0.2659379839897156,0.07167700678110123
21.95,-1.0324355363845825,0.03593911975622177,0.8438677787780762,-0.2361428439617157,0.5968344807624817,0.11635924875736237
22.0,-1.159792184829712,0.20640268921852112,1.0594693422317505,-0.14809535443782806,0.37308448553085327,0.0317033976316452
22.05,-1.0273510217666626,0.190850168466568,1.1905016899108887,-0.003677133470773697,-0.04647332802414894,-0.07656332850456238
22.1,-1.1839146614074707,-0.08493531495332718,1.0421446561813354,0.057926204055547714,-0.3456173241138458,-0.1672382652759552
22.15,-1.2295432090759277,-0.18925870954990387,0.5916813611984253,0.09131554514169693,-0.6908694505691528,-0.21543549001216888
22.2,-0.641923189163208,-0.07098299264907837,0.24889962375164032,0.06645206362009048,-0.8609530329704285,-0.27229785919189453
22.25,-0.69766765832901,-0.2452937215566635,0.6098927855491638,-0.005842462182044983,-0.6100190877914429,-0.34230369329452515
22.3,-1.198673129081726,0.0020741336047649384,0.8287880420684814,-0.024250641465187073,-0.6030784845352173,-0.40447884798049927
22.35,-0.7239924669265747,0.6550264358520508,-0.04719845578074455,-0.04448290169239044,-0.986814558506012,-0.4034140706062317
22.4,0.7684497833251953,0.8608028292655945,-0.9394927620887756,-0.15021386742591858,-1.0248043537139893,-0.3807869553565979
22.45,0.7816213965415955,0.5135489702224731,-0.7175517678260803,-0.2505973279476166,-0.15964187681674957,-0.3378352224826813
22.5,-0.4077349305152893,-0.11136823892593384,0.46915262937545776,-0.11637228727340698,0.467390239238739,-0.2679385244846344
22.55,-0.5133140683174133,0.0710238516330719,1.4428670406341553,0.11227580904960632,0.12085681408643723,-0.14911766350269318
22.6,-0.287766695022583,0.23350615799427032,1.3223538398742676,0.1291358470916748,-0.3273288309574127,-0.07687792181968689
22.65,-0.4838206171989441,0.172331765294075,0.6731281280517578,-0.027092380449175835,-0.5123662352561951,-0.032930124551057816
22.7,-0.03456099331378937,0.6707401871681213,-0.3739906847476959,-0.12871858477592468,-0.5885512232780457,-0.0174221470952034
22.75,1.441983938217163,1.542955756187439,-1.064640998840332,-0.1420343965291977,-0.319330096244812,0.023600557819008827
22.8,1.0438345670700073,0.43378081917762756,-0.4532703459262848,-0.0587267130613327,0.4476396143436432,0.026991328224539757
22.85,-0.8946696519851685,-0.45649829506874084,0.509042501449585,0.11970864236354828,0.5246350169181824,0.2060154229402542
22.9,-0.6073213219642639,-0.46778497099876404,0.018323177471756935,0.11278689652681351,-0.5225698947906494,0.3157820403575897
22.95,0.30719688534736633,0.48391255736351013,-0.49633046984672546,-0.15606005489826202,-0.848256528377533,0.2672935128211975
23.0,0.25721192359924316,0.33120641112327576,-0.7449524402618408,-0.4833519160747528,-0.1589558720588684,0.17817124724388123
23.05,-0.022533833980560303,0.17095571756362915,-0.9294788837432861,-0.4611322283744812,0.0481940396130085,0.16561751067638397
23.1,1.4663439989089966,-0.12954317033290863,-1.3963444232940674,-0.24802201986312866,-0.32623663544654846,0.2762269079685211
23.15,1.0331062078475952,0.20640766620635986,-0.5327724814414978,-0.051217831671237946,-0.010989840142428875,0.2869808077812195
23.2,-0.04957824945449829,0.48105528950691223,0.4594244062900543,0.09634019434452057,0.2730958163738251,0.2337542325258255
23.25,-0.04044921696186066,-0.16084198653697968,0.45935285091400146,0.23071900010108948,-0.19707097113132477,0.15832094848155975
23.3,0.3341823220252991,-0.3108806908130646,0.10370651632547379,0.24456939101219177,-0.49943044781684875,0.17187590897083282
23.35,0.33419281244277954,-0.19371511042118073,0.017358362674713135,0.18387672305107117,-0.3109208941459656,0.08004104346036911
23.4,0.09539680927991867,0.07965469360351562,0.3326408267021179,0.2106817066669464,-0.08040770143270493,-0.010737700387835503
23.45,0.300178587436676,0.13501933217048645,0.12772247195243835,0.354389488697052,-0.2318890541791916,-0.0325322188436985
23.5,0.7865811586380005,0.11324220895767212,-0.0457986518740654,0.4329989552497864,-0.45244431495666504,0.012112375348806381
23.55,0.33957239985466003,-0.07858370989561081,0.18176883459091187,0.41635555028915405,-0.2804073095321655,0.05816219002008438
23.6,0.11610233783721924,-0.1259937733411789,0.6701151132583618,0.45279717445373535,-0.173951655626297,0.040487442165613174
23.65,0.009196579456329346,0.02735324203968048,1.061942219734192,0.49014711380004883,-0.19845899939537048,-0.005436152219772339
23.7,-0.19088882207870483,0.34014028310775757,1.496146559715271,0.38372379541397095,-0.15202799439430237,-0.04338356480002403
23.75,-0.5137953162193298,0.31393808126449585,1.5266215801239014,0.20619812607765198,-0.35935673117637634,-0.07346134632825851
23.8,-0.1820952296257019,0.6496829986572266,1.180174708366394,0.12133318185806274,-0.958126962184906,-0.11094381660223007
23.85,0.11551214754581451,0.42646509408950806,0.42181533575057983,-0.02834310010075569,-1.2876771688461304,-0.10686448961496353
23.9,0.1838361918926239,0.09581569582223892,-0.1801694631576538,-0.15018105506896973,-1.4533334970474243,-0.10682173818349838
23.95,0.5555064678192139,0.3007698953151703,-0.5720727443695068,-0.3308272957801819,-1.4337260723114014,-0.11229778081178665
24.0,0.2827855944633484,1.2225276231765747,-0.6766813397407532,-0.540969967842102,-1.1040359735488892,-0.13840003311634064
24.05,0.0793297290802002,1.3842679262161255,-0.8413370847702026,-0.7387795448303223,-0.8083671927452087,-0.38820314407348633
24.1,0.44142863154411316,-0.5579671859741211,-0.831070601940155,-0.6384453177452087,-0.6221616268157959,-0.5158823132514954
24.15,-0.1800643503665924,-1.2029391527175903,-0.5681633949279785,-0.48599615693092346,-0.4086896479129791,-0.15281273424625397
24.2,-0.7646476030349731,0.15158365666866302,-0.2529808282852173,-0.3228186368942261,-0.2889121174812317,0.1866878867149353
24.25,-1.4816973209381104,0.3148975074291229,-0.41848042607307434,-0.2964452803134918,-0.0094832144677639,0.13550208508968353
24.3,-1.1366521120071411,-0.35612210631370544,-0.26332414150238037,-0.20440152287483215,-0.11125753074884415,-0.024589061737060547
24.35,-0.7158150672912598,-0.4890356957912445,-0.03316894918680191,-0.07823643088340759,-0.20742514729499817,-0.10336323827505112
24.4,-0.5843292474746704,0.017760254442691803,-0.19089700281620026,0.10159176588058472,-0.2572484612464905,-0.07533524185419083
24.45,0.48209571838378906,0.6130648851394653,-0.09341107308864594,0.35152000188827515,-0.5272162556648254,0.12217684835195541
24.5,0.3910539448261261,0.487036794424057,-0.34489706158638,0.5939648151397705,-0.4521941542625427,0.36771896481513977
24.55,-0.2142215520143509,-0.18274497985839844,-0.7199327349662781,0.591022253036499,-0.4754263162612915,0.513512134552002
24.6,-0.3427584767341614,-0.6591234803199768,-0.025088313966989517,0.42312535643577576,-0.5358530282974243,0.38090425729751587
24.65,-1.4975297451019287,-0.19651617109775543,0.5199918746948242,0.19928525388240814,0.13456550240516663,0.17636801302433014
24.7,-2.278682231903076,0.35241878032684326,0.23939278721809387,0.06694447249174118,0.30791175365448,0.06291181594133377
24.75,0.4914390742778778,0.3838397264480591,-0.6126214265823364,0.027481570839881897,-0.6326720118522644,-0.2731701135635376
24.8,2.174314498901367,0.17681804299354553,-0.08670257031917572,-0.21872717142105103,-0.6528744697570801,-0.4334716200828552
24.85,0.11419633030891418,0.34000110626220703,0.8347470760345459,-0.3331182599067688,0.7459204196929932,-0.3843052387237549
24.9,-2.8106508255004883,-0.29654526710510254,0.8149693012237549,-0.19481498003005981,1.428299069404602,-0.2817019522190094
24.95,-1.7227184772491455,0.551362931728363,0.3949965536594391,0.060962095856666565,-0.14407330751419067,-0.2447257786989212
25.0,1.12556791305542,-0.046878766268491745,0.22828972339630127,-0.09421306848526001,-1.1940683126449585,-0.38160136342048645
25.05,1.324467658996582,-0.24070259928703308,0.42544540762901306,-0.19145336747169495,-0.2520435154438019,-0.4063500761985779
25.1,-0.8526440858840942,-0.053735796362161636,0.1031496450304985,-0.025106526911258698,0.6558845043182373,-0.2259625941514969
25.15,-0.6607263684272766,0.33986756205558777,0.5244808197021484,0.2069483995437622,0.007998146116733551,-0.00525212986394763
25.2,-0.09863206744194031,0.26671886444091797,0.3505686819553375,0.1723523736000061,-0.3598949611186981,-0.00291859800927341
25.25,0.12441322952508926,-0.01641845889389515,0.17323212325572968,0.10438074171543121,-0.09283164888620377,-0.08978038281202316
25.3,-0.08621963858604431,-0.02597142942249775,0.18493856489658356,0.16355793178081512,0.20449145138263702,-0.04933467134833336
25.35,-0.18156036734580994,0.35839176177978516,0.5177484750747681,0.2606545686721802,0.18743793666362762,0.10192042589187622
25.4,-0.6606724262237549,0.6218061447143555,0.5754857659339905,0.27146661281585693,0.0938417986035347,0.21151623129844666
25.45,-0.6926600933074951,0.36203378438949585,0.7678050994873047,0.251492440700531,-0.06874047964811325,0.21684378385543823
25.5,-0.8948019742965698,0.11787121742963791,0.5780836343765259,0.22242030501365662,-0.17772839963436127,0.18549363315105438
25.55,-0.772385835647583,0.37689492106437683,0.6794447898864746,0.18592000007629395,-0.40528082847595215,0.14731672406196594
25.6,-0.5417420864105225,0.32535263895988464,0.3115655481815338,0.11633159220218658,-0.6642256379127502,0.06342040002346039
25.65,0.08338525146245956,0.5153866410255432,-0.15405575931072235,-0.005356507375836372,-0.9355234503746033,-0.044861722737550735
25.7,0.7447762489318848,0.40315353870391846,-0.07008156180381775,-0.19570735096931458,-0.8933842778205872,-0.1881684809923172
25.75,0.35728156566619873,0.1397733986377716,0.023324768990278244,-0.3580509424209595,-0.255282461643219,-0.2849501967430115
25.8,-0.6849830150604248,0.1864137500524521,-0.18169958889484406,-0.41678735613822937,0.2968330979347229,-0.29453134536743164
25.85,-0.8039687871932983,0.5025396347045898,-0.24733637273311615,-0.3992132246494293,0.0965476855635643,-0.29590219259262085
25.9,-0.0408959686756134,0.48968133330345154,-0.5401520729064941,-0.42235180735588074,-0.3145348131656647,-0.30447694659233093
25.95,0.6372593641281128,0.33663854002952576,-0.780377984046936,-0.44766172766685486,-0.37800854444503784,-0.21817182004451752
26.0,0.9105233550071716,0.2727099657058716,-0.7855432033538818,-0.4268213212490082,-0.09617315232753754,-0.041263647377491
26.05,0.8856076002120972,-0.01644222065806389,-0.6008917689323425,-0.33483442664146423,0.468926340341568,0.07833269983530045
26.1,0.17642909288406372,-0.2533750534057617,-0.6220073699951172,-0.23093219101428986,1.1282187700271606,0.15451344847679138
26.15,-0.4845886528491974,-0.4159603714942932,-0.3468348979949951,-0.17412228882312775,1.4103838205337524,0.26169532537460327
26.2,-0.8044408559799194,-0.5208789110183716,0.011654933914542198,-0.07136474549770355,1.546900749206543,0.32062289118766785
26.25,-1.4675750732421875,-0.3000890016555786,0.19536587595939636,0.005795136094093323,1.7586452960968018,0.3477901220321655
26.3,-1.9210989475250244,0.1945713758468628,0.6857519149780273,0.04291698336601257,1.7938505411148071,0.31861400604248047
26.35,-1.4774706363677979,0.46376222372055054,0.9670711755752563,0.09811418503522873,1.704418659210205,0.2672049105167389
26.4,-0.3742360770702362,-0.24153240025043488,0.36230966448783875,0.13416214287281036,1.496790885925293,0.27339622378349304
26.45,0.7094048857688904,-0.33211517333984375,-0.0018013963708654046,0.40213295817375183,0.9898326992988586,0.3134348392486572
26.5,-0.7143768072128296,-0.552688717842102,0.75542813539505,0.5054851174354553,1.0201473236083984,0.322980135679245
26.55,-1.1766250133514404,-0.24529187381267548,1.3494596481323242,0.4410684108734131,0.8646564483642578,0.16692183911800385
26.6,-0.5625048875808716,0.3667144179344177,1.5263590812683105,0.26429927349090576,0.6535348296165466,-0.12575258314609528
26.65,0.5083179473876953,0.09688661992549896,1.2773908376693726,0.08897677063941956,0.6012993454933167,-0.35862916707992554
26.7,0.6854864358901978,0.35620689392089844,1.4909062385559082,0.08020161092281342,0.3896334171295166,-0.4312345087528229
26.75,0.5673089027404785,1.1591264009475708,1.7175514698028564,0.06430256366729736,-0.021235167980194092,-0.3748753070831299
26.8,0.8547426462173462,0.8477641344070435,1.3630833625793457,-0.02648131549358368,-0.446743905544281,-0.3114042282104492
26.85,0.8354160189628601,0.2525768280029297,1.5381081104278564,-0.1667390763759613,-0.5819060802459717,-0.2543398439884186
26.9,0.4051436185836792,-0.2963724136352539,0.14372621476650238,-0.3799768090248108,-0.8624464869499207,-0.08546089380979538
26.95,0.7306236028671265,0.576858639717102,-0.5445848107337952,-0.3504233956336975,-1.2377793788909912,0.16274955868721008
27.0,1.3740794658660889,0.6077567934989929,-0.7275726199150085,-0.300959050655365,-0.6777483224868774,0.1235007718205452
27.05,-0.09780195355415344,0.11340715736150742,-0.3463869094848633,-0.23601126670837402,0.2119290679693222,-0.016819901764392853
27.1,-0.06824538111686707,-0.01778220385313034,-0.3027484118938446,-0.11680386960506439,0.12777478992938995,-0.0947454646229744
27.15,0.4897746741771698,-0.017888981848955154,-0.2934699058532715,-0.05932941660284996,-0.0878729373216629,-0.01984412968158722
27.2,0.31813350319862366,-0.10969827324151993,-0.48146742582321167,-0.08203387260437012,0.07910048961639404,0.056985266506671906
27.25,-0.01072990894317627,-0.7027397155761719,-0.8106294274330139,-0.05522604286670685,0.026114899665117264,0.11518317461013794
27.3,0.960300862789154,-0.5553722381591797,-0.6894769668579102,0.08006601780653,-0.23096147179603577,0.12948638200759888
27.35,0.1746855080127716,0.35904794931411743,-0.39638087153434753,0.03311730921268463,0.16803328692913055,0.1156228706240654
27.4,-0.2362978458404541,0.3865843415260315,-0.17457468807697296,-0.07201427221298218,0.790740966796875,0.0849289745092392
27.45,-0.789020836353302,0.2395028918981552,0.12348075211048126,0.019645443186163902,1.1609455347061157,0.014849047176539898
27.5,-1.3434653282165527,2.191316843032837,0.7873005270957947,0.13006632030010223,1.2265307903289795,0.12692692875862122
27.55,0.6317211389541626,0.3238515853881836,1.1441541910171509,0.38644587993621826,1.2545469999313354,-0.11535731703042984
27.6,-0.07455897331237793,-0.7626001834869385,2.1386241912841797,0.6085911989212036,1.8600292205810547,-0.06523550301790237
27.65,-0.40140020847320557,0.015703987330198288,3.1348631381988525,0.9394217729568481,1.4605371952056885,0.016997922211885452
27.7,-0.9855903387069702,0.12129764258861542,3.2828593254089355,1.1359519958496094,0.6953234672546387,-0.048939354717731476
27.75,-0.040979743003845215,0.7881680130958557,1.513256311416626,1.1188976764678955,-0.2187049835920334,-0.15688367187976837
27.8,0.9719816446304321,0.7233468294143677,0.3219628930091858,0.8086780309677124,-0.2079320251941681,-0.17300333082675934
27.85,0.020001709461212158,0.08305828273296356,1.7561428546905518,0.3546139597892761,0.4719821810722351,0.06664104014635086
27.9,-0.804328978061676,-0.5322458744049072,2.678168773651123,-0.09571631252765656,0.5399777293205261,0.16173480451107025
27.95,-0.8626036643981934,-0.3308984935283661,2.8153481483459473,-0.442033052444458,-0.022282617166638374,0.07683655619621277
28.0,-1.4936379194259644,0.21690256893634796,2.2960705757141113,-0.7958132028579712,-0.6244122385978699,0.04241280257701874
28.05,-1.1364556550979614,-0.035757146775722504,0.2654966711997986,-1.078324556350708,-1.4226126670837402,0.11104954779148102
28.1,0.6587077379226685,0.6904431581497192,-0.610179603099823,-1.2156842947006226,-1.8370745182037354,0.1874123364686966
28.15,-0.11550936102867126,1.139729619026184,-0.3986724317073822,-1.2980715036392212,-0.62132328748703,0.32328906655311584
28.2,-1.0820833444595337,0.22389313578605652,-0.0811338871717453,-1.1650383472442627,0.10911847651004791,0.0571177676320076
28.25,-0.1969851702451706,-0.3023891746997833,-0.24833804368972778,-0.7500442862510681,-0.5620083808898926,0.008043157868087292
28.3,0.2861412763595581,-0.5917959213256836,-0.6403654217720032,-0.36093616485595703,-0.9637613296508789,0.11301454156637192
28.35,0.0716296136379242,-0.640416145324707,-0.8010957837104797,-0.15386149287223816,-0.8882513642311096,0.17871928215026855
28.4,-0.021090388298034668,-0.10343167930841446,-0.8768320083618164,0.0016564205288887024,-0.7005161643028259,0.14015129208564758
28.45,0.9274677038192749,-0.07661525905132294,-0.6523692011833191,0.2024870216846466,-0.39237502217292786,-0.009165517054498196
28.5,0.7871220111846924,-0.3563995063304901,-0.1467408537864685,0.4270307421684265,0.0901777595281601,-0.13253609836101532
28.55,0.513464093208313,0.210787832736969,-0.09701669216156006,0.5451061725616455,0.020837534219026566,0.0060319616459310055
28.6,1.0361709594726562,0.9108726382255554,-0.1909443885087967,0.5147807598114014,-0.23796668648719788,0.047070782631635666
28.65,1.6801122426986694,0.5351707339286804,-0.33920910954475403,0.28776100277900696,0.14588317275047302,-0.024440262466669083
28.7,1.6319994926452637,0.5839807391166687,-0.17117245495319366,0.18987733125686646,0.7227020859718323,-0.039813049137592316
28.75,1.3776614665985107,0.4380876123905182,-0.23858222365379333,0.16639864444732666,1.011885404586792,0.07292449474334717
28.8,0.9243055582046509,0.37160879373550415,0.23470476269721985,0.15383246541023254,1.1722619533538818,0.1881944239139557
28.85,-0.0705864429473877,0.16481204330921173,1.1257380247116089,0.07840047776699066,1.3710781335830688,0.2622710168361664
28.9,-0.20981436967849731,-0.005802237428724766,1.4999775886535645,0.03884189575910568,1.0817933082580566,0.30065858364105225
28.95,0.16806024312973022,0.22199343144893646,1.1478972434997559,-0.0431893989443779,0.6754201054573059,0.27211707830429077
29.0,0.2717844843864441,-0.09474565833806992,0.5217007994651794,-0.2185090184211731,0.5647045969963074,0.20024551451206207
29.05,0.45141908526420593,-0.3232021927833557,1.0248738527297974,-0.2011851966381073,0.6958386898040771,0.1314764767885208
29.1,-0.2030951976776123,0.03753174841403961,2.034350872039795,0.08228318393230438,0.7493322491645813,0.0536055825650692
29.15,-0.20178735256195068,0.30815401673316956,2.013052463531494,0.3269478976726532,0.24756161868572235,-0.049404021352529526
29.2,0.5433762669563293,0.10086251050233841,0.8946267366409302,0.181449756026268,-0.18698246777057648,-0.15099452435970306
29.25,0.07441438734531403,0.6977444291114807,0.45135095715522766,-0.15872935950756073,-0.042148102074861526,-0.2199757844209671
29.3,0.3749464750289917,0.8723527789115906,-0.5755582451820374,-0.23913879692554474,-0.27118295431137085,-0.28094831109046936
29.35,0.4942210614681244,0.4198695421218872,-0.399008184671402,-0.14880765974521637,-0.35402417182922363,-0.23193901777267456
29.4,-0.08436265587806702,1.0065490007400513,0.73016756772995,-0.049569059163331985,-0.07109098136425018,-0.1603042483329773
29.45,-0.13246572017669678,-0.05084424465894699,0.7812977433204651,-0.124243825674057,-0.19191572070121765,-0.1092088595032692
29.5,-0.721996545791626,-0.5977135896682739,0.5865781307220459,-0.1958032250404358,-0.5052435398101807,0.00995008647441864
29.55,-1.2416176795959473,-0.4649564027786255,-0.28535690903663635,-0.3323638141155243,-0.8538810014724731,0.15828335285186768
29.6,-1.1244443655014038,-0.4803334176540375,-0.766059935092926,-0.4093921184539795,-0.9776414036750793,0.1818908303976059
29.65,-1.2601252794265747,0.36605262756347656,-0.7292368412017822,-0.40640789270401,-0.5271795392036438,0.08686510473489761
29.7,-0.7990400791168213,0.6593418717384338,-0.6399712562561035,-0.24884893000125885,-0.20458726584911346,-0.014552704989910126
29.75,-0.7489185333251953,0.08056353777647018,-0.5415840744972229,0.06368966400623322,-0.3881954252719879,-0.1229347512125969
29.8,-0.7433266639709473,-0.10366153717041016,-1.2169361114501953,0.2495361864566803,-1.0322333574295044,-0.024901242926716805
29.85,-0.20743882656097412,-0.5237302780151367,-1.4021437168121338,0.22278369963169098,-1.1259219646453857,-0.030088970437645912
29.9,0.0035635828971862793,-0.4642200767993927,-0.7284430861473083,0.09243058413267136,-0.2522401213645935,-0.2789122462272644
29.95,-0.6536952257156372,0.4799089729785919,-0.16798236966133118,-0.05146002769470215,0.7218785285949707,-0.534945547580719
30.0,-0.004069270566105843,0.8024064302444458,0.03269105404615402,-0.023831069469451904,0.8586249947547913,-0.71148681640625
30.05,-0.5137268304824829,0.2618722915649414,-0.10838527232408524,0.10536088049411774,0.5119526386260986,-0.5763716101646423
30.1,0.22363930940628052,0.39744579792022705,-0.9131430387496948,0.18122592568397522,-0.23039864003658295,-0.27262821793556213
30.15,0.4695132374763489,0.06485660374164581,-0.8060462474822998,0.18706874549388885,0.18120798468589783,-0.09876483678817749
30.2,-0.5772391557693481,-0.0905037373304367,0.13443335890769958,0.1862293928861618,1.078952431678772,-0.028756963089108467
30.25,-1.3877463340759277,0.4915236830711365,1.0591434240341187,0.12902310490608215,1.1574273109436035,0.08339893072843552
30.3,-0.5576944351196289,0.5848894119262695,0.28306320309638977,-0.040498360991477966,0.4919937551021576,0.18496409058570862
30.35,0.06891012191772461,0.010682149790227413,-0.8211208581924438,-0.13908711075782776,0.4772433936595917,0.2594814598560333
30.4,-1.1855411529541016,-0.185307577252388,-0.28550028800964355,-0.0921630710363388,1.0334856510162354,0.3891105353832245
30.45,-1.213603138923645,-0.13200387358665466,0.03127049282193184,-0.06426988542079926,1.1769822835922241,0.4779433608055115
30.5,-0.7733187079429626,0.9841433167457581,0.8665352463722229,-0.18170419335365295,1.4441169500350952,0.5307710766792297
30.55,0.5615342259407043,1.4361697435379028,0.31783565878868103,-0.2565056383609772,1.7273098230361938,0.3764161467552185
30.6,0.4591974914073944,0.3122673034667969,1.4642342329025269,-0.1539987176656723,1.8652236461639404,0.05050353333353996
30.65,1.1346474885940552,-0.20650672912597656,0.7072347402572632,0.18316730856895447,0.4471588432788849,-0.012067709118127823
30.7,2.532229423522949,0.30764123797416687,-0.8102391958236694,0.3525388836860657,-0.7245510816574097,0.08235660940408707
30.75,2.4896323680877686,0.9326937794685364,-0.970377504825592,0.2468447983264923,-0.006363184191286564,-0.015224293805658817
30.8,1.5084123611450195,-0.15259259939193726,0.19038192927837372,0.0338330939412117,1.0332533121109009,-0.2270898073911667
30.85,1.764120101928711,-0.4957351088523865,-0.19392570853233337,0.05660151690244675,0.6949318647384644,-0.23985621333122253
30.9,2.4286646842956543,-0.07807809114456177,-0.9775065779685974,0.2299140989780426,0.2930457293987274,-0.11332221329212189
30.95,1.7216743230819702,0.08244524896144867,0.03264666348695755,0.2718042731285095,0.7285224199295044,-0.031970005482435226
31.0,1.2850786447525024,0.004440333228558302,1.058844804763794,0.3200753629207611,0.8464945554733276,0.008732009679079056
31.05,1.220838189125061,-0.21297265589237213,1.3406779766082764,0.35225528478622437,0.5269073247909546,-0.02007710002362728
31.1,0.8119754791259766,0.03570271283388138,0.93202805519104,0.3072913885116577,0.12746714055538177,-0.05326992645859718
31.15,0.9131661653518677,0.4392901659011841,-0.362286776304245,0.21234095096588135,-0.02989586815237999,-0.13025616109371185
31.2,0.12650799751281738,-0.051152221858501434,-0.1341874599456787,0.19456008076667786,0.2666260004043579,-0.28213897347450256
31.25,0.4574432671070099,-0.0697479173541069,0.31853121519088745,0.32850319147109985,-0.1661401093006134,-0.40798699855804443
31.3,0.2597943842411041,-0.1264963448047638,0.7312601804733276,0.3705690801143646,-0.5627946853637695,-0.4890463650226593
31.35,-0.1906878650188446,-0.09331993013620377,0.37387073040008545,0.13511818647384644,-0.7536115050315857,-0.3574715256690979
31.4,0.4495471119880676,-0.4111814498901367,-0.5055716037750244,-0.23962430655956268,-0.48648521304130554,-0.17370940744876862
31.45,0.34117117524147034,-0.278990775346756,0.6000019907951355,-0.4652286767959595,0.5287330150604248,-0.030991321429610252
31.5,1.11721670627594,0.3539943993091583,1.1172056198120117,-0.46724027395248413,0.6000975370407104,-0.17976325750350952
31.55,0.8444117903709412,0.8663454651832581,2.020768642425537,-0.2630615532398224,0.07434756308794022,-0.29560649394989014
31.6,1.0577301979064941,0.42178353667259216,0.8386409878730774,0.01639840006828308,-1.0696371793746948,-0.31339573860168457
31.65,0.15566633641719818,0.13616468012332916,0.19045574963092804,0.005895607173442841,-1.4909138679504395,-0.1472727656364441
31.7,0.04195085167884827,0.3143654465675354,-0.7851952910423279,-0.1815814971923828,-1.4152358770370483,0.019911406561732292
31.75,0.4320698380470276,0.08956918120384216,-1.246307134628296,-0.4276435375213623,-0.7209789752960205,0.1236010268330574
31.8,0.6425420045852661,-0.037465035915374756,-0.5696559548377991,-0.44331324100494385,0.20724469423294067,0.10490867495536804
31.85,0.039799392223358154,0.38735008239746094,1.3677846193313599,-0.21729034185409546,0.656218409538269,0.07212242484092712
31.9,0.42629367113113403,0.5765571594238281,1.7573847770690918,0.10012304037809372,0.028250906616449356,0.0328543446958065
31.95,-0.6218187808990479,0.5259227156639099,1.4700453281402588,0.19962075352668762,-0.7111829519271851,0.06833503395318985
32.0,-0.5276522636413574,0.20982937514781952,-0.8258675336837769,-0.007630676031112671,-1.4755637645721436,0.17420382797718048
32.05,0.5298466682434082,-0.24403463304042816,-2.781660556793213,-0.3041982054710388,-1.0346792936325073,0.2532896101474762
32.1,0.26918649673461914,-0.26733583211898804,-1.8647063970565796,-0.3795924484729767,0.4704543352127075,0.19933560490608215
32.15,-0.648659884929657,0.1289052516222,0.48186081647872925,-0.25035905838012695,1.4486937522888184,0.10986553132534027
32.2,-0.28879374265670776,0.8055391311645508,1.9042783975601196,0.01625387743115425,1.1753047704696655,0.045870590955019
32.25,0.3951505422592163,0.44711875915527344,1.682658314704895,0.23472747206687927,0.3537212014198303,0.017279956489801407
32.3,-0.4369722008705139,0.03462783619761467,1.182783603668213,0.2196456789970398,-0.3027796447277069,0.10513167083263397
32.35,-0.11960035562515259,-0.1864766925573349,-0.7637310028076172,0.010850481688976288,-0.5937713980674744,0.25650617480278015
32.4,0.0813913345336914,-0.1482371687889099,-1.3957741260528564,-0.22963516414165497,0.13233636319637299,0.23961535096168518
32.45,-0.20933428406715393,0.20616629719734192,-0.3802857995033264,-0.19325965642929077,0.9490906000137329,0.1446511447429657
32.5,0.0455288290977478,0.3858795166015625,1.1940501928329468,0.030651547014713287,1.0432062149047852,0.005345210898667574
32.55,0.2732943296432495,0.24793238937854767,1.9318679571151733,0.2600901126861572,0.46343177556991577,-0.11725278943777084
32.6,-0.14045965671539307,-0.18656548857688904,1.4893286228179932,0.3193979561328888,-0.34986281394958496,-0.13049612939357758
32.65,-0.34276267886161804,-0.32880404591560364,-0.2251116931438446,0.1962452232837677,-1.0006890296936035,-0.03305453062057495
32.7,0.2927362322807312,-0.3162192702293396,-1.3848834037780762,-0.02943337708711624,-0.8214916586875916,-0.011262445710599422
32.75,0.43232956528663635,0.011545239016413689,-0.6763850450515747,-0.12573391199111938,0.04024466872215271,-0.08742649108171463
32.8,0.07440167665481567,0.6897544860839844,0.8159070014953613,-0.04902754724025726,0.4804949462413788,-0.24032795429229736
32.85,0.3751625418663025,0.18834878504276276,0.8678064346313477,0.10108506679534912,-0.12419427186250687,-0.3318703770637512
32.9,-0.031162619590759277,-0.027858756482601166,0.35683614015579224,0.18413132429122925,-0.8612335920333862,-0.23976920545101166
32.95,-0.13117097318172455,0.3594532608985901,-0.5974665880203247,0.07980053126811981,-1.1625638008117676,-0.04682035371661186
33.0,0.5555427074432373,0.3319970667362213,-1.6215040683746338,-0.21340502798557281,-0.8472074270248413,0.04979107156395912
33.05,1.0888123512268066,0.1695224493741989,-1.764352560043335,-0.3584026098251343,0.0866260901093483,0.026112427935004234
33.1,0.9577587246894836,0.5097895860671997,-0.24885500967502594,-0.17177537083625793,0.9342207312583923,-0.002606106223538518
33.15,0.5467426776885986,0.7074385285377502,1.2138365507125854,0.16435447335243225,0.8907609581947327,0.047731634229421616
33.2,0.09361529350280762,0.3319806754589081,1.172508955001831,0.35579437017440796,0.1102868914604187,0.14689622819423676
33.25,0.20576155185699463,-0.10168169438838959,-0.367953896522522,0.20184734463691711,-0.5375864505767822,0.28930824995040894
33.3,0.7578262090682983,-0.0986889898777008,-1.3584485054016113,-0.14227056503295898,-0.09696920961141586,0.3000740110874176
33.35,0.6942992806434631,-0.148709237575531,-0.7345155477523804,-0.25858280062675476,0.9717249274253845,0.2272692769765854
33.4,0.23461171984672546,0.4389038383960724,1.0113298892974854,0.08527617901563644,1.2876547574996948,0.1299310326576233
33.45,0.844892680644989,0.33898356556892395,1.329665184020996,0.4502357244491577,0.6329713463783264,0.06725245714187622
33.5,0.24903136491775513,-0.28489500284194946,1.2482547760009766,0.502135157585144,0.10152582824230194,0.050561271607875824
33.55,-0.16608983278274536,-0.3235321640968323,0.1198776513338089,0.3604857325553894,-0.28811806440353394,0.06513956934213638
33.6,0.059837549924850464,0.35602006316185,-0.8886820077896118,0.06446336209774017,-0.12429990619421005,0.05873006209731102
33.65,0.35119935870170593,0.4170103967189789,-0.3126088082790375,-0.11813372373580933,0.6526408195495605,0.03698722645640373
33.7,0.3536289930343628,0.1162090003490448,1.4001941680908203,0.01549086906015873,1.0028740167617798,-0.03001111000776291
33.75,0.5480416417121887,0.0498628206551075,1.745103359222412,0.24064743518829346,0.34758347272872925,-0.15229111909866333
33.8,0.010522663593292236,0.07550999522209167,0.8738614320755005,0.2135573774576187,-0.4233596920967102,-0.12361098825931549
33.85,-0.0486508309841156,0.33402925729751587,-0.7617952823638916,-0.07415145635604858,-0.7109513282775879,0.015893355011940002
33.9,0.400391161441803,0.04430970922112465,-1.3990540504455566,-0.4091602563858032,-0.1741619110107422,0.15583232045173645
33.95,0.518179714679718,0.041380926966667175,-0.21715687215328217,-0.4041251540184021,0.5561874508857727,0.11600753664970398
34.0,0.43492060899734497,0.0736837238073349,1.0704885721206665,-0.14534208178520203,0.5517615079879761,0.003085617208853364
34.05,0.5913413763046265,0.0314025916159153,0.7109839916229248,0.0528135746717453,-0.12857773900032043,-0.01811998523771763
34.1,0.17007601261138916,-0.014537806622684002,0.07077430933713913,0.00029046833515167236,-0.4408643841743469,0.05031890049576759
34.15,0.09664517641067505,0.25458818674087524,-0.366498738527298,-0.10746657848358154,-0.27964073419570923,0.07614067196846008
34.2,0.22933341562747955,0.1505146622657776,-0.6290274858474731,-0.12488514184951782,0.10816356539726257,0.028026655316352844
34.25,0.5966801643371582,0.21980199217796326,-0.6543448567390442,0.03794743865728378,0.341548353433609,0.02821214124560356
34.3,0.9342182278633118,0.5750542879104614,-0.2958754003047943,0.20910388231277466,0.45606040954589844,0.08281899988651276
34.35,0.999294102191925,0.5921469330787659,0.684967577457428,0.27328646183013916,0.5774844288825989,0.14511851966381073
34.4,1.2130458354949951,0.6938820481300354,1.7808454036712646,0.2934080958366394,0.36834385991096497,0.2556851804256439
34.45,1.6206257343292236,1.0516806840896606,1.8156052827835083,0.2869529128074646,-0.26045504212379456,0.3440662920475006
34.5,1.0592142343521118,0.9783506989479065,2.3126964569091797,0.13127046823501587,-0.5493420362472534,0.6301201581954956
34.55,0.24649804830551147,1.3567094802856445,2.086966037750244,-0.079548180103302,-1.0460667610168457,0.688527524471283
34.6,-0.40866798162460327,0.44416043162345886,1.5188124179840088,-0.012839794158935547,-1.6120439767837524,0.6436160802841187
34.65,-1.0159881114959717,-0.3415214419364929,2.133603572845459,0.15569424629211426,-2.093167304992676,0.7288781404495239
34.7,-1.7551908493041992,-0.3236791789531708,1.4074327945709229,-0.2733857035636902,-1.9407316446304321,0.9212357401847839
34.75,-3.310539722442627,-0.06060432270169258,0.5895657539367676,-1.0501515865325928,-1.4127026796340942,0.7716056108474731
34.8,-3.5992908477783203,-0.0016653039492666721,-0.436991810798645,-1.2071728706359863,-1.5528782606124878,0.3409060835838318
34.85,-3.6110892295837402,-0.8821128010749817,-0.5897176861763,-0.8458333015441895,-2.0087730884552,0.07778528332710266
34.9,-1.1887741088867188,0.19192896783351898,-3.016873836517334,0.15432745218276978,-3.0680203437805176,0.6757463812828064
34.95,0.5205427408218384,0.4017040729522705,-3.0787391662597656,0.22315645217895508,-3.0911664962768555,1.0942869186401367
35.0,0.44695043563842773,-0.35748371481895447,-3.3228797912597656,-0.006595402956008911,-1.9233070611953735,0.6628081798553467
35.05,0.08565628528594971,-1.7000552415847778,-3.123699903488159,0.24726153910160065,-1.6442302465438843,0.700232207775116
35.1,3.480236053466797,0.41078513860702515,-3.1218934059143066,0.7771098613739014,-1.5753633975982666,0.8198244571685791
35.15,3.7800300121307373,0.3193792700767517,-3.8262898921966553,0.47884997725486755,0.04675941914319992,0.5500274896621704
35.2,1.364998459815979,-0.22165367007255554,-4.788969993591309,-0.10998968780040741,2.3174898624420166,0.10267943143844604
35.25,-1.5826430320739746,0.0907965898513794,-4.413914203643799,-0.1737518310546875,3.4893813133239746,0.17522913217544556
35.3,-3.544137716293335,0.37455081939697266,-3.735452175140381,-0.5033220052719116,4.519647598266602,-0.05407577008008957
35.35,-5.129504680633545,0.5145996809005737,-2.973855972290039,-1.1258035898208618,5.554236888885498,-0.1538366675376892
35.4,-6.7966508865356445,1.1075208187103271,-1.1385248899459839,-1.3099192380905151,6.0477213859558105,0.09868922829627991
35.45,-6.7482500076293945,2.3871819972991943,1.6447561979293823,-0.8296076655387878,5.771059989929199,0.4483655095100403
35.5,-5.313448905944824,1.8292338848114014,3.9150593280792236,-0.4799402356147766,5.525426387786865,0.807950496673584
35.55,-3.415705919265747,0.467163622379303,5.705512046813965,-0.10073539614677429,5.161020278930664,1.0925558805465698
35.6,-1.0193963050842285,-1.112877368927002,6.162805557250977,0.2577979564666748,4.7344069480896,1.076651692390442
35.65,3.1364896297454834,-1.2434074878692627,5.903532981872559,0.3513484001159668,4.520005226135254,0.9004583358764648
35.7,5.874146461486816,-0.4677666425704956,3.200413703918457,0.27024906873703003,3.867187023162842,0.31086868047714233
35.75,5.89573860168457,-0.765974760055542,0.1238669753074646,0.027525827288627625,2.597198724746704,-0.20497332513332367
35.8,5.513919830322266,-0.4790598750114441,-0.5272234082221985,-0.1557215452194214,1.3421286344528198,-0.009224374778568745
35.85,5.97060489654541,0.06633126735687256,-0.03987717255949974,-0.4162910580635071,0.43803590536117554,0.778387725353241
35.9,6.0794477462768555,0.16226132214069366,1.053056001663208,-0.6687988042831421,-0.8325387239456177,0.9697454571723938
35.95,5.232323169708252,2.3543541431427,3.992858409881592,-0.5580393671989441,-2.860858917236328,0.5533871650695801
36.0,2.225109338760376,2.1900646686553955,4.783876419067383,-0.2720748484134674,-4.566629886627197,0.26873070001602173
36.05,0.42487239837646484,1.5572624206542969,5.001865386962891,-0.05364243686199188,-5.446807861328125,0.027656536549329758
36.1,-2.4279942512512207,0.25831666588783264,4.542766571044922,0.4024235010147095,-5.996483325958252,-0.0038345155771821737
36.15,-5.192477703094482,-0.1116776242852211,2.929478645324707,0.4758000373840332,-6.161945343017578,0.25934848189353943
36.2,-8.014345169067383,0.3633818030357361,2.1790993213653564,0.4696612060070038,-6.186657905578613,0.4479464590549469
36.25,-7.546478271484375,0.047415539622306824,-5.025745391845703,0.8184821009635925,-6.331708908081055,0.8566291332244873
36.3,-1.9832966327667236,-3.7029411792755127,-8.396331787109375,0.23224173486232758,-5.1154398918151855,0.5515298247337341
36.35,2.262608051300049,-0.4996839463710785,-6.94844913482666,0.1333935260772705,-2.7898008823394775,-0.3856956660747528
36.4,2.0088109970092773,4.260232925415039,-5.193013668060303,0.22847479581832886,-0.3820943832397461,-1.1403461694717407
36.45,0.7677063345909119,2.4834742546081543,-2.6054182052612305,0.1586041897535324,0.5171635746955872,-0.33443135023117065
36.5,1.2245056629180908,0.3213665187358856,-2.5990118980407715,0.44329634308815,0.1618800163269043,0.8086418509483337
36.55,-0.03823864459991455,-0.22738346457481384,-3.775819778442383,0.3749893605709076,1.3404229879379272,0.9847506880760193
36.6,-2.268524169921875,-1.3277026414871216,-2.205935478210449,0.12634162604808807,2.6619038581848145,0.4195459187030792
36.65,-1.4918712377548218,-0.6008578538894653,-0.5724161267280579,0.3997976779937744,2.9610345363616943,0.3918895721435547
36.7,-2.5295300483703613,0.6930893063545227,1.5952324867248535,0.9278883934020996,3.1162734031677246,0.6580100059509277
36.75,-3.4338300228118896,1.4283589124679565,1.4768108129501343,1.0179269313812256,3.2254748344421387,0.5170897245407104
36.8,-2.709486484527588,0.9261712431907654,1.0923737287521362,0.19710798561573029,3.4473977088928223,0.17467287182807922
36.85,-1.2860960960388184,-1.1028846502304077,2.3509902954101562,-0.5675585269927979,3.5076136589050293,0.41943061351776123
36.9,0.20993947982788086,-0.12640491127967834,3.019265651702881,-0.16247466206550598,2.6872799396514893,0.33080095052719116
36.95,-0.2742850184440613,0.03766057267785072,0.3279978036880493,0.16428782045841217,2.1151366233825684,0.12594571709632874
37.0,-1.279697299003601,-1.1529189348220825,-1.0514748096466064,0.5043985843658447,1.8552262783050537,0.09102822095155716
37.05,-1.21047842502594,-0.22220607101917267,-3.0221714973449707,0.5567158460617065,1.2136539220809937,-0.315372496843338
37.1,1.6992156505584717,0.9472667574882507,0.9768403172492981,0.18466541171073914,1.6314136981964111,-0.5497820973396301
37.15,3.2809925079345703,0.3343917727470398,1.1628649234771729,0.36781391501426697,1.446747064590454,-1.1799408197402954
37.2,3.243206024169922,0.5625717639923096,0.6666179299354553,0.3382265865802765,1.126171588897705,-0.9376763701438904
37.25,5.079474449157715,0.17186281085014343,2.0251245498657227,0.036888837814331055,1.0711606740951538,-0.1899244636297226
37.3,5.0264997482299805,0.06856460869312286,2.2562482357025146,-0.041986946016550064,0.12463026493787766,-0.047165632247924805
37.35,3.5504465103149414,0.6191093325614929,1.977989912033081,-0.07040079683065414,-1.064984679222107,0.11588485538959503
37.4,2.4270832538604736,0.7264423966407776,2.698479413986206,-0.22602912783622742,-1.676005482673645,0.6009993553161621
37.45,1.110276460647583,1.2609807252883911,2.469860315322876,-0.2848253846168518,-2.174212694168091,0.7531812787055969
37.5,-0.005311131477355957,1.1751718521118164,2.046945571899414,-0.23507243394851685,-2.575746774673462,0.8042232394218445
37.55,-1.200897216796875,0.5100831389427185,0.8567903637886047,-0.20342782139778137,-2.7462544441223145,0.7823742032051086
37.6,-2.1704070568084717,-0.38625258207321167,-0.18978044390678406,-0.22364458441734314,-2.7953989505767822,0.7272334694862366
37.65,-2.2232532501220703,-0.2454758584499359,-1.57829749584198,-0.23336392641067505,-2.740154981613159,0.45702528953552246
37.7,-1.5991363525390625,0.29653939604759216,-3.049311876296997,-0.49865034222602844,-2.465629816055298,0.3130662143230438
37.75,-1.1463321447372437,1.1131927967071533,-3.0993149280548096,-0.961039662361145,-2.2788798809051514,0.45264220237731934
37.8,-0.20076477527618408,0.11929433047771454,-3.3996081352233887,-1.0687319040298462,-2.272235155105591,0.3294995427131653
37.85,2.6726670265197754,0.04114479571580887,-5.680015563964844,-0.10507000982761383,-1.9490001201629639,0.14336517453193665
37.9,1.9487082958221436,0.21428996324539185,-3.4780499935150146,0.5856993198394775,-0.4715983271598816,0.05208417400717735
37.95,0.7183240652084351,1.7218793630599976,-1.13785719871521,0.8375412821769714,0.3529255986213684,0.20905300974845886
38.0,0.10390639305114746,1.0650873184204102,1.444595456123352,-0.15852868556976318,1.2588270902633667,-0.033941011875867844
38.05,-1.1274529695510864,-0.7503007054328918,2.2560346126556396,-1.474123239517212,1.7845720052719116,-0.08710996806621552
38.1,-1.5727717876434326,-1.0408128499984741,4.152048110961914,-0.9908962249755859,0.9896962642669678,-0.18974538147449493
38.15,-1.7205097675323486,1.4022530317306519,2.5367980003356934,0.03461634740233421,-0.4514465928077698,-0.15291716158390045
38.2,-0.9647514820098877,0.029076391831040382,2.829930543899536,-0.20607851445674896,-0.894507646560669,-0.25166574120521545
38.25,-0.3780413866043091,-0.339094340801239,2.5342445373535156,-0.20605280995368958,-1.519832730293274,-0.5085222721099854
38.3,-0.002733170986175537,0.2868318259716034,1.2485207319259644,-0.08496248722076416,-2.268237829208374,-0.40543627738952637
38.35,-0.051487505435943604,-0.008194001391530037,0.6028916835784912,0.26322728395462036,-2.5445640087127686,-0.20308394730091095
38.4,-0.11855071783065796,0.37650975584983826,-1.0411278009414673,0.7676416635513306,-2.6682488918304443,0.25613483786582947
38.45,0.5037569999694824,0.5248720049858093,-2.403775453567505,0.8812487125396729,-2.3802034854888916,0.5382896065711975
38.5,1.1224942207336426,0.39081886410713196,-2.965765953063965,0.6414688229560852,-1.5689377784729004,0.5953999161720276
38.55,1.2680987119674683,0.06969475746154785,-3.371936321258545,0.47404804825782776,-0.6783773303031921,0.5652214884757996
38.6,0.3339066505432129,-0.4972905218601227,-2.9830594062805176,0.45985662937164307,0.24810107052326202,0.5003679990768433
38.65,0.2857438325881958,0.32992762327194214,-2.9353370666503906,0.3996161222457886,1.100050926208496,0.3223419785499573
38.7,0.21062088012695312,-0.02657400071620941,-2.7066149711608887,-0.1978631317615509,2.423093557357788,-0.05327359586954117
38.75,-1.0512725114822388,0.9168645143508911,-1.5123308897018433,-0.5002614259719849,3.761373996734619,-0.36020156741142273
38.8,-2.155194044113159,1.3416318893432617,0.03411613032221794,-0.36349838972091675,4.3387451171875,-0.3237619698047638
38.85,-2.0112216472625732,1.2288589477539062,1.285091519355774,-0.100692518055439,4.153889179229736,-0.05022244527935982
38.9,-2.7694456577301025,0.8842324614524841,0.8423373699188232,-0.29081371426582336,4.1602559089660645,0.20207636058330536
38.95,-1.9615987539291382,0.33306291699409485,2.728320360183716,-0.26372742652893066,4.26149320602417,0.1856117993593216
39.0,-0.866943359375,0.22216777503490448,3.7178401947021484,0.439859539270401,3.220947027206421,0.08692377805709839
39.05,-0.7008275985717773,-0.20670244097709656,2.9138450622558594,1.0024031400680542,1.7123435735702515,-0.3254517912864685
39.1,0.4491337537765503,-0.7101108431816101,2.578543186187744,0.4957227408885956,1.2526847124099731,-0.33294740319252014
39.15,2.140007734298706,-0.6472845673561096,2.0503954887390137,-0.2823236882686615,1.1118303537368774,-0.20380230247974396
39.2,2.699281692504883,0.1503325253725052,2.10117244720459,-0.661529541015625,0.5880689024925232,-0.25455141067504883
39.25,2.063953399658203,-0.5804224014282227,0.8548780083656311,-0.36769142746925354,-0.48845309019088745,-0.5936340093612671
39.3,1.2165617942810059,-0.45451825857162476,-1.122274398803711,0.003743201494216919,-1.1844319105148315,-0.9847181439399719
39.35,1.8017096519470215,0.42592546343803406,-1.1958286762237549,0.15165108442306519,-1.1293843984603882,-1.1509591341018677
39.4,3.0093700885772705,1.4255592823028564,0.432348370552063,0.4410719871520996,-0.976816713809967,-1.413779854774475
39.45,2.9614105224609375,2.7107090950012207,-0.7707119584083557,0.5260710716247559,-1.2276746034622192,-1.13645601272583
39.5,2.081346035003662,1.6861450672149658,1.898292899131775,0.028722409158945084,-0.8007758855819702,0.0605475977063179
39.55,0.898644745349884,1.4282923936843872,0.2661115825176239,-0.32877326011657715,-0.811372697353363,0.8521547913551331
39.6,-0.029770851135253906,1.3067362308502197,-2.4056921005249023,-0.48722729086875916,-0.21887566149234772,1.0838069915771484
39.65,1.2740460634231567,0.12893207371234894,0.38535192608833313,-0.44310110807418823,0.5457452535629272,1.0857510566711426
39.7,1.90768301486969,0.4237462878227234,-0.1634397804737091,0.11866626143455505,-0.4950534403324127,0.9162769913673401
39.75,1.1784539222717285,1.1736127138137817,0.36327484250068665,0.016278326511383057,-0.8666959404945374,1.2389156818389893
39.8,0.5474385619163513,0.8618088960647583,1.2944107055664062,-0.597195029258728,-0.6784322261810303,1.4090769290924072
39.85,0.03762614727020264,-1.053168535232544,2.1741857528686523,-0.7370396256446838,-0.9565733671188354,1.2011723518371582
39.9,-0.1961936056613922,-1.4194995164871216,1.0288742780685425,-0.03867623209953308,-2.0547521114349365,0.6539754867553711
39.95,-0.10764360427856445,-0.8664829134941101,1.233892798423767,-0.11572921276092529,-2.293055772781372,0.35312432050704956
40.0,-0.8718465566635132,-0.38519012928009033,0.09610295295715332,-0.34365567564964294,-2.4989161491394043,0.16954810917377472
40.05,-1.5058525800704956,-0.5367976427078247,-0.3516162931919098,-0.7626718282699585,-2.5159003734588623,-0.13453705608844757
40.1,-1.6154425144195557,1.421836018562317,-1.4950482845306396,-0.7695760130882263,-2.837803840637207,-0.48320624232292175
40.15,-2.0444767475128174,-0.6502410173416138,-1.4292322397232056,-1.1089398860931396,-2.157496929168701,-1.197461724281311
40.2,0.062166571617126465,-2.0321295261383057,-1.2601004838943481,-0.03723269701004028,-2.451575994491577,-1.7220758199691772
40.25,1.9808555841445923,-0.30551227927207947,-1.2420393228530884,0.7505465745925903,-2.105388641357422,-1.1501996517181396
40.3,1.9093892574310303,0.2777225077152252,-0.05960480123758316,0.941745936870575,-1.4685087203979492,-1.2087559700012207
40.35,0.2735731899738312,0.7337160706520081,-0.18418975174427032,0.9100854396820068,-0.9611465930938721,-1.285516619682312
40.4,0.668880820274353,1.5326589345932007,-1.0581401586532593,0.7634897232055664,-0.9786047339439392,-0.6526367664337158
40.45,0.4498468041419983,0.6853906512260437,-2.1300814151763916,0.2692910432815552,-0.9517406225204468,0.06414967030286789
40.5,0.4479209780693054,0.9172928333282471,-1.743569254875183,-0.031159095466136932,-0.09355852752923965,0.21747472882270813
40.55,0.16790306568145752,0.8071100115776062,-1.130752444267273,-0.36534005403518677,1.2093613147735596,0.07678836584091187
40.6,-0.83757483959198,-0.04406168311834335,-0.6520158052444458,-0.5644336938858032,2.0252835750579834,-0.038601573556661606
40.65,-0.8524172902107239,-0.24392615258693695,0.5973730087280273,-0.27179619669914246,1.7799603939056396,0.14848044514656067
40.7,-0.07167702913284302,0.5208635330200195,1.066190242767334,0.30753278732299805,1.0152379274368286,0.3398577570915222
40.75,1.4993870258331299,0.444222629070282,-0.6086480021476746,0.4128575026988983,1.1856471300125122,0.24418023228645325
40.8,0.259995698928833,-1.226298213005066,-4.2432732582092285,0.7098329067230225,2.212416172027588,0.019825026392936707
40.85,-2.3783819675445557,1.5961675643920898,2.3731086254119873,2.1504907608032227,2.902390480041504,-0.13437654078006744
40.9,-0.9317868947982788,0.9761742949485779,2.8115956783294678,2.9155399799346924,1.236941933631897,-0.4338792860507965
40.95,-0.09312236309051514,1.562794804573059,3.433565139770508,2.602365493774414,1.4364851713180542,-1.1604381799697876
41.0,-0.009586572647094727,0.16178584098815918,5.399381637573242,1.5649187564849854,2.487567186355591,-1.0234407186508179
41.05,0.7701085805892944,1.002456784248352,2.040390729904175,1.074647307395935,1.777176022529602,-1.059901475906372
41.1,1.281605839729309,-1.2003804445266724,1.4751478433609009,0.5289336442947388,1.5416897535324097,-0.8967113494873047
41.15,1.2193272113800049,-3.3356103897094727,1.574747920036316,0.07993164658546448,0.8484153151512146,-0.8012892603874207
41.2,1.1881632804870605,-0.7304821610450745,2.0580852031707764,-0.6882678866386414,-0.1022111028432846,-0.4792248010635376
41.25,1.225203037261963,2.4241631031036377,1.1627893447875977,-1.5205951929092407,-0.3441985845565796,0.22683390974998474
41.3,1.2549866437911987,1.625117540359497,0.5806560516357422,-1.8929479122161865,-0.19857637584209442,0.5142220854759216
41.35,0.6047627925872803,-0.30068206787109375,0.041424043476581573,-1.641796588897705,-1.3042281866073608,0.36287954449653625
41.4,1.4249773025512695,-0.5808380842208862,-2.4206812381744385,-0.8432621955871582,-2.826206684112549,0.2536500096321106
41.45,1.8673267364501953,1.6245197057724,-0.6726770401000977,-0.2829591631889343,-1.9850929975509644,0.5169776678085327
41.5,0.6293765902519226,1.0521966218948364,0.8748024106025696,-0.38024818897247314,-0.6721245646476746,0.6338037252426147
41.55,0.14680230617523193,-0.32754331827163696,0.8748165369033813,-0.4276933968067169,-0.634843647480011,0.38892820477485657
41.6,0.16045652329921722,0.19279006123542786,0.17973120510578156,-0.25657883286476135,-1.10230553150177,0.388504296541214
41.65,0.6704838871955872,0.20440970361232758,-0.6944067478179932,-0.26943308115005493,-1.0536590814590454,0.32372501492500305
41.7,0.5983884334564209,-0.40114307403564453,-0.5875372886657715,-0.23426873981952667,-0.5525381565093994,0.12471027672290802
41.75,0.6366709470748901,-0.33244988322257996,-0.7356880903244019,0.03568457067012787,-0.40054967999458313,-0.06651286035776138
41.8,0.6849262714385986,-0.201228067278862,-1.3056164979934692,0.26368677616119385,-0.24466562271118164,-0.23711314797401428
41.85,0.41119909286499023,-0.0681714192032814,-1.4798228740692139,0.3899363577365875,0.149481400847435,-0.3387370705604553
41.9,0.810940682888031,0.4224102199077606,-2.1506752967834473,0.4487382471561432,0.5601471066474915,-0.386900931596756
41.95,0.4474729895591736,0.9022943377494812,-0.7571893930435181,0.5651922821998596,1.0990798473358154,-0.3861449956893921
42.0,0.8182536959648132,0.5793104767799377,0.39305418729782104,0.5116615295410156,1.1076552867889404,-0.3262327313423157
42.05,0.7854093909263611,0.5090265870094299,1.3120312690734863,0.3339692950248718,0.9123806953430176,-0.2046462893486023
42.1,0.996471643447876,-0.11188791692256927,0.6714287996292114,0.05108985677361488,0.6229550242424011,-0.05920726805925369
42.15,1.1265864372253418,0.09889036417007446,0.4737446904182434,-0.14715594053268433,0.5825997591018677,0.08143579959869385
42.2,1.040148138999939,0.7468462586402893,1.1550110578536987,-0.25223228335380554,0.6270148158073425,0.1755978763103485
42.25,0.562437117099762,0.8464556336402893,1.9545215368270874,-0.2063468098640442,0.3942320942878723,0.22288155555725098
42.3,0.38848263025283813,0.035261109471321106,1.5137243270874023,-0.13823853433132172,-0.19945435225963593,0.24969272315502167
42.35,0.082556813955307,-0.08690552413463593,0.9155782461166382,-0.16769498586654663,-0.4423816204071045,0.34648916125297546
42.4,-0.41957929730415344,0.09045976400375366,0.9477959871292114,-0.21987293660640717,-0.5113433599472046,0.41976460814476013
42.45,-0.7157353162765503,-0.3034134805202484,0.6782642602920532,-0.10684844851493835,-0.8021392822265625,0.34815460443496704
42.5,-0.8261464834213257,-0.4809170961380005,0.4658307731151581,-0.020670831203460693,-0.9695815443992615,0.3013792037963867
42.55,-0.9263013601303101,0.19200417399406433,0.024199262261390686,-0.19170676171779633,-0.7521944046020508,0.2864002585411072
42.6,-1.1881537437438965,0.7859202027320862,-0.24518710374832153,-0.5484117865562439,-0.21111290156841278,0.20760709047317505
42.65,-1.3655129671096802,0.6381140351295471,-1.136049747467041,-0.8356846570968628,-0.26171809434890747,0.16478662192821503
42.7,-0.816558301448822,-0.18694019317626953,-1.3804802894592285,-0.8844560384750366,-0.42599618434906006,0.09044414758682251
42.75,-0.7064425945281982,-0.5652876496315002,-0.5820600390434265,-0.8326797485351562,-0.2821444571018219,-0.06218772381544113
42.8,-0.35762226581573486,-1.2507926225662231,0.03680327162146568,-0.6017789840698242,-0.26428401470184326,-0.17977836728096008
42.85,-0.18447521328926086,-0.5853263139724731,0.6656050086021423,-0.0869567021727562,-0.22561810910701752,-0.295536071062088
42.9,0.0002174079418182373,0.5597954392433167,0.6008344292640686,0.4094177186489105,-0.18605804443359375,-0.2855511009693146
42.95,0.6433210968971252,1.2765847444534302,-0.12944667041301727,0.45913875102996826,-0.3385668694972992,-0.2958577275276184
43.0,0.46814727783203125,0.9382221102714539,-0.21466092765331268,0.3348774015903473,0.0644027441740036,-0.34576138854026794
43.05,0.06492593884468079,0.35991671681404114,0.3340953290462494,0.4332070052623749,0.5361081957817078,-0.4798220098018646
43.1,0.6510468125343323,-0.07200712710618973,-0.4517967700958252,0.7556065917015076,0.5527592897415161,-0.5991038680076599
43.15,0.6858379244804382,-0.15205949544906616,-0.645380973815918,1.0769034624099731,0.840957522392273,-0.6025989651679993
43.2,0.7049009799957275,0.9223452806472778,0.9316482543945312,1.1742860078811646,1.10578191280365,-0.4800587296485901
43.25,0.4689791202545166,0.8243237137794495,2.1078402996063232,0.9926999807357788,0.768897533416748,-0.2578173577785492
43.3,0.21701949834823608,0.5155830383300781,2.0718562602996826,0.9937052130699158,-0.10607626289129257,-0.1283586472272873
43.35,0.4287385046482086,0.9127256274223328,-0.27789151668548584,1.0837047100067139,-0.8730905652046204,-0.02892482839524746
43.4,0.24701601266860962,1.7287858724594116,-1.3214386701583862,1.040394902229309,-0.8380364775657654,0.32789647579193115
43.45,-0.22082076966762543,0.26580432057380676,-0.4819234609603882,0.7940694093704224,-0.17903348803520203,0.6743069887161255
43.5,-1.6251709461212158,-2.7345335483551025,0.14565685391426086,0.6295236349105835,-0.6546628475189209,0.8992565870285034
43.55,1.318932056427002,-0.8127307891845703,-0.9801031947135925,0.5785870552062988,-0.8525640368461609,0.5230450630187988
43.6,0.30639007687568665,1.020009160041809,-0.2699242830276489,0.12885355949401855,0.7725690007209778,1.0434356927871704
43.65,-0.24599486589431763,-0.7607871890068054,1.5668442249298096,-0.09468433260917664,1.4918601512908936,0.6532447934150696
43.7,0.05854393541812897,-1.3570061922073364,0.34715065360069275,0.13717809319496155,0.5489040613174438,-0.059425611048936844
43.75,0.08821534365415573,-0.6154976487159729,-0.18596158921718597,0.318040668964386,0.056478336453437805,-0.34739190340042114
43.8,0.26252835988998413,-0.6932058930397034,0.5366219878196716,0.17633038759231567,0.5488646626472473,-0.33789554238319397
43.85,0.22092601656913757,-0.5827627778053284,0.7675682306289673,0.07663121819496155,0.6953212022781372,-0.4241672158241272
43.9,0.5369154214859009,0.35656264424324036,0.6580232381820679,0.07520389556884766,0.3176027238368988,-0.6071515083312988
43.95,0.697175920009613,1.1240330934524536,-0.34900015592575073,-0.041892945766448975,-0.1269085854291916,-0.7202081680297852
44.0,0.41438013315200806,1.1222355365753174,-1.036197304725647,-0.08385016024112701,-0.1267699897289276,-0.5765179395675659
44.05,0.1622001677751541,0.8447687029838562,-0.4968568682670593,-0.056954652070999146,-0.03939365968108177,-0.41241687536239624
44.1,0.10728360712528229,0.4258041977882385,-0.12740471959114075,-0.1250838041305542,-0.06985627859830856,-0.2214999496936798
44.15,0.6460345983505249,0.041055724024772644,-0.06126519665122032,-0.22728073596954346,-0.008455097675323486,-0.09312502294778824
44.2,0.5717377662658691,0.17904475331306458,0.5365375280380249,-0.31814146041870117,0.29242950677871704,0.15734504163265228
44.25,0.5778314471244812,0.0796365886926651,0.5507408976554871,-0.4539809226989746,0.3121931552886963,0.2654314637184143
44.3,0.7157593965530396,0.13043884932994843,0.39587563276290894,-0.5477679967880249,0.21833178400993347,0.25837215781211853
44.35,0.8973063230514526,0.08275609463453293,0.21747857332229614,-0.6140771508216858,0.21904721856117249,0.278713196516037
44.4,1.031626582145691,0.3071070611476898,-0.25476133823394775,-0.6876615285873413,0.32665565609931946,0.24992148578166962
44.45,0.7336127758026123,0.4238463342189789,0.3687492311000824,-0.5786185264587402,0.4876343905925751,0.23782527446746826
44.5,0.6400120854377747,0.22741322219371796,0.3318217098712921,-0.421678751707077,0.08419137448072433,0.13569194078445435
44.55,0.6266593933105469,-0.20363043248653412,-0.03863419592380524,-0.3204173445701599,-0.5893418192863464,0.0721449926495552
44.6,0.2540460228919983,0.07205010950565338,0.20086780190467834,-0.44532614946365356,-0.8418639898300171,0.07249154150485992
44.65,-0.3171966075897217,-0.24767498672008514,0.017324667423963547,-0.5874255895614624,-0.9675593972206116,0.09709645807743073
44.7,-0.7421578168869019,-0.4773760735988617,-0.3296613395214081,-0.3881109654903412,-1.4628982543945312,-0.05330317094922066
44.75,-0.643844485282898,0.21205998957157135,-0.35805627703666687,0.005305035505443811,-2.2223827838897705,-4.6814595407340676e-05
44.8,-0.14945995807647705,1.8570387363433838,-0.7327955961227417,0.1834036409854889,-2.3532962799072266,0.18717226386070251
44.85,0.7136808633804321,-0.5565938949584961,-0.0475926510989666,0.2517302632331848,-1.59224271774292,0.0630931630730629
44.9,-0.8229780197143555,-0.35571590065956116,1.793442726135254,0.45743340253829956,-0.735529899597168,0.26458120346069336
44.95,-1.5593277215957642,0.4446181058883667,1.8651025295257568,0.5882065892219543,-0.9794756770133972,0.35889509320259094
45.0,-0.39670661091804504,-0.36657726764678955,1.2319700717926025,0.5879995226860046,-1.7640622854232788,0.185527503490448
45.05,-0.6434398293495178,0.5033769607543945,0.13725890219211578,0.3260319232940674,-2.0463035106658936,0.25055012106895447
45.1,-0.2576181888580322,-0.22838398814201355,-1.5736408233642578,0.0878227949142456,-1.912287950515747,0.11178402602672577
45.15,1.1169929504394531,-0.3719509541988373,-2.207015037536621,0.12344019114971161,-1.4101778268814087,-0.04149312153458595
45.2,1.518949270248413,-0.26725849509239197,-1.656357765197754,-0.041033174842596054,-0.37310564517974854,0.06926172971725464
45.25,0.09495489299297333,-0.2807598412036896,-0.15243908762931824,-0.14863626658916473,0.8288541436195374,0.16938769817352295
45.3,-1.017715334892273,-0.5573045611381531,1.0127748250961304,-0.04601149260997772,1.0835505723953247,0.20458506047725677
45.35,-1.0695215463638306,0.1318119913339615,1.299253225326538,0.10638047754764557,0.49066367745399475,0.18471470475196838
45.4,-0.34819120168685913,0.8943014740943909,0.8017333149909973,0.07141982018947601,-0.06841795891523361,0.09194857627153397
45.45,-0.4273497462272644,0.9183893799781799,0.17493227124214172,-0.13160493969917297,-0.17557397484779358,-0.03137635812163353
45.5,-0.5762279629707336,1.1384698152542114,-0.3829759955406189,-0.27024418115615845,-0.2681054472923279,-0.003519644495099783
45.55,0.8203166127204895,1.9186336994171143,-0.1859685182571411,-0.18820559978485107,-0.38028550148010254,0.2629622519016266
45.6,0.9692285656929016,2.069380044937134,0.09058237820863724,-0.2026320993900299,0.15919046103954315,0.5012826919555664
45.65,-0.19599691033363342,0.8324518799781799,0.6700670123100281,-0.1395721435546875,0.39647865295410156,0.8134703040122986
45.7,0.3486133813858032,0.44268229603767395,1.0181994438171387,0.18476712703704834,-0.0899113267660141,0.9519730806350708
45.75,0.057417213916778564,-0.06753163784742355,1.034609079360962,0.10118633508682251,0.02240268886089325,1.1325390338897705
45.8,-0.681178629398346,-0.5205317735671997,0.6963295340538025,-0.16239133477210999,0.27506792545318604,1.1509277820587158
45.85,-0.2151561826467514,-1.1110106706619263,0.3695199489593506,-0.21426573395729065,0.11604045331478119,0.9972378015518188
45.9,0.11167073249816895,-0.9065953493118286,-0.043160293251276016,-0.119687020778656,-0.05308597534894943,0.8274579048156738
45.95,-0.09145985543727875,-0.8711158037185669,-0.33985477685928345,-0.13041183352470398,0.03620145469903946,0.7311220765113831
46.0,-0.19408336281776428,-1.2157498598098755,-0.5431833267211914,-0.09174388647079468,0.08522767573595047,0.5464195013046265
46.05,-0.07938747107982635,-1.125930905342102,-0.42198213934898376,0.05087016522884369,0.03613824024796486,0.32389184832572937
46.1,0.11928120255470276,-0.5670681595802307,-0.3143234848976135,0.12627628445625305,0.10886290669441223,0.09359294176101685
46.15,0.11493523418903351,0.1271524727344513,-0.2927536368370056,0.013704642653465271,0.3281976580619812,-0.2549196183681488
46.2,-0.6124415397644043,-0.449348509311676,-0.5086725354194641,-0.38560977578163147,0.5168713927268982,-0.5313345193862915
46.25,-0.5568686723709106,-0.5957251191139221,-0.23675532639026642,-0.24556830525398254,0.521191418170929,-0.9069907665252686
46.3,-0.29998505115509033,-0.5519934296607971,-0.10690038651227951,-0.24349534511566162,0.796609103679657,-1.0895395278930664
46.35,-0.6926852464675903,-1.0624171495437622,0.39570352435112,-0.17490136623382568,1.2772085666656494,-1.2090559005737305
46.4,-0.8022670745849609,-0.6126977801322937,1.446112871170044,0.018155813217163086,1.671979546546936,-1.2424169778823853
46.45,-1.0727810859680176,-0.16224974393844604,2.246389865875244,0.18213331699371338,1.851210355758667,-1.2860735654830933
46.5,-0.5929557085037231,0.8945369720458984,2.3130385875701904,0.23485058546066284,1.3538105487823486,-1.2573174238204956
46.55,0.906802773475647,1.6807597875595093,-0.2575792372226715,0.020650207996368408,0.6341559290885925,-1.1679359674453735
46.6,1.3023853302001953,1.532448172569275,-1.9437450170516968,0.12967145442962646,0.5904823541641235,-0.7978183627128601
46.65,0.24196258187294006,1.4206849336624146,-0.3140690326690674,0.5236054062843323,0.32438135147094727,-0.38758212327957153
46.7,0.6458589434623718,0.8429567217826843,-1.049617886543274,0.35804858803749084,-0.17674440145492554,-0.17961625754833221
46.75,0.40715551376342773,0.260410338640213,0.21044541895389557,0.21151718497276306,0.048832666128873825,0.21960745751857758
46.8,0.5461735725402832,-0.2593831717967987,-0.3183095157146454,0.06850308179855347,0.05512533336877823,0.48793405294418335
46.85,1.223935604095459,-0.1680392026901245,-1.2687327861785889,0.21235120296478271,-0.053590767085552216,0.5176102519035339
46.9,0.23336133360862732,-0.8756810426712036,-0.1985488086938858,0.07417362928390503,-0.353521466255188,0.7632832527160645
46.95,0.7564804553985596,-0.38239383697509766,-0.3275640904903412,0.07705226540565491,-0.4475966691970825,0.3882810175418854
47.0,1.3580304384231567,-0.48481079936027527,-0.26641830801963806,-0.01865820586681366,0.6070272326469421,0.33178287744522095
47.05,-0.2638242244720459,-0.6582632660865784,0.3079564571380615,-0.1207132488489151,1.3520238399505615,0.5543537735939026
47.1,-0.3599209785461426,-0.3989459276199341,0.5131900906562805,-0.0010856837034225464,0.9462397694587708,0.21765010058879852
47.15,0.8967810869216919,0.8577520251274109,-0.03136849030852318,0.23778599500656128,0.2609263062477112,-0.29473355412483215
47.2,0.4462707042694092,0.17726032435894012,2.4047231674194336,0.7042748928070068,-0.1645171046257019,-0.4094330668449402
47.25,-0.7047786712646484,0.2288580685853958,-1.6914286613464355,1.3189680576324463,-1.7326680421829224,-1.0606428384780884
47.3,-0.3202207684516907,0.9302388429641724,-0.892680823802948,1.3427435159683228,-0.9055958390235901,-1.6259433031082153
47.35,-1.8382105827331543,-0.9037440419197083,1.089163899421692,0.5700675249099731,1.2041336297988892,-1.1572740077972412
47.4,0.5939828157424927,0.6310053467750549,0.8817605376243591,0.3333783745765686,0.8290777802467346,-1.5521503686904907
47.45,1.975234866142273,1.1606446504592896,1.5177404880523682,0.12386995553970337,0.5777066946029663,-1.3026783466339111
47.5,1.7001241445541382,0.24393276870250702,1.6748706102371216,-0.056680649518966675,0.27432698011398315,-0.8575513958930969
47.55,1.751940131187439,-0.10720057785511017,0.9618929624557495,-0.35886967182159424,-0.23451349139213562,-0.5526828169822693
47.6,1.1549674272537231,-0.029351193457841873,0.4592624008655548,-0.5795559287071228,-0.22288832068443298,-0.059078797698020935
47.65,0.9022457599639893,0.38546666502952576,0.4873381555080414,-0.7222977876663208,-0.14794041216373444,0.3296220004558563
47.7,0.5294893980026245,0.722175657749176,0.9157787561416626,-0.8888769149780273,0.009707403369247913,0.5741739869117737
47.75,0.508095920085907,0.9037915468215942,0.6944519877433777,-1.1400238275527954,0.3865875005722046,0.7398712635040283
47.8,0.8626460433006287,0.6426373720169067,0.06820343434810638,-1.4023884534835815,0.6680309176445007,0.8852830529212952
47.85,1.6410260200500488,0.7275058627128601,-0.5957980751991272,-1.548087477684021,1.0189815759658813,1.0097935199737549
47.9,0.5630891919136047,0.46820271015167236,-0.8696257472038269,-1.4686293601989746,1.2567999362945557,1.2986853122711182
47.95,-0.12739714980125427,0.09990407526493073,-0.1828867346048355,-1.0849573612213135,0.4095555543899536,1.2424867153167725
48.0,-0.5280458927154541,-0.3586921989917755,-0.6082077026367188,-0.5458155870437622,-0.6039838194847107,1.1042753458023071
48.05,-0.275358647108078,-0.5218830704689026,-0.6920371651649475,-0.17062655091285706,-0.9337033033370972,1.021349310874939
48.1,-0.4879959523677826,-0.5397863984107971,-0.18418343365192413,-0.14707577228546143,-0.6004567742347717,0.8546539545059204
48.15,-0.5483800172805786,-0.1671934723854065,0.37222808599472046,-0.29132145643234253,-0.27713361382484436,0.537859320640564
48.2,-0.5210421085357666,-0.3653918206691742,0.6568131446838379,-0.4276432991027832,-0.12796643376350403,0.17233704030513763
48.25,0.06151597201824188,-0.5226154923439026,0.33637896180152893,-0.32086706161499023,-0.251908540725708,-0.09225618839263916
48.3,0.7475960850715637,-0.822080671787262,-0.23455418646335602,-0.07362827658653259,-0.5261879563331604,-0.3122361898422241
