Time [s],Acc_x [m/s^2],Acc_y [m/s^2],Acc_z [m/s^2],Gyro_x [1/s],Gyro_y [1/s],Gyro_z [1/s]
0.0,0.005242211744189262,0.0227737445384264,0.003341929754242301,0.007338071707636118,0.0368618369102478,-0.010268408805131912
0.05,0.0778350755572319,0.011777881532907486,0.051520973443984985,-0.004123748280107975,0.04184998199343681,-0.0226486437022686
0.1,0.1202562227845192,0.024763116613030434,0.019369063898921013,0.001616678200662136,0.04297744110226631,-0.020228663459420204
0.15,0.1956929713487625,0.07808209955692291,0.06183406710624695,-0.008934165351092815,0.028359631076455116,-0.0030965569894760847
0.2,0.05026262253522873,0.005318644922226667,0.0003242086968384683,-0.0235540010035038,0.041431378573179245,0.012898272834718227
0.25,-0.02289649471640587,0.04757881909608841,-0.0445445291697979,-0.028781387954950333,0.03661755472421646,0.02994074858725071
0.3,-0.016324393451213837,0.023129474371671677,-0.1995638608932495,-0.04937554523348808,0.03417278826236725,0.01664564199745655
0.35,-0.11539988219738007,0.0853576734662056,-0.1496729552745819,-0.01902109570801258,0.032802190631628036,0.025207845494151115
0.4,-0.1160866916179657,0.010462759993970394,-0.10476937144994736,0.01102493703365326,0.062450338155031204,0.005630023777484894
0.45,-0.1568049043416977,0.027926435694098473,0.09491460770368576,0.022380607202649117,0.054025065153837204,-0.02051357738673687
0.5,-0.034541718661785126,0.05711651220917702,0.07378969341516495,0.03594022989273071,0.05493668094277382,-0.03169001638889313
0.55,0.02922576479613781,0.05759812146425247,0.06530821323394775,0.024589907377958298,0.03355248272418976,-0.03176404908299446
0.6,0.08796042203903198,0.032183658331632614,-0.03374369814991951,0.004562662914395332,0.017858833074569702,-0.02636108361184597
0.65,0.11962918937206268,0.06871987879276276,0.006262244191020727,0.0025873517151921988,-0.0038818949833512306,-0.008666589856147766
0.7,0.18398523330688477,-0.015161504037678242,-0.03849916160106659,0.0017123455181717873,-0.003219948150217533,-0.0007728765485808253
0.75,0.14094729721546173,0.13042739033699036,-0.0851549580693245,0.0018848329782485962,-0.015289770439267159,0.022649507969617844
0.8,-0.04411192983388901,0.1012573316693306,0.0634259581565857,0.012049831449985504,0.006562989670783281,0.05708325654268265
0.85,-0.10605474561452866,0.04987049475312233,-0.03189439699053764,-0.00471745990216732,0.0005104084266349673,0.0574074387550354
0.9,-0.20324327051639557,0.2265005260705948,-0.06473410129547119,-0.00925745815038681,-0.013146662153303623,0.044200390577316284
0.95,-0.07314136624336243,0.11030960828065872,0.03112633340060711,0.0007467605173587799,-0.027555888518691063,0.024088654667139053
1.0,-0.1895356923341751,0.0031795427203178406,-0.06508506834506989,0.013323364779353142,-0.01614788919687271,0.02172819711267948
1.05,0.0004668235778808594,-0.09717749804258347,-0.4910736083984375,-0.05263357609510422,-0.06835281103849411,-0.003369468729943037
1.1,-0.2170521318912506,0.056303974241018295,-0.003131296020001173,0.16656965017318726,0.055204715579748154,-0.03163667023181915
1.15,-0.09347650408744812,0.3434457778930664,0.6663569808006287,0.2662169635295868,0.1025802418589592,-0.0925683081150055
1.2,0.2387017458677292,0.2701435387134552,0.5857436656951904,0.017764706164598465,-0.0676938071846962,-0.08797920495271683
1.25,0.3552119731903076,0.07455065101385117,0.12244393676519394,-0.15063415467739105,-0.12618573009967804,-0.001215921831317246
1.3,0.18272265791893005,-0.03750894218683243,-0.31228119134902954,-0.15147988498210907,-0.05232474207878113,0.06852134317159653
1.35,0.15889579057693481,-0.15863798558712006,-0.5242713689804077,-0.10699998587369919,-0.04080997407436371,0.0815182477235794
1.4,-0.10782643407583237,0.04023170843720436,-0.1623973548412323,0.10849789530038834,0.01475450024008751,0.08051639795303345
1.45,-0.20133289694786072,0.13701438903808594,0.20661474764347076,0.1857641637325287,0.09284334629774094,0.04402148723602295
1.5,-0.2576034367084503,0.4301615059375763,0.28327828645706177,0.20946907997131348,0.13675114512443542,0.03152010962367058
1.55,-0.6412649154663086,0.2062520682811737,0.6029277443885803,0.3059791624546051,0.04694128781557083,0.04566926136612892
1.6,-0.586127758026123,0.4477081000804901,1.109269380569458,0.3159823417663574,0.2092781960964203,-0.04876349866390228
1.65,-0.2778894007205963,0.14142508804798126,0.8784672617912292,0.2930013835430145,0.7463842034339905,-0.27784135937690735
1.7,-0.14084401726722717,-0.38439857959747314,0.8462148308753967,0.5573404431343079,1.054484248161316,-0.34938958287239075
1.75,0.9782735109329224,-0.04323200508952141,1.9849538803100586,1.0018113851547241,1.3256173133850098,-0.4201616942882538
1.8,0.87501060962677,-0.09547334909439087,1.9836375713348389,1.0467345714569092,2.2833335399627686,-0.3888491094112396
1.85,1.6329045295715332,-0.1880245804786682,2.8028383255004883,1.1413663625717163,2.3382599353790283,-0.465105265378952
1.9,2.50248384475708,0.23064999282360077,2.7306718826293945,0.48518842458724976,1.7720948457717896,-0.3640337884426117
1.95,2.288123607635498,0.06737912446260452,0.3325716257095337,-0.9486737251281738,0.8632455468177795,0.23193290829658508
2.0,1.8358207941055298,0.5478765964508057,-1.2742533683776855,-1.572540521621704,-0.29924529790878296,0.9178205132484436
2.05,1.479513168334961,1.3645890951156616,-2.126288890838623,-1.250464677810669,-0.794326901435852,1.317622184753418
2.1,1.4469618797302246,2.1247754096984863,-2.888808250427246,-0.5952396988868713,-1.0331271886825562,1.6561444997787476
2.15,1.310876727104187,3.9426400661468506,-3.1195180416107178,0.04490697383880615,-1.7642663717269897,2.611182928085327
2.2,-0.40878206491470337,6.621435165405273,-2.474623680114746,0.7019733190536499,-2.860649585723877,4.334746360778809
2.25,-3.9531407356262207,7.362594127655029,1.7711292505264282,0.5220212936401367,-3.435312032699585,5.907699108123779
2.3,-8.877907752990723,4.034836769104004,-1.838230013847351,-2.166363000869751,-1.743317723274231,5.912780284881592
2.35,-4.211228370666504,-1.237001657485962,-2.482076406478882,-4.2385358810424805,-1.825913906097412,3.5865676403045654
2.4,-2.1945443153381348,-5.101056098937988,-2.053548574447632,-4.689687728881836,-0.5303555727005005,2.341329574584961
2.45,-1.2558215856552124,-7.872836112976074,-0.5886527299880981,-4.1673903465271,0.32965007424354553,1.4092458486557007
2.5,-0.7128520607948303,-7.24198579788208,0.820431113243103,-2.443676710128784,0.45944589376449585,0.812725305557251
2.55,-1.5531156063079834,-5.559166431427002,1.1532435417175293,-1.1034018993377686,0.6346822381019592,0.01569889672100544
2.6,0.028539806604385376,-7.810697078704834,-0.0735100582242012,-0.4906243681907654,0.11275021731853485,-0.680423378944397
2.65,-0.4658117890357971,-0.8294744491577148,-2.5469462871551514,3.3510372638702393,0.8030632138252258,-1.7102035284042358
2.7,-1.3976554870605469,4.127540111541748,-1.8904293775558472,5.23936653137207,1.7545329332351685,-1.3164275884628296
2.75,-1.018662929534912,2.8009321689605713,0.7611406445503235,2.7135913372039795,0.9356470704078674,-0.16219906508922577
2.8,0.7376188039779663,-1.5009443759918213,0.5572752952575684,0.4370664060115814,0.04779922217130661,-0.4055274724960327
2.85,0.30518168210983276,-4.218336582183838,1.8202053308486938,0.10490939021110535,0.6829065084457397,-0.9775906205177307
2.9,-1.2943270206451416,-7.779502868652344,0.8423300981521606,-2.1257619857788086,1.5070281028747559,-2.441094398498535
2.95,-4.707065582275391,-8.914430618286133,-1.0483431816101074,-3.3243064880371094,1.606938362121582,-4.148454666137695
3.0,-10.257743835449219,-5.007165431976318,-3.2043755054473877,-2.2856357097625732,1.0006613731384277,-5.170844078063965
3.05,-14.805482864379883,9.347687721252441,-4.739522933959961,0.8836417198181152,-0.06843939423561096,-6.093783378601074
3.1,3.114659070968628,24.986896514892578,-1.2486432790756226,3.4893927574157715,-1.8286443948745728,-8.219962120056152
3.15,17.565174102783203,-0.46753498911857605,-0.7100573182106018,2.841033935546875,3.4421961307525635,-6.7480597496032715
3.2,-1.4206701517105103,4.768484592437744,-1.9592779874801636,0.033969342708587646,3.046581506729126,1.1872411966323853
3.25,-0.05853164196014404,1.9713518619537354,0.11144019663333893,-1.7558423280715942,-4.9188714027404785,1.9194509983062744
3.3,3.130988836288452,-1.760411262512207,-0.1690286546945572,-0.5466543436050415,-5.345731258392334,-0.19709734618663788
3.35,4.162278652191162,-0.8514127135276794,0.7797200083732605,0.5384188294410706,-2.60947585105896,-1.51804780960083
3.4,6.840828895568848,-0.7600868344306946,2.0129270553588867,0.3177570700645447,-0.29754605889320374,-1.8774993419647217
3.45,10.145232200622559,-2.1538960933685303,3.468796730041504,2.0200958251953125,2.4481680393218994,-1.859254002571106
3.5,5.682170867919922,0.4316314160823822,1.5438892841339111,1.962714433670044,3.1876718997955322,0.3716738820075989
3.55,3.3906936645507812,0.9824830889701843,2.3255255222320557,-0.545556366443634,0.2264362871646881,1.6913268566131592
3.6,2.114727020263672,2.1156065464019775,1.5044699907302856,-1.0893313884735107,-0.8470881581306458,1.9341180324554443
3.65,0.5161924958229065,2.6997721195220947,0.6059964299201965,-1.1956537961959839,-0.47837865352630615,1.8923213481903076
3.7,-0.791703462600708,2.9386990070343018,-0.17505992949008942,-1.1721127033233643,-0.20996910333633423,1.8193371295928955
3.75,-2.120337963104248,2.137181520462036,-0.8815783858299255,-1.1213128566741943,-0.13594463467597961,1.9681302309036255
3.8,-3.078004837036133,0.2156924605369568,-1.7492072582244873,-1.4307165145874023,-0.1197122186422348,2.1118834018707275
3.85,-4.067054748535156,-1.8975070714950562,-2.651407241821289,-1.695910930633545,0.1684233844280243,1.9081799983978271
3.9,-4.356334209442139,-3.2520012855529785,-2.9480748176574707,-1.3442401885986328,0.23475711047649384,1.2481415271759033
3.95,-2.529524326324463,-2.5772931575775146,-2.4270951747894287,-0.23557846248149872,0.17850221693515778,0.31398430466651917
4.0,-0.8632210493087769,0.31111249327659607,-2.566803455352783,1.0013307332992554,0.30280187726020813,-0.4756953716278076
4.05,2.174743175506592,5.584178447723389,-0.09460586309432983,1.4473823308944702,0.23808462917804718,-0.36839616298675537
4.1,1.8820912837982178,6.337236404418945,-0.8048176169395447,-0.5440741181373596,2.1041228771209717,0.43573620915412903
4.15,-1.8101087808609009,2.3757708072662354,-1.7584136724472046,-2.1411287784576416,2.6285860538482666,1.9112753868103027
4.2,-1.431828260421753,2.283963441848755,-0.5466712713241577,-0.5615909099578857,1.100530743598938,3.464907169342041
4.25,-2.4547650814056396,2.1478681564331055,-0.25788649916648865,-0.47504377365112305,1.2684342861175537,3.6120951175689697
4.3,-3.9322900772094727,2.5530529022216797,0.12980909645557404,-1.3160320520401,1.3657888174057007,3.231386184692383
4.35,-6.876001358032227,7.332025051116943,0.9083235859870911,-2.5769717693328857,1.8495306968688965,1.9130455255508423
4.4,-8.671672821044922,2.308058500289917,0.8927299380302429,-5.538713455200195,0.955894410610199,1.7982184886932373
4.45,-5.96651554107666,-3.729706048965454,-1.1091399192810059,-4.7010416984558105,-0.876451849937439,4.304390907287598
4.5,-1.3898627758026123,-7.754046440124512,-2.586029052734375,-3.458981990814209,-0.7486184239387512,5.584224700927734
4.55,5.878105163574219,-8.316448211669922,-1.8977718353271484,-3.326371669769287,-0.35599276423454285,4.994358062744141
4.6,8.098655700683594,-5.657665252685547,-1.8280112743377686,-3.007781744003296,0.30933964252471924,2.256650924682617
4.65,6.5000152587890625,-5.7036662101745605,-0.15578670799732208,-2.738584280014038,-0.43956509232521057,-1.6597071886062622
4.7,3.5133306980133057,-4.859097003936768,-2.847673177719116,-1.8272364139556885,-0.4367586672306061,-3.0976920127868652
4.75,0.24023139476776123,-4.725936412811279,-1.3951574563980103,-2.562884569168091,-0.10803772509098053,-3.2597146034240723
4.8,-4.192572593688965,-1.4355624914169312,-0.3822481632232666,-2.5253591537475586,1.0476454496383667,-3.2693030834198
4.85,-5.147267818450928,3.020564079284668,2.7200050354003906,-2.4114716053009033,1.4957510232925415,-2.5667426586151123
4.9,-4.833991527557373,10.401946067810059,4.40637731552124,-1.2791019678115845,1.209699034690857,-2.2689695358276367
4.95,-3.1194865703582764,2.806105613708496,2.57737398147583,0.9014338850975037,0.7509888410568237,0.9782864451408386
5.0,-0.7245245575904846,-2.5667049884796143,1.6430137157440186,0.8494839072227478,0.4589924216270447,2.546360969543457
5.05,-0.09635114669799805,-0.8789722323417664,0.5554367899894714,0.668158769607544,-0.7783448100090027,1.4848010540008545
5.1,0.915701687335968,0.01758294738829136,0.03422948718070984,0.5518252849578857,-1.6276135444641113,0.9340355396270752
5.15,2.325860023498535,-1.0452011823654175,-1.1433607339859009,1.163219690322876,-1.1261066198349,0.5040928721427917
5.2,7.388986587524414,-8.304647445678711,1.6810499429702759,1.7962943315505981,0.03102884814143181,-0.4754095673561096
5.25,1.8069287538528442,-11.421335220336914,2.238478899002075,3.4044904708862305,0.4346765875816345,-4.348151206970215
5.3,-5.86567497253418,3.758913278579712,-3.0503292083740234,2.0047879219055176,-2.4243662357330322,-6.871665954589844
5.35,-3.6252784729003906,8.732694625854492,-0.28099125623703003,-2.816708564758301,-2.1074893474578857,-3.1920664310455322
5.4,-1.2286268472671509,5.142192363739014,-3.1919784545898438,-0.1303977221250534,-1.1504578590393066,-0.08893950283527374
5.45,-0.841620683670044,1.7328065633773804,-3.396261692047119,1.3023144006729126,0.057912055402994156,1.6689121723175049
5.5,-0.024971723556518555,-0.38521960377693176,-0.45659998059272766,-0.1823810338973999,0.33987024426460266,1.2232861518859863
5.55,-0.07804478704929352,0.08752726018428802,0.4453777074813843,0.298889696598053,0.3770945072174072,0.43295717239379883
5.6,0.4045625925064087,-0.2633362412452698,0.9254443645477295,0.11147204041481018,0.37983787059783936,0.46499115228652954
5.65,0.6367111206054688,-0.42323026061058044,1.4291603565216064,-0.12553314864635468,0.253425657749176,0.4278137981891632
5.7,1.2176978588104248,-1.569648027420044,2.5083587169647217,0.40853554010391235,0.19369548559188843,0.4248318076133728
5.75,1.142296314239502,-5.439691543579102,3.9069788455963135,1.9209463596343994,0.3289874196052551,0.951845645904541
5.8,-1.170764684677124,-0.12950311601161957,-4.663869857788086,2.1009182929992676,-0.803522527217865,0.0003529188397806138
5.85,-2.186068058013916,1.1150656938552856,-2.1674726009368896,-2.3245174884796143,-1.0356863737106323,-2.010291337966919
5.9,-0.27651214599609375,2.099931240081787,-3.4096248149871826,0.35414329171180725,-0.4155641794204712,-0.8326923251152039
5.95,0.4158444404602051,1.6446822881698608,-1.313423752784729,1.3903965950012207,0.44223421812057495,0.34611275792121887
6.0,0.4572804868221283,1.4754830598831177,0.9893214106559753,0.14263680577278137,0.40526750683784485,0.027108117938041687
6.05,0.47531768679618835,0.9529906511306763,1.032966136932373,-0.2073485404253006,0.1144951805472374,-0.12457475811243057
6.1,0.58329838514328,0.460211843252182,0.321029394865036,-0.16203825175762177,-0.012350968085229397,-0.015808075666427612
6.15,0.37834715843200684,0.4523220956325531,-0.09891603887081146,-0.22455649077892303,-0.03413940966129303,-0.07040893286466599
6.2,0.08037899434566498,0.2211952805519104,-0.38832104206085205,-0.2573586702346802,-0.047940269112586975,0.009753216058015823
6.25,-0.07193943858146667,0.11978821456432343,-0.6606217622756958,-0.19649027287960052,-0.09591956436634064,0.06830756366252899
6.3,-0.0032321512699127197,-0.08250518888235092,-0.9850320219993591,-0.022633545100688934,-0.07784507423639297,0.2020418494939804
6.35,0.23554739356040955,-0.6492767333984375,-0.887076199054718,0.04284023493528366,0.005620365031063557,0.2850659191608429
6.4,0.4318079948425293,-0.5328159332275391,-0.7656975388526917,0.013046804815530777,0.07558164745569229,0.028983691707253456
6.45,0.5346074104309082,-0.04645248502492905,-0.23816531896591187,-0.12137402594089508,0.20339204370975494,-0.2793006896972656
6.5,0.3684981167316437,1.361899495124817,0.39851677417755127,-0.29315823316574097,0.2528459131717682,-0.6456146240234375
6.55,0.22741569578647614,2.0146114826202393,0.5055712461471558,-0.3056166172027588,0.1943318247795105,-0.4810311496257782
6.6,-0.001352161169052124,2.414898157119751,-0.5255447626113892,-0.20421063899993896,-0.04942633956670761,0.038407158106565475
6.65,-0.7065780162811279,1.277680516242981,-1.61468505859375,-0.17041562497615814,-0.17408615350723267,0.5757002830505371
6.7,-0.7813376784324646,0.7634612917900085,-2.185861825942993,-0.17708605527877808,-0.1947384923696518,0.7413785457611084
6.75,0.1932210922241211,-0.7465667724609375,-1.21043062210083,0.05965182185173035,0.14962132275104523,1.0494146347045898
6.8,1.9783082008361816,-4.152227878570557,2.446840763092041,0.8051392436027527,0.6837813258171082,1.5402252674102783
6.85,2.43556809425354,-5.779885292053223,2.080803632736206,0.6893506050109863,0.11784078180789948,0.8495375514030457
6.9,-1.211338758468628,-0.5483037829399109,0.5612961649894714,-0.716327428817749,-0.7247105240821838,-2.1773505210876465
6.95,-0.38473814725875854,2.3440630435943604,-1.280645489692688,-0.03333789110183716,-0.7104924917221069,-1.8202130794525146
7.0,0.32566118240356445,1.3093321323394775,-1.4585566520690918,0.6216861009597778,-0.10325739532709122,-0.053520865738391876
7.05,0.5309592485427856,0.5243474245071411,-0.6197202205657959,0.27231907844543457,0.10971448570489883,0.11965683102607727
7.1,0.49299687147140503,1.0904961824417114,-0.13797137141227722,0.14573967456817627,0.12525039911270142,-0.21739114820957184
7.15,0.213837668299675,0.6925221085548401,0.04378863424062729,0.06991559267044067,0.1415156126022339,-0.032107044011354446
7.2,0.1460050493478775,0.09922412037849426,-0.09645529836416245,-0.08805087953805923,0.07553936541080475,0.08568538725376129
7.25,0.09235548228025436,0.03835298493504524,-0.16939833760261536,0.08586742728948593,0.059470903128385544,0.09128441661596298
7.3,0.15844914317131042,-0.23526479303836823,-0.15351228415966034,0.10255176573991776,0.06360545009374619,0.09268859028816223
7.35,0.07845256477594376,-0.4084072709083557,0.018553083762526512,0.06361124664545059,0.047652099281549454,0.0553719662129879
7.4,-0.20797570049762726,-0.9873039126396179,0.6414023041725159,0.28444069623947144,0.02953431010246277,0.1043056845664978
7.45,-1.0267366170883179,-4.114339828491211,2.318634510040283,1.0486211776733398,-0.15486998856067657,0.35566869378089905
7.5,0.0994100272655487,-11.876964569091797,1.1058651208877563,4.6934590339660645,-0.6313868165016174,1.3431817293167114
7.55,-2.4655535221099854,-13.622766494750977,-3.999344825744629,9.788993835449219,-1.6196067333221436,2.2123172283172607
7.6,-5.433350563049316,-3.933424949645996,-4.703719139099121,10.750886917114258,-3.0739524364471436,0.023394355550408363
7.65,-7.17881965637207,0.9160403609275818,-5.014644622802734,7.1673736572265625,-3.0829427242279053,-2.593015193939209
7.7,-3.3187167644500732,11.163373947143555,-3.5442817211151123,6.7344970703125,-4.4979705810546875,-3.183051109313965
7.75,1.9373704195022583,9.868062973022461,6.1643171310424805,4.4035964012146,-5.82564640045166,-3.083014726638794
7.8,0.22858703136444092,2.9497711658477783,-0.4672010838985443,-0.09924054145812988,-0.5818497538566589,-2.71998929977417
7.85,-1.526140570640564,3.491089105606079,2.3024659156799316,0.766121506690979,-0.09768738597631454,-2.0642964839935303
7.9,-0.04177868366241455,5.0065531730651855,2.6106209754943848,0.1284177303314209,0.4961075186729431,-3.226250171661377
7.95,4.019431114196777,4.630204200744629,-1.8786731958389282,-0.6416666507720947,2.0836215019226074,-4.543776512145996
8.0,9.70771598815918,2.2629201412200928,0.9934932589530945,0.1683969497680664,1.4177099466323853,-4.10640811920166
8.05,8.83871078491211,-0.8557707071304321,1.310200810432434,0.22217655181884766,1.4612622261047363,-2.0495314598083496
8.1,3.8542561531066895,1.879601001739502,-0.6626714468002319,-0.23892302811145782,2.476731061935425,0.5061724185943604
8.15,-0.14270472526550293,1.7444146871566772,-2.433729410171509,-0.5323314070701599,2.731051206588745,0.8580349683761597
8.2,-2.1704161167144775,0.19394023716449738,-3.568589210510254,-1.4164152145385742,0.68309485912323,1.12714421749115
8.25,-2.424973487854004,-1.6569291353225708,-4.536684513092041,-2.1867284774780273,-1.8628711700439453,1.8992884159088135
8.3,-1.1122384071350098,-2.5074877738952637,-4.640756607055664,-1.766105055809021,-2.826767921447754,1.635704517364502
8.35,-0.6143760681152344,-3.5192058086395264,-5.2072625160217285,-1.1989662647247314,-2.6461193561553955,1.019965410232544
8.4,0.9748408794403076,-3.8613622188568115,-5.249704837799072,-0.41824281215667725,-2.9810731410980225,0.44310733675956726
8.45,3.0180444717407227,-3.2942748069763184,-5.949547290802002,0.3961661159992218,-3.701630115509033,0.2826075553894043
8.5,5.190733909606934,0.2615360915660858,-2.392874002456665,1.8092570304870605,-5.006873607635498,0.8810796141624451
8.55,0.9355523586273193,5.108587741851807,6.159587383270264,3.3829004764556885,-4.502546787261963,1.747725248336792
8.6,-2.588508129119873,4.3466949462890625,10.881172180175781,3.9358930587768555,0.10214044153690338,1.9724092483520508
8.65,-4.301886558532715,1.5190805196762085,11.280193328857422,2.6948163509368896,2.7743144035339355,2.73464035987854
8.7,-4.643834114074707,-1.0690115690231323,9.900032997131348,0.981776237487793,2.423307180404663,1.7705987691879272
8.75,-0.48008227348327637,-2.3093042373657227,6.917173385620117,0.011922776699066162,3.317605972290039,-0.30890828371047974
8.8,2.616309642791748,-2.9274113178253174,3.093914031982422,-0.5457139015197754,3.9603307247161865,-1.2751741409301758
8.85,1.9811625480651855,-3.352928638458252,0.6336592435836792,-0.9773314595222473,2.959620237350464,-0.6732644438743591
8.9,-0.22712507843971252,-0.6940546631813049,0.19172780215740204,-0.5391800403594971,1.6739429235458374,-0.01535722054541111
8.95,1.6161813735961914,4.881906986236572,1.8585575819015503,0.5863515138626099,1.5768487453460693,-0.9889876842498779
9.0,8.328676223754883,3.897907257080078,-0.7650553584098816,-0.29133379459381104,1.1785920858383179,-2.9454901218414307
9.05,10.375066757202148,-1.7918380498886108,-3.7064261436462402,-4.022860050201416,-1.2806785106658936,-2.40733003616333
9.1,7.097931861877441,-1.004015564918518,-2.1247341632843018,-4.519866943359375,-2.610275983810425,1.4343026876449585
9.15,3.552783250808716,1.7901169061660767,-4.445629596710205,-2.1828601360321045,-0.27770763635635376,3.261528730392456
9.2,1.6410462856292725,0.0902208536863327,-6.343252182006836,-1.6320325136184692,1.7033971548080444,2.048783779144287
9.25,1.3461182117462158,-1.870217204093933,-6.017455101013184,-0.9752742052078247,2.228830575942993,1.0798932313919067
9.3,1.277690052986145,-1.1778572797775269,-4.171539306640625,0.7024683356285095,2.2938220500946045,1.6115556955337524
9.35,-0.45973169803619385,-0.2619275450706482,-2.3028182983398438,1.0823410749435425,1.8573219776153564,2.3022267818450928
9.4,-2.8494224548339844,-1.5987064838409424,-2.7243895530700684,-0.021105527877807617,1.15461266040802,2.166914463043213
9.45,-3.891677141189575,-4.207282066345215,-3.709825038909912,-0.2489234209060669,0.33507460355758667,1.6996190547943115
9.5,-2.939530849456787,-2.9816324710845947,-1.3109581470489502,1.399052619934082,0.7714999914169312,0.6415204405784607
9.55,-3.7987143993377686,1.2491872310638428,2.3517260551452637,2.5372140407562256,2.638916492462158,-0.1936592310667038
9.6,-3.2404656410217285,2.770253896713257,5.293644905090332,1.491105079650879,4.6343302726745605,-0.6107968091964722
9.65,-2.120896577835083,2.0788745880126953,3.6680548191070557,-1.5993287563323975,6.193774700164795,-0.5561131834983826
9.7,-4.831386566162109,-0.9529184699058533,0.9669364094734192,-3.808317184448242,6.8861260414123535,0.3698050081729889
9.75,-6.7025370597839355,-2.900775194168091,1.9298124313354492,-2.9837403297424316,4.233516216278076,0.6426419615745544
9.8,-4.474067211151123,-0.6188825368881226,1.0974855422973633,-0.35944607853889465,-0.4509606659412384,-0.0030886270105838776
9.85,-0.8748517036437988,3.5685572624206543,0.9917081594467163,0.7791062593460083,-2.0606043338775635,-0.5658777952194214
9.9,1.322826623916626,5.274695873260498,0.5533673167228699,-0.30323004722595215,0.4294225871562958,-1.0403995513916016
9.95,-2.136716604232788,4.801013469696045,1.6305108070373535,-0.5685725808143616,2.8318064212799072,-0.42035815119743347
10.0,-2.3701205253601074,4.10252571105957,2.4815995693206787,0.30303260684013367,0.6052663326263428,0.11672119796276093
10.05,-1.718557596206665,4.108771800994873,1.4948889017105103,0.5897488594055176,-1.6550953388214111,0.3533547520637512
10.1,-3.0826709270477295,4.06149435043335,-2.0500645637512207,1.1550885438919067,-2.8677070140838623,-0.06507156044244766
10.15,3.9175851345062256,7.76171350479126,-3.6321780681610107,5.393152713775635,-7.448305130004883,-0.40382441878318787
10.2,1.5818452835083008,8.516582489013672,7.832852840423584,8.042831420898438,-10.045904159545898,1.9655780792236328
10.25,-9.436861991882324,-0.039930328726768494,8.313911437988281,3.043821096420288,-7.1818976402282715,3.3832106590270996
10.3,-7.99839973449707,-3.9739062786102295,-3.1292054653167725,-4.118927955627441,-1.5905718803405762,1.6840587854385376
10.35,-6.83256721496582,-7.663388729095459,-3.3638415336608887,-4.143908977508545,0.5274571776390076,0.16746310889720917
10.4,-5.383551120758057,-8.32690143585205,-1.935795545578003,-3.3890151977539062,1.0779750347137451,-1.325318455696106
10.45,-4.079375743865967,-8.809825897216797,-3.450690507888794,-3.5586705207824707,1.42672860622406,-3.2619173526763916
10.5,-1.5038371086120605,-6.573118686676025,-3.9727623462677,-1.3290252685546875,-0.08576764911413193,-3.9243788719177246
10.55,1.8610434532165527,-1.3227097988128662,-4.415154933929443,0.6146315336227417,-2.340357542037964,-3.205176591873169
10.6,4.747131824493408,3.3418262004852295,-1.6146459579467773,0.7822355628013611,-3.3368642330169678,-2.2827656269073486
10.65,5.492581367492676,1.6008325815200806,-2.076984405517578,-0.7408287525177002,-2.1056909561157227,-2.2363693714141846
10.7,4.527368068695068,1.8632723093032837,-1.1560250520706177,-0.8302392959594727,-1.1626007556915283,-1.6528359651565552
10.75,3.591715097427368,1.165907382965088,-2.7464728355407715,-0.20763957500457764,0.09102636575698853,-1.7611536979675293
10.8,4.012424945831299,2.0655179023742676,-2.2115914821624756,0.2575387954711914,-0.7603161334991455,-0.9241510033607483
10.85,10.05152702331543,-3.190708875656128,-4.382090091705322,-0.13902366161346436,-3.752326250076294,0.712757408618927
10.9,7.281865119934082,4.0716633796691895,4.737170219421387,-1.1162664890289307,-8.259159088134766,4.291654586791992
10.95,5.8310723304748535,0.020558511838316917,3.9677767753601074,-0.9446800351142883,-5.712551116943359,0.9108448624610901
11.0,4.762156009674072,-2.3330366611480713,3.7332732677459717,0.4193284511566162,-3.31699800491333,1.3919291496276855
11.05,-1.774773359298706,-0.8000960350036621,5.7377543449401855,0.9331856966018677,-2.119309663772583,3.871443510055542
11.1,-6.040408134460449,0.15495526790618896,5.670572280883789,0.09352433681488037,0.40437933802604675,1.4019336700439453
11.15,1.6422040462493896,-0.4325285255908966,1.1518667936325073,-0.6323143243789673,1.3238637447357178,-1.0374164581298828
11.2,1.8446457386016846,2.6119415760040283,2.0388669967651367,-0.4304666817188263,1.5480679273605347,-0.34257930517196655
11.25,3.3632373809814453,2.277510166168213,0.820203959941864,-0.8295412063598633,1.5161399841308594,-0.7980563044548035
11.3,3.1478331089019775,3.076505422592163,-0.17314662039279938,-1.054938793182373,0.47282469272613525,-0.3211662173271179
11.35,3.862861156463623,2.5454440116882324,-0.9265030026435852,-1.0898011922836304,0.1756536364555359,-0.37379392981529236
11.4,3.695357322692871,1.4041733741760254,-2.722942590713501,-1.1706428527832031,0.025811785832047462,0.037795308977365494
11.45,3.9845070838928223,-0.8388620615005493,-5.381564617156982,-1.0237921476364136,0.46909892559051514,1.032287359237671
11.5,0.5736355781555176,2.643340587615967,-6.297407150268555,-0.5254687070846558,-1.09346342086792,3.8575987815856934
11.55,-4.578184127807617,1.0728243589401245,0.010366281494498253,1.227292537689209,-1.4819732904434204,3.911635398864746
11.6,0.07554447650909424,0.25533291697502136,1.5064585208892822,0.22601889073848724,0.4640446603298187,0.19771191477775574
11.65,-1.9515306949615479,-1.7221847772598267,4.616257667541504,-0.07910802960395813,0.37798744440078735,0.5673356652259827
11.7,-4.807505130767822,-2.329146146774292,4.211738109588623,-1.2247737646102905,1.7629672288894653,0.8329458236694336
11.75,-11.305135726928711,1.4017298221588135,3.3051915168762207,-1.5078849792480469,3.643136978149414,0.6324173808097839
11.8,-12.38150405883789,3.88254976272583,4.53053617477417,-2.5229263305664062,3.960221767425537,-1.7260924577713013
11.85,-6.280787467956543,0.8449438214302063,-1.6990193128585815,-4.788573265075684,3.6629090309143066,-4.836196422576904
11.9,-2.580857992172241,-2.8978121280670166,-4.632975101470947,-4.996448516845703,1.629822850227356,-5.522616386413574
11.95,-0.41179347038269043,-9.288729667663574,-5.339303493499756,-4.608791351318359,-0.1266913264989853,-5.517948150634766
12.0,0.6409637928009033,-10.953788757324219,-5.484536170959473,-2.077133893966675,-2.2703545093536377,-2.2640933990478516
12.05,5.954763412475586,-5.311703681945801,-3.5657262802124023,1.0114120244979858,-4.080639839172363,0.7289642691612244
12.1,6.485141277313232,-2.2954390048980713,-2.8100059032440186,3.1824913024902344,-2.5788192749023438,-0.06097467243671417
12.15,5.509284496307373,1.2878319025039673,-3.589240550994873,4.476327896118164,-0.5669170618057251,0.3787653148174286
12.2,3.089412212371826,3.53147292137146,-0.15310773253440857,4.340182304382324,-1.0620722770690918,1.6479343175888062
12.25,-0.3208707571029663,3.3064587116241455,3.5385735034942627,3.465725898742676,-1.0539766550064087,1.4790279865264893
12.3,-0.5568363666534424,1.0637844800949097,4.018078327178955,2.5849385261535645,1.101608157157898,0.09727355092763901
12.35,0.21453559398651123,-0.11328520625829697,3.046198844909668,1.5629944801330566,2.7337448596954346,-0.6046509742736816
12.4,0.6202290058135986,-0.9068576693534851,1.792227029800415,0.8905677795410156,2.5759904384613037,-0.45124778151512146
12.45,1.4266258478164673,-1.5732519626617432,1.4334381818771362,0.5155967473983765,1.410638689994812,-0.27935177087783813
12.5,2.147350788116455,-2.257737874984741,1.5684731006622314,0.10121314972639084,1.198551893234253,0.10441043227910995
12.55,1.5099949836730957,-1.942693829536438,-0.21888509392738342,-0.05874603986740112,2.2853245735168457,0.26157596707344055
12.6,0.9321632385253906,-1.6222783327102661,-1.0532395839691162,-0.23476310074329376,2.489414691925049,0.2766437232494354
12.65,-0.9245395064353943,-0.44801533222198486,0.12648913264274597,-0.0837300717830658,1.9369343519210815,0.5886267423629761
12.7,-1.777356505393982,1.728124737739563,1.285148024559021,0.3884817361831665,2.1348328590393066,0.3849969804286957
12.75,-0.3977540135383606,2.435407876968384,1.175116777420044,0.03769239783287048,1.898367166519165,-0.4502203166484833
12.8,1.2363916635513306,1.5321104526519775,1.2192977666854858,-0.8180496096611023,0.8104645013809204,-0.5367637276649475
12.85,0.34292304515838623,0.9931698441505432,1.7572253942489624,-1.488603115081787,1.2969155311584473,-0.017260752618312836
12.9,-2.4533843994140625,2.1925671100616455,-2.8140194416046143,-2.56992244720459,2.311584949493408,-0.044577546417713165
12.95,-2.286039113998413,0.2638447880744934,-8.871142387390137,-2.917823553085327,0.9421712756156921,0.1240728572010994
13.0,1.8943448066711426,3.1913633346557617,-6.927135467529297,0.24530118703842163,0.0362187996506691,0.21363824605941772
13.05,-4.216773986816406,5.741247653961182,12.050901412963867,0.44793257117271423,0.8036444187164307,0.6647631525993347
13.1,-4.410464286804199,-1.3686623573303223,2.487433433532715,-2.6726112365722656,1.7160606384277344,-0.9930625557899475
13.15,-1.0614707469940186,1.3496330976486206,4.440158367156982,0.31427159905433655,-1.1583226919174194,0.21614816784858704
13.2,1.524932861328125,4.192416667938232,2.7450389862060547,1.757089614868164,-0.7345225811004639,0.2864828109741211
13.25,-0.549444317817688,3.5227408409118652,-0.5009242296218872,0.8360491394996643,-0.48225268721580505,0.13240090012550354
13.3,-1.1710782051086426,3.6558146476745605,-1.9656755924224854,1.0721510648727417,-0.8800524473190308,1.141424536705017
13.35,-2.788184642791748,3.0844995975494385,-0.8633986711502075,0.971627950668335,-0.39834415912628174,0.4031423032283783
13.4,-0.28065431118011475,3.426909923553467,-0.056146081537008286,0.2654534578323364,-0.9082748293876648,-0.4459451138973236
13.45,-0.7285478711128235,1.3445625305175781,2.314596176147461,0.4070774018764496,0.8020704984664917,-0.3266945481300354
13.5,-2.2399535179138184,1.3675068616867065,1.4296685457229614,0.5053375959396362,3.209409236907959,-0.07139648497104645
13.55,-2.8500466346740723,0.9477842450141907,2.2188916206359863,0.22787457704544067,3.3495161533355713,-0.006421979516744614
13.6,-1.6864310503005981,0.3877657949924469,1.2885427474975586,0.4409531056880951,1.3580824136734009,-0.14649437367916107
13.65,1.4422577619552612,2.0353119373321533,0.601560652256012,0.2380659580230713,-1.0273457765579224,-0.7678146958351135
13.7,4.566123008728027,-0.27656805515289307,-2.44814395904541,-1.1784676313400269,-1.0411691665649414,-1.7446075677871704
13.75,4.31675910949707,-1.4054515361785889,-3.54426908493042,-1.3291209936141968,-1.2246168851852417,-1.0964757204055786
13.8,4.298861980438232,-2.759965181350708,-2.4803385734558105,-1.0499067306518555,-2.083038806915283,-0.6479987502098083
13.85,3.22576642036438,-3.0834743976593018,-1.2801450490951538,-1.1378555297851562,-2.5511703491210938,0.3681102395057678
13.9,2.0962283611297607,-3.3134143352508545,-0.7424808144569397,-1.3137911558151245,-2.1851563453674316,1.0038018226623535
13.95,1.5381098985671997,-3.2984280586242676,-0.6319011449813843,-1.2843981981277466,-1.2424421310424805,0.7622462511062622
14.0,0.7817970514297485,-3.2038536071777344,-1.2298400402069092,-1.058804988861084,-0.2901725172996521,0.4297807812690735
14.05,-0.1671646535396576,-2.505991220474243,-0.7815483212471008,-0.5916001200675964,-0.025267187505960464,0.5369462966918945
14.1,-1.2725213766098022,-2.170210123062134,-0.07202427089214325,-0.08776578307151794,-0.030388394370675087,0.6407226920127869
14.15,-1.630429983139038,-2.336111545562744,0.6289092898368835,0.16798140108585358,-0.2089473158121109,0.6080495119094849
14.2,-1.931678295135498,-2.0402722358703613,1.243188738822937,0.4943547546863556,-0.1377781480550766,0.4608573317527771
14.25,-1.5642445087432861,-0.614243745803833,1.729091763496399,1.0657085180282593,0.0234171524643898,0.100475013256073
14.3,0.3393441438674927,0.7988948822021484,2.3820202350616455,1.5636582374572754,0.10253077745437622,-0.04489993304014206
14.35,0.6286389827728271,1.4815932512283325,1.7374686002731323,1.956729531288147,0.5567166209220886,0.149078831076622
14.4,0.863615870475769,1.3629361391067505,2.1137993335723877,2.1093738079071045,0.5326516628265381,0.44495317339897156
14.45,0.7750592231750488,0.7551022171974182,2.0894906520843506,0.9621145725250244,-1.1077889204025269,1.490224838256836
14.5,0.14148366451263428,-0.41230788826942444,1.8218185901641846,-0.15932345390319824,-2.595510721206665,2.3046016693115234
14.55,0.46341097354888916,-1.6713879108428955,0.8845795392990112,-0.6752865314483643,-3.112201452255249,2.440744161605835
14.6,-0.12026745080947876,-1.4443094730377197,1.2583545446395874,-0.40437114238739014,-3.0187957286834717,2.967817783355713
14.65,-2.377480983734131,-0.13349555432796478,1.3540347814559937,-0.3787813186645508,-1.7941850423812866,2.972031593322754
14.7,-3.426558494567871,-0.975945770740509,-0.6117742657661438,-1.1018362045288086,-0.47592833638191223,1.981846570968628
14.75,-2.95766019821167,-1.374823808670044,-0.6985399723052979,-1.113996148109436,-0.431515097618103,1.3692439794540405
14.8,-2.2474560737609863,-2.1039230823516846,-0.2511272728443146,-1.0572997331619263,-0.29428258538246155,0.861925482749939
14.85,-1.5387250185012817,-3.523735523223877,0.29861727356910706,-1.2178200483322144,0.03786168992519379,0.12929373979568481
14.9,-0.24258321523666382,-2.883805513381958,1.207422137260437,-1.420310139656067,0.8591330647468567,-0.630890429019928
14.95,0.4648364782333374,-0.9449969530105591,0.059802714735269547,-0.943426251411438,0.9237512946128845,0.3531038165092468
15.0,-1.0077612400054932,4.054863452911377,0.03847641125321388,-0.3312510848045349,0.4889034032821655,1.929002285003662
15.05,0.984843373298645,3.258155584335327,-3.548356771469116,-1.6166912317276,0.4108080267906189,0.5805798172950745
15.1,0.5652440786361694,1.950995922088623,-4.279399394989014,-2.3492181301116943,-0.211466446518898,-0.5925959348678589
15.15,-0.2699918746948242,-0.3514488935470581,-3.26804256439209,-3.04030704498291,-0.5893108248710632,-0.5190327763557434
15.2,1.1905238628387451,-0.39857563376426697,-2.8575918674468994,-3.381976366043091,-1.6395665407180786,0.31752896308898926
15.25,1.5197774171829224,-2.5470852851867676,-2.0501139163970947,-3.766970157623291,-2.392686605453491,1.3487800359725952
15.3,-0.04369014501571655,3.0656847953796387,-0.8334771990776062,-2.4624948501586914,-1.6752674579620361,3.306231737136841
15.35,0.3072018027305603,3.0677456855773926,-1.3201824426651,-2.2819838523864746,-0.5342166423797607,2.2922863960266113
15.4,-1.5176455974578857,2.1461899280548096,-2.841423749923706,-1.9747188091278076,1.3763067722320557,1.1935184001922607
15.45,-1.2211130857467651,-0.41932496428489685,-1.1806856393814087,-2.203608751296997,1.7804207801818848,0.6554394364356995
15.5,-1.0383615493774414,-0.42625340819358826,-0.4475092589855194,-1.3684656620025635,1.495683193206787,0.477554053068161
15.55,-1.5240628719329834,2.0258188247680664,1.21881103515625,-0.4426420331001282,0.9034534096717834,0.6825048327445984
15.6,-2.4245452880859375,5.292881965637207,3.257941246032715,0.02950015664100647,0.6953343152999878,0.6082984805107117
15.65,-2.322303295135498,5.575190544128418,3.1542809009552,-0.1692407876253128,0.2787022888660431,-0.1969257891178131
15.7,-2.2636871337890625,4.5111870765686035,1.6923195123672485,-0.2742258310317993,0.31352508068084717,-0.5527009963989258
15.75,-2.2636067867279053,4.2859978675842285,-0.17708651721477509,-0.5849196314811707,-0.021878547966480255,-0.5358032584190369
15.8,-1.8465954065322876,2.900585412979126,-0.8503183722496033,-1.1439721584320068,-0.3452429473400116,-0.3755701780319214
15.85,-0.9281648397445679,1.6320488452911377,-2.0395376682281494,-1.0905482769012451,-0.3070635497570038,-0.2291073203086853
15.9,0.018380403518676758,-0.15885627269744873,-2.7702369689941406,-1.629686951637268,-0.522677481174469,-0.4193420708179474
15.95,-0.21341639757156372,-2.400048017501831,-2.0523459911346436,-1.7952303886413574,-0.33490684628486633,-0.8183251619338989
16.0,0.44991910457611084,-4.783929347991943,0.15442506968975067,-1.1461515426635742,-0.25808975100517273,-1.1833791732788086
16.05,1.1437395811080933,-6.113619327545166,1.112797498703003,0.6438323855400085,0.7015042304992676,-1.6384378671646118
16.1,0.21823832392692566,-5.71444845199585,0.26341578364372253,2.717392921447754,1.756723165512085,-2.4533941745758057
16.15,-3.566992998123169,-2.419797897338867,0.8118214011192322,4.186115264892578,3.0077335834503174,-2.572833776473999
16.2,-4.983585834503174,1.709894061088562,1.9890474081039429,4.951442718505859,1.718912959098816,-1.1945940256118774
16.25,-0.16654324531555176,-2.2085583209991455,-2.0732851028442383,3.7527921199798584,-2.399062395095825,1.013479232788086
16.3,3.359060287475586,-3.130117416381836,-3.680304527282715,4.380784034729004,-4.647581100463867,2.7980921268463135
16.35,6.98914909362793,-1.6323668956756592,-2.6487488746643066,2.918032646179199,-3.7159340381622314,0.033006392419338226
16.4,4.915000915527344,-1.2064111232757568,-0.4679783284664154,2.174520492553711,-0.7513113617897034,-0.42772042751312256
16.45,3.805173635482788,-1.6992827653884888,1.328870415687561,1.2049713134765625,0.6798745393753052,-0.7210924625396729
16.5,3.3319544792175293,-2.505246162414551,1.4962774515151978,0.6446089744567871,1.2219314575195312,-0.5574190616607666
16.55,2.995192050933838,0.7018443942070007,1.0979759693145752,0.8128401637077332,1.035841941833496,-0.6159631013870239
16.6,0.5318214297294617,1.8281872272491455,-0.4848867654800415,0.6422863006591797,0.9807571768760681,-0.3879973292350769
16.65,-4.072303295135498,3.7590696811676025,-0.8810299038887024,1.1457208395004272,1.2731220722198486,-0.14205092191696167
16.7,-5.790675640106201,3.7456562519073486,0.03664855286478996,1.031095266342163,1.805667519569397,-0.9130144715309143
16.75,-4.963242530822754,0.8898885250091553,1.4787756204605103,-0.1083555817604065,2.773289918899536,-0.9066382050514221
16.8,-3.853240489959717,-2.166001319885254,2.1569838523864746,-0.9268478751182556,3.717942714691162,-0.764374852180481
16.85,-2.6070055961608887,-2.009542942047119,3.151123046875,-0.7837475538253784,3.594928741455078,-0.7036189436912537
16.9,-1.1262941360473633,-0.3777354061603546,2.769597053527832,-0.7646849751472473,1.9581269025802612,-0.6098042130470276
16.95,-0.10608938336372375,1.7151052951812744,0.6326709985733032,-1.2933958768844604,0.6783665418624878,-0.34619805216789246
17.0,-0.22450315952301025,1.4052220582962036,-1.491923451423645,-1.6101477146148682,0.07598480582237244,0.15649712085723877
17.05,-0.16167545318603516,0.6863595247268677,-1.828834056854248,-1.0411872863769531,-0.24068714678287506,0.6448954343795776
17.1,-1.4621918201446533,-0.10221008956432343,-1.145391821861267,-0.5851103067398071,-0.24191193282604218,1.2329354286193848
17.15,-2.5569958686828613,-2.2163565158843994,-1.0107988119125366,-0.9436078667640686,0.2051459550857544,1.176282286643982
17.2,-2.772468090057373,-2.8950095176696777,0.15969982743263245,-0.17317426204681396,0.3845793604850769,0.7198050022125244
17.25,-2.72159743309021,-3.5612809658050537,0.9887281656265259,0.43842843174934387,0.05736812204122543,0.5667306184768677
17.3,-2.606168270111084,-5.5195112228393555,1.2983449697494507,0.3289670944213867,-0.4605640470981598,0.06497029215097427
17.35,-3.8032379150390625,-6.540176868438721,1.2751190662384033,0.31951722502708435,-1.052525281906128,-0.831368088722229
17.4,-5.778750896453857,-3.742457628250122,-0.7131012082099915,0.3790953755378723,-2.4528307914733887,-2.081164836883545
17.45,-4.7827253341674805,-1.0778132677078247,-4.783575534820557,-0.6689267158508301,-4.10537576675415,-3.5890700817108154
17.5,-1.8594040870666504,-0.7689789533615112,-7.732061862945557,-1.1592403650283813,-4.0617570877075195,-4.869518756866455
17.55,-0.0941004753112793,1.6757618188858032,-9.019770622253418,0.8649125099182129,-3.423543691635132,-4.634853839874268
17.6,3.2182371616363525,6.257339954376221,-9.355827331542969,3.267232656478882,-4.083868503570557,-3.527207374572754
17.65,8.468015670776367,12.255613327026367,-2.586078405380249,4.0990705490112305,-5.689971923828125,-2.528193235397339
17.7,9.752148628234863,7.47199821472168,16.320486068725586,5.195438861846924,-3.9948816299438477,-2.1042885780334473
17.75,10.898345947265625,-2.3566694259643555,10.328100204467773,4.036808967590332,3.2381179332733154,-0.4920607805252075
17.8,5.495225429534912,-0.6338260769844055,1.7106947898864746,-0.3342072069644928,3.6877481937408447,0.3035584092140198
17.85,2.8141236305236816,-1.8847862482070923,0.977644145488739,-1.5367546081542969,0.6186493039131165,0.9827520847320557
17.9,1.676651120185852,-1.0706349611282349,2.431412935256958,-0.506054162979126,-0.8162746429443359,1.430970549583435
17.95,1.3498566150665283,0.6404075622558594,2.9385929107666016,-0.1215294897556305,-0.8297496438026428,0.8480349183082581
18.0,2.3469531536102295,0.9316055178642273,2.022064447402954,-0.6185033321380615,-0.46779558062553406,-0.031098371371626854
18.05,2.9695029258728027,1.1670143604278564,1.4115368127822876,-1.4775047302246094,-0.8165208697319031,-0.10035669803619385
18.1,2.3612489700317383,-0.02795589342713356,0.3817216157913208,-1.817333698272705,-0.08368398249149323,0.4753350615501404
18.15,1.0841014385223389,-0.9663362503051758,-1.6052262783050537,-1.3539135456085205,1.5745899677276611,0.8665297627449036
18.2,-0.657296895980835,-0.6680659651756287,-3.4310898780822754,-0.9718345403671265,1.5765398740768433,1.425424575805664
18.25,-1.6284046173095703,1.9121372699737549,-1.8643531799316406,-0.29839497804641724,0.3714487850666046,2.011796474456787
18.3,-1.211322546005249,1.5289385318756104,-2.030953884124756,-0.06407493352890015,0.19070842862129211,1.8135461807250977
18.35,-0.61248779296875,1.3662902116775513,-0.3031054437160492,-0.14709997177124023,-1.326887845993042,2.239555597305298
18.4,-1.330398678779602,0.2582215964794159,-0.6890496015548706,-0.402752161026001,-1.0481889247894287,2.21604061126709
18.45,-1.525199055671692,-0.6659985780715942,-1.0091590881347656,-0.1777966022491455,-0.06743935495615005,1.6733930110931396
18.5,-1.5695220232009888,-0.22041045129299164,-0.24872787296772003,0.4555107355117798,0.12755614519119263,1.6253050565719604
18.55,-1.5718729496002197,0.4805363714694977,1.173248291015625,0.8327648639678955,-0.1529950350522995,1.5175838470458984
18.6,-1.4441752433776855,0.14187416434288025,1.6544008255004883,0.45339733362197876,-0.15759611129760742,1.0049676895141602
18.65,-0.6924552917480469,-0.8738653659820557,1.0805503129959106,0.0244276225566864,0.20176897943019867,0.4435931146144867
18.7,-0.5868936777114868,-1.0434982776641846,1.330748200416565,-0.04620492458343506,0.35995012521743774,0.3148980438709259
18.75,-0.6025854349136353,-0.7718002796173096,1.1910964250564575,-0.14998427033424377,0.3810215890407562,0.15699385106563568
18.8,-1.101544737815857,-0.18755830824375153,0.9547864198684692,-0.2930936813354492,0.5200023651123047,-0.037658728659152985
18.85,-1.404508352279663,0.494163453578949,0.7407117486000061,-0.5860744118690491,0.5203015804290771,-0.3961849510669708
18.9,-1.426612377166748,-0.3852473497390747,-0.6373354196548462,-1.0818018913269043,0.6005030870437622,-0.7690933346748352
18.95,-2.685697078704834,-0.4962150752544403,-0.11609319597482681,-0.978667140007019,0.41836002469062805,-0.47308969497680664
19.0,-3.540557861328125,-1.5964549779891968,-1.5656189918518066,-1.160106897354126,0.5535966157913208,-0.8001849055290222
19.05,-4.065130233764648,-1.0793392658233643,-1.3355567455291748,-1.0061709880828857,0.21486535668373108,-1.1688405275344849
19.1,-4.204874038696289,-2.317044496536255,-4.103949546813965,-1.1348950862884521,0.12678468227386475,-1.975122332572937
19.15,-3.186732292175293,-2.2123992443084717,-5.434349060058594,-0.058543622493743896,-1.4806828498840332,-1.775701880455017
19.2,-1.4578371047973633,-0.44480597972869873,-5.883916854858398,1.1571816205978394,-3.276733160018921,-1.0639770030975342
19.25,0.5285898447036743,3.530287504196167,-3.430250406265259,1.6963049173355103,-4.874573707580566,-0.6197512149810791
19.3,3.3540143966674805,4.178467750549316,-1.671505331993103,1.4440163373947144,-4.121526718139648,-1.9434564113616943
19.35,6.2064690589904785,2.2980523109436035,0.6368536353111267,1.6064677238464355,-2.9511122703552246,-2.6910853385925293
19.4,6.521063804626465,0.07836077362298965,3.660637378692627,1.6662886142730713,-2.4498610496520996,-1.735753059387207
19.45,5.297800540924072,-0.03766144812107086,4.3032121658325195,1.1301287412643433,-1.9012938737869263,-0.2767648696899414
19.5,3.263563632965088,-0.5913277268409729,4.679043292999268,0.757962703704834,-1.414247751235962,0.5479626655578613
19.55,2.0246381759643555,-0.9918510913848877,4.6594953536987305,0.5697029829025269,-0.9087283611297607,0.869547963142395
19.6,0.7594921588897705,-1.527620792388916,5.450026988983154,0.5992701649665833,-0.6087720990180969,0.9105713367462158
19.65,-0.03739762306213379,-0.7436813116073608,5.920015335083008,0.5430862903594971,-0.08997740596532822,1.0557544231414795
19.7,-0.48989081382751465,-0.22496166825294495,6.944872856140137,0.5168129205703735,0.7332690954208374,1.1776301860809326
19.75,-0.18509387969970703,0.30487412214279175,6.963631629943848,0.19130396842956543,1.7567026615142822,1.4895161390304565
19.8,-0.5478017330169678,1.2489278316497803,6.255480766296387,-0.26518839597702026,2.392150402069092,1.4466503858566284
19.85,0.38630127906799316,2.4844284057617188,5.123562812805176,-0.7000516057014465,3.706878662109375,0.46774521470069885
19.9,2.5692899227142334,2.734013795852661,0.9141329526901245,-1.361660361289978,5.936307430267334,-0.6745278239250183
19.95,1.8306119441986084,1.5264735221862793,-2.673687696456909,-1.8259391784667969,5.8620710372924805,-0.9235774874687195
20.0,0.3167915344238281,0.38570907711982727,-3.9294276237487793,-1.701756238937378,3.686408042907715,-0.4481251537799835
20.05,-0.18616032600402832,0.7809260487556458,-4.007866382598877,-1.8734098672866821,0.8734955787658691,0.534697949886322
20.1,-0.24414324760437012,0.3213188648223877,-4.8165059089660645,-2.200566053390503,-0.38480836153030396,1.0674800872802734
20.15,0.2636861801147461,-1.8119497299194336,-5.707642078399658,-2.0261762142181396,-0.6091549396514893,0.9404078125953674
20.2,0.5109391212463379,-3.285956621170044,-5.856626987457275,-1.2017446756362915,-0.9862104654312134,1.1341209411621094
20.25,0.4758472442626953,-2.564692497253418,-4.888818740844727,-0.2134692668914795,-1.4280742406845093,1.5148710012435913
20.3,-0.03474605083465576,-1.5253839492797852,-3.9034008979797363,0.6019915342330933,-0.8448817133903503,0.9599522948265076
20.35,-0.7811110019683838,-0.5426692366600037,-4.088448524475098,0.9878589510917664,0.00568854296579957,0.38433390855789185
20.4,-0.0064182281494140625,-0.12962426245212555,-2.56796932220459,1.2809162139892578,-0.26532045006752014,0.2891037166118622
20.45,-0.4412347078323364,0.4379015564918518,-0.6233623027801514,1.125490427017212,-0.49434468150138855,0.6965076327323914
20.5,-2.048947811126709,0.4516438841819763,0.047064993530511856,0.8660798668861389,0.4511965215206146,0.712024986743927
20.55,-3.7658371925354004,0.22901993989944458,-0.09233127534389496,0.8615218997001648,1.789468765258789,0.389708548784256
20.6,-5.237440586090088,1.8594245910644531,-0.14631710946559906,1.1976559162139893,2.042160987854004,-0.045151617377996445
20.65,-3.5091936588287354,1.3202893733978271,2.0898923873901367,1.0550565719604492,1.8772574663162231,-1.0552080869674683
20.7,-1.1321885585784912,0.5706586837768555,0.27901023626327515,0.36223655939102173,1.6292134523391724,-1.9018474817276
20.75,1.6943800449371338,0.49669182300567627,0.7855119109153748,0.031751811504364014,-0.275419145822525,-1.888314962387085
20.8,3.3748550415039062,0.2860242426395416,1.5063227415084839,-0.02858757972717285,-0.9857286810874939,-1.3559435606002808
20.85,2.991058588027954,0.15710560977458954,0.6068816184997559,0.03932866454124451,-0.2072373926639557,-0.8442659974098206
20.9,2.4974474906921387,0.33099475502967834,0.6922251582145691,0.13024000823497772,-0.11604497581720352,-0.4133567810058594
20.95,2.7232747077941895,0.05180274695158005,1.144176721572876,0.45488253235816956,0.0840124785900116,-0.31716299057006836
21.0,2.8449435234069824,-0.01592342182993889,1.8186455965042114,0.49521172046661377,0.17023545503616333,-0.09817089140415192
21.05,2.255492687225342,0.2155190259218216,1.8570367097854614,0.2714509963989258,0.2694610059261322,0.2274249941110611
21.1,1.2018030881881714,0.8297616243362427,1.922019124031067,0.03188873827457428,0.2574535310268402,0.5505769848823547
21.15,0.40970849990844727,1.335499882698059,1.7513781785964966,-0.20798107981681824,0.5850324630737305,0.47473809123039246
21.2,0.2864590883255005,0.6477804183959961,1.0990209579467773,-0.33479684591293335,1.2907798290252686,-0.44390782713890076
21.25,0.08232954144477844,0.16172412037849426,-0.3486291468143463,-0.9418442249298096,1.6434154510498047,-0.5626348257064819
21.3,-1.0803141593933105,-0.23923876881599426,-1.3034954071044922,-1.3091853857040405,1.046319842338562,0.16179008781909943
21.35,-0.8530399799346924,-0.2865162193775177,-0.9698882699012756,-0.7090611457824707,0.4535199999809265,0.2968016564846039
21.4,-0.5947068333625793,-0.31987956166267395,-0.6904438138008118,-0.46199822425842285,0.2832431197166443,0.36156222224235535
21.45,0.5786517858505249,-0.3304118514060974,-1.3056296110153198,-0.16300639510154724,-0.21822428703308105,0.5173172354698181
21.5,2.716804027557373,1.3603641986846924,-0.29416313767433167,0.549927830696106,-1.395048975944519,0.9464535713195801
21.55,4.33971643447876,3.5031087398529053,2.0232858657836914,0.7857341766357422,-2.1682498455047607,1.4327107667922974
21.6,4.3781538009643555,4.295936107635498,2.1886250972747803,0.39139533042907715,-1.3916980028152466,1.4163892269134521
21.65,3.5108418464660645,4.952945232391357,0.428350567817688,-1.1303205490112305,-0.2524672746658325,1.5843753814697266
21.7,1.2769042253494263,3.638645887374878,-1.683974266052246,-2.1814613342285156,-0.30572396516799927,2.164846658706665
21.75,-1.264642357826233,3.317366123199463,-1.9999735355377197,-1.5383607149124146,-0.2217613309621811,3.324544906616211
21.8,-4.137854099273682,1.3734445571899414,-1.9708658456802368,-1.5610660314559937,0.1468423455953598,3.852437734603882
21.85,-4.029333114624023,-1.4413588047027588,-1.8080188035964966,-1.3412891626358032,0.3347586989402771,3.7554657459259033
21.9,-6.287818908691406,-1.7921806573867798,0.47076237201690674,0.04975271224975586,0.7042089700698853,4.295712471008301
21.95,-5.261214256286621,-1.5964447259902954,1.5979149341583252,-0.2519110441207886,0.6405112147331238,2.9855685234069824
22.0,-5.450385093688965,-1.38804292678833,1.8399981260299683,-0.2901064157485962,0.18088442087173462,2.531369686126709
22.05,-5.503566265106201,0.3582960069179535,1.9820305109024048,-0.39555108547210693,-0.3000850975513458,2.0716140270233154
22.1,-4.700512409210205,-0.3647063076496124,-0.6827583312988281,-1.5243656635284424,-1.1417200565338135,1.5852762460708618
22.15,-2.830125570297241,-0.41294872760772705,-2.358851432800293,-1.9892494678497314,-1.662156343460083,1.2016617059707642
22.2,-1.1347990036010742,-1.4688788652420044,-1.9784798622131348,-2.290541172027588,-1.8901705741882324,1.2911949157714844
22.25,2.4306695461273193,-4.15984582901001,0.3037077784538269,-3.006882667541504,-2.0162599086761475,0.9551981687545776
22.3,4.671463489532471,-9.590619087219238,4.366997241973877,-3.1094417572021484,-1.5159976482391357,0.8549695014953613
22.35,4.449252128601074,-12.217806816101074,6.060161113739014,-0.7731140851974487,-0.37202760577201843,-0.23419934511184692
22.4,-1.7407114505767822,-4.808563232421875,0.1698400378227234,2.9083008766174316,0.8782486319541931,-1.8203235864639282
22.45,-2.7133636474609375,6.5347442626953125,-3.5812792778015137,3.820486068725586,0.8142123818397522,-2.265589714050293
22.5,-1.417628526687622,6.961280822753906,-0.6324942111968994,2.4747729301452637,0.2786761224269867,-0.15641675889492035
22.55,-0.60146164894104,3.499096393585205,1.3579416275024414,0.6849422454833984,0.08051145076751709,0.040080465376377106
22.6,-1.4051449298858643,1.5388002395629883,2.4396090507507324,-0.3276861608028412,0.1644972264766693,0.05412646755576134
22.65,-2.1124558448791504,1.1655110120773315,1.9413360357284546,-0.7927222847938538,-0.2528684139251709,-0.08171086758375168
22.7,-3.415865421295166,2.862114906311035,1.1978611946105957,-1.4123966693878174,-1.154275894165039,-0.4353635013103485
22.75,-2.9566142559051514,5.141488552093506,-2.1649765968322754,-3.6612541675567627,-3.1631739139556885,-2.2611424922943115
22.8,4.0061540603637695,0.9775826334953308,-5.962212562561035,-7.397677898406982,-6.103133678436279,-4.966737270355225
22.85,0.44662535190582275,-7.548837184906006,4.05322790145874,-8.695917129516602,-6.100886821746826,-4.762559413909912
22.9,-2.1758527755737305,-2.703227996826172,2.496140480041504,-2.9054603576660156,-1.6655679941177368,0.07794570177793503
22.95,-2.123471260070801,-6.417405605316162,5.6350626945495605,-0.612258791923523,-0.30700063705444336,2.2521708011627197
23.0,3.3806681632995605,-8.2022705078125,4.799726963043213,3.0543594360351562,1.07150399684906,4.695489883422852
23.05,0.8163585662841797,9.668591499328613,-11.725663185119629,8.233776092529297,2.94406795501709,4.593869209289551
23.1,2.8005900382995605,6.009921550750732,-8.851439476013184,1.152071237564087,-0.447421133518219,-1.251649022102356
23.15,2.620640277862549,-0.9712179899215698,-1.9153014421463013,-3.8567700386047363,-2.220353841781616,-2.855085849761963
23.2,-0.6135520935058594,-5.971442699432373,4.344450950622559,-3.645672082901001,-1.141147255897522,-2.1605536937713623
23.25,-1.0760581493377686,-8.111663818359375,6.0970234870910645,-0.08144271373748779,1.3507181406021118,1.5832868814468384
23.3,0.5694992542266846,-0.28111448884010315,-1.8683284521102905,5.009410381317139,3.1546032428741455,4.530337810516357
23.35,-3.0338783264160156,5.928089618682861,-4.804894924163818,3.533055067062378,1.962622046470642,2.666630983352661
23.4,2.0691590309143066,-0.6033896803855896,-0.4237874150276184,-0.6648009419441223,-1.6983606815338135,-0.6225818991661072
23.45,0.5461186170578003,-0.45958617329597473,-0.20034709572792053,-0.468705415725708,-0.8961728811264038,-0.9074766039848328
23.5,-0.9653725624084473,1.6366827487945557,-0.9487204551696777,0.5153168439865112,-0.25173017382621765,-1.044110894203186
23.55,-0.7563825845718384,5.97873067855835,-3.618751287460327,-0.19073373079299927,-0.9735993146896362,-1.8870395421981812
23.6,3.3622963428497314,-0.7847164869308472,-0.6759788393974304,-2.67938232421875,-3.216629981994629,-5.507104396820068
23.65,-0.7456440329551697,-3.2232091426849365,2.507219076156616,-2.9191596508026123,-2.126432180404663,-4.836008071899414
23.7,-1.2306349277496338,0.11018462479114532,-0.2805706262588501,-0.4113873839378357,-0.17592556774616241,-1.0448800325393677
23.75,-2.7502002716064453,-3.7129924297332764,3.699517011642456,0.02579103410243988,-0.07018721848726273,0.3444863557815552
23.8,4.654004096984863,-3.452134847640991,2.4216768741607666,2.555734634399414,2.6315929889678955,5.277647495269775
23.85,-2.3740358352661133,10.530494689941406,-6.089309215545654,4.4176459312438965,3.723386287689209,6.060569763183594
23.9,1.2077349424362183,1.786360263824463,-2.3862006664276123,-0.20968139171600342,-1.887528657913208,-1.8751083612442017
23.95,1.1151243448257446,-5.213068008422852,3.9158613681793213,-1.8206572532653809,-3.0667200088500977,-2.755556344985962
24.0,0.6961113214492798,-4.776035308837891,3.539191961288452,0.12652850151062012,-0.13179558515548706,2.190251350402832
24.05,-1.0032814741134644,-1.1800100803375244,1.4364852905273438,1.1392967700958252,1.0367400646209717,5.095245361328125
24.1,3.3223745822906494,-3.3887484073638916,0.8746335506439209,1.2214621305465698,-0.14983528852462769,4.461447715759277
24.15,11.331518173217773,5.699150085449219,4.668938159942627,1.597459077835083,-0.09178945422172546,6.233946800231934
24.2,9.09882640838623,3.589693307876587,-5.49390983581543,1.1859323978424072,5.825313091278076,1.1738420724868774
24.25,-7.715836524963379,5.568201541900635,-6.025146484375,-0.42313456535339355,8.201558113098145,0.07124678790569305
24.3,-15.244131088256836,7.372735023498535,1.4423786401748657,-2.074843645095825,6.082674026489258,-2.9508564472198486
24.35,-14.020752906799316,1.2584115266799927,2.741065502166748,-5.081434726715088,1.5969375371932983,-5.2006072998046875
24.4,-7.202013969421387,-3.0528151988983154,-2.802884578704834,-4.370787620544434,-4.567305088043213,-2.5780904293060303
24.45,20.458173751831055,-5.952611446380615,-1.949902057647705,-2.6075944900512695,-6.726231098175049,3.6378002166748047
24.5,7.044853210449219,5.415179252624512,-3.757171630859375,-0.5124655961990356,2.4860119819641113,2.8967816829681396
24.55,-7.546807765960693,-0.32401031255722046,-1.0138649940490723,-1.7537509202957153,3.811671257019043,-1.8921209573745728
24.6,-8.12993049621582,-1.1038520336151123,2.4584836959838867,-1.3873745203018188,0.8036934733390808,-2.6581037044525146
24.65,15.894235610961914,-6.389225482940674,1.0712804794311523,-2.0964643955230713,-2.209498405456543,2.455181121826172
24.7,6.795769691467285,-5.363699436187744,-1.1138211488723755,-0.9240248799324036,0.8913192749023438,-2.3655505180358887
24.75,-11.865962982177734,0.041093163192272186,-0.42940521240234375,0.5092147588729858,3.668088436126709,-3.2890641689300537
24.8,-12.772521018981934,4.323680400848389,3.203101396560669,0.4819052219390869,1.1760272979736328,-1.755866289138794
24.85,12.02604866027832,-7.129802703857422,-1.9759130477905273,-0.7484487295150757,-1.8352112770080566,4.123620510101318
24.9,8.675453186035156,-4.637668609619141,-2.118368148803711,-0.20844537019729614,0.046568937599658966,-1.646346092224121
24.95,-6.746303558349609,0.37262120842933655,-1.038975715637207,1.308435082435608,3.223876714706421,-2.6506149768829346
25.0,-7.420486927032471,2.248751401901245,2.926661252975464,0.8153716325759888,1.5117000341415405,-1.3711563348770142
25.05,-2.1610450744628906,-0.6011497974395752,1.139136791229248,0.3114283084869385,-0.449523389339447,0.3862278163433075
25.1,-0.8504278659820557,0.8766766786575317,-1.6114825010299683,0.7992786765098572,-0.5476688742637634,1.024498462677002
25.15,-1.5044808387756348,-0.6142112016677856,-0.9228147268295288,0.2797633707523346,-0.5882456302642822,-0.15145908296108246
25.2,-2.1338090896606445,-1.0879690647125244,-0.016089163720607758,0.5174310803413391,-0.5781346559524536,0.2970757484436035
25.25,-2.3204855918884277,-0.7254021167755127,0.5021249651908875,0.7728506922721863,-0.9210032224655151,0.4619274437427521
25.3,-2.9277172088623047,0.7729014754295349,0.5311412215232849,0.6281315684318542,-1.5299406051635742,-0.34768539667129517
25.35,-2.54046368598938,2.674981117248535,-0.4594708979129791,0.4565572440624237,-2.481900215148926,-0.5194433927536011
25.4,-1.271045207977295,4.8451409339904785,-1.8199244737625122,0.21024441719055176,-3.2083048820495605,0.033999003469944
25.45,1.4123544692993164,3.8665578365325928,-1.7262959480285645,-0.7157280445098877,-3.7489123344421387,0.8605021834373474
25.5,1.7024214267730713,0.7652132511138916,-0.908291757106781,-1.9482051134109497,-3.0890796184539795,2.4224026203155518
25.55,0.947623074054718,-3.0739150047302246,1.5652400255203247,-2.6711056232452393,-2.434687614440918,2.5172369480133057
25.6,-1.0363788604736328,-10.13292121887207,7.024440765380859,-1.931439757347107,-1.870358943939209,1.6125413179397583
25.65,1.8819332122802734,-3.87682843208313,-0.5066720247268677,1.29264497756958,-0.40591561794281006,2.668564558029175
25.7,4.21435022354126,5.560382843017578,-2.5496339797973633,1.7119791507720947,-0.9157143235206604,1.9844528436660767
25.75,3.3759446144104004,1.3121912479400635,0.7224018573760986,0.6876062154769897,-1.3861815929412842,-0.7631707787513733
25.8,0.25582295656204224,-0.7564098238945007,1.530388355255127,0.1471979022026062,-0.6584428548812866,-0.5234726667404175
25.85,-0.684961199760437,-0.48318976163864136,1.8623597621917725,0.3631678521633148,-0.29757988452911377,-0.37916046380996704
25.9,-0.9694841504096985,0.2933177351951599,0.7861881852149963,0.4257546663284302,0.03611547127366066,-0.28366225957870483
25.95,-0.6540132164955139,1.2246227264404297,0.6744449138641357,0.18208704888820648,-0.12759935855865479,0.017710460349917412
26.0,-0.7840772867202759,1.5748169422149658,-0.07477590441703796,-0.10662299394607544,-0.2694717347621918,-0.11551818996667862
26.05,-0.21356050670146942,1.253083348274231,-0.3161267042160034,-0.3392598628997803,-1.024383306503296,-0.7474504113197327
26.1,0.5264043807983398,0.49401000142097473,1.0782856941223145,-0.7552489638328552,-1.5045092105865479,-0.8926147818565369
26.15,0.29266157746315,0.22150419652462006,1.3835225105285645,-0.925155520439148,-0.8803069591522217,-0.6087804436683655
26.2,0.139123797416687,0.4177704155445099,1.0766332149505615,-0.9662054777145386,-0.2965284585952759,-0.6502367258071899
26.25,0.0692225843667984,-0.31420427560806274,0.42593517899513245,-0.6435006856918335,0.02998928166925907,-1.3327127695083618
26.3,1.4945428371429443,2.5379462242126465,-2.204596757888794,-0.5814058780670166,-0.03971993923187256,-2.111562728881836
26.35,3.7732787132263184,-1.8325858116149902,-0.3418344557285309,-0.8715147972106934,-2.455113649368286,-6.082256317138672
26.4,-7.251092910766602,-6.364616870880127,3.6709609031677246,-1.523869514465332,-2.592897653579712,-7.137542247772217
26.45,-7.8733296394348145,-4.908394813537598,1.9131931066513062,-0.058567628264427185,1.322431206703186,-0.39548036456108093
26.5,-1.9642139673233032,-11.421432495117188,5.390953063964844,1.6142525672912598,3.596242666244507,6.041011333465576
26.55,2.0137100219726562,9.93518352508545,-10.777036666870117,5.238580226898193,5.578525543212891,10.928146362304688
26.6,3.5560531616210938,3.038656234741211,-6.266478538513184,2.3956849575042725,0.10296782851219177,-0.26711714267730713
26.65,2.3475217819213867,-1.225356101989746,1.145196557044983,-1.2218412160873413,-1.7285797595977783,-2.762216091156006
26.7,0.18003040552139282,-2.8175532817840576,1.7001593112945557,0.347215473651886,-0.15644283592700958,-1.866746425628662
26.75,-0.41434037685394287,1.432240605354309,0.3444039821624756,1.0529451370239258,0.6214609146118164,-0.3933179974555969
26.8,-0.20251640677452087,0.22066019475460052,0.6362709999084473,1.0282844305038452,-0.05635760724544525,-1.4125421047210693
26.85,0.6831878423690796,2.172699213027954,-0.1878926008939743,1.0429178476333618,0.1872689425945282,-0.2396809309720993
26.9,1.2957656383514404,1.909877061843872,0.8625622391700745,0.4450293183326721,0.08000818639993668,-0.16151481866836548
26.95,0.9106608629226685,1.4152470827102661,1.0251587629318237,-0.07416920363903046,0.1734081506729126,-0.5522096157073975
27.0,-0.03367427736520767,1.1669808626174927,-0.08771942555904388,-0.38502389192581177,0.26058870553970337,-0.6664268970489502
27.05,-0.6071995496749878,-0.13736535608768463,-0.6875923275947571,-0.7020879983901978,0.1511210948228836,-0.5630640983581543
27.1,-0.48418235778808594,-1.187200665473938,-0.23061734437942505,-0.7820518016815186,0.044618889689445496,0.05590907111763954
27.15,-0.3228857219219208,-2.2036077976226807,-0.28190696239471436,-0.360042005777359,0.171248659491539,0.8471052646636963
27.2,0.020530879497528076,-1.604137659072876,-0.6062116622924805,0.06997907161712646,0.4991518259048462,1.760071039199829
27.25,0.4324626326560974,-1.3737460374832153,-0.3873824179172516,0.3833150863647461,0.7375290989875793,2.137665033340454
27.3,1.4446280002593994,-2.5590169429779053,0.4867478609085083,0.6812214255332947,1.1636736392974854,2.6286282539367676
27.35,0.01074141263961792,-0.012181228958070278,-1.170445442199707,0.934571385383606,2.226874828338623,4.313699245452881
27.4,-1.556708574295044,2.1052772998809814,0.28004565834999084,1.098677396774292,1.6048227548599243,3.807649850845337
27.45,-2.1255667209625244,3.3513805866241455,0.6813481450080872,0.6233432292938232,0.6050418615341187,2.1234655380249023
27.5,-2.4468555450439453,5.6375298500061035,1.0497839450836182,-0.22698889672756195,-0.08988768607378006,0.06120956689119339
27.55,1.2612497806549072,6.76170539855957,0.541911780834198,-0.9081463813781738,-0.938703179359436,-3.697011709213257
27.6,2.1869568824768066,-2.800529718399048,0.8008325695991516,-2.304409980773926,-0.9860771894454956,-4.952128887176514
27.65,0.05471479892730713,-5.342250823974609,3.1272997856140137,-1.5861377716064453,0.887106716632843,-0.1078227087855339
27.7,-0.418831467628479,-3.3654017448425293,0.5995879769325256,0.30428075790405273,2.718489646911621,3.782202959060669
27.75,-1.1652933359146118,-2.4959876537323,-1.8444842100143433,0.7428503036499023,2.1003530025482178,4.323243618011475
27.8,-1.9595375061035156,-1.7964508533477783,-1.6011757850646973,0.8752305507659912,1.006639003753662,4.428382873535156
27.85,-1.1947565078735352,-1.6764196157455444,-0.15174800157546997,0.912569522857666,0.30721017718315125,4.0128278732299805
27.9,-0.18404161930084229,-0.9754697680473328,1.2437303066253662,0.7208809852600098,0.004888305440545082,2.936295986175537
27.95,-0.934967577457428,-0.1249496340751648,2.4142796993255615,0.5583060383796692,0.2777057886123657,1.5551103353500366
28.0,-0.529911994934082,-3.4361307621002197,4.8264946937561035,0.24848943948745728,0.25802794098854065,-1.0175344944000244
28.05,-1.4866931438446045,-0.04129593446850777,-3.468182325363159,1.0509142875671387,1.2855411767959595,-1.629679799079895
28.1,-2.8343710899353027,5.704253673553467,-2.7971630096435547,2.326051712036133,0.4774521291255951,0.8334102630615234
28.15,-1.5397281646728516,1.937363862991333,-2.0679025650024414,0.39892512559890747,-0.03157854452729225,0.2036725878715515
28.2,-0.5645846128463745,-0.09173207730054855,0.19235214591026306,-0.2657839059829712,-0.26984235644340515,-0.12937308847904205
28.25,-0.8121899366378784,-0.1252490133047104,0.8977510929107666,-0.1553814560174942,0.09379878640174866,-0.18582108616828918
28.3,-1.6095402240753174,-0.18394005298614502,0.22960786521434784,-0.09923586249351501,0.3324187994003296,-0.2602674663066864
28.35,-0.8083436489105225,0.3089742660522461,-0.04736069589853287,0.018209535628557205,0.05288369208574295,-0.12417032569646835
28.4,1.0602654218673706,1.1663734912872314,-0.5359278321266174,0.005422092974185944,-0.20004679262638092,0.25306424498558044
28.45,0.386476993560791,3.4261422157287598,-0.35064762830734253,-0.18153449892997742,0.12421203404664993,0.7873371243476868
28.5,0.6092877984046936,2.6400701999664307,0.6315053701400757,-0.8790316581726074,0.25909823179244995,-0.24212457239627838
28.55,-0.01646280288696289,1.4437885284423828,2.1101529598236084,-1.3586831092834473,0.24625776708126068,-0.8348275423049927
28.6,-2.7439913749694824,-0.13976888358592987,2.2669148445129395,-1.9899733066558838,0.25536099076271057,-1.3502717018127441
28.65,0.5491745471954346,-3.0303540229797363,1.5256695747375488,-2.7248964309692383,-1.2753711938858032,-3.8981566429138184
28.7,8.159773826599121,-8.33142375946045,0.5314556360244751,-1.7611770629882812,-0.6741260886192322,-4.690420627593994
28.75,0.4534757137298584,0.8391640186309814,-2.5200319290161133,0.9767879843711853,3.272958278656006,-0.7814386487007141
28.8,-2.2277703285217285,0.7909184098243713,-1.1620776653289795,0.1767178773880005,1.9306294918060303,0.47741374373435974
28.85,0.9318561553955078,-1.2264270782470703,-0.35330358147621155,-0.30506810545921326,-0.8694549798965454,0.14787133038043976
28.9,5.718379974365234,0.26489195227622986,0.9553227424621582,0.6523348093032837,-0.9437673091888428,0.40867114067077637
28.95,3.614255905151367,1.7605681419372559,-1.6855486631393433,1.1622602939605713,3.9726905822753906,-1.7720474004745483
29.0,-4.451566219329834,1.6810253858566284,1.0561177730560303,-0.007444828748703003,5.44228982925415,0.2606293559074402
29.05,-3.2019875049591064,-3.6134092807769775,1.063988447189331,-0.07977012544870377,1.7261607646942139,0.07638173550367355
29.1,6.58181095123291,2.222856283187866,-3.7523458003997803,-0.08129680156707764,0.7152040600776672,-3.1143195629119873
29.15,-2.5606839656829834,1.6197453737258911,0.07571971416473389,-1.063720703125,4.072330951690674,0.2946147918701172
29.2,-4.841374397277832,-3.65936279296875,5.209336280822754,-0.2855914831161499,1.6486680507659912,2.063739776611328
29.25,-2.2122890949249268,-0.2150861918926239,0.9589774012565613,1.9090203046798706,-1.7840893268585205,-0.4149130582809448
29.3,6.333270072937012,2.532533645629883,-5.920505046844482,-0.5290302038192749,-0.4139108955860138,-2.807222366333008
29.35,-2.311189651489258,2.9533913135528564,-0.7632835507392883,0.34043246507644653,2.931410551071167,1.8483521938323975
29.4,-1.5104286670684814,-5.479880332946777,3.0215771198272705,0.2999478578567505,0.7865386605262756,1.9849804639816284
29.45,1.806596279144287,-8.906376838684082,-2.984239101409912,2.2714767456054688,-1.3349013328552246,-0.414568156003952
29.5,2.138542413711548,-2.4721925258636475,-8.00423812866211,0.17202091217041016,0.4172225892543793,-5.456933975219727
29.55,-3.5562283992767334,9.505020141601562,-1.3629467487335205,0.11529529094696045,3.7927310466766357,-3.9280025959014893
29.6,-4.141666412353516,12.614990234375,7.224005222320557,0.45532840490341187,3.807178258895874,0.09695641696453094
29.65,-4.873607635498047,4.858878135681152,7.807629108428955,0.41249215602874756,0.9326061010360718,3.1407957077026367
29.7,-5.7399468421936035,-5.040162086486816,4.391929626464844,1.071143627166748,-2.963434934616089,3.79276967048645
29.75,1.5693367719650269,-3.9366934299468994,-3.725322961807251,-0.6287843585014343,-4.076545238494873,-0.5758074522018433
29.8,4.80720329284668,-2.3640713691711426,-11.540767669677734,-4.9571003913879395,1.325844645500183,-5.287497043609619
29.85,-1.3014260530471802,3.9970784187316895,-2.431011438369751,-0.028269141912460327,3.907402515411377,-0.9764305949211121
29.9,-2.3273348808288574,2.9341237545013428,6.710608005523682,1.8720414638519287,2.6741604804992676,2.056201696395874
29.95,-0.7310905456542969,-5.449498653411865,4.979079723358154,1.4546070098876953,-0.041341111063957214,2.709317445755005
30.0,-1.676877737045288,-10.053828239440918,2.8449416160583496,2.3625004291534424,-2.416658639907837,1.6021323204040527
30.05,3.0130980014801025,1.6175297498703003,-8.87472152709961,-0.2399120330810547,-3.7745988368988037,-3.2545502185821533
30.1,1.5742359161376953,8.639999389648438,-7.778722763061523,-1.1618213653564453,2.8024163246154785,-2.720968246459961
30.15,-3.8539607524871826,7.258296489715576,4.985891819000244,1.5432028770446777,3.8039121627807617,0.7678906321525574
30.2,-3.892141580581665,4.804177284240723,6.735662937164307,-0.6193498373031616,1.505530834197998,1.118507981300354
30.25,-4.582083225250244,0.8608202934265137,6.525600433349609,0.24282217025756836,-0.47470059990882874,2.057485580444336
30.3,-2.369213581085205,-5.94511604309082,3.2744884490966797,0.46570056676864624,-2.1351735591888428,2.0908374786376953
30.35,-0.26737093925476074,-7.742279529571533,-5.519790172576904,0.4115709662437439,-3.8554368019104004,-0.27703288197517395
30.4,5.939119338989258,-2.125131845474243,-14.779012680053711,-1.8859719038009644,-1.346890926361084,-4.082712173461914
30.45,-2.5059609413146973,2.295958995819092,-6.204342842102051,-1.588796615600586,5.786240100860596,-2.550067663192749
30.5,-2.66851806640625,3.93554425239563,3.9696261882781982,-0.032283470034599304,4.9122748374938965,-0.41865241527557373
30.55,0.12031984329223633,3.1666595935821533,3.722019910812378,-0.5167592763900757,2.6011571884155273,0.7244789004325867
30.6,-0.09366261959075928,0.8788843154907227,2.869138240814209,1.3274402618408203,0.3720961809158325,1.625360369682312
30.65,-1.3033909797668457,-0.30876556038856506,1.0696086883544922,1.1257227659225464,-1.1953667402267456,1.5441482067108154
30.7,-0.9840627312660217,-1.394991159439087,0.1822260171175003,-0.6829885244369507,-1.7084707021713257,0.973114013671875
30.75,0.5191412568092346,-4.9393510818481445,1.9206386804580688,-3.243406057357788,-2.0004825592041016,0.18903037905693054
30.8,2.218966245651245,-10.823453903198242,-0.663230299949646,-6.579428672790527,-2.999366521835327,-1.8029048442840576
30.85,1.557279348373413,-7.635974407196045,-9.169110298156738,-3.422558307647705,-3.8452558517456055,-2.8109545707702637
30.9,-1.7451415061950684,-4.1823554039001465,-13.445854187011719,-2.3473801612854004,-0.374435156583786,-4.44541597366333
30.95,-0.814539909362793,4.132651329040527,-9.778632164001465,-0.8417880535125732,2.7176012992858887,-5.939554691314697
31.0,-1.0574238300323486,5.122058391571045,-4.530087947845459,-0.11751139163970947,3.0883076190948486,-2.9539034366607666
31.05,0.4048055410385132,9.56557846069336,1.9150240421295166,1.1610133647918701,2.5122270584106445,-1.8364185094833374
31.1,2.7471349239349365,10.994754791259766,4.537834644317627,-0.17928306758403778,1.8568919897079468,-0.712311327457428
31.15,-1.0584661960601807,6.764085292816162,4.13775110244751,-1.9757341146469116,0.3290761113166809,2.3579812049865723
31.2,-1.8396811485290527,-1.5578551292419434,1.9254851341247559,-1.463736891746521,-1.5662404298782349,4.245279788970947
31.25,2.811030864715576,-9.218222618103027,-11.953156471252441,-1.0870190858840942,-1.8896323442459106,4.792438507080078
31.3,-1.9551587104797363,-4.279476642608643,-14.778082847595215,-1.1550774574279785,1.9842736721038818,-0.25233346223831177
31.35,-6.405086040496826,1.095546841621399,-7.605584621429443,2.3744890689849854,4.534242630004883,-2.5472865104675293
31.4,-2.9046988487243652,4.607605934143066,8.069738388061523,2.009702444076538,5.11650276184082,-1.253067135810852
31.45,5.4056501388549805,6.010310649871826,12.608922958374023,-0.355757474899292,2.8454153537750244,-0.640135645866394
31.5,4.931490898132324,1.5005369186401367,11.950517654418945,-1.950150966644287,-0.4592178761959076,2.72623348236084
31.55,-0.6621438264846802,-4.114072799682617,3.2960453033447266,0.014636039733886719,-3.5194485187530518,4.553696155548096
31.6,-8.116375923156738,-10.044130325317383,-13.678315162658691,-0.8322067260742188,-4.737879753112793,6.260159015655518
31.65,-3.041564702987671,-6.223372459411621,-9.854293823242188,-4.506104469299316,-1.8923258781433105,-0.7924802303314209
31.7,-6.0504279136657715,0.4977788031101227,-4.1380696296691895,1.8631811141967773,3.075535774230957,-5.488024711608887
31.75,2.1452999114990234,11.382150650024414,8.79630184173584,2.8104748725891113,3.190535545349121,-5.4782257080078125
31.8,6.594030857086182,9.337347030639648,10.70722770690918,-0.0576014518737793,-0.3872833251953125,-1.5913891792297363
31.85,0.028072595596313477,1.3944424390792847,4.4975361824035645,-1.3948458433151245,-3.154839515686035,3.447045087814331
31.9,-5.996068000793457,-5.954191207885742,-15.433697700500488,-1.4613945484161377,-4.441706657409668,6.3450493812561035
31.95,2.0562171936035156,-10.098487854003906,-10.917801856994629,-4.242245674133301,-1.9237421751022339,1.6755356788635254
32.0,-5.707503318786621,-3.7539925575256348,-5.652903079986572,3.0462892055511475,3.7402849197387695,-4.462862968444824
32.05,0.12251710891723633,11.602628707885742,9.746055603027344,3.9419984817504883,3.7280614376068115,-5.839684009552002
32.1,6.093407154083252,7.9253249168396,12.685149192810059,0.12066572904586792,0.44316497445106506,-1.9688026905059814
32.15,0.3839850425720215,1.0280482769012451,8.933320999145508,-1.3245623111724854,-2.6243643760681152,2.3771841526031494
32.2,-3.744750499725342,0.512406587600708,-8.507036209106445,-0.7649140357971191,-4.766549110412598,4.479275226593018
32.25,2.0470199584960938,-10.438140869140625,-17.087684631347656,-5.769343852996826,-3.5959930419921875,2.8905088901519775
32.3,-1.391282558441162,-3.6903014183044434,-13.29823112487793,0.13185322284698486,1.0086694955825806,-2.162806510925293
32.35,-4.026395320892334,1.9227533340454102,-0.4977991282939911,4.190973281860352,3.725432872772217,-3.0058531761169434
32.4,1.2106914520263672,8.872800827026367,9.864490509033203,2.847109317779541,2.5198917388916016,-3.0796334743499756
32.45,0.4027395248413086,3.941126823425293,10.374767303466797,-1.0119414329528809,-0.2454833984375,0.5595229268074036
32.5,-2.609302043914795,-1.0039293766021729,-0.439812034368515,-0.2905547618865967,-2.809589385986328,3.454963445663452
32.55,-2.160569667816162,-8.18626594543457,-14.84378719329834,-1.5531758069992065,-3.139244318008423,4.77980375289917
32.6,-1.2216318845748901,-7.178349494934082,-4.924532413482666,-1.935404896736145,0.2929706573486328,-0.2284771054983139
32.65,-4.225983142852783,-1.212103247642517,-0.4338488280773163,3.659296989440918,1.9834504127502441,-3.5892982482910156
32.7,0.9638807773590088,8.668828964233398,6.563345432281494,2.775519371032715,0.8449571132659912,-4.230481147766113
32.75,-0.6375150680541992,3.422175645828247,6.631458759307861,-0.9200311899185181,-1.1668375730514526,0.06468001008033752
32.8,-2.532985210418701,-0.23457923531532288,-0.6872366666793823,0.011174678802490234,-3.5295143127441406,2.7934939861297607
32.85,2.5778088569641113,-1.953794002532959,-10.882652282714844,-0.47855985164642334,-3.7985568046569824,2.967038869857788
32.9,6.3199462890625,-5.3547234535217285,-11.656088829040527,-1.4018641710281372,-1.4956347942352295,0.997024655342102
32.95,0.3583061695098877,-2.5432538986206055,-6.005562782287598,1.5980979204177856,2.4747791290283203,-1.309505820274353
33.0,-1.9275026321411133,5.361906051635742,3.5752224922180176,3.5926644802093506,3.1724815368652344,-3.2109506130218506
33.05,1.1799590587615967,4.963248252868652,7.419281959533691,0.7194365859031677,1.0059385299682617,-1.8546186685562134
33.1,2.2932920455932617,-0.5454595685005188,-1.755597472190857,-1.5618407726287842,-2.0984244346618652,2.265758991241455
33.15,4.110353946685791,-5.428683757781982,-16.758319854736328,-3.0170352458953857,-2.6187584400177,3.3661599159240723
33.2,-2.041374683380127,-4.782058238983154,-10.054686546325684,-1.2248343229293823,2.422281265258789,0.0974433422088623
33.25,-6.532552242279053,0.7141348719596863,-0.4393252730369568,4.063644886016846,4.864504814147949,-2.8145716190338135
33.3,1.1727681159973145,8.444208145141602,11.516465187072754,3.113856792449951,4.003086090087891,-4.247957229614258
33.35,2.5110621452331543,3.784574508666992,10.943857192993164,-0.4682806432247162,0.5926101207733154,-0.22153228521347046
33.4,-1.2174530029296875,-0.13064119219779968,2.615614891052246,-1.4363675117492676,-2.916435718536377,2.8842904567718506
33.45,-1.4067974090576172,-0.9049020409584045,-13.249984741210938,-2.615405559539795,-4.073187828063965,3.5080316066741943
33.5,1.2313294410705566,-7.255247592926025,-11.372851371765137,-4.453983306884766,-1.1628663539886475,1.350124716758728
33.55,-2.344555139541626,-2.6768319606781006,-4.576152801513672,2.0590200424194336,3.373878240585327,-1.890974998474121
33.6,-0.18199920654296875,6.9133524894714355,7.374885082244873,4.390531063079834,4.024195671081543,-4.111042499542236
33.65,3.9420576095581055,6.221231460571289,9.689214706420898,2.0951287746429443,0.7423437833786011,-1.3792998790740967
33.7,0.40662261843681335,-0.709630012512207,-0.7058760523796082,-1.2232935428619385,-2.8741886615753174,3.6218183040618896
33.75,-0.8462505340576172,-5.0434675216674805,-18.212507247924805,-3.042147159576416,-4.417471885681152,4.601264953613281
33.8,-1.1357007026672363,-5.536320209503174,-8.242485046386719,-3.6007168292999268,0.7412929534912109,-0.3866267800331116
33.85,-4.627457618713379,0.02647477015852928,-1.747556447982788,3.7194247245788574,3.8881278038024902,-3.6130831241607666
33.9,1.7417035102844238,6.488122463226318,8.986605644226074,3.0571489334106445,3.4041688442230225,-3.7270665168762207
33.95,2.9450926780700684,1.2245121002197266,7.326761245727539,0.4523800015449524,0.29148605465888977,-0.24130377173423767
34.0,-0.030023038387298584,-1.8301775455474854,-1.2815545797348022,0.0621715784072876,-2.345367193222046,1.6429805755615234
34.05,-2.0504605770111084,-3.3707220554351807,-6.687933444976807,-1.057213306427002,-2.839693069458008,1.6672427654266357
34.1,-0.8919363021850586,-2.721226215362549,-6.027035236358643,-0.07819227874279022,-0.9826427698135376,-0.4813968241214752
34.15,-0.5433961153030396,-0.6105098128318787,-3.1830999851226807,1.9678168296813965,0.8791792392730713,-2.0388364791870117
34.2,-0.19297632575035095,-0.9462968111038208,-0.3884613513946533,1.509289026260376,0.9818018674850464,-1.8585577011108398
34.25,-0.4229363799095154,-2.0646517276763916,1.8555922508239746,0.42749714851379395,0.5205286145210266,-1.426912546157837
34.3,-0.7849454879760742,-2.8140640258789062,3.997682571411133,-0.33236944675445557,-0.09234295785427094,-1.5598548650741577
34.35,-2.4407639503479004,-2.4946963787078857,4.757264137268066,-0.764464259147644,-1.2261136770248413,-1.4393495321273804
34.4,-4.644697189331055,0.4529835283756256,2.2762537002563477,-1.5433061122894287,-2.3644731044769287,-0.9031614661216736
34.45,-6.766894340515137,1.785227656364441,-0.7341545820236206,-3.0417046546936035,-2.2320399284362793,-0.7575147747993469
34.5,-10.258935928344727,2.6450355052948,-2.800302743911743,-2.7918758392333984,-2.499699115753174,-1.4497712850570679
34.55,-9.579079627990723,6.865169525146484,-9.961174011230469,-0.6641779541969299,-5.839879512786865,-1.1267361640930176
34.6,0.8101797103881836,7.6485700607299805,-15.505232810974121,-0.35991132259368896,-9.36133098602295,0.0237751342356205
34.65,10.145689010620117,2.771131753921509,-8.94211483001709,-1.3942160606384277,-9.048360824584961,0.18297909200191498
34.7,8.178281784057617,0.29415586590766907,-5.257143974304199,-1.029700756072998,-4.689966678619385,-0.09796305745840073
34.75,4.901300430297852,0.7620293498039246,-4.886717796325684,-0.3432522714138031,-2.116834878921509,-0.014834114350378513
34.8,3.23807692527771,1.787347435951233,-4.302920818328857,-0.40190958976745605,-1.851536512374878,0.06090506538748741
34.85,1.8721257448196411,0.47404226660728455,-3.5928821563720703,-1.2672901153564453,-1.7346100807189941,-0.5148060917854309
34.9,1.1158734560012817,-0.36568915843963623,-1.9512310028076172,-1.196174144744873,-1.5566426515579224,-1.1562139987945557
34.95,1.7930641174316406,-0.4227742850780487,0.15599223971366882,0.4173406958580017,-1.4219788312911987,-1.3806647062301636
35.0,2.9867472648620605,0.125758096575737,5.637589931488037,0.7318704724311829,-2.2158286571502686,-0.5165865421295166
35.05,2.8552770614624023,0.12670956552028656,11.972877502441406,0.007791038602590561,-2.372446298599243,0.12983539700508118
35.1,3.6967334747314453,-0.1989188939332962,15.606002807617188,-0.6202355623245239,-1.2419251203536987,-0.11747455596923828
35.15,7.838533401489258,-0.8645929098129272,14.319422721862793,-0.29899731278419495,0.9659442901611328,-0.6400994062423706
35.2,13.192670822143555,-1.781936526298523,9.907991409301758,-0.9969241619110107,2.809354066848755,-0.9738423824310303
35.25,18.37523651123047,-4.0110697746276855,1.8657385110855103,-1.2010903358459473,4.805506229400635,-1.2747416496276855
35.3,16.973020553588867,-3.648678779602051,-8.952285766601562,-1.0355279445648193,6.497064590454102,-0.6891316771507263
35.35,14.059148788452148,-0.19811756908893585,-17.199337005615234,-0.4966151714324951,6.956433296203613,0.9737587571144104
35.4,6.8912153244018555,3.477982521057129,-22.650623321533203,0.3514907956123352,7.391878128051758,0.7137923836708069
35.45,-4.518426895141602,5.7511162757873535,-24.35497283935547,0.23412448167800903,8.029683113098145,-0.18425379693508148
35.5,-14.861793518066406,4.8284430503845215,-19.72873878479004,-0.7116442322731018,8.105363845825195,0.5062391757965088
35.55,-20.761125564575195,1.7695355415344238,-9.764094352722168,-1.262373924255371,7.874212741851807,1.0910075902938843
35.6,-18.85384750366211,-0.3366538882255554,0.4313153922557831,-1.2713948488235474,6.9956841468811035,1.2081605195999146
35.65,-13.147858619689941,-0.020769331604242325,8.602127075195312,-0.8537958860397339,5.832940101623535,0.6984478831291199
35.7,-7.449065208435059,-0.08303648233413696,12.230241775512695,-0.08690637350082397,3.8097140789031982,0.8949374556541443
35.75,-2.6618924140930176,-2.7484068870544434,14.37723159790039,1.1712353229522705,2.356302261352539,1.6678825616836548
35.8,-0.1873607635498047,-5.920252799987793,11.879709243774414,2.3523921966552734,1.0966510772705078,1.2181752920150757
35.85,2.2956302165985107,-8.721368789672852,9.870474815368652,1.914398431777954,0.16319425404071808,1.2006560564041138
35.9,2.2377359867095947,-9.482007026672363,9.453450202941895,0.4661613702774048,-1.371407389640808,0.7626711130142212
35.95,-4.751870632171631,-6.586214065551758,10.819384574890137,-1.5418983697891235,-3.5491580963134766,-1.468522548675537
36.0,-14.479902267456055,0.34073999524116516,7.548103332519531,-2.741208553314209,-5.332685470581055,-3.400357723236084
36.05,-17.985233306884766,6.116621971130371,-2.739318370819092,-3.23386287689209,-5.970489978790283,-4.090310096740723
36.1,-12.692757606506348,7.066326141357422,-12.26349925994873,-2.1903862953186035,-5.647159099578857,-3.921699047088623
36.15,-7.4888715744018555,5.273825168609619,-13.921795845031738,-0.5339365005493164,-4.725653648376465,-2.5655324459075928
36.2,-3.9682960510253906,4.426848411560059,-14.710564613342285,0.28810083866119385,-4.706948757171631,-0.8781954646110535
36.25,3.101667881011963,1.3155089616775513,-16.129127502441406,-0.08037799596786499,-5.610291004180908,-0.36363428831100464
36.3,9.0635986328125,-1.4138096570968628,-13.157470703125,-0.01841256022453308,-5.651499271392822,-0.8095110058784485
36.35,13.123242378234863,-5.263318061828613,-9.979268074035645,0.494169145822525,-7.255557060241699,-0.2633712589740753
36.4,23.851247787475586,-1.0393115282058716,9.384716033935547,1.545395851135254,-9.999910354614258,2.909693479537964
36.45,13.381904602050781,4.522090435028076,15.983469009399414,2.0043070316314697,-3.6293413639068604,2.524280071258545
36.5,12.287224769592285,1.0500491857528687,9.11131477355957,-1.441197395324707,-0.13567008078098297,-0.4963388442993164
36.55,15.106040954589844,-1.3763259649276733,2.829216480255127,-4.174375534057617,0.7109017372131348,-0.819133460521698
36.6,11.481254577636719,-3.5467543601989746,-3.9974112510681152,-2.803924322128296,2.8291244506835938,-0.19063737988471985
36.65,8.833553314208984,1.3263624906539917,-5.477000713348389,-0.6185133457183838,3.116248846054077,1.497109293937683
36.7,5.063587188720703,4.091324806213379,-8.537750244140625,0.003147691488265991,4.521851062774658,0.7903085947036743
36.75,0.678983211517334,5.715297698974609,-11.418073654174805,-0.7545104026794434,5.1024556159973145,0.523145318031311
36.8,-4.175917625427246,6.248810291290283,-12.789127349853516,-1.0429331064224243,5.267280101776123,1.000922441482544
36.85,-8.8143310546875,3.2305169105529785,-13.185941696166992,-1.789315938949585,5.697951793670654,1.2055739164352417
36.9,-14.721641540527344,-0.19360490143299103,-9.576388359069824,-2.2934212684631348,6.56562614440918,1.550292730331421
36.95,-15.668792724609375,-1.4874905347824097,-3.9832019805908203,-1.715490460395813,6.680521011352539,1.32915461063385
37.0,-14.664875030517578,-1.1973657608032227,0.8788246512413025,-1.5505272150039673,6.189184188842773,0.37513741850852966
37.05,-10.24293041229248,-0.3759946823120117,6.272156715393066,-1.1283347606658936,5.536177158355713,0.20288127660751343
37.1,-3.137087345123291,-3.134110450744629,8.193235397338867,1.7275686264038086,5.080408573150635,0.6680899858474731
37.15,3.3300023078918457,-5.662630558013916,9.313563346862793,3.3177742958068848,4.968243598937988,0.41764116287231445
37.2,9.545694351196289,-8.223865509033203,8.74083423614502,2.278538227081299,3.3455801010131836,-0.04341350868344307
37.25,8.239493370056152,-3.928431510925293,10.098822593688965,-0.6723053455352783,0.5652931332588196,-1.0757335424423218
37.3,6.988166332244873,-1.177781343460083,10.047097206115723,-1.9169447422027588,-1.315604329109192,-0.7215636968612671
37.35,0.21898937225341797,4.840295791625977,8.038569450378418,-2.105051279067993,-3.208853244781494,-0.39013946056365967
37.4,-3.346680164337158,3.0715513229370117,6.955778121948242,-3.5766162872314453,-3.4756553173065186,3.095608711242676
37.45,-10.881832122802734,4.29511833190918,-3.2723309993743896,-1.5451276302337646,-4.9095306396484375,0.5234094858169556
37.5,-7.837217330932617,-0.46812278032302856,-4.928277492523193,-1.1087889671325684,-4.248104572296143,0.6764758229255676
37.55,-5.716555595397949,-0.3855780363082886,-11.108542442321777,-0.24095484614372253,-4.668865203857422,-0.2539549469947815
37.6,0.062247276306152344,-2.237535238265991,-10.962121963500977,-0.05343504250049591,-3.8845081329345703,-0.322973370552063
37.65,4.429893493652344,-4.182647705078125,-8.565677642822266,0.5950025916099548,-2.8722355365753174,0.08137255162000656
37.7,6.944540023803711,-1.9428677558898926,-6.929056167602539,1.6382132768630981,-2.5776920318603516,-0.054278627038002014
37.75,6.650382995605469,-1.8162914514541626,-3.9627513885498047,0.6158633232116699,-1.6534709930419922,-0.35893577337265015
37.8,4.566788196563721,0.5188822150230408,-2.432244300842285,1.0591830015182495,-1.1493345499038696,-0.04949384555220604
37.85,0.6874599456787109,0.9221144914627075,0.7630701065063477,0.04223591834306717,-0.3986436724662781,-0.22922219336032867
37.9,-4.136314868927002,1.1536529064178467,2.9313650131225586,-1.2640297412872314,0.06292648613452911,-0.3747289478778839
37.95,-5.993526458740234,0.8054730296134949,1.0673950910568237,-0.9237936735153198,-0.8659335970878601,0.00383439171127975
38.0,-7.846348762512207,-1.4541058540344238,-1.3393336534500122,-0.5957072377204895,-1.8695253133773804,0.34985843300819397
38.05,-6.469003200531006,-3.805147409439087,-4.582528591156006,0.1737501621246338,-3.127622604370117,1.2560875415802002
38.1,-4.2945146560668945,-4.003952980041504,-7.475100517272949,0.8998993635177612,-4.019016742706299,1.4325356483459473
38.15,-1.1355071067810059,-4.1697564125061035,-9.266155242919922,1.0931967496871948,-4.408573627471924,1.0782926082611084
38.2,0.8749966621398926,-2.270277738571167,-10.41339111328125,1.5660585165023804,-4.29998254776001,0.9559651017189026
38.25,3.224294662475586,1.50890052318573,-8.363397598266602,1.8251872062683105,-3.8472836017608643,0.5847228765487671
38.3,3.1724233627319336,3.696352005004883,-4.004611968994141,3.1741268634796143,-1.8526692390441895,-2.016953706741333
38.35,1.5894696712493896,6.995880126953125,-0.8688604235649109,5.489700794219971,-0.22112981975078583,-3.00475811958313
38.4,3.4258840084075928,5.976490497589111,4.109787940979004,4.060089111328125,-1.861828327178955,-1.366791844367981
38.45,4.132406234741211,3.8290648460388184,5.925772666931152,1.3941593170166016,-2.808302879333496,-0.1380172073841095
38.5,3.8020763397216797,1.1650172472000122,5.7342963218688965,-0.13797786831855774,-2.611060380935669,0.00559335108846426
38.55,4.839447498321533,-0.40530022978782654,6.435943603515625,-0.3069903552532196,-1.9283850193023682,-0.41520559787750244
38.6,7.400972843170166,-1.2612781524658203,6.952470302581787,0.1063075065612793,-0.5820583701133728,-0.7854958772659302
38.65,9.27481460571289,-1.9300355911254883,5.904084205627441,-0.40191978216171265,0.630294919013977,-0.655541718006134
38.7,8.580147743225098,-1.3197181224822998,3.2152528762817383,-1.098107099533081,1.4843299388885498,0.14188815653324127
38.75,7.088054656982422,0.6382527351379395,-0.049456071108579636,-1.3383759260177612,2.2952511310577393,0.8489887118339539
38.8,5.46011209487915,0.9557462930679321,-3.8780267238616943,-1.5248886346817017,3.2946207523345947,0.8910864591598511
38.85,3.256103515625,0.7135339379310608,-6.464806079864502,-1.6068494319915771,3.799860715866089,0.9819949269294739
38.9,1.0183570384979248,-0.060790639370679855,-6.923258304595947,-0.9281831979751587,4.116392612457275,0.8927361369132996
38.95,-0.8176283836364746,1.2577747106552124,-7.356259346008301,-0.40993532538414,3.902008056640625,0.6370470523834229
39.0,-2.2919487953186035,2.0140395164489746,-7.040323257446289,-0.26071614027023315,3.668571949005127,0.4330173432826996
39.05,-3.7630200386047363,2.517421007156372,-6.103792190551758,-0.19851064682006836,3.386974811553955,0.8604085445404053
39.1,-6.507814407348633,2.585923194885254,-3.691635847091675,0.2983573079109192,3.1674532890319824,1.7232666015625
39.15,-7.51653528213501,2.4850738048553467,-0.7239063382148743,0.6932382583618164,2.9102604389190674,2.0039279460906982
39.2,-8.373300552368164,0.21900123357772827,1.8589568138122559,0.11404281854629517,2.936114549636841,1.6778812408447266
39.25,-7.185152053833008,-2.5561296939849854,3.098921060562134,0.04135119915008545,2.019901990890503,1.651260495185852
39.3,-4.928275108337402,-3.6545724868774414,2.4500014781951904,0.2307647168636322,1.0429133176803589,1.0213677883148193
39.35,-4.027082920074463,-4.046205043792725,2.3906729221343994,0.12844033539295197,0.6345857977867126,0.47084999084472656
39.4,-2.64825701713562,-4.484817028045654,1.7729687690734863,-0.46421146392822266,0.21135950088500977,0.22501641511917114
39.45,-1.9452263116836548,-3.9676473140716553,2.270730495452881,-0.9540923237800598,0.07122404128313065,-0.4757038354873657
39.5,0.028806865215301514,-0.12433920055627823,1.7695605754852295,-0.6539080142974854,-0.7159988880157471,-2.01349139213562
39.55,0.8357442617416382,3.7603163719177246,0.46396389603614807,-1.1358290910720825,-1.256730556488037,-3.327017307281494
39.6,1.202473521232605,4.118106365203857,-0.8994086384773254,-0.8911808729171753,-1.5035861730575562,-1.4626258611679077
39.65,0.5193749070167542,1.8818906545639038,-2.433136224746704,-0.6405271291732788,-1.6478387117385864,0.8081117272377014
39.7,-0.25074148178100586,0.3295680582523346,-2.6556849479675293,-0.2890697419643402,-1.5318008661270142,0.9230587482452393
39.75,-0.009805798530578613,-0.4080800414085388,-2.736416816711426,0.009626656770706177,-1.5442291498184204,0.8874328136444092
39.8,0.5692708492279053,-1.1903076171875,-3.102238416671753,-0.22833186388015747,-1.3207507133483887,-0.12399879842996597
39.85,2.38191556930542,0.36397111415863037,-4.2636308670043945,0.6276543736457825,-1.7228260040283203,-0.21644867956638336
39.9,-0.09604358673095703,0.704882800579071,-2.8573741912841797,0.0731944590806961,-0.917883038520813,0.5815888047218323
39.95,-3.3219637870788574,-0.7854569554328918,-0.8176618218421936,-0.39971596002578735,-0.5882710218429565,1.3030610084533691
40.0,-4.423290252685547,-0.4070037305355072,0.0709666907787323,-0.04558885097503662,-1.1028789281845093,1.3923020362854004
40.05,-5.862812519073486,-0.16969241201877594,0.2705504894256592,-0.3545210659503937,-0.894017219543457,0.2426062971353531
40.1,-6.512609958648682,0.089031882584095,-1.7412099838256836,-0.4109020233154297,-1.4787712097167969,-0.45006054639816284
40.15,-5.853987216949463,0.4755534827709198,-5.077615737915039,-0.43476220965385437,-2.6753904819488525,-0.503776490688324
40.2,-0.892622709274292,-0.3368060886859894,-6.246938705444336,-0.39031094312667847,-3.6527669429779053,-1.2085684537887573
40.25,2.0176875591278076,0.13404126465320587,-6.476798057556152,0.44569385051727295,-3.8393588066101074,-1.8073275089263916
40.3,5.463369846343994,1.0395019054412842,-6.985479831695557,0.6070660352706909,-4.058604717254639,-1.3379935026168823
40.35,9.019744873046875,-0.8838648200035095,-3.199620485305786,0.441733717918396,-4.231051921844482,-0.7990180850028992
40.4,9.074185371398926,-0.7440191507339478,2.447704792022705,1.6402429342269897,-3.3613555431365967,-0.366920530796051
40.45,7.8372802734375,-1.0170592069625854,4.506742000579834,2.5810554027557373,-1.5617247819900513,-0.49684131145477295
40.5,6.927273750305176,-2.651340961456299,5.577737808227539,2.158555746078491,-0.4307363033294678,-0.39879223704338074
40.55,7.278675079345703,-2.6711952686309814,6.572600841522217,1.8829972743988037,0.009043412283062935,0.08084356784820557
40.6,8.35392951965332,-1.565582275390625,5.919544219970703,1.2227277755737305,0.8269734382629395,0.4164813160896301
40.65,8.533458709716797,-0.2619988024234772,2.6434102058410645,0.09977549314498901,2.0807712078094482,0.7329308986663818
40.7,6.375292778015137,2.398261785507202,-0.9214244484901428,-0.8750597834587097,2.667393684387207,1.6545827388763428
40.75,3.3086087703704834,4.168530464172363,-3.39491605758667,-1.485858678817749,2.5057332515716553,2.67619252204895
40.8,-0.6803480386734009,4.652246952056885,-4.55250883102417,-1.2272685766220093,2.3933873176574707,3.199599504470825
40.85,-3.3518474102020264,4.17033052444458,-3.9396259784698486,-0.4359138011932373,2.109506607055664,3.0648787021636963
40.9,-5.493991374969482,3.8448774814605713,-2.695204734802246,0.2461223602294922,1.9742450714111328,2.8752968311309814
40.95,-8.146379470825195,-0.06923526525497437,-1.3789160251617432,0.11480879783630371,1.889590859413147,3.198401689529419
41.0,-8.697526931762695,-5.896049976348877,-0.43639323115348816,0.07815134525299072,1.2082680463790894,3.199517250061035
41.05,-7.239192962646484,-7.042704105377197,0.5490266680717468,0.8534761667251587,0.5457559823989868,1.690455675125122
41.1,-6.554391860961914,-4.251770496368408,1.4639335870742798,1.17808997631073,0.6983239650726318,-0.3198043704032898
41.15,-6.085124969482422,-2.718543767929077,2.5929129123687744,0.8343308568000793,1.313373327255249,-1.9058619737625122
41.2,-5.440697193145752,-1.5360372066497803,2.8092403411865234,0.5570499897003174,1.1059653759002686,-2.914555072784424
41.25,-5.409871578216553,2.0582940578460693,2.1373989582061768,-0.02285909652709961,-0.1977996975183487,-2.9612789154052734
41.3,-1.3026596307754517,6.678779602050781,0.04569699615240097,-1.0715713500976562,-0.8842833042144775,-3.6053032875061035
41.35,7.186002254486084,5.168785095214844,-1.8898533582687378,-0.8278989791870117,0.4643220007419586,-5.405867099761963
41.4,14.419936180114746,-1.6921637058258057,-3.4975426197052,0.6240944862365723,2.061115026473999,-4.397522926330566
41.45,4.5045928955078125,0.9862579703330994,-0.9910944104194641,1.1050232648849487,2.649967908859253,-0.2274855524301529
41.5,1.8691954612731934,1.4353582859039307,0.888441264629364,-0.04444563388824463,-1.1747161149978638,2.039818286895752
41.55,2.209169387817383,0.2569209933280945,-0.49584874510765076,-0.48504066467285156,-2.8197689056396484,1.7890359163284302
41.6,0.1297089159488678,0.5128737688064575,-0.8386198282241821,-0.6444211006164551,-2.1537489891052246,1.5330263376235962
41.65,0.6263653039932251,-0.15446080267429352,-1.8992838859558105,-0.5103055238723755,-1.6039427518844604,1.4665731191635132
41.7,1.450345516204834,0.39757174253463745,-0.6682620644569397,0.10438615083694458,-1.7650460004806519,1.2889838218688965
41.75,-0.17277148365974426,0.5640736222267151,-0.002397390780970454,0.1507277488708496,-0.8065100312232971,1.1646473407745361
41.8,-1.7357364892959595,0.1516379415988922,-0.07086889445781708,-0.00825589895248413,-0.44034039974212646,1.0903377532958984
41.85,-2.537792205810547,0.32264983654022217,0.20407643914222717,0.13318851590156555,-0.9526525139808655,0.9728628993034363
41.9,-2.289229393005371,-0.4815065562725067,0.06266351789236069,-0.18915386497974396,-1.3678122758865356,0.5872225761413574
41.95,-2.07200288772583,-1.1792967319488525,-0.752556562423706,-0.5454770922660828,-1.3287749290466309,0.09659052640199661
42.0,-0.9013711810112,-1.1267873048782349,-0.9386840462684631,-0.2846836447715759,-0.8390202522277832,-0.7012798190116882
42.05,1.2928078174591064,0.4945375323295593,-0.9261655211448669,0.4283604025840759,-0.5634466409683228,-1.7209210395812988
42.1,5.669841766357422,1.9522995948791504,0.678085446357727,0.6946876049041748,-0.7279011011123657,-2.1507065296173096
42.15,8.729597091674805,0.12794354557991028,0.4194655418395996,0.3880390524864197,0.768332839012146,-2.292046070098877
42.2,5.709416389465332,-0.1402641236782074,-1.4971964359283447,-0.435965359210968,1.8803343772888184,-0.6256929636001587
42.25,4.239770889282227,0.9937681555747986,-1.6869866847991943,-0.4867857098579407,1.1668720245361328,0.5942743420600891
42.3,4.9859747886657715,1.8524223566055298,-2.362515926361084,-0.43692123889923096,1.8439799547195435,0.8007349967956543
42.35,1.2680325508117676,1.7032170295715332,-3.5504207611083984,-0.5300887227058411,5.078775882720947,0.46413660049438477
42.4,-4.947761058807373,1.7366313934326172,-0.06208740547299385,-0.2679370939731598,5.5477166175842285,0.9883713126182556
42.45,-4.531023979187012,1.2834155559539795,1.7591973543167114,0.6152119040489197,1.2488754987716675,1.971314549446106
42.5,-4.160000324249268,0.5630499720573425,1.8514108657836914,1.214198350906372,-1.291224718093872,2.544403553009033
42.55,-5.373839855194092,-0.9292407631874084,1.9900418519973755,0.7505702972412109,-1.3143157958984375,2.4930837154388428
42.6,-6.039936542510986,-2.6562464237213135,1.5609681606292725,0.13344579935073853,-1.2063183784484863,1.9153555631637573
42.65,-5.3850626945495605,-3.4658665657043457,1.5305942296981812,-0.08501636981964111,-1.0795583724975586,0.917897641658783
42.7,-5.307162761688232,-2.957799196243286,2.0703203678131104,-0.12365712225437164,-0.2875749468803406,-0.6301205158233643
42.75,-5.1454949378967285,-1.8233262300491333,1.9488462209701538,0.14040428400039673,-0.22763784229755402,-2.0326733589172363
42.8,-3.429025411605835,-0.33712220191955566,0.21834906935691833,0.36317169666290283,-1.6329771280288696,-2.3414244651794434
42.85,-1.1560410261154175,1.04938805103302,-2.0155673027038574,-0.07590585947036743,-3.134888172149658,-1.9308645725250244
42.9,1.978349208831787,2.134093761444092,-4.228642463684082,-0.7483530044555664,-3.6205663681030273,-1.8940290212631226
42.95,6.218613147735596,1.1919008493423462,-2.3823680877685547,-0.6960610747337341,-2.59275221824646,-2.1780693531036377
43.0,8.034971237182617,0.6825137734413147,-0.5995716452598572,1.2528114318847656,0.055687740445137024,-2.4617702960968018
43.05,6.084012031555176,0.552179753780365,0.17223720252513885,2.0173466205596924,1.5005156993865967,-1.4232064485549927
43.1,2.8730506896972656,0.06583130359649658,1.1046934127807617,1.1442676782608032,0.3808356523513794,0.1801503598690033
43.15,2.9936580657958984,-0.5243072509765625,2.1716713905334473,0.5476577877998352,-1.6138265132904053,0.7402821183204651
43.2,2.9121475219726562,-0.48078158497810364,3.265288829803467,0.1809518039226532,-1.60845148563385,0.7378958463668823
43.25,2.109449863433838,0.5371379852294922,3.324937582015991,0.12747368216514587,-0.42844080924987793,0.4835449159145355
43.3,2.2885851860046387,1.0123292207717896,3.084620475769043,0.022088229656219482,0.1900216042995453,0.16445019841194153
43.35,2.468658685684204,1.029317021369934,2.2637832164764404,-0.3749236762523651,0.43730172514915466,0.24810278415679932
43.4,1.6854509115219116,1.6316626071929932,0.9097638726234436,-0.7330747246742249,0.6174942255020142,0.5225329399108887
43.45,1.2593982219696045,1.894091010093689,-0.3838038146495819,-0.9126856327056885,0.7411115169525146,0.5869954228401184
43.5,2.048950672149658,0.29956263303756714,-0.8632943630218506,-0.802644670009613,0.7994372248649597,0.340656578540802
43.55,2.0204381942749023,-1.0855340957641602,-0.8690112829208374,-0.6054215431213379,1.315597414970398,0.4100949168205261
43.6,-0.4295162558555603,0.9467660784721375,-1.6802476644515991,-0.6572809815406799,1.772828221321106,0.709814727306366
43.65,-1.4658399820327759,1.869620680809021,-3.2771003246307373,-1.2173384428024292,1.535483479499817,0.6571656465530396
43.7,-1.225285530090332,0.5036870837211609,-4.102301120758057,-1.3554296493530273,0.9925103187561035,0.649654746055603
43.75,-2.042433738708496,-0.6217861175537109,-3.6757826805114746,-0.6125596761703491,0.43369734287261963,1.2097296714782715
43.8,-2.3024375438690186,-0.5643272995948792,-2.5558860301971436,0.17591387033462524,-0.012873669154942036,1.8653301000595093
43.85,-2.9748892784118652,-0.8860752582550049,-1.330686092376709,0.18818020820617676,0.6695011258125305,1.6667759418487549
43.9,-4.124817371368408,-2.043064594268799,-0.6672719120979309,-0.2556633949279785,1.6947308778762817,1.066588044166565
43.95,-5.289270401000977,-3.0706727504730225,0.005487451795488596,-0.4258032441139221,1.8272182941436768,0.668349027633667
44.0,-5.322145462036133,-3.0832436084747314,0.684211015701294,-0.04857056215405464,1.1461055278778076,0.13635367155075073
44.05,-4.289205551147461,-1.459326148033142,1.001017689704895,0.45553600788116455,0.36160603165626526,-0.7440348863601685
44.1,-2.65061092376709,0.17925722897052765,0.5897399187088013,0.49365484714508057,-0.10776019096374512,-1.5542105436325073
44.15,-0.9788324236869812,1.063307762145996,0.2774573564529419,0.36270254850387573,-0.36661070585250854,-1.816133975982666
44.2,0.6048017740249634,1.4534302949905396,0.12195111066102982,0.24337273836135864,-0.40110456943511963,-1.7331095933914185
44.25,1.1306716203689575,1.3639042377471924,-0.3152156174182892,-0.004050254821777344,-0.046082306653261185,-1.5720152854919434
44.3,1.0120598077774048,1.0935823917388916,-0.5095106959342957,-0.15110468864440918,0.08729830384254456,-1.305898904800415
44.35,1.3235433101654053,1.0155670642852783,-1.2275800704956055,-0.07468146085739136,-0.2620868384838104,-1.038618803024292
44.4,2.463252305984497,0.20861651003360748,-1.720553994178772,-0.1270758956670761,-0.7201507091522217,-0.6522315144538879
44.45,1.1220881938934326,0.541242778301239,-0.7856695055961609,0.38685786724090576,-0.4356140196323395,-0.27799803018569946
44.5,1.3173084259033203,0.40883174538612366,-0.07519236207008362,0.5749174356460571,-0.6577500700950623,-0.2599300742149353
44.55,0.9042311906814575,-0.15080639719963074,0.28219589591026306,0.45230066776275635,-0.6819027066230774,-0.12726269662380219
44.6,1.2278401851654053,-0.4940805733203888,0.6208035349845886,0.4059464633464813,-0.4296492338180542,-0.24669981002807617
44.65,0.07394593954086304,0.2614917755126953,0.5038326382637024,0.37647780776023865,0.03720942512154579,-0.37322893738746643
44.7,-0.23227983713150024,-0.9896279573440552,0.008642622269690037,-0.014455437660217285,-0.02704157494008541,-0.39794960618019104
44.75,-1.072028636932373,-1.6408226490020752,-0.38906189799308777,-0.04236699640750885,-0.2604273855686188,-0.5246409773826599
44.8,-1.231381893157959,-0.3166256844997406,-0.22188052535057068,0.14677295088768005,-1.076412558555603,-0.23243114352226257
44.85,-0.629642903804779,1.0394107103347778,-0.926959753036499,-0.13492999970912933,-1.54363214969635,-0.08694436401128769
44.9,-0.9012270569801331,-0.09400743991136551,-2.547992706298828,-0.7730951905250549,-1.7222486734390259,0.14378683269023895
44.95,-1.0771119594573975,0.9640885591506958,-1.9601300954818726,-0.6356418132781982,-2.019312858581543,0.42138078808784485
45.0,-1.5440491437911987,0.8269091844558716,-1.6860897541046143,0.18538542091846466,-1.4844218492507935,-0.06601058691740036
45.05,-0.35502398014068604,0.5939493775367737,-0.6170801520347595,0.9766119122505188,-1.0634487867355347,-0.7860966920852661
45.1,2.074465751647949,1.2446234226226807,0.8495194911956787,2.0414464473724365,-0.40493300557136536,-1.2353556156158447
45.15,3.8949060440063477,1.6514190435409546,1.8670339584350586,3.376999616622925,0.6329476237297058,-0.9486710429191589
45.2,4.703202247619629,0.7467986941337585,3.880260467529297,3.5360546112060547,0.8268969058990479,-0.6158909201622009
45.25,4.48014497756958,-0.41586023569107056,5.412590980529785,2.6719369888305664,0.7541187405586243,-0.3011215329170227
45.3,3.001216411590576,-0.8799497485160828,4.6853461265563965,1.3447411060333252,0.37454476952552795,0.26979896426200867
45.35,0.9617413282394409,-1.0406677722930908,4.124504089355469,0.3999535143375397,-0.4749745726585388,0.512538492679596
45.4,-0.5135529041290283,-1.4020637273788452,5.207483291625977,0.26589950919151306,-1.1954210996627808,0.3307575583457947
45.45,-0.05559539794921875,-1.2076572179794312,5.657220840454102,-0.053781624883413315,-0.8425207734107971,0.13197186589241028
45.5,-2.0570130348205566,0.9774025678634644,2.898334264755249,-1.3908138275146484,-0.33032143115997314,0.24559685587882996
45.55,0.8508527278900146,-0.2959870398044586,-1.3166906833648682,-2.6562514305114746,-0.7792218923568726,-0.48112231492996216
45.6,-1.3809630870819092,-0.15106472373008728,-5.27484655380249,-0.8682647943496704,2.114471673965454,0.2570948600769043
45.65,-1.7099052667617798,0.1831103265285492,-3.722756862640381,1.1452298164367676,2.8443586826324463,-0.038465049117803574
45.7,0.18332266807556152,0.24597187340259552,-3.208813428878784,1.1305856704711914,1.8048087358474731,-0.13451577723026276
45.75,0.8551472425460815,0.6453010439872742,-1.923945426940918,0.9111112952232361,0.9389752745628357,0.23089291155338287
45.8,1.3023197650909424,0.6434041857719421,-0.48264211416244507,0.7470192313194275,0.4325007498264313,0.4222203195095062
45.85,0.49455010890960693,0.8424445390701294,0.07530200481414795,0.5630001425743103,0.08792445808649063,0.6496515274047852
45.9,0.33426496386528015,0.3502797782421112,1.4016098976135254,0.8266472220420837,-0.08630016446113586,0.529166042804718
45.95,0.10599720478057861,-0.3913080394268036,3.076974391937256,0.9589883089065552,0.08975327014923096,0.41692832112312317
46.0,-0.5368504524230957,-0.8405926823616028,3.3875579833984375,0.654137372970581,0.16697637736797333,0.477863073348999
46.05,-1.2377737760543823,-1.1279405355453491,3.8864800930023193,0.3689241111278534,-0.21512964367866516,0.31061697006225586
46.1,-0.546865701675415,-0.8877300024032593,4.586498737335205,0.0666666179895401,-0.40829727053642273,-0.07269900292158127
46.15,-1.1892462968826294,0.08478136360645294,4.731197357177734,-0.4139460623264313,-0.2074706107378006,-0.016172900795936584
46.2,0.6827974319458008,1.5813894271850586,4.833711624145508,-0.9445414543151855,-0.2576926648616791,-0.3973962962627411
46.25,1.2145122289657593,2.4259798526763916,2.821286201477051,-1.4841066598892212,0.061633240431547165,-0.3119232654571533
46.3,0.6443528532981873,1.6592810153961182,1.9679054021835327,-1.8767602443695068,0.11482591181993484,-0.18530438840389252
46.35,1.2472389936447144,0.551376461982727,0.8229283690452576,-2.300985813140869,0.29211148619651794,-0.24339233338832855
46.4,2.2809529304504395,0.21072982251644135,-1.1976805925369263,-2.5415501594543457,0.440665066242218,0.003725561546161771
46.45,1.9085625410079956,-0.7945812940597534,-2.467524528503418,-2.284578561782837,0.4561103582382202,0.3747929036617279
46.5,1.1653740406036377,-0.6686762571334839,-2.7767553329467773,-1.5255858898162842,0.21525804698467255,0.9861753582954407
46.55,-0.6459051966667175,-0.07840815931558609,-2.678727626800537,-0.8364841938018799,0.2614595592021942,1.1835927963256836
46.6,-0.3056102991104126,0.29466354846954346,-2.0222690105438232,-0.5587145090103149,-0.5995665192604065,1.4680812358856201
46.65,-0.9416581392288208,-0.9326821565628052,-1.7538954019546509,-0.2569082975387573,-0.36072519421577454,1.5656311511993408
46.7,-1.5575151443481445,-1.1638891696929932,-0.22480157017707825,0.49424147605895996,-0.43793678283691406,1.7111505270004272
46.75,-2.3485376834869385,-0.834339439868927,0.5419199466705322,0.9189321994781494,-0.6064709424972534,1.6986603736877441
46.8,-3.8853302001953125,-0.9242709279060364,-0.5991283059120178,0.28670722246170044,-0.6278664469718933,1.721520185470581
46.85,-2.8599512577056885,-1.4387028217315674,-1.469136118888855,-0.06876271963119507,-1.7152718305587769,1.466733694076538
46.9,0.46301841735839844,0.10064509510993958,0.3097022473812103,0.9687473773956299,-1.6678645610809326,-0.10150886327028275
46.95,1.806024432182312,2.474914789199829,2.3141250610351562,1.5378313064575195,0.7569024562835693,-1.2992017269134521
47.0,2.428133726119995,2.473076105117798,1.8540523052215576,0.3937883973121643,3.138672113418579,-1.5539021492004395
47.05,1.5225955247879028,1.4530068635940552,1.0486581325531006,-0.5451371669769287,4.0819854736328125,-1.2149461507797241
47.1,0.5316433906555176,1.5087530612945557,0.99028080701828,-1.018120288848877,3.2387752532958984,-0.6078002452850342
47.15,-0.081864133477211,1.9776737689971924,0.501776933670044,-1.3338924646377563,1.5492879152297974,0.13331705331802368
47.2,0.25396591424942017,2.2200167179107666,-0.1012549176812172,-1.4052027463912964,0.06896395236253738,0.6971479654312134
47.25,0.05790570378303528,1.8960249423980713,-0.7852398157119751,-1.230656385421753,-0.7191177010536194,1.076965093612671
47.3,1.3300236463546753,2.0939724445343018,-0.5131085515022278,-0.7946732044219971,-1.3693764209747314,1.628997802734375
47.35,0.9570968747138977,1.7488254308700562,-0.6224969029426575,-0.769294023513794,-0.17348632216453552,1.1459882259368896
47.4,-0.9807364344596863,0.36369040608406067,-1.063880205154419,-1.2339723110198975,0.6918277144432068,1.1193164587020874
47.45,-2.7805099487304688,-1.380519986152649,-2.1913070678710938,-1.3513822555541992,0.42445796728134155,1.918670654296875
47.5,-3.229320764541626,-3.2336578369140625,-2.519364595413208,-1.0841139554977417,0.0865991935133934,2.183518648147583
47.55,-2.619591236114502,-4.003295421600342,-2.2745347023010254,-0.5767050981521606,0.13948211073875427,1.4964041709899902
47.6,-2.7282352447509766,-3.7792649269104004,-1.5908846855163574,-0.3158274292945862,0.4474985897541046,0.579574465751648
47.65,-2.6522181034088135,-3.767368793487549,-1.3302662372589111,-0.2081829309463501,0.4900682866573334,0.1287688910961151
47.7,-2.3100271224975586,-3.4409751892089844,-1.1428184509277344,0.04651986062526703,0.5189920663833618,-0.37212029099464417
47.75,-2.3233389854431152,-2.264815092086792,-0.6489927172660828,0.40940916538238525,0.6248149275779724,-1.011580228805542
47.8,-1.900568962097168,-1.4628727436065674,-0.8538278937339783,0.59215247631073,0.4457572102546692,-1.3059781789779663
47.85,-1.1912670135498047,-0.8612014651298523,-0.6049156188964844,0.769992470741272,0.27658921480178833,-1.3655016422271729
47.9,0.01160082221031189,0.11682038009166718,-0.5655922293663025,1.0378729104995728,-0.05004005506634712,-1.6510028839111328
47.95,1.0747087001800537,-0.001721277367323637,-0.9133942723274231,0.96669602394104,-0.3560001850128174,-1.4291046857833862
48.0,1.023045301437378,0.2787705659866333,-0.4978722631931305,1.074220895767212,-0.6274228692054749,-0.8825290203094482
48.05,1.8413355350494385,0.6195289492607117,-0.3926090598106384,1.1692824363708496,-0.883686900138855,-0.9553523659706116
48.1,1.887909173965454,1.135742425918579,0.2736840546131134,1.1011372804641724,-0.5958190560340881,-1.1065635681152344
48.15,1.256242036819458,1.1834489107131958,1.182041049003601,0.9479912519454956,-0.36253660917282104,-1.1717454195022583
48.2,1.0683797597885132,1.7088329792022705,1.8746922016143799,0.791886568069458,-0.6478643417358398,-1.2144309282302856
48.25,1.9710237979888916,2.3967554569244385,2.455594778060913,0.7118535041809082,-1.0948596000671387,-1.2630399465560913
48.3,2.0059430599212646,2.0157968997955322,2.128469705581665,0.4228785037994385,-1.5291439294815063,-0.8378138542175293
48.35,1.7275538444519043,1.8573200702667236,1.6364892721176147,-0.1263483762741089,-2.341205358505249,0.011769291944801807
48.4,1.5741347074508667,1.1669236421585083,2.1664881706237793,-0.3341975212097168,-2.339313268661499,0.5147672891616821
48.45,1.1913526058197021,1.2553941011428833,2.4388427734375,-0.035708487033843994,-1.2284412384033203,0.5672146081924438
48.5,-0.8861169219017029,2.301520347595215,1.7906402349472046,-0.06097155809402466,-0.9562459588050842,0.8884672522544861
48.55,-0.6356673240661621,2.2218286991119385,-0.2401542365550995,-0.6437321901321411,-2.81420636177063,1.581942081451416
48.6,1.0921413898468018,0.6801263689994812,-1.828850507736206,-1.0067298412322998,-4.170261859893799,2.1125152111053467
48.65,2.6897971630096436,1.9382537603378296,-0.4695546329021454,-0.010883450508117676,-4.386446952819824,2.723613977432251
48.7,1.4487470388412476,3.145669460296631,0.9122880101203918,0.19170141220092773,-3.5224804878234863,3.3035895824432373
48.75,0.825630247592926,3.706556797027588,2.2182865142822266,-0.29546356201171875,-2.069728374481201,3.090954542160034
48.8,-1.147200345993042,5.050029277801514,3.3114585876464844,-0.801821231842041,-1.2676838636398315,3.277801513671875
48.85,-2.6239259243011475,2.7837839126586914,1.3688421249389648,-2.090731620788574,-0.493290513753891,3.064340114593506
48.9,-4.543870449066162,-3.7485573291778564,0.16456718742847443,-3.0432751178741455,-0.5130617618560791,2.8391811847686768
48.95,-3.5293593406677246,-10.18458366394043,-0.855150043964386,-3.4291903972625732,-0.4085915684700012,0.892268717288971
49.0,-0.6155907511711121,-7.816681861877441,-2.3432037830352783,-2.1444427967071533,-1.0104265213012695,-0.9438508152961731
49.05,-0.3311598300933838,-3.6430091857910156,-2.7624247074127197,-0.7343449592590332,-0.37439221143722534,-1.260878086090088
49.1,0.19276654720306396,-0.34660428762435913,-1.7612695693969727,0.13809779286384583,-0.07457997649908066,-0.8202197551727295
49.15,0.44669434428215027,-0.258789986371994,-0.7818266749382019,0.2971208691596985,-0.20949803292751312,-0.2994808852672577
49.2,0.20576699078083038,-1.4882460832595825,0.263869047164917,0.34695175290107727,-0.18630351126194,-0.2912890911102295
49.25,-1.0907418727874756,-3.163513660430908,0.8770976066589355,0.08051270246505737,-0.07380124181509018,-1.2216391563415527
