Time [s],Acc_x [m/s^2],Acc_y [m/s^2],Acc_z [m/s^2],Gyro_x [1/s],Gyro_y [1/s],Gyro_z [1/s]
0.0,0.03628665953874588,0.0251550804823637,-0.1364804059267044,0.0014520883560180664,0.028097955510020256,0.003109069773927331
0.05,-0.015564069151878357,0.014451989904046059,-0.17387981712818146,0.02073456533253193,0.06626870483160019,-0.0049951644614338875
0.1,0.0026128366589546204,-0.00621222797781229,-0.15773943066596985,0.0383865088224411,0.05172158032655716,-0.006727169267833233
0.15,-0.06212848052382469,0.03963756933808327,-0.09006015211343765,0.048425160348415375,0.037379518151283264,-0.010058467276394367
0.2,0.029566332697868347,0.056207671761512756,-0.09355651587247849,0.05941445380449295,0.02530936524271965,0.005510829389095306
0.25,-0.07766873389482498,0.14188577234745026,-0.08073690533638,0.060988347977399826,0.05342596024274826,0.0017841218505054712
0.3,-0.07147467136383057,0.1960163414478302,-0.019393285736441612,0.04694273695349693,0.033171217888593674,0.0010409714886918664
0.35,-0.03107178583741188,0.17588426172733307,0.026812708005309105,0.025587264448404312,0.04347221180796623,-0.0134201655164361
0.4,-0.08158638328313828,0.13756752014160156,0.06479411572217941,0.004574623890221119,0.03921695798635483,-0.020072314888238907
0.45,-0.052307501435279846,0.16411305963993073,0.0657092034816742,-0.010155048221349716,0.03732229396700859,-0.014021513052284718
0.5,0.009588263928890228,0.20824626088142395,0.08785239607095718,-0.020651375874876976,0.029085056856274605,-0.009876559488475323
0.55,-0.03981661796569824,0.17605973780155182,0.01233810093253851,-0.0318966880440712,0.017199356108903885,-0.008398265577852726
0.6,0.002940598875284195,0.12923528254032135,-0.01891791634261608,-0.039587557315826416,0.004240854177623987,-0.005874476861208677
0.65,-0.0020593171939253807,0.09853173792362213,-0.012735162861645222,-0.03958951681852341,0.0033731646835803986,-0.0023368762340396643
0.7,-0.015334665775299072,0.07068157941102982,-0.05675336346030235,-0.024454711005091667,0.00174613983836025,0.011026393622159958
0.75,-0.0550663098692894,0.019728662446141243,-0.06189746782183647,-0.005960031412541866,0.006505266297608614,0.015987597405910492
0.8,-0.041852034628391266,0.06538773328065872,-0.03948326036334038,0.009312102571129799,-0.014749880880117416,0.01989402249455452
0.85,-0.05233154445886612,0.1160278469324112,0.007690051104873419,0.020776886492967606,-0.012208390980958939,0.012275459244847298
0.9,-0.02428208664059639,0.05549050122499466,-0.026189710944890976,0.024400154128670692,-0.021170001477003098,0.006967183668166399
0.95,0.08478975296020508,-0.08010005950927734,-0.09918376058340073,0.017223846167325974,-0.013911091722548008,0.003955247346311808
1.0,-0.19688929617404938,0.13806533813476562,0.18048560619354248,0.04919809848070145,0.024142716079950333,-0.020092470571398735
1.05,-0.014073651283979416,0.15912534296512604,0.10941431671380997,0.11608575284481049,-0.06945487856864929,0.015691081061959267
1.1,0.19177871942520142,0.3285990059375763,0.06338479369878769,0.07522295415401459,-0.03948371112346649,0.02121494524180889
1.15,-0.0038238614797592163,0.2660703957080841,0.08238212019205093,-0.054152749478816986,0.031787607818841934,-0.04124858230352402
1.2,0.10119331628084183,0.07776929438114166,0.03126786649227142,-0.13233284652233124,-0.019025176763534546,-0.03955691307783127
1.25,-0.014613337814807892,-0.08073998242616653,-0.09102439880371094,-0.11430390179157257,-0.02225123718380928,-0.00708681158721447
1.3,-0.15425702929496765,0.019472114741802216,0.01271040178835392,-0.012881437316536903,-0.01630217209458351,0.023607831448316574
1.35,-0.906609296798706,0.27267739176750183,0.4356822371482849,0.13426947593688965,-0.3322587013244629,0.07664220780134201
1.4,-1.3290443420410156,0.7859458923339844,0.2847527861595154,0.22017540037631989,-1.8280457258224487,0.2995776832103729
1.45,1.1106071472167969,0.423318088054657,-1.06821608543396,-0.05358506739139557,-3.434091567993164,0.47871387004852295
1.5,2.4875545501708984,-0.389821857213974,-1.1008057594299316,-0.2930316925048828,-2.1467642784118652,0.07163288444280624
1.55,1.1354206800460815,-0.48749059438705444,-0.9737829566001892,-0.26199403405189514,0.44801047444343567,-0.20294567942619324
1.6,0.479288250207901,-0.27085012197494507,-1.2933449745178223,-0.29575932025909424,2.2554194927215576,-0.13002382218837738
1.65,-0.36949658393859863,-0.2291984260082245,-1.723404049873352,-0.30995726585388184,3.7121713161468506,-0.13544531166553497
1.7,-0.8612657785415649,-0.05775352567434311,-1.9886369705200195,-0.3008676767349243,4.519765377044678,-0.3149475157260895
1.75,-2.052671194076538,1.2308549880981445,-1.0407167673110962,-0.6358357071876526,4.949885845184326,-0.6687695980072021
1.8,-3.0919201374053955,2.4930620193481445,3.1589996814727783,-1.2771568298339844,4.174942970275879,-0.8595327138900757
1.85,-1.04463529586792,1.7820063829421997,2.3782927989959717,-1.1990272998809814,1.1441057920455933,-0.1235261932015419
1.9,-2.099207878112793,1.1644189357757568,4.341578483581543,-1.1036598682403564,-0.40667814016342163,0.016937702894210815
1.95,0.5083175301551819,0.5889521241188049,0.7325304746627808,-0.8096470832824707,-2.6055893898010254,0.5489587783813477
2.0,1.674133539199829,0.8974640369415283,0.131666898727417,-1.1961778402328491,-2.0754761695861816,0.3897177577018738
2.05,1.0317012071609497,1.360627293586731,1.0945624113082886,-1.8397122621536255,-0.4947058856487274,-0.35396507382392883
2.1,1.3714239597320557,1.3151551485061646,0.5772262215614319,-2.423086643218994,0.08757978677749634,-0.37279295921325684
2.15,0.9592832326889038,1.8743031024932861,0.244729682803154,-3.012223720550537,0.6316387057304382,-0.7745464444160461
2.2,1.4522616863250732,0.128820538520813,-0.5546451807022095,-3.381978988647461,0.5328404903411865,-0.26364371180534363
2.25,0.03982986509799957,-1.004628300666809,-0.4415239095687866,-3.16926908493042,0.42767345905303955,0.14167633652687073
2.3,0.6625823378562927,-2.406107187271118,-0.8154471516609192,-2.3899431228637695,-0.01181540172547102,1.5102711915969849
2.35,0.42269209027290344,-2.6804420948028564,-1.2184758186340332,-1.4652068614959717,-0.27271196246147156,1.7254998683929443
2.4,-0.9758836030960083,-1.8592970371246338,-1.6076420545578003,-0.5835283994674683,-0.4306751489639282,1.4260870218276978
2.45,-0.4055383801460266,-1.9900352954864502,-1.4029303789138794,-0.02882564067840576,-0.4667680859565735,1.2766144275665283
2.5,-0.5749655961990356,-0.8868151307106018,-1.6120026111602783,0.37060546875,-0.42390739917755127,0.2580242455005646
2.55,1.1430299282073975,-0.34585368633270264,-1.650512933731079,0.5326616168022156,-0.18356092274188995,-0.48109373450279236
2.6,0.5622434616088867,-1.7826454639434814,-0.019615931436419487,0.5194619297981262,0.232024684548378,-1.4420002698898315
2.65,0.7480099201202393,-1.1952018737792969,-0.8304632902145386,0.9929097890853882,0.4303048253059387,-0.5988731980323792
2.7,1.3960325717926025,1.0133860111236572,-0.7899377942085266,1.2151118516921997,0.08694685995578766,0.08047933131456375
2.75,0.20726990699768066,-0.07660584151744843,1.0773910284042358,1.033550500869751,0.06100056320428848,0.029875759035348892
2.8,0.8766434192657471,-3.3238301277160645,1.6058237552642822,1.4646759033203125,-0.18762437999248505,0.7865426540374756
2.85,0.7861952781677246,-4.3420186042785645,0.5222434997558594,2.66159987449646,-0.3858500123023987,0.9659595489501953
2.9,0.3109774589538574,-2.4173247814178467,-1.920729160308838,4.241325855255127,-0.2891024947166443,1.005069613456726
2.95,-0.19544363021850586,3.0668160915374756,-4.639039993286133,5.4486494064331055,0.4217333495616913,0.8282378315925598
3.0,-0.6839996576309204,8.168651580810547,-4.511947154998779,5.243620872497559,1.6480647325515747,0.6916626691818237
3.05,0.4186692237854004,3.8250014781951904,-3.4952361583709717,2.9348978996276855,2.3724563121795654,0.33945876359939575
3.1,0.04247197508811951,0.6861982941627502,0.26682811975479126,0.5605735182762146,0.6175073385238647,-0.3895111680030823
3.15,-0.24785250425338745,0.9125795364379883,1.8017200231552124,0.08379283547401428,-0.15180344879627228,-0.35892224311828613
3.2,-1.9883825778961182,-1.4788697957992554,3.862276315689087,-0.23537088930606842,1.8072789907455444,-0.37475648522377014
3.25,-0.49338817596435547,-2.8892822265625,3.9722707271575928,0.7246872186660767,1.5981558561325073,-0.21916942298412323
3.3,0.2773106098175049,-0.9433273077011108,5.214229583740234,1.774672031402588,0.9742472171783447,-0.307170569896698
3.35,1.0406873226165771,1.4327001571655273,4.7007060050964355,1.6146411895751953,-0.027807660400867462,-0.37742018699645996
3.4,2.18723201751709,2.0041115283966064,1.2102097272872925,-0.013229161500930786,-0.6951181292533875,-0.6014281511306763
3.45,2.757554292678833,1.2827112674713135,1.5256417989730835,-1.0594100952148438,-0.42431655526161194,-0.601762592792511
3.5,4.252078056335449,0.5574439764022827,-1.506809949874878,-1.262252926826477,-0.019949590787291527,-0.27329230308532715
3.55,2.297334909439087,1.4502832889556885,-0.5429395437240601,0.10374623537063599,-0.5481778979301453,0.37713316082954407
3.6,1.7238812446594238,2.538367509841919,-0.37169790267944336,0.1902991682291031,-0.8661320805549622,0.4857068359851837
3.65,-1.147477149963379,1.232686996459961,2.3245460987091064,-0.6247914433479309,0.15730129182338715,0.43410009145736694
3.7,-0.701318621635437,-0.3904534876346588,1.2394754886627197,-0.8326205015182495,-0.17782314121723175,0.47116032242774963
3.75,-1.1642616987228394,-1.0967648029327393,1.0323487520217896,-1.0384221076965332,0.14082954823970795,0.4247312545776367
3.8,-1.706388235092163,-0.5519000887870789,0.5312125086784363,-0.9215680360794067,-0.009476610459387302,0.4541027545928955
3.85,-1.657371997833252,-0.042331766337156296,-0.6598555445671082,-0.7814777493476868,-0.3039887249469757,0.49347323179244995
3.9,-1.9370678663253784,-0.04853253811597824,-1.4103055000305176,-0.8614163398742676,-0.26220574975013733,0.3805157542228699
3.95,-1.9455270767211914,0.09861946105957031,-2.1029772758483887,-0.9511901140213013,-0.2418234944343567,0.2274048775434494
4.0,-1.8345998525619507,-0.3271503746509552,-2.26212739944458,-0.9598821997642517,-0.1051088273525238,0.012091808021068573
4.05,-1.6692588329315186,-0.9148999452590942,-2.0333847999572754,-0.8557361364364624,-0.06361205875873566,-0.22782009840011597
4.1,-1.3859745264053345,-1.063710331916809,-1.8453768491744995,-0.5425137281417847,-0.3280535042285919,-0.31624603271484375
4.15,-0.9328595995903015,-0.9803973436355591,-1.6454683542251587,-0.08957520872354507,-0.6265337467193604,-0.30549657344818115
4.2,-0.48509031534194946,-0.6354131698608398,-1.4809104204177856,0.4267808198928833,-0.7084381580352783,-0.2812040448188782
4.25,-0.031964778900146484,-0.04611677676439285,-1.19617760181427,0.8572309017181396,-0.6097986698150635,-0.2106836885213852
4.3,0.3537747263908386,0.6765471696853638,-1.0648930072784424,1.0331408977508545,-0.4261467456817627,-0.1185365617275238
4.35,0.6933948993682861,0.9082843661308289,-0.7784538269042969,0.909462571144104,-0.17737972736358643,-0.1569950431585312
4.4,0.5692821145057678,0.9578220248222351,-0.08780744671821594,0.6477770209312439,-0.09254846721887589,-0.23934794962406158
4.45,0.6769481897354126,0.5685167908668518,0.7984628677368164,0.5435964465141296,-0.2605001628398895,-0.20023314654827118
4.5,0.5271879434585571,0.34780216217041016,1.383294701576233,0.4870007038116455,-0.2633022665977478,-0.0834791287779808
4.55,0.6784532070159912,-0.004200958646833897,1.3273996114730835,0.5029646754264832,-0.17910362780094147,0.11525407433509827
4.6,0.33286333084106445,0.2074422836303711,0.9412330389022827,0.34546205401420593,0.16255368292331696,0.25835859775543213
4.65,-0.04990887641906738,0.5912103652954102,0.8056251406669617,0.08727407455444336,0.52960205078125,0.29673710465431213
4.7,-0.28928160667419434,0.5970907211303711,1.0834732055664062,-0.15862056612968445,0.7761739492416382,0.19866399466991425
4.75,-0.6283959746360779,0.11503783613443375,1.3350603580474854,-0.31210857629776,0.7519935965538025,0.12737315893173218
4.8,-0.5184571743011475,-0.37084588408470154,0.8167980909347534,-0.3463607430458069,0.3593069612979889,0.12645791471004486
4.85,-0.3185291588306427,-0.03974536433815956,0.27251917123794556,-0.3506476879119873,0.16589617729187012,0.0788523405790329
4.9,-0.3366193175315857,0.3042936325073242,-0.09862593561410904,-0.34025341272354126,0.20347751677036285,-0.001849576598033309
4.95,-0.07232122123241425,0.05162239447236061,0.011383667588233948,-0.31728434562683105,0.0808185562491417,-0.13787667453289032
5.0,-0.08531855046749115,-0.359657347202301,0.3132164180278778,-0.2731590270996094,-0.39180096983909607,-0.1444794237613678
5.05,0.1519792675971985,-0.0029258443973958492,-0.4230087995529175,-0.15609687566757202,-0.9151429533958435,0.06266463547945023
5.1,0.5993320941925049,0.2622319459915161,-0.9429898262023926,-0.06487739086151123,-0.7189697027206421,0.13530974090099335
5.15,0.27589350938796997,0.02398780919611454,-0.40443184971809387,-0.02788304165005684,-0.03831524774432182,-0.0038775894790887833
5.2,-0.1987607479095459,-0.17408373951911926,0.07646946609020233,-0.04499857872724533,-0.15158316493034363,0.014242194592952728
5.25,0.252221941947937,-0.07826517522335052,-0.22072038054466248,0.017381086945533752,-0.7085184454917908,0.17919614911079407
5.3,0.47223377227783203,0.40230095386505127,-0.9304118752479553,0.011447735130786896,-0.38963747024536133,0.23925279080867767
5.35,0.15203112363815308,0.8906757235527039,-1.2527434825897217,-0.12323114275932312,0.5167105197906494,0.1101059764623642
5.4,-0.09729848802089691,0.2473011463880539,-0.3705766201019287,-0.21749824285507202,1.1552249193191528,-0.15256965160369873
5.45,-0.37046313285827637,-0.601105809211731,1.1269335746765137,-0.0873679369688034,0.959625244140625,-0.2567884922027588
5.5,0.028660088777542114,-0.47782620787620544,0.7692306637763977,0.24846312403678894,0.16832304000854492,-0.008517834357917309
5.55,0.5078016519546509,0.4938574433326721,0.33596163988113403,0.6121038794517517,0.13821417093276978,0.11687517911195755
5.6,-0.0961451530456543,1.1638489961624146,0.858490526676178,0.6470260620117188,0.6644459962844849,0.097574882209301
5.65,-0.31666311621665955,0.45888328552246094,1.057007074356079,0.30687713623046875,0.34856730699539185,0.12440862506628036
5.7,-0.3699699342250824,0.10226911306381226,1.0849367380142212,0.028701215982437134,-0.43174073100090027,0.17371505498886108
5.75,-0.041610896587371826,-0.12704472243785858,0.684438943862915,-0.09718968719244003,-0.5629360675811768,0.20435570180416107
5.8,-0.36347198486328125,0.44668105244636536,0.14198137819766998,-0.21756047010421753,-0.05911644920706749,0.13161592185497284
5.85,0.07003362476825714,0.21367935836315155,-0.3343229591846466,-0.412411630153656,0.09336236864328384,-0.032141558825969696
5.9,-0.05642450228333473,-0.31955626606941223,-0.08803518116474152,-0.5996699333190918,-0.03528788685798645,-0.1921824812889099
5.95,0.10508019477128983,-0.24573518335819244,-0.2849029302597046,-0.566295862197876,-0.4391041696071625,-0.13186916708946228
6.0,0.5837186574935913,0.028963156044483185,-0.6410375833511353,-0.3142533004283905,-0.5273008346557617,0.003923943266272545
6.05,0.7124345898628235,0.03172215446829796,-0.8770138025283813,-0.12088638544082642,-0.0851656123995781,-0.008739075623452663
6.1,0.6097142696380615,0.16474924981594086,-1.0962932109832764,-0.05044536665081978,0.14636433124542236,-0.011207912117242813
6.15,0.4698491394519806,0.10758408159017563,-0.926404595375061,-0.07045987248420715,0.08498503267765045,0.027834704145789146
6.2,0.4468775987625122,-0.0332908071577549,-0.7199749946594238,-0.05078301951289177,0.06661716848611832,0.06822854280471802
6.25,0.19081324338912964,-0.0021333384793251753,-0.4315266013145447,0.05599934980273247,0.24924753606319427,0.06845413893461227
6.3,0.1264541745185852,0.07998468726873398,-0.10655540227890015,0.23008865118026733,0.3175511360168457,0.08109498769044876
6.35,0.166708841919899,-0.18451787531375885,0.0983843207359314,0.37981748580932617,0.22198839485645294,0.12298218905925751
6.4,0.15355251729488373,-0.31678107380867004,0.14592856168746948,0.4263637661933899,0.16169029474258423,0.14394856989383698
6.45,-0.05956019461154938,-0.029500985518097878,0.353205144405365,0.3787086009979248,0.14605793356895447,0.1138906255364418
6.5,-0.16244545578956604,0.5812950134277344,0.4890003502368927,0.3164481222629547,0.1293404996395111,0.07102174311876297
6.55,-0.023145198822021484,0.25073814392089844,0.5702404975891113,0.21891826391220093,0.1613496094942093,-0.002992461435496807
6.6,-0.05307832360267639,-0.022905385121703148,0.6414762139320374,0.06943221390247345,0.12721610069274902,-0.07018813490867615
6.65,0.19790975749492645,-0.2734718918800354,0.6060462594032288,-0.03963637351989746,0.07011951506137848,-0.10061556100845337
6.7,0.14778247475624084,0.17771433293819427,0.8384064435958862,-0.10194046050310135,0.09459316730499268,-0.1398058533668518
6.75,0.35067981481552124,0.5804482102394104,0.7207500338554382,-0.04542752727866173,-0.10643485188484192,-0.0972777009010315
6.8,0.5154132843017578,0.7219582200050354,0.6720307469367981,0.007961572147905827,-0.33816206455230713,-0.03534524515271187
6.85,0.6215030550956726,0.7085028886795044,-0.05764765292406082,-0.048268575221300125,-0.43434932827949524,0.07845758646726608
6.9,0.4468977153301239,0.5289536714553833,-0.6622313857078552,-0.35311397910118103,-0.1237047091126442,0.09685865044593811
6.95,-0.03234601020812988,-0.013042421080172062,-0.6932266354560852,-0.6173248291015625,0.16531650722026825,0.04084659740328789
7.0,-0.2906123101711273,-0.22300437092781067,-0.4088984429836273,-0.6027629971504211,0.1596076637506485,0.007129115052521229
7.05,-0.13593825697898865,-0.3092699348926544,-0.41897162795066833,-0.35365810990333557,-0.036939796060323715,0.03611890599131584
7.1,0.06775787472724915,-0.29864025115966797,-0.6792281866073608,-0.06874171644449234,-0.06170371174812317,0.049084145575761795
7.15,-0.03275108337402344,-0.2752828598022461,-0.8277533054351807,0.14024537801742554,0.10592008382081985,0.0015503768809139729
7.2,0.06893731653690338,0.012374910525977612,-0.5658153891563416,0.263868510723114,0.20314724743366241,-0.004358291160315275
7.25,0.12756730616092682,0.0707264244556427,-0.39144420623779297,0.2744305729866028,0.21888703107833862,-0.020337974652647972
7.3,0.08069353550672531,0.041740432381629944,-0.16790936887264252,0.2633793354034424,0.27698957920074463,-0.03278686851263046
7.35,0.035564713180065155,-0.12499334663152695,0.1434648185968399,0.2790222465991974,0.3757382929325104,-0.024403216317296028
7.4,0.0030776262283325195,-0.2357368916273117,0.19748364388942719,0.27885860204696655,0.5008426308631897,-0.022814437747001648
7.45,-0.01964278146624565,0.12777139246463776,0.12277045100927353,0.24351203441619873,0.6587372422218323,-0.056416552513837814
7.5,-0.08879067003726959,0.27848052978515625,0.4943157136440277,0.11415154486894608,0.9704615473747253,-0.11868064105510712
7.55,-0.02505624294281006,0.4651460647583008,1.122244119644165,0.002373211085796356,0.8991963863372803,-0.17257902026176453
7.6,0.6475499868392944,0.5755320191383362,0.3332681953907013,-0.019731823354959488,0.3501667082309723,-0.10042525827884674
7.65,1.2153544425964355,0.7112160921096802,-0.0043224161490798,-0.1312209963798523,0.3489217758178711,-0.10088654607534409
7.7,1.3698770999908447,0.370275616645813,-0.28967493772506714,-0.26255837082862854,0.5393207669258118,-0.0216296948492527
7.75,1.1682970523834229,0.37052831053733826,-0.06576040387153625,-0.2849867045879364,0.9182443022727966,0.08206284046173096
7.8,1.18990159034729,-0.14212891459465027,0.441629022359848,-0.16349130868911743,1.2735475301742554,0.14804606139659882
7.85,1.0244325399398804,0.25107863545417786,1.384786605834961,0.15271779894828796,1.072644829750061,0.22253167629241943
7.9,1.6477932929992676,0.9638711214065552,1.8987936973571777,0.6433826684951782,0.3242572546005249,0.38021790981292725
7.95,2.2618255615234375,1.0905638933181763,1.9826207160949707,0.872577428817749,-0.13150489330291748,0.5015719532966614
8.0,2.0308799743652344,1.071076512336731,3.2203497886657715,0.6274918913841248,-0.4042399525642395,0.590093195438385
8.05,0.8847936391830444,1.2565726041793823,4.9885149002075195,0.5133175253868103,-1.15746009349823,0.7176053524017334
8.1,-0.7133455276489258,0.5682246685028076,5.206872463226318,0.5177909731864929,-1.8657233715057373,0.8872934579849243
8.15,-3.2311410903930664,0.11726342141628265,4.209981918334961,0.3284984230995178,-2.582409620285034,0.9445522427558899
8.2,-3.7829792499542236,-0.025239259004592896,0.9519968032836914,0.1185058057308197,-3.4949002265930176,0.9239245653152466
8.25,-3.9089460372924805,-0.1209985762834549,-1.0391874313354492,-0.5717160701751709,-3.2145721912384033,0.5750067234039307
8.3,-3.5458879470825195,-0.3824597895145416,-2.787776470184326,-1.2065775394439697,-2.6317172050476074,0.07255439460277557
8.35,-2.726667642593384,-0.5748395919799805,-4.249114990234375,-1.5344116687774658,-2.2651593685150146,-0.40532946586608887
8.4,-1.626260757446289,-0.42673006653785706,-5.50844144821167,-1.5951166152954102,-1.8671154975891113,-0.8629226088523865
8.45,-0.3978383541107178,-1.2374294996261597,-5.214434623718262,-1.382564663887024,-1.4783618450164795,-1.3736389875411987
8.5,0.3936123847961426,-1.1166943311691284,-5.057252883911133,-0.9906983375549316,-1.5541144609451294,-1.6354143619537354
8.55,0.9364863634109497,-0.9779356122016907,-4.674429893493652,-0.6327034831047058,-1.9952404499053955,-1.3436273336410522
8.6,1.855745553970337,-1.4785126447677612,-3.3815083503723145,-0.34626272320747375,-2.0285818576812744,-1.1084321737289429
8.65,0.5168667435646057,-1.3506298065185547,-2.1707351207733154,0.19717472791671753,-1.2928879261016846,-1.382007122039795
8.7,0.6030046939849854,-1.0103511810302734,-0.895971417427063,0.6319702863693237,-0.6909584999084473,-0.9827041625976562
8.75,1.082759976387024,-0.18502995371818542,0.47180214524269104,1.2693480253219604,0.21940284967422485,-0.6093629002571106
8.8,1.9949562549591064,1.7950165271759033,2.131103038787842,1.8206734657287598,1.0675628185272217,-0.43652501702308655
8.85,2.914003372192383,3.980703830718994,3.1393556594848633,1.7548177242279053,0.7772233486175537,-0.1603938341140747
8.9,3.296313524246216,2.135267496109009,2.5347061157226562,0.8668939471244812,-0.06518401950597763,0.0944293662905693
8.95,1.608276128768921,0.30766963958740234,2.328991174697876,0.47470128536224365,0.21537140011787415,0.06026032567024231
9.0,0.47421711683273315,-0.6201106905937195,2.546919345855713,0.03410527482628822,0.6773535013198853,-0.05640404671430588
9.05,1.594559669494629,-1.247590184211731,2.035317897796631,-0.5657342076301575,0.6171528100967407,0.03561191260814667
9.1,1.194280982017517,-0.8076516389846802,1.5270640850067139,-0.7260239124298096,0.8820812702178955,-0.26178067922592163
9.15,1.419420838356018,-0.8855973482131958,1.4536778926849365,-0.9083629846572876,0.5058525800704956,-0.45153775811195374
9.2,1.754069209098816,-1.1763602495193481,1.152496337890625,-1.009425401687622,-0.1631689965724945,-0.528516411781311
9.25,1.5710299015045166,-1.2361993789672852,0.47887763381004333,-1.0064313411712646,-0.6020153164863586,-0.6346369385719299
9.3,0.8006457090377808,-1.1250592470169067,0.07980022579431534,-1.0535461902618408,-0.8189032673835754,-0.7113564610481262
9.35,0.5014073252677917,-0.6497068405151367,-0.5069709420204163,-0.9051910638809204,-0.8241832852363586,-0.7108986377716064
9.4,-1.848393201828003,1.4531794786453247,-1.2890363931655884,-0.7880250811576843,-0.5297574400901794,-0.9046137928962708
9.45,-2.065606117248535,1.3082219362258911,-1.787819266319275,-0.8947083353996277,-0.5255051851272583,-0.9518678188323975
9.5,-2.5149013996124268,-0.5751477479934692,-1.3440428972244263,-1.0228840112686157,-0.4625566005706787,-1.3577115535736084
9.55,-2.698951005935669,-1.4239733219146729,-0.5764384269714355,-1.0887802839279175,-0.37797194719314575,-1.502790093421936
9.6,-3.1764614582061768,-2.141221046447754,-0.6028855443000793,-1.1156474351882935,0.018852880224585533,-1.1645941734313965
9.65,-2.818528175354004,-1.2439396381378174,-0.23711642622947693,-0.7467047572135925,0.36113592982292175,-0.947827160358429
9.7,-2.7606050968170166,-0.7853959202766418,0.3177947402000427,-0.4014572501182556,0.7165376543998718,-0.8222439885139465
9.75,-5.111334323883057,4.052407741546631,-2.501131296157837,0.2464638352394104,0.8154516220092773,-1.2954708337783813
9.8,-3.1356618404388428,4.00513219833374,-1.323928952217102,-0.10005804896354675,0.26242974400520325,-0.9997192025184631
9.85,-2.2693662643432617,4.900233745574951,-0.3441851735115051,-0.13637888431549072,-0.0650169774889946,-1.1592928171157837
9.9,-1.1505181789398193,4.199497699737549,0.13123907148838043,-0.38284623622894287,0.0228164941072464,-0.7690522074699402
9.95,-0.5495554804801941,3.0843682289123535,0.23909832537174225,-0.3619348108768463,0.2644127309322357,-0.35017579793930054
10.0,-0.6374807953834534,3.0476717948913574,0.20080341398715973,-0.21789947152137756,0.43505391478538513,0.1928691267967224
10.05,-1.4055778980255127,2.2800724506378174,0.0231355931609869,-0.20078778266906738,0.5757418274879456,0.6544899344444275
10.1,-2.327895164489746,1.1249217987060547,0.04887803643941879,-0.15631788969039917,0.483704537153244,0.7616865038871765
10.15,-3.111417293548584,0.952690064907074,0.033240508288145065,-0.14727847278118134,0.2349158376455307,0.6241008043289185
10.2,-3.235506772994995,-0.4113514721393585,0.42094001173973083,-0.21198132634162903,-0.016697553917765617,0.4395216703414917
10.25,-2.856703519821167,-0.9544957280158997,0.7374614477157593,0.003054693341255188,-0.31494036316871643,0.0022215836215764284
10.3,-2.612407684326172,-2.8191094398498535,1.0344793796539307,0.17586763203144073,-0.5237221121788025,-0.10124865919351578
10.35,-2.1149280071258545,-3.6250813007354736,1.4347364902496338,0.7647806406021118,-0.9605779051780701,-0.05996884033083916
10.4,-1.5762660503387451,-4.192636489868164,1.396814227104187,1.451737403869629,-1.3143534660339355,0.22464199364185333
10.45,-0.38692012429237366,-4.048280239105225,0.36932364106178284,1.925968885421753,-1.7964338064193726,0.6318331360816956
10.5,0.8666878938674927,-3.4783291816711426,-0.10565166920423508,1.702593445777893,-2.243321657180786,1.1814000606536865
10.55,1.497689962387085,-2.546722173690796,-0.5926511883735657,1.2392011880874634,-2.7211756706237793,1.3134832382202148
10.6,2.630279064178467,-2.2049622535705566,-0.8803622126579285,0.5469071865081787,-3.180277109146118,1.0977095365524292
10.65,3.1904239654541016,-2.129152297973633,-1.083336353302002,-0.29864299297332764,-3.335881233215332,0.5772061347961426
10.7,3.117917537689209,-2.124216079711914,-0.6059862971305847,-0.2948436439037323,-2.983661413192749,0.0427749827504158
10.75,3.2874855995178223,-1.2454012632369995,-0.4870220124721527,0.2610827386379242,-2.2448456287384033,0.03133145347237587
10.8,4.080234527587891,0.1478760689496994,-0.5238078832626343,0.4057614803314209,-1.4156650304794312,0.2102557271718979
10.85,4.549474239349365,-0.02837630733847618,-0.25068211555480957,0.2160894274711609,-0.48545029759407043,0.32409581542015076
10.9,3.417576313018799,1.8992810249328613,-1.3471630811691284,-0.1571643054485321,0.43773794174194336,0.8320275545120239
10.95,3.2656214237213135,3.498555898666382,-2.129866600036621,-0.26820188760757446,0.7551159262657166,1.9533480405807495
11.0,5.080641746520996,5.540538787841797,-1.0414742231369019,0.36733198165893555,0.524131715297699,3.166175365447998
11.05,6.163507461547852,7.309826374053955,-0.4616989493370056,0.6329934597015381,0.40588393807411194,3.8699851036071777
11.1,4.958860397338867,6.179701328277588,0.5569353103637695,0.499109148979187,0.2757944166660309,3.591897964477539
11.15,3.327460765838623,3.6365106105804443,0.5925129055976868,-0.0035704374313354492,0.0009791897609829903,2.1308200359344482
11.2,1.1794636249542236,2.8308298587799072,0.3197712004184723,-0.2142903208732605,-0.051658667623996735,0.9975499510765076
11.25,-0.3186478614807129,1.2962113618850708,0.4696762263774872,-0.3267967998981476,0.1121068075299263,0.8161851167678833
11.3,-1.200554609298706,0.6456289291381836,0.3610471487045288,-0.3742477297782898,0.3105686604976654,1.0993573665618896
11.35,0.047211408615112305,1.4822074174880981,0.8741244673728943,-0.4476455748081207,0.6444147825241089,1.364333152770996
11.4,-1.1885850429534912,3.5697379112243652,-0.45299381017684937,-0.6857882738113403,2.5039634704589844,1.0232477188110352
11.45,-4.514472961425781,1.5635128021240234,-0.6610867977142334,-0.9240565299987793,3.6320292949676514,-0.1695106327533722
11.5,-3.1911544799804688,1.4719009399414062,-0.336029052734375,-1.0727179050445557,1.751397967338562,-1.0560933351516724
11.55,-1.3363456726074219,-0.1311379224061966,-0.4524247348308563,-1.0989317893981934,0.570408046245575,-1.2308151721954346
11.6,-2.6184349060058594,-1.7551206350326538,0.21994279325008392,-0.831390380859375,0.4882426857948303,-1.046660304069519
11.65,-2.612779140472412,-4.595666885375977,1.4702430963516235,-0.4372263550758362,-0.2826225161552429,-0.22401133179664612
11.7,-3.679351568222046,-5.420949459075928,2.042266368865967,0.28938108682632446,-0.7056128978729248,0.756488025188446
11.75,-4.1347856521606445,-3.896599054336548,1.314558744430542,0.6873211860656738,-1.2049931287765503,1.788284182548523
11.8,-2.191884994506836,-2.5944695472717285,0.49918079376220703,0.3925274610519409,-2.108724355697632,1.9695435762405396
11.85,-1.1104960441589355,-0.5848819017410278,-0.5965449213981628,0.02985560894012451,-2.2720448970794678,1.2609224319458008
11.9,-0.3901939392089844,0.9266921281814575,-0.7486393451690674,-0.09630545973777771,-1.6345783472061157,1.0271587371826172
11.95,0.7035776376724243,1.6294463872909546,-0.4677221179008484,-0.3261791467666626,0.45449912548065186,0.6439796090126038
12.0,-0.7038511633872986,0.043844226747751236,-0.8989999890327454,-0.5360249280929565,3.416449785232544,-0.10294654965400696
12.05,-3.0434629917144775,-2.6987385749816895,0.9243460297584534,-0.2067052721977234,4.24261474609375,-0.6843537092208862
12.1,-3.5100274085998535,-3.7204935550689697,2.001586675643921,0.2277287244796753,1.7938998937606812,-0.6486325263977051
12.15,-1.641771912574768,-3.106539487838745,0.9882634878158569,0.570438802242279,-1.5132368803024292,-0.18504288792610168
12.2,1.0085047483444214,-2.1983144283294678,0.7048066258430481,0.5723381042480469,-2.48976993560791,-0.1059054508805275
12.25,0.4044020175933838,-1.5335628986358643,0.7290191650390625,0.5445857048034668,-1.1780147552490234,-0.36638858914375305
12.3,1.6063963174819946,-2.1692726612091064,0.3029429614543915,0.3759379982948303,-0.6673425436019897,-0.6445654034614563
12.35,0.626554548740387,-2.7325899600982666,0.20623429119586945,0.38104450702667236,-0.2544878125190735,-0.7826730012893677
12.4,1.1360477209091187,-2.3359243869781494,0.13825923204421997,0.5138940811157227,-0.8126686215400696,-0.665946364402771
12.45,2.4743220806121826,-2.0254664421081543,-0.29302647709846497,0.47568532824516296,-0.5637152791023254,-0.3831183910369873
12.5,0.590100109577179,-1.4019641876220703,-0.8322026133537292,0.5227271318435669,0.9590383768081665,-0.14702503383159637
12.55,-0.5747256278991699,-0.7917853593826294,-0.9409103393554688,0.5908365249633789,0.6461578607559204,-0.013405632227659225
12.6,0.4675225615501404,1.1018019914627075,-0.030293993651866913,0.7947231531143188,-0.6429616808891296,-0.015913326293230057
12.65,0.7521871328353882,1.6591980457305908,-0.3277490437030792,0.7552165985107422,-0.7674041390419006,-0.06652325391769409
12.7,-0.1552748680114746,1.750133752822876,-0.2877017557621002,0.6975343227386475,-0.15789198875427246,0.026110876351594925
12.75,-0.43976518511772156,0.9010077118873596,0.4799307882785797,0.46073514223098755,-0.12000755965709686,-0.11085642129182816
12.8,-0.9534897804260254,0.20666788518428802,-0.17467208206653595,0.330446720123291,-0.3331378102302551,-0.30706411600112915
12.85,0.607359766960144,1.7155210971832275,0.23677997291088104,0.17368963360786438,-0.7423284649848938,-0.3789821267127991
12.9,-0.09788188338279724,4.1375956535339355,-1.0418064594268799,0.037350788712501526,-0.1599758267402649,-0.1822679042816162
12.95,1.3663461208343506,4.113475322723389,1.0515226125717163,0.07218563556671143,-0.27155500650405884,-0.17699025571346283
13.0,-0.11947810649871826,3.7833492755889893,2.544771909713745,0.12786997854709625,0.03874295577406883,-0.196117103099823
13.05,0.8792940378189087,3.3378021717071533,4.143069267272949,0.025772754102945328,0.05489660054445267,-0.14733092486858368
13.1,0.1867363452911377,3.1614792346954346,2.994440793991089,-0.09745511412620544,0.5444476008415222,-0.032829344272613525
13.15,0.5851466655731201,3.0965781211853027,0.07381098717451096,-0.17141547799110413,0.4923413395881653,0.009695879183709621
13.2,0.27905508875846863,3.274240016937256,-1.1013529300689697,-0.2276046872138977,0.30866754055023193,0.011609912849962711
13.25,0.2205803394317627,3.0142006874084473,-1.4248604774475098,-0.31124454736709595,-0.007204835303127766,-0.09079199284315109
13.3,1.2673254013061523,2.9903531074523926,-2.046964168548584,-0.23866264522075653,-0.021709248423576355,-0.09374536573886871
13.35,0.8671970367431641,2.3556132316589355,-2.747532606124878,0.029175035655498505,0.5303069353103638,0.049692552536726
13.4,1.0486501455307007,1.3101274967193604,-1.2208243608474731,0.39735156297683716,0.2922038435935974,0.11874821037054062
13.45,0.6303926706314087,0.3161478638648987,0.1907823383808136,0.552722692489624,-0.09834518283605576,0.23334814608097076
13.5,0.06425833702087402,-0.5933142900466919,1.2975757122039795,0.42943280935287476,-0.3389088213443756,0.3314966857433319
13.55,-0.7280751466751099,-1.469783067703247,1.70770263671875,0.22104355692863464,-0.3816736340522766,0.4787510931491852
13.6,-1.8543927669525146,-2.102598190307617,1.6307027339935303,0.02469000220298767,-0.2686431109905243,0.6322872638702393
13.65,-1.8040101528167725,-2.4786453247070312,1.8158313035964966,-0.16959036886692047,-0.2570614218711853,0.6134997606277466
13.7,-1.527923822402954,-2.2853946685791016,2.1495561599731445,-0.41498619318008423,0.04046197235584259,0.4888013005256653
13.75,-1.3230539560317993,-2.196079730987549,2.170978307723999,-0.715236246585846,0.49245673418045044,0.27053406834602356
13.8,-1.729401707649231,-2.242180347442627,2.007132053375244,-0.9803548455238342,0.7751681208610535,0.04396635293960571
13.85,-1.3918116092681885,-1.6795858144760132,1.7886778116226196,-1.2012975215911865,0.7200558185577393,-0.17974448204040527
13.9,-1.0476585626602173,-1.1195948123931885,1.4829082489013672,-1.3469743728637695,0.8244544863700867,-0.26991957426071167
13.95,-0.8910877704620361,-0.733677089214325,0.860305666923523,-1.4002208709716797,1.1759610176086426,-0.3462565243244171
14.0,-1.1297656297683716,-0.5331956148147583,0.3831828534603119,-1.3586399555206299,1.5038763284683228,-0.4922465980052948
14.05,-1.2931534051895142,-0.3453713655471802,0.169429749250412,-1.2150970697402954,1.4058139324188232,-0.7043004035949707
14.1,-0.7028329372406006,-0.12733560800552368,-0.050996195524930954,-1.105708122253418,0.8049092292785645,-0.8351472020149231
14.15,0.0854443907737732,-0.04181000217795372,-0.654434084892273,-1.0600471496582031,0.23931530117988586,-0.897161602973938
14.2,1.1361439228057861,0.22720161080360413,-1.193517804145813,-1.0068061351776123,-0.10436557978391647,-1.012825608253479
14.25,0.8164836168289185,1.1575462818145752,-1.0773519277572632,-1.0734952688217163,-0.012668102979660034,-1.379900336265564
14.3,0.6616889238357544,1.253103494644165,-1.8411239385604858,-1.6219191551208496,-0.4775131642818451,-1.5452476739883423
14.35,0.5901464819908142,0.14362159371376038,-2.0223238468170166,-2.1411752700805664,-0.9079297780990601,-1.8349803686141968
14.4,0.9896398782730103,-1.741775631904602,-0.41371241211891174,-2.1781511306762695,-0.8899216055870056,-1.76323664188385
14.45,-0.22253204882144928,-2.5744307041168213,0.29215219616889954,-1.6138396263122559,-0.2976287305355072,-1.7611019611358643
14.5,-0.6668707132339478,-3.5660157203674316,0.9436591863632202,-1.162292718887329,-0.09958911687135696,-1.5897971391677856
14.55,-0.8088047504425049,-3.376497745513916,1.4637062549591064,-0.8212895393371582,-0.09217899292707443,-1.3426916599273682
14.6,-0.7436681985855103,-2.7199225425720215,1.640876054763794,-0.5730651617050171,-0.015963660553097725,-1.0411990880966187
14.65,-0.3900594115257263,-1.8574880361557007,1.795286774635315,-0.300082266330719,0.10912477970123291,-0.7114803194999695
14.7,-0.5057095885276794,-1.3904478549957275,1.6700865030288696,-0.14942120015621185,0.2597264349460602,-0.4825148284435272
14.75,-0.2628628611564636,-1.0891773700714111,1.3084853887557983,-0.1986331194639206,0.4076806604862213,-0.26141008734703064
14.8,0.11233419179916382,-1.2354098558425903,0.9577573537826538,-0.44608432054519653,0.46513739228248596,-0.2496960461139679
14.85,0.6153087615966797,-0.7247887253761292,0.6937835216522217,-0.9526281356811523,0.25851115584373474,0.012054373510181904
14.9,1.2112717628479004,-0.21295544505119324,0.2568311095237732,-1.485451579093933,0.025810817256569862,0.5850720405578613
14.95,1.9425685405731201,1.067246675491333,-1.187123417854309,-1.6245841979980469,0.05237293988466263,0.8783622980117798
15.0,1.8653340339660645,1.6294846534729004,-2.535998582839966,-1.7291550636291504,0.2662677466869354,0.8743348121643066
15.05,0.6061979532241821,1.8587230443954468,-3.034219980239868,-1.7165619134902954,0.48135077953338623,0.4381829798221588
15.1,-0.5384615063667297,1.9592918157577515,-2.3896031379699707,-1.7725485563278198,0.5005685091018677,0.14947812259197235
15.15,-0.06066519021987915,2.0624334812164307,-1.9156869649887085,-1.7304034233093262,0.4202471375465393,0.11049941182136536
15.2,2.377145290374756,1.733238697052002,-3.001218557357788,-1.6299418210983276,0.3663248121738434,-0.07669124007225037
15.25,3.626396417617798,1.711082100868225,-3.86545467376709,-1.7064285278320312,0.28463906049728394,-0.05946562439203262
15.3,3.0628533363342285,2.2897086143493652,-3.7879748344421387,-1.7838938236236572,0.22356021404266357,0.2515273988246918
15.35,-0.056962013244628906,1.906760573387146,-2.8634583950042725,-1.5879416465759277,0.29171428084373474,0.5114638209342957
15.4,-1.5479717254638672,1.3936644792556763,-0.7820565104484558,-1.054688811302185,0.392733633518219,0.7312358021736145
15.45,-1.254570484161377,2.344249963760376,0.8920507431030273,-0.12378600239753723,0.09097649157047272,0.40747249126434326
15.5,-0.030100584030151367,4.009376049041748,2.090369939804077,0.37169137597084045,0.15147201716899872,0.23084010183811188
15.55,0.5509284734725952,4.789285182952881,3.0044686794281006,0.30204063653945923,0.3740149736404419,0.16359460353851318
15.6,0.08054494857788086,4.640137195587158,2.806709051132202,0.17116591334342957,0.3100471794605255,-0.020985618233680725
15.65,-0.42643702030181885,3.867374897003174,1.6592085361480713,-0.19937528669834137,0.12407436966896057,0.045693397521972656
15.7,-0.41366085410118103,3.1411776542663574,0.26359638571739197,-0.5581648349761963,-0.13785748183727264,0.14696042239665985
15.75,-0.27314895391464233,2.15596604347229,-2.257417917251587,-0.7972719669342041,-0.3220996558666229,0.02727971039712429
15.8,0.34088945388793945,0.235883891582489,-2.764371395111084,-1.1579506397247314,-0.2144044041633606,-0.08621986210346222
15.85,0.15025734901428223,-1.4527359008789062,-2.793626308441162,-0.9701941609382629,-0.2376166433095932,-0.357170969247818
15.9,0.5745951533317566,-2.3788070678710938,-2.155686140060425,-0.4373326301574707,-0.30249178409576416,-0.42987027764320374
15.95,0.6184806823730469,-2.733107328414917,-1.5101587772369385,0.37614762783050537,-0.4167191982269287,-0.6316949725151062
16.0,0.3990398347377777,-2.7165300846099854,-1.3329347372055054,1.1959526538848877,-0.38613203167915344,-0.9573729038238525
16.05,0.40561893582344055,-2.25728440284729,-1.3147501945495605,1.7559800148010254,0.0012644388480111957,-1.3427952527999878
16.1,0.5540823340415955,-1.2572431564331055,-1.869963526725769,2.0170912742614746,0.42416805028915405,-1.4798839092254639
16.15,1.6121692657470703,-0.416706919670105,-1.7038081884384155,2.1279497146606445,0.7042347192764282,-1.5888932943344116
16.2,1.8357148170471191,-0.34570589661598206,-0.23544630408287048,2.0851426124572754,1.0922247171401978,-1.6882271766662598
16.25,1.9750328063964844,-1.2865201234817505,1.2436878681182861,1.8803178071975708,1.2021260261535645,-1.4665480852127075
16.3,2.1385059356689453,-2.0973317623138428,2.281700611114502,1.5357357263565063,1.004533052444458,-1.2577035427093506
16.35,2.2656021118164062,-3.210148334503174,3.469240427017212,1.0697251558303833,0.6306806206703186,-0.8249198794364929
16.4,1.7457847595214844,-2.802290201187134,4.031219959259033,0.6950621008872986,-0.010679840110242367,-0.4483407139778137
16.45,0.5814081430435181,-0.9332506656646729,3.5354878902435303,0.36749714612960815,-0.6828871369361877,0.06436636298894882
16.5,-0.6946527361869812,0.8938149809837341,2.4634366035461426,-0.026584506034851074,-1.026500940322876,0.7429836392402649
16.55,-2.1929023265838623,3.635585069656372,0.026731641963124275,-0.5414071083068848,-0.9565522074699402,1.2783766984939575
16.6,-2.4643402099609375,2.9941065311431885,-2.371405839920044,-1.1057603359222412,-0.154701828956604,1.6529264450073242
16.65,-2.0868709087371826,0.5596400499343872,-3.847913980484009,-1.5316812992095947,0.6516477465629578,0.7717750072479248
16.7,-1.806344985961914,-1.3078118562698364,-3.2102370262145996,-1.9646215438842773,1.206065058708191,-0.23088422417640686
16.75,-1.5298309326171875,-2.2351057529449463,-1.92931067943573,-2.014591932296753,1.7394684553146362,-0.7632753252983093
16.8,-0.8450514674186707,-2.079277276992798,-1.0413011312484741,-1.5246195793151855,2.131959915161133,-1.1158055067062378
16.85,-0.3458132743835449,-1.159098744392395,-0.31667545437812805,-0.6986349821090698,2.4174654483795166,-1.4344282150268555
16.9,0.02626161277294159,-0.17360976338386536,0.4163733124732971,0.3383249044418335,2.353144884109497,-1.8803730010986328
16.95,1.428252935409546,-0.35134029388427734,1.3220943212509155,1.3665965795516968,1.7542388439178467,-1.7735728025436401
17.0,2.0600693225860596,-0.5544710159301758,1.5757640600204468,2.3826229572296143,0.6398846507072449,-0.933860719203949
17.05,1.7806333303451538,-1.202567219734192,1.9387580156326294,3.417968273162842,-0.39662691950798035,0.017436474561691284
17.1,0.677901566028595,-1.6746561527252197,2.0307788848876953,4.420248508453369,-1.1345617771148682,0.24832764267921448
17.15,-0.13484042882919312,-2.248457193374634,1.4851874113082886,5.235613822937012,-1.4695394039154053,0.051898371428251266
17.2,-2.0606021881103516,-1.5512717962265015,-0.3151702284812927,6.110140800476074,-1.7330385446548462,0.06804095953702927
17.25,-3.2153115272521973,2.440913438796997,-2.848708391189575,6.973305702209473,-2.476166009902954,1.0100903511047363
17.3,0.8214726448059082,3.6027276515960693,-3.957899570465088,6.107168197631836,-3.5906949043273926,2.010836362838745
17.35,2.6189684867858887,2.9822869300842285,-2.0795392990112305,3.7617087364196777,-1.6809871196746826,1.0025348663330078
17.4,1.5951685905456543,1.778611421585083,2.0533804893493652,1.5510414838790894,0.8380358815193176,0.10924232006072998
17.45,-1.007619857788086,0.3223492503166199,5.728306293487549,-0.015437871217727661,1.1250463724136353,-0.35354819893836975
17.5,0.22081851959228516,0.27856042981147766,5.388378143310547,-0.5504190325737,-0.6513285040855408,-0.4475663900375366
17.55,1.335195779800415,1.0672760009765625,3.173166275024414,-0.8857681751251221,-1.51197350025177,-0.33175191283226013
17.6,1.4430015087127686,1.7917883396148682,0.8496148586273193,-1.255868673324585,-1.2708643674850464,-0.20308950543403625
17.65,1.1506447792053223,1.348109483718872,-0.9502432346343994,-1.6899290084838867,-0.5993601083755493,-0.26676931977272034
17.7,1.6356054544448853,0.5477774143218994,-2.246812105178833,-2.034879207611084,-0.010938352905213833,-0.4906896948814392
17.75,1.6089662313461304,-0.12457730621099472,-2.893047332763672,-2.2409133911132812,0.7946080565452576,-0.8856184482574463
17.8,1.014711618423462,-0.2220677137374878,-2.044898509979248,-2.35135817527771,1.6071823835372925,-1.5091817378997803
17.85,1.5186560153961182,-1.0242013931274414,-1.8046132326126099,-2.539848566055298,2.007066488265991,-1.7322016954421997
17.9,0.2981680631637573,-0.9471979141235352,-1.6459285020828247,-2.144317865371704,2.245006799697876,-1.5100581645965576
17.95,0.6216623187065125,-1.0479602813720703,-2.28261399269104,-1.4402916431427002,2.074725866317749,-1.102393627166748
18.0,0.050988078117370605,-0.8862886428833008,-2.149669885635376,-0.6079753637313843,2.1778371334075928,-1.1506097316741943
18.05,0.0008352398872375488,-1.5715075731277466,-1.5649707317352295,0.30664265155792236,1.7010900974273682,-0.7288084030151367
18.1,-0.22367453575134277,-2.288691282272339,-1.6899241209030151,1.1029725074768066,0.7644364833831787,0.015582558698952198
18.15,-0.8821840286254883,-1.3479490280151367,-2.928445339202881,1.7406028509140015,-0.04137788712978363,0.48247623443603516
18.2,-1.786877155303955,-0.06779668480157852,-2.7957210540771484,2.1133127212524414,-0.22206346690654755,0.44108518958091736
18.25,-1.6996407508850098,0.694831907749176,-1.8227713108062744,2.5093917846679688,-0.2531124949455261,0.19470594823360443
18.3,-1.5870838165283203,1.3977127075195312,-0.06880511343479156,2.8421738147735596,-0.280849426984787,-0.09075739234685898
18.35,-0.7385143041610718,2.0977442264556885,1.1313036680221558,2.907170534133911,-0.5316606760025024,-0.33855047821998596
18.4,-0.1335822343826294,2.3519773483276367,3.253601312637329,2.6589512825012207,-0.3219561278820038,-0.6459755897521973
18.45,0.18795561790466309,1.6390390396118164,5.063791275024414,2.2578954696655273,-0.11654071509838104,-0.7301690578460693
18.5,0.7676999568939209,0.4213178753852844,5.8379974365234375,1.769334077835083,-0.1208747997879982,-0.6904144883155823
18.55,1.1299216747283936,-0.7818130254745483,6.271429061889648,1.1418530941009521,0.07694396376609802,-0.5484732389450073
18.6,1.1534645557403564,-1.4543060064315796,6.662346839904785,0.5110015273094177,0.21234051883220673,-0.36699986457824707
18.65,1.2330150604248047,-1.2467035055160522,6.236545085906982,-0.14886565506458282,-0.014054968021810055,-0.24880297482013702
18.7,1.1651413440704346,-0.6090013980865479,5.365911483764648,-0.7723128795623779,-0.19512353837490082,-0.09870968759059906
18.75,0.7967513799667358,0.33430469036102295,4.414051055908203,-1.2201807498931885,-0.27669334411621094,0.0602598562836647
18.8,0.5100280046463013,1.2579765319824219,3.073246717453003,-1.4988081455230713,-0.3740466833114624,0.17011216282844543
18.85,0.27106600999832153,1.3737832307815552,1.5666730403900146,-1.7020177841186523,-0.46072837710380554,0.20383420586585999
18.9,0.0574784129858017,0.9756547212600708,0.45990002155303955,-1.7625837326049805,-0.6043985486030579,0.16817815601825714
18.95,-0.226679265499115,0.5596981644630432,-0.28357020020484924,-1.6896648406982422,-0.8336515426635742,0.13924872875213623
19.0,-0.274652898311615,0.2544479966163635,-0.9916042685508728,-1.4434866905212402,-1.13383150100708,0.1786709725856781
19.05,-0.10680317878723145,-0.25035473704338074,-1.5628069639205933,-1.0754131078720093,-1.2708309888839722,0.22259041666984558
19.1,-0.14682000875473022,-0.6646633148193359,-1.7817845344543457,-0.6745309829711914,-1.1121245622634888,0.1789717674255371
19.15,-0.1525336503982544,-0.8091917634010315,-1.8490389585494995,-0.2950234115123749,-0.9593831300735474,0.12362401932477951
19.2,0.08717978000640869,-0.9927111268043518,-1.7185114622116089,0.024934278801083565,-0.9175752997398376,0.07275529205799103
19.25,0.19950157403945923,-1.1473274230957031,-1.2236336469650269,0.3001875877380371,-0.911182701587677,-0.01931992918252945
19.3,0.11586615443229675,-0.940895140171051,-0.7324832081794739,0.5629317760467529,-0.9819535613059998,-0.045308783650398254
19.35,0.21269278228282928,-0.2931947708129883,-0.23444679379463196,0.8135668039321899,-1.0893625020980835,0.057170845568180084
19.4,0.4604892432689667,0.7212162613868713,0.15893308818340302,1.0169950723648071,-1.0011582374572754,0.18843917548656464
19.45,0.7704325914382935,1.0860463380813599,0.6981324553489685,1.1127784252166748,-0.5894302129745483,0.23591528832912445
19.5,0.6440339088439941,0.6041030883789062,1.5465402603149414,1.0075695514678955,-0.04017553851008415,0.13114893436431885
19.55,0.2709435224533081,0.34685319662094116,2.2463927268981934,0.7308015823364258,0.06005069985985756,0.03520644083619118
19.6,0.5587334036827087,0.43655869364738464,2.422954559326172,0.389107882976532,-0.19195802509784698,0.04594457149505615
19.65,0.841086208820343,0.6677083969116211,2.0913867950439453,0.07150323688983917,0.023116976022720337,0.10865102708339691
19.7,0.5714952945709229,0.5812587738037109,1.714392066001892,-0.18441377580165863,0.7481349110603333,0.16594745218753815
19.75,-0.10453987121582031,0.34320443868637085,1.6132779121398926,-0.3628186881542206,1.361845850944519,0.17653962969779968
19.8,-0.698199987411499,1.0166654586791992,1.6031204462051392,-0.4340610206127167,1.397645354270935,0.20737411081790924
19.85,-0.6211148500442505,0.89202880859375,1.158557653427124,-0.3788766860961914,1.095703125,0.2636733949184418
19.9,-0.2658003270626068,-0.163424551486969,0.7593002915382385,-0.3219367563724518,0.8638820052146912,0.2322176694869995
19.95,-0.26919686794281006,-0.3622360825538635,0.48118147253990173,-0.3533051609992981,0.5615349411964417,0.18765664100646973
20.0,0.09506486356258392,0.41192540526390076,-0.20978358387947083,-0.4376610517501831,0.1396990269422531,0.2097611129283905
20.05,0.621248722076416,0.7645208835601807,-1.187049388885498,-0.6189274787902832,0.10487816482782364,0.18408721685409546
20.1,0.48783618211746216,0.3475629389286041,-1.6438651084899902,-0.8817795515060425,0.5188031792640686,0.018550613895058632
20.15,0.052525222301483154,-0.24752232432365417,-1.3184540271759033,-1.0365912914276123,0.7691386342048645,-0.15712299942970276
20.2,-0.037694066762924194,-0.7662354111671448,-0.7894156575202942,-0.9121553897857666,0.5189804434776306,-0.1611868292093277
20.25,0.4332049787044525,-1.097708821296692,-0.5934407711029053,-0.49504467844963074,0.1269429326057434,-0.0285800751298666
20.3,0.7678829431533813,-1.2083740234375,-0.5094903707504272,0.035301439464092255,0.19006356596946716,0.008391574956476688
20.35,0.6573077440261841,-1.0517083406448364,-0.2591913640499115,0.5416584014892578,0.5214272737503052,-0.04653061181306839
20.4,0.43966010212898254,-0.14495182037353516,0.3716079294681549,1.0422635078430176,0.6024175882339478,-0.03774110972881317
20.45,0.6653523445129395,0.8087378740310669,0.8176296949386597,1.4656145572662354,0.31915873289108276,0.04587515443563461
20.5,0.8893601298332214,1.103237271308899,1.1719262599945068,1.571577548980713,0.1182330846786499,0.10890353471040726
20.55,0.507292628288269,0.9883461594581604,1.6963942050933838,1.3139793872833252,0.21631067991256714,0.14275045692920685
20.6,0.10290265083312988,0.4130239188671112,2.2213902473449707,0.8879197835922241,0.29115039110183716,0.1514682024717331
20.65,-0.07246112823486328,0.03694998472929001,2.6989529132843018,0.4437052309513092,0.22061334550380707,0.11906835436820984
20.7,-0.20859920978546143,-0.1336757242679596,2.650951623916626,-0.01762271672487259,0.13995817303657532,0.07619019597768784
20.75,-0.21134191751480103,-0.12659752368927002,2.087664842605591,-0.41485893726348877,0.08096364140510559,0.03166169673204422
20.8,-0.20800763368606567,0.27810949087142944,1.478277564048767,-0.7072871923446655,0.009446016512811184,-0.031137198209762573
20.85,-0.16656708717346191,0.5552253723144531,0.8218130469322205,-0.8474554419517517,-0.19973352551460266,-0.08254130184650421
20.9,0.14005769789218903,0.41010957956314087,0.023801859468221664,-0.8848930597305298,-0.5170333385467529,-0.08918864279985428
20.95,0.2971114218235016,-0.00026889846776612103,-0.43798771500587463,-0.8810021877288818,-0.696523129940033,-0.09226702898740768
21.0,0.24117547273635864,-0.33683300018310547,-0.5780306458473206,-0.7390722036361694,-0.7568879127502441,-0.08955904841423035
21.05,0.39803439378738403,-0.33160969614982605,-0.6967523694038391,-0.43669945001602173,-0.7519079446792603,-0.04878458008170128
21.1,0.6084522008895874,-0.14774125814437866,-0.7543863654136658,-0.10229992866516113,-0.5603542923927307,-0.017951548099517822
21.15,0.630204439163208,0.0029574111104011536,-0.643378496170044,0.15926040709018707,-0.27218496799468994,-0.02245084010064602
21.2,0.5994480848312378,0.0934344008564949,-0.5578539967536926,0.3061214089393616,-0.16759061813354492,0.007376181427389383
21.25,0.7137482166290283,0.13766486942768097,-0.5301550030708313,0.32592183351516724,-0.15935298800468445,0.05291994288563728
21.3,0.6567657589912415,0.23280248045921326,-0.4761328399181366,0.23835328221321106,0.006699962075799704,0.04787561297416687
21.35,0.5010759234428406,0.37757599353790283,-0.37786582112312317,0.09956274926662445,0.2649465501308441,0.029233383014798164
21.4,0.3576206862926483,0.4799090325832367,-0.43818411231040955,-0.057407133281230927,0.47401338815689087,0.021195532754063606
21.45,0.2656221389770508,0.2978878617286682,-0.4888207018375397,-0.218520849943161,0.6198701858520508,0.0006705462583340704
21.5,0.10878291726112366,0.15711310505867004,-0.30315858125686646,-0.3159763216972351,0.6461966037750244,-0.019680466502904892
21.55,0.25815245509147644,-0.06143854185938835,-0.20392969250679016,-0.24360911548137665,0.5452994704246521,0.00020001421216875315
21.6,0.4421418607234955,-0.3207263946533203,0.03522834926843643,-0.06097898259758949,0.5451869368553162,-0.013180844485759735
21.65,0.2611812949180603,-0.12485888600349426,0.6268904805183411,0.1937314122915268,0.49836188554763794,-0.019209519028663635
21.7,0.2915771007537842,0.4062509834766388,0.8228314518928528,0.5696923732757568,0.2962020933628082,0.07512324303388596
21.75,0.30518627166748047,0.463439017534256,0.8782458305358887,0.8396505117416382,0.41910848021507263,0.15761402249336243
21.8,-0.18221157789230347,0.10028071701526642,1.047599196434021,0.7483723163604736,0.8109480738639832,0.24087825417518616
21.85,-0.9624159336090088,-0.16657555103302002,1.1123957633972168,0.3810218572616577,1.0190931558609009,0.3109603822231293
21.9,-1.4925709962844849,-0.11642090976238251,1.3547475337982178,0.09630437940359116,0.9453409910202026,0.2814047634601593
21.95,-1.6686208248138428,0.0010555394692346454,1.739105224609375,-0.026328064501285553,0.7144368886947632,0.16714859008789062
22.0,-1.7303990125656128,-0.11294671893119812,1.928924322128296,-0.10603497922420502,0.4053167998790741,0.015168461948633194
22.05,-1.6395372152328491,-0.2777054011821747,1.8572452068328857,-0.08824965357780457,-0.0411108024418354,-0.1304316520690918
22.1,-1.4403337240219116,-0.2549745440483093,1.3624608516693115,-0.03512651473283768,-0.48697665333747864,-0.218530535697937
22.15,-1.2061676979064941,-0.1612015962600708,0.7964292764663696,-0.06668833643198013,-0.675439715385437,-0.2659757435321808
22.2,-0.992302417755127,-0.2595263719558716,0.5918965339660645,-0.126065194606781,-0.6415666341781616,-0.3248714804649353
22.25,-0.9204859137535095,-0.13621149957180023,0.6602593064308167,-0.1266130805015564,-0.5911961197853088,-0.3853946626186371
22.3,-0.6930114030838013,0.4574003219604492,0.5285319685935974,-0.058854877948760986,-0.6987510919570923,-0.38394108414649963
22.35,0.031720567494630814,0.9459115266799927,-0.05938142165541649,-0.08432826399803162,-0.803210437297821,-0.33242908120155334
22.4,0.6366980671882629,0.8454620242118835,-0.5943017601966858,-0.2939826548099518,-0.5664286613464355,-0.3505609333515167
22.45,0.4781561493873596,0.22988803684711456,-0.3548387587070465,-0.510879635810852,-0.1623995453119278,-0.41578513383865356
22.5,0.21868303418159485,-0.32669833302497864,0.18234416842460632,-0.4861089587211609,-0.13120225071907043,-0.36279305815696716
22.55,0.3732069432735443,-0.4825945496559143,0.41341254115104675,-0.16253533959388733,-0.4196578562259674,-0.17173251509666443
22.6,0.4307067096233368,-0.1479196548461914,0.3237689733505249,0.2681864798069,-0.567957878112793,0.02831314690411091
22.65,0.38357168436050415,0.6461954712867737,0.018202144652605057,0.5490660667419434,-0.5356292128562927,0.21984736621379852
22.7,0.423922061920166,1.4576092958450317,-0.3744363784790039,0.5179709792137146,-0.3473298251628876,0.30746835470199585
22.75,0.5993272066116333,0.9351465106010437,-0.23183806240558624,0.2630106508731842,0.020980164408683777,0.18969300389289856
22.8,-0.15527859330177307,-0.04726796969771385,0.860182523727417,-0.05083480477333069,0.3062887489795685,-0.01415946800261736
22.85,-0.6427159905433655,-0.2983008623123169,1.3130075931549072,-0.2305254340171814,-0.10031009465456009,0.03562374413013458
22.9,-0.07972452044487,0.21957017481327057,0.3239869177341461,-0.27351245284080505,-0.6055589318275452,0.27104663848876953
22.95,0.36167722940444946,0.46173202991485596,-0.6834519505500793,-0.3474228084087372,-0.281517893075943,0.3200768232345581
23.0,0.019138455390930176,0.5483390092849731,-0.9865828156471252,-0.5416285395622253,0.38903090357780457,0.16942466795444489
23.05,-0.1903122365474701,0.3670197129249573,-1.146401286125183,-0.7748591303825378,0.4350399374961853,0.08082985877990723
23.1,-0.13696515560150146,0.08507639169692993,-1.330042839050293,-0.9087765216827393,0.06545095145702362,0.038802776485681534
23.15,-0.058963119983673096,-0.2649860084056854,-1.096440076828003,-0.7816622853279114,-0.18392924964427948,-0.04010413587093353
23.2,0.06445638835430145,-0.8239375352859497,-0.5538533329963684,-0.39234375953674316,-0.2974810302257538,-0.07756795734167099
23.25,0.2026669830083847,-1.0110522508621216,-0.3733481168746948,0.09043674170970917,-0.4523121416568756,0.004293140023946762
23.3,0.3861922323703766,-0.6959819793701172,-0.5606682300567627,0.4731604754924774,-0.5397855639457703,0.13655886054039001
23.35,0.511730968952179,-0.1920471042394638,-0.37116578221321106,0.7320712208747864,-0.31869596242904663,0.16101640462875366
23.4,0.3868888318538666,0.2705574333667755,0.28987595438957214,0.8844218254089355,-0.06271571666002274,0.1367591917514801
23.45,0.30944502353668213,0.38765913248062134,0.6790056228637695,0.8991044759750366,-0.13331936299800873,0.1496405452489853
23.5,0.2531103789806366,0.25953006744384766,0.8810687065124512,0.7844027876853943,-0.2904358506202698,0.1360502690076828
23.55,0.3937838077545166,0.1556367725133896,1.1405150890350342,0.590274453163147,-0.19667993485927582,0.06491516530513763
23.6,0.2735412120819092,0.11034580320119858,1.5145726203918457,0.3620969355106354,0.2505890130996704,-0.02866901084780693
23.65,-0.4385226368904114,0.01160417404025793,2.357161521911621,0.19856584072113037,0.557510256767273,-0.09652313590049744
23.7,-0.5953186750411987,0.08588393777608871,2.8257083892822266,0.1857229322195053,0.12583497166633606,-0.07271722704172134
23.75,-0.42759907245635986,0.47676363587379456,2.609779119491577,0.1907665729522705,-0.5529112815856934,-0.018687527626752853
23.8,-0.4038380980491638,0.600949227809906,2.074138879776001,0.07071860134601593,-1.017810344696045,-0.020537376403808594
23.85,-0.22644972801208496,0.4682731330394745,1.3494327068328857,-0.18349459767341614,-1.2795583009719849,-0.08072340488433838
23.9,-0.13480649888515472,0.5786514282226562,0.6128221154212952,-0.5002892017364502,-1.2743202447891235,-0.17848335206508636
23.95,-0.2595314681529999,1.2112971544265747,-0.22314344346523285,-0.7482970952987671,-1.123491883277893,-0.2464587390422821
24.0,0.3015676736831665,1.4206793308258057,-1.0716944932937622,-0.8555641770362854,-0.877055823802948,-0.27152010798454285
24.05,0.6598080396652222,0.42480674386024475,-1.392371654510498,-0.8908327221870422,-0.41594773530960083,-0.43744000792503357
24.1,0.2211458683013916,-0.5430803298950195,-1.3907417058944702,-0.9287300705909729,-0.30156299471855164,-0.6134029030799866
24.15,-0.007331669330596924,-0.7134256362915039,-1.5209349393844604,-0.8796286582946777,-0.6566296219825745,-0.48517778515815735
24.2,0.11381816864013672,-0.8642750382423401,-1.3784470558166504,-0.5679820775985718,-0.7230126261711121,-0.15190927684307098
24.25,-0.15059807896614075,-1.1133195161819458,-1.1187732219696045,-0.08370773494243622,-0.31317710876464844,0.148249551653862
24.3,-0.43624818325042725,-1.017569661140442,-1.0367708206176758,0.3490673005580902,-0.10843564569950104,0.48063498735427856
24.35,-0.4571743905544281,-0.237550750374794,-0.9303478002548218,0.6929265856742859,-0.21204674243927002,0.7501727938652039
24.4,-0.4968861937522888,0.5789585709571838,-0.5166735649108887,0.9008394479751587,-0.36890551447868347,0.7657378911972046
24.45,-0.5737970471382141,0.844093382358551,0.22479726374149323,0.921562671661377,-0.6367565989494324,0.5576791167259216
24.5,-0.8533557653427124,0.3166589140892029,0.9587300419807434,0.7882908582687378,-0.9549654126167297,0.31464722752571106
24.55,-0.8529049754142761,-0.40048423409461975,1.0882518291473389,0.5287722945213318,-1.130169153213501,0.16943225264549255
24.6,-0.7370306253433228,-0.3512164354324341,1.047878384590149,0.31159406900405884,-0.8714328408241272,0.10562224686145782
24.65,-1.3485382795333862,0.15083681046962738,1.404443621635437,0.25400039553642273,-0.23037323355674744,0.14554230868816376
24.7,-1.425081491470337,0.46393194794654846,1.4730784893035889,0.15345248579978943,0.1443057358264923,0.18870404362678528
24.75,-0.4365556836128235,0.6167793273925781,0.5530692934989929,-0.208149716258049,0.11096865683794022,-0.1059955582022667
24.8,0.13596166670322418,0.4584227502346039,-0.15494553744792938,-0.5609375834465027,0.1712702065706253,-0.6017230153083801
24.85,-0.326482355594635,-0.17626099288463593,0.18645340204238892,-0.5597966313362122,0.5557513236999512,-0.8967753052711487
24.9,-0.9573423862457275,-0.23984253406524658,0.5776885151863098,-0.3032119870185852,0.6987081170082092,-0.8143242597579956
24.95,-0.11125411093235016,0.03562068194150925,0.1381138116121292,-0.16039128601551056,0.07575692981481552,-0.4139362871646881
25.0,1.358737587928772,-0.10285845398902893,-0.5138731002807617,-0.17874449491500854,-0.44844481348991394,-0.1651964634656906
25.05,1.2626926898956299,-0.22098056972026825,-0.5318241715431213,-0.1052064448595047,-0.13677459955215454,-0.23914726078510284
25.1,0.17164964973926544,-0.1882620006799698,-0.09604429453611374,0.06774759292602539,0.22562502324581146,-0.24120916426181793
25.15,0.037552423775196075,-0.10548403114080429,0.17718400061130524,0.2222924679517746,-0.018987711519002914,0.031864382326602936
25.2,0.45064669847488403,-0.01722620241343975,0.15272782742977142,0.34230178594589233,-0.2437746822834015,0.30442652106285095
25.25,0.16727404296398163,0.15375424921512604,0.12929366528987885,0.4045040011405945,-0.028823524713516235,0.3587647080421448
25.3,-0.3444368243217468,0.38364508748054504,0.3963061571121216,0.39182746410369873,0.11870164424180984,0.2980899512767792
25.35,-0.6500199437141418,0.5230998992919922,0.7342299818992615,0.3619723618030548,-0.031110821291804314,0.24295377731323242
25.4,-0.7933334112167358,0.4045552909374237,0.9578502774238586,0.34180790185928345,-0.2594631612300873,0.22947899997234344
25.45,-0.8898851275444031,0.23455612361431122,1.1528195142745972,0.31133121252059937,-0.39710524678230286,0.22280126810073853
25.5,-1.0452730655670166,0.28064337372779846,1.2127023935317993,0.25715556740760803,-0.4736534059047699,0.19182151556015015
25.55,-1.0849668979644775,0.38186925649642944,1.1345899105072021,0.16685751080513,-0.6014551520347595,0.12891173362731934
25.6,-0.8161517381668091,0.5651120543479919,0.9915547370910645,0.006349931005388498,-0.7497432231903076,0.022047949954867363
25.65,-0.12407413125038147,0.6325578689575195,0.6989557147026062,-0.23805710673332214,-0.7134690880775452,-0.1475544571876526
25.7,0.3581925928592682,0.42640310525894165,0.2482171654701233,-0.4665862023830414,-0.30714151263237,-0.38061952590942383
25.75,0.20249347388744354,0.2595844864845276,-0.17262758314609528,-0.5709441900253296,0.22180208563804626,-0.5614023804664612
25.8,-0.04042862355709076,0.2500162720680237,-0.4473441541194916,-0.5572671294212341,0.4370909035205841,-0.5422961711883545
25.85,0.1685071587562561,0.3338165879249573,-0.6825113296508789,-0.5071666240692139,0.2737672030925751,-0.3519640266895294
25.9,0.7592247128486633,0.4659711420536041,-1.0315765142440796,-0.4813191294670105,0.06779079884290695,-0.17772750556468964
25.95,1.197807788848877,0.41031187772750854,-1.3275413513183594,-0.48592376708984375,0.0993034839630127,-0.13850200176239014
26.0,1.277836561203003,0.03397860378026962,-1.3417425155639648,-0.4757004976272583,0.36677947640419006,-0.18716290593147278
26.05,1.022505760192871,-0.37970536947250366,-1.231993556022644,-0.41541266441345215,0.7199872136116028,-0.21882818639278412
26.1,0.6026953458786011,-0.6830778121948242,-1.0972362756729126,-0.3334003984928131,0.9439234733581543,-0.12206798046827316
26.15,0.3008561432361603,-0.9269209504127502,-0.961875855922699,-0.2060035616159439,1.0491052865982056,0.12793932855129242
26.2,-0.1785212755203247,-0.8627673387527466,-0.7889555096626282,0.02969898283481598,1.2586184740066528,0.43105098605155945
26.25,-0.8592275381088257,-0.28620630502700806,-0.4925024211406708,0.35421884059906006,1.5263175964355469,0.7593666911125183
26.3,-1.4356311559677124,0.36322587728500366,-0.01585892029106617,0.730268657207489,1.7133440971374512,1.050443410873413
26.35,-1.908616065979004,0.4607514441013336,0.6960304379463196,0.9691291451454163,1.820791482925415,1.1011987924575806
26.4,-2.1395177841186523,-0.08433075249195099,1.2978477478027344,0.8067195415496826,1.6569584608078003,0.7927161455154419
26.45,-2.0840229988098145,-0.5869123935699463,1.8379127979278564,0.44187992811203003,1.2402598857879639,0.29481759667396545
26.5,-2.0208635330200195,-0.6309426426887512,2.468622922897339,0.19006215035915375,0.9496484994888306,-0.06277899444103241
26.55,-1.3596850633621216,-0.21700595319271088,2.572248935699463,0.0746198371052742,0.8613799214363098,-0.21318641304969788
26.6,-0.29267430305480957,0.06977259367704391,2.431236743927002,-0.04215957224369049,0.9618831872940063,-0.3521687984466553
26.65,0.268274188041687,0.2616194784641266,2.6315419673919678,-0.2334468811750412,0.892122745513916,-0.5288259387016296
26.7,0.6693820953369141,0.8838616013526917,2.597781181335449,-0.3567391037940979,0.25595617294311523,-0.5842835307121277
26.75,1.1356167793273926,1.1056357622146606,2.2010371685028076,-0.3742002248764038,-0.49276113510131836,-0.46664345264434814
26.8,1.9470808506011963,0.18995389342308044,1.2148046493530273,-0.2914535403251648,-1.2292407751083374,-0.2183896005153656
26.85,2.3293724060058594,-0.09834660589694977,0.36191707849502563,-0.11981339752674103,-1.6490167379379272,0.07301296293735504
26.9,1.6317708492279053,0.6581794619560242,-0.27063435316085815,-0.07666293531656265,-1.2649755477905273,0.21541619300842285
26.95,0.3224309980869293,0.5526973009109497,-0.892659604549408,-0.2407636046409607,-0.4634520709514618,0.09994274377822876
27.0,-0.5571951270103455,0.15661431849002838,-0.7450438141822815,-0.3639377951622009,0.012719240039587021,-0.09665140509605408
27.05,0.113101065158844,-0.08063505589962006,-0.36068591475486755,-0.34350186586380005,-0.10862619429826736,-0.14938123524188995
27.1,0.7458215355873108,-0.19182679057121277,-0.28107595443725586,-0.27006423473358154,-0.2175418883562088,-0.13995838165283203
27.15,0.36421215534210205,-0.27605533599853516,-0.4709988534450531,-0.199224591255188,-0.16380423307418823,-0.14540711045265198
27.2,0.2929326891899109,-0.4700470268726349,-0.5787596702575684,-0.13660690188407898,-0.22965027391910553,-0.07609200477600098
27.25,0.7654091715812683,-0.5890312194824219,-0.6312023997306824,-0.17739959061145782,-0.19464068114757538,-0.016273759305477142
27.3,0.5862609148025513,-0.025615626946091652,-0.7291983366012573,-0.26061636209487915,0.17871668934822083,-0.031500957906246185
27.35,0.22649908065795898,0.26871880888938904,-0.7846788167953491,-0.20378318428993225,0.6438016891479492,0.014121819287538528
27.4,-0.2134084850549698,0.3059559464454651,-0.6984850764274597,-0.04717472940683365,1.131723403930664,0.07921364903450012
27.45,-0.8356274366378784,1.1365987062454224,-0.4686066806316376,0.21657338738441467,1.4858695268630981,0.18447516858577728
27.5,-0.7835121154785156,0.5570192337036133,-0.08547018468379974,0.5988123416900635,1.7011276483535767,0.2604687213897705
27.55,-0.9220873117446899,-0.5218860507011414,0.9139587879180908,0.9207253456115723,1.8480141162872314,0.14908792078495026
27.6,-1.0151093006134033,-0.23802872002124786,2.237964153289795,1.2403233051300049,1.4605827331542969,0.03754119947552681
27.65,-0.5971403121948242,0.4291704595088959,3.6376094818115234,1.6365077495574951,0.7557355165481567,-0.07060420513153076
27.7,-0.03267359733581543,0.7907446622848511,4.781917572021484,1.8351061344146729,0.1306830197572708,-0.1307472437620163
27.75,0.5725207328796387,0.46972545981407166,4.901844024658203,1.405860185623169,-0.18108056485652924,-0.13531167805194855
27.8,0.6592893600463867,-0.26883241534233093,4.877663612365723,0.49820414185523987,-0.04596182331442833,-0.14199425280094147
27.85,0.46329498291015625,-0.7004674077033997,5.12418794631958,-0.22703468799591064,0.07360619306564331,-0.1064918264746666
27.9,0.2149214744567871,-0.6759303212165833,5.010812282562256,-0.6259056329727173,-0.07133840024471283,-0.009728556498885155
27.95,-0.0924525260925293,0.019790438935160637,4.446127891540527,-0.7953637838363647,-0.5336672067642212,0.1013883575797081
28.0,-0.19863629341125488,0.7988176345825195,2.9258809089660645,-0.9288713335990906,-1.0519442558288574,0.2826315760612488
28.05,-0.47410380840301514,1.2551660537719727,0.7781450748443604,-1.2496455907821655,-1.0727533102035522,0.4426445960998535
28.1,-0.877525806427002,1.3674947023391724,-0.6815055012702942,-1.5983067750930786,-0.5521573424339294,0.35451140999794006
28.15,-0.9923494458198547,0.6190443634986877,-1.1467561721801758,-1.7022409439086914,0.08818637579679489,0.07962173968553543
28.2,-1.1203933954238892,-0.3167572319507599,-1.1358113288879395,-1.5833185911178589,0.3073233962059021,-0.18809035420417786
28.25,-0.7349245548248291,-0.8948718309402466,-1.3324602842330933,-1.2763508558273315,-0.2416829764842987,-0.22731848061084747
28.3,-0.09185874462127686,-1.1187477111816406,-1.7570500373840332,-0.898688793182373,-0.8675028681755066,-0.12486211210489273
28.35,0.41438519954681396,-0.951873779296875,-2.0446739196777344,-0.5171433687210083,-0.9616636037826538,-0.08969300985336304
28.4,1.0082731246948242,-0.818516731262207,-1.9305464029312134,-0.13656605780124664,-0.6928694248199463,-0.11755183339118958
28.45,1.4968547821044922,-0.8356466293334961,-1.2861697673797607,0.2167186141014099,-0.3698592483997345,-0.17032814025878906
28.5,1.592132806777954,-0.334684282541275,-0.5189626812934875,0.5496067404747009,-0.29295891523361206,-0.08533645421266556
28.55,1.9744019508361816,0.3615647852420807,-0.26192507147789,0.854968786239624,-0.41500431299209595,0.1802469789981842
28.6,2.419741630554199,0.8670494556427002,-0.17316824197769165,1.0641385316848755,-0.17337079346179962,0.3360642194747925
28.65,2.337811231613159,1.0898220539093018,0.12087293714284897,1.04206383228302,0.42531388998031616,0.3198949992656708
28.7,1.9220678806304932,1.0215389728546143,0.6075620651245117,0.7967411279678345,0.8941512107849121,0.272308886051178
28.75,1.3630824089050293,0.7018185257911682,1.101646900177002,0.47129377722740173,1.089786410331726,0.2582923471927643
28.8,0.8168613910675049,0.299468994140625,1.4946943521499634,0.21985793113708496,1.136562705039978,0.27870869636535645
28.85,0.44161635637283325,-0.05373485013842583,1.919377326965332,0.1396358460187912,1.132788896560669,0.32565733790397644
28.9,0.2408350706100464,-0.12371931225061417,2.001965045928955,0.1809852123260498,1.0111030340194702,0.36958929896354675
28.95,0.0722496509552002,-0.09909448027610779,1.7463715076446533,0.16990652680397034,0.889366626739502,0.35009700059890747
29.0,-0.14641356468200684,-0.3186227083206177,1.5049850940704346,-0.016191624104976654,0.8099364042282104,0.24751073122024536
29.05,-0.2093173861503601,-0.39058414101600647,1.6943988800048828,-0.1843852996826172,0.6242333650588989,0.08523544669151306
29.1,-0.043564438819885254,-0.4012386202812195,2.193984031677246,-0.10320313274860382,0.37322402000427246,-0.07766573131084442
29.15,0.29118263721466064,-0.320196270942688,2.1536850929260254,0.14929598569869995,0.0922418013215065,-0.16663935780525208
29.2,0.5987933874130249,0.45090773701667786,1.657098412513733,0.2690320611000061,-0.05155889317393303,-0.20709411799907684
29.25,0.6426049470901489,1.131466031074524,1.1797655820846558,0.051488786935806274,-0.011020234785974026,-0.24665027856826782
29.3,0.5443183779716492,1.0927973985671997,0.7517305016517639,-0.3842194378376007,-0.10746430605649948,-0.2527148723602295
29.35,0.630178689956665,0.9006005525588989,0.5361056923866272,-0.6968016624450684,-0.34698590636253357,-0.21403542160987854
29.4,0.8725590109825134,0.19005686044692993,0.4833679795265198,-0.7056933641433716,-0.45222046971321106,-0.15733516216278076
29.45,0.43878281116485596,-0.7142382264137268,0.501681923866272,-0.5063719749450684,-0.483033686876297,-0.06342454999685287
29.5,-0.17084121704101562,-0.5956440567970276,-0.056586235761642456,-0.19718414545059204,-0.6643344759941101,0.13703477382659912
29.55,-0.6634595394134521,-0.37161925435066223,-0.7571773529052734,0.021062329411506653,-0.5972164869308472,0.3175783157348633
29.6,-1.5114696025848389,-0.09815984219312668,-1.0164648294448853,0.06676413863897324,-0.1931363046169281,0.300077885389328
29.65,-1.7735114097595215,0.23526188731193542,-0.834652841091156,0.08659003674983978,0.03356045112013817,0.15141698718070984
29.7,-1.5536154508590698,0.1195935606956482,-0.35543668270111084,0.09191247075796127,-0.09174264222383499,-0.05300610139966011
29.75,-1.158693790435791,0.04295630007982254,-0.2815457880496979,0.0799647718667984,-0.5703904628753662,-0.1786843091249466
29.8,-0.7323952317237854,-0.1863889843225479,-0.8057408332824707,-0.020481951534748077,-0.8921287059783936,-0.20775003731250763
29.85,-0.34758633375167847,-0.5153732299804688,-1.142337441444397,-0.17412012815475464,-0.5941258668899536,-0.28159603476524353
29.9,-0.08418518304824829,-0.10223004221916199,-1.0215239524841309,-0.17451111972332,0.18889515101909637,-0.44750019907951355
29.95,0.008126899600028992,0.3088379502296448,-0.4435127079486847,-0.00624692440032959,0.982582688331604,-0.6282504200935364
30.0,0.15413601696491241,0.5451841950416565,0.22981129586696625,0.166954904794693,1.0482091903686523,-0.6807725429534912
30.05,0.5403176546096802,0.5924158692359924,0.06486846506595612,0.18630832433700562,0.3412751853466034,-0.45249247550964355
30.1,0.9330822825431824,0.42245784401893616,-0.48095300793647766,0.09635511785745621,-0.13179314136505127,-0.1642669439315796
30.15,0.9131762981414795,-0.16727346181869507,-0.4263100028038025,0.047693487256765366,0.14772111177444458,-0.010887235403060913
30.2,0.2576653063297272,0.038564689457416534,0.20457597076892853,0.1472574770450592,0.7132736444473267,0.0971081405878067
30.25,-0.2085895538330078,0.4721250832080841,0.5601359009742737,0.3586624562740326,0.955746591091156,0.2732057571411133
30.3,-0.33689507842063904,0.4630604088306427,0.3230026960372925,0.411708801984787,0.9761545658111572,0.41067641973495483
30.35,-0.7560205459594727,0.31729504466056824,0.3954293429851532,0.17011040449142456,1.107613205909729,0.4381142854690552
30.4,-1.2627499103546143,0.36715593934059143,0.7815852761268616,-0.11612392961978912,1.1981687545776367,0.49982115626335144
30.45,-1.3927085399627686,0.6286477446556091,0.6355237364768982,-0.22230897843837738,1.1259770393371582,0.5892345309257507
30.5,-1.1940466165542603,0.7052440643310547,0.11652880162000656,-0.20246897637844086,1.2113008499145508,0.5037057995796204
30.55,-0.5710461735725403,0.29372403025627136,0.8350751399993896,-0.22662551701068878,1.4491748809814453,0.15638619661331177
30.6,0.588316798210144,-0.15389826893806458,1.1638058423995972,-0.1586773693561554,0.7764817476272583,-0.025426456704735756
30.65,1.2822232246398926,0.08543785661458969,-0.004284911789000034,0.02405981346964836,-0.5364773273468018,0.09807255119085312
30.7,1.7321929931640625,0.3821975886821747,-1.2928918600082397,0.053685110062360764,-0.9823396801948547,0.14462429285049438
30.75,2.1133644580841064,-0.10040933638811111,-1.4042212963104248,-0.0395980179309845,-0.25565749406814575,-0.05197394639253616
30.8,2.174875020980835,-0.3677280843257904,-1.0146055221557617,-0.058422576636075974,0.442785382270813,-0.18863429129123688
30.85,2.062333106994629,-0.17442497611045837,-1.0405995845794678,-0.008254557847976685,0.46826913952827454,-0.11392008513212204
30.9,1.8781332969665527,-0.22526250779628754,-1.0858904123306274,0.07317692786455154,0.342422753572464,-0.032688796520233154
30.95,1.4255948066711426,-0.3284253180027008,-0.519558310508728,0.22198262810707092,0.49464473128318787,-0.07367809861898422
31.0,1.0504298210144043,-0.4534769058227539,0.14749696850776672,0.496834397315979,0.6033424735069275,-0.17390327155590057
31.05,0.7385232448577881,-0.17130661010742188,0.49052637815475464,0.7864718437194824,0.5978118777275085,-0.2887101471424103
31.1,0.28622597455978394,0.4677915871143341,0.7581139802932739,0.8686349391937256,0.66312575340271,-0.3881645202636719
31.15,0.15176641941070557,0.43400001525878906,1.2801071405410767,0.649341881275177,0.6490013003349304,-0.4248112142086029
31.2,0.31803858280181885,0.06439489871263504,1.6712740659713745,0.2997395992279053,0.17911405861377716,-0.4002472162246704
31.25,0.6549450159072876,-0.17042545974254608,1.4145257472991943,0.016918256878852844,-0.5215840935707092,-0.37748900055885315
31.3,0.9298153519630432,-0.09638310223817825,0.9547543525695801,-0.1511082798242569,-0.7599610686302185,-0.32455044984817505
31.35,0.700842022895813,-0.3062467575073242,0.4519388973712921,-0.24422615766525269,-0.45741555094718933,-0.17084042727947235
31.4,0.43147987127304077,-0.26396846771240234,0.11559764295816422,-0.37856727838516235,0.030473429709672928,-0.054940398782491684
31.45,0.45281144976615906,0.2802915871143341,0.40562674403190613,-0.48971250653266907,0.36785072088241577,-0.08332370221614838
31.5,0.7985843420028687,0.6947432160377502,0.7300800681114197,-0.48799043893814087,0.20780228078365326,-0.21939589083194733
31.55,1.1282556056976318,0.4991331994533539,0.6640193462371826,-0.3217819333076477,-0.6045641303062439,-0.26573488116264343
31.6,1.2442524433135986,0.1634112298488617,-0.02616696245968342,-0.12408357113599777,-1.418674111366272,-0.1580066680908203
31.65,1.0475428104400635,0.26463329792022705,-0.5675838589668274,-0.020689688622951508,-1.4530690908432007,0.002615814795717597
31.7,0.7610098719596863,0.337682843208313,-1.1071138381958008,-0.04726628214120865,-0.8810881972312927,0.15476036071777344
31.75,0.3584175705909729,0.16450223326683044,-1.0685137510299683,-0.24501797556877136,-0.06674040108919144,0.21035951375961304
31.8,-0.02381497621536255,0.15830138325691223,-0.3946443498134613,-0.4289775490760803,0.4133656620979309,0.148140549659729
31.85,-0.11179453134536743,0.11583041399717331,0.2708941102027893,-0.3399980068206787,0.29124805331230164,0.054897017776966095
31.9,0.041386544704437256,0.04631135240197182,0.6735259294509888,0.020303506404161453,-0.2669035494327545,0.005885292775928974
31.95,0.19685740768909454,0.3244791328907013,0.2248982936143875,0.43434327840805054,-0.8950681090354919,0.10172698646783829
32.0,0.15617048740386963,0.3991786241531372,-0.8387470841407776,0.44029152393341064,-0.915641188621521,0.2716206908226013
32.05,-0.07955294847488403,0.19303426146507263,-1.460520625114441,-0.06598038226366043,-0.20465104281902313,0.2961113452911377
32.1,-0.5419988632202148,0.06711579859256744,-0.8042824864387512,-0.5751699209213257,0.6300722360610962,0.1730956882238388
32.15,-0.5930041074752808,0.1615104377269745,0.15361954271793365,-0.6352835297584534,0.914007842540741,0.035606153309345245
32.2,-0.05190661549568176,-0.09732633084058762,0.711104154586792,-0.29457759857177734,0.45341601967811584,-0.011999141424894333
32.25,0.5968690514564514,-0.2893839180469513,0.49622562527656555,0.2351936399936676,-0.32328566908836365,0.06138896197080612
32.3,0.4893351197242737,-0.0005759865744039416,-0.09408143162727356,0.6429451704025269,-0.580842137336731,0.1810983121395111
32.35,-0.04064252972602844,0.23032385110855103,-0.6513367891311646,0.5899155139923096,-0.07248741388320923,0.23881284892559052
32.4,-0.6762636303901672,0.3182048797607422,-0.41936901211738586,0.1292230784893036,0.7631245851516724,0.16859720647335052
32.45,-0.7626392841339111,0.18369287252426147,0.5522176027297974,-0.22129037976264954,1.0777496099472046,0.05615293234586716
32.5,-0.17695480585098267,-0.10960777848958969,1.1933151483535767,-0.2214023768901825,0.6954663991928101,-0.06477349251508713
32.55,0.1868918538093567,-0.3900796175003052,1.327094554901123,0.07377171516418457,0.00012856360990554094,-0.1495954692363739
32.6,0.2518864870071411,-0.37698277831077576,0.746781051158905,0.40596258640289307,-0.6374200582504272,-0.1128237396478653
32.65,0.11718950420618057,-0.1385030746459961,-0.10604558885097504,0.3604850769042969,-0.6965157985687256,-0.02367151528596878
32.7,-0.1476524919271469,0.045516982674598694,-0.4445619285106659,-0.03532607853412628,-0.2133827954530716,-0.03723390772938728
32.75,-0.1591491997241974,0.3036957085132599,-0.04487477242946625,-0.36645206809043884,0.22578231990337372,-0.17785967886447906
32.8,0.3438529968261719,0.2590055763721466,0.32032662630081177,-0.39958280324935913,0.12256530672311783,-0.30612102150917053
32.85,0.8412765264511108,-0.029538117349147797,0.15930190682411194,-0.25076553225517273,-0.443778932094574,-0.28729942440986633
32.9,0.8998336791992188,0.17339619994163513,-0.37466058135032654,-0.06826367974281311,-0.9669659733772278,-0.10398369282484055
32.95,0.9699956178665161,0.3960372805595398,-1.201654314994812,0.01597374677658081,-0.9349030256271362,0.09335748106241226
33.0,1.0484340190887451,0.5004436373710632,-1.8472518920898438,-0.14347203075885773,-0.18920287489891052,0.13142116367816925
33.05,0.652208685874939,0.5006744265556335,-1.4007610082626343,-0.4644443094730377,0.6518344879150391,0.026562202721834183
33.1,0.49758726358413696,0.25893697142601013,-0.5619614720344543,-0.5344856977462769,0.6572558283805847,-0.0284365676343441
33.15,0.8086729049682617,-0.1734895408153534,-0.022340578958392143,-0.20679958164691925,-0.00288844620808959,0.0480642095208168
33.2,1.0300049781799316,-0.34546464681625366,-0.3584822416305542,0.3069465756416321,-0.5527507662773132,0.22682790458202362
33.25,0.9070740342140198,-0.060090914368629456,-1.2885905504226685,0.5989891290664673,-0.3043194115161896,0.3454427719116211
33.3,0.3400377631187439,0.188268780708313,-1.487877607345581,0.44451063871383667,0.705376148223877,0.25601330399513245
33.35,-0.29958832263946533,0.1887846142053604,-0.11235694587230682,0.1225217878818512,1.4546316862106323,0.11710194498300552
33.4,-0.04849499464035034,-0.031086020171642303,0.9741687178611755,0.12798479199409485,1.0553240776062012,0.06363273411989212
33.45,0.32623809576034546,-0.46651944518089294,1.1162190437316895,0.4500872790813446,0.18252404034137726,0.00913193728774786
33.5,0.40277817845344543,-0.2440681904554367,0.7739548683166504,0.7326764464378357,-0.29935288429260254,-0.03538467735052109
33.55,0.14529003202915192,0.3350849449634552,0.3634718954563141,0.6633557081222534,-0.061426565051078796,-0.01078761089593172
33.6,-0.24218463897705078,0.613347053527832,0.39279210567474365,0.21754305064678192,0.5729771852493286,0.022683052346110344
33.65,-0.10214182734489441,0.3216495215892792,0.9780856370925903,-0.21866028010845184,0.7691788077354431,-0.007751415017992258
33.7,0.5564663410186768,-0.14475636184215546,1.3204560279846191,-0.2952846884727478,0.29716333746910095,-0.08861804753541946
33.75,0.9873596429824829,-0.00991725455969572,1.1019054651260376,-0.11424342542886734,-0.325666218996048,-0.14178670942783356
33.8,1.0942316055297852,0.3906203508377075,0.16683587431907654,0.05098875239491463,-0.6053436994552612,-0.03265313804149628
33.85,0.7390979528427124,0.5297290086746216,-0.8707691431045532,-0.11312326788902283,-0.21073518693447113,0.1464041918516159
33.9,0.14220792055130005,0.297949880361557,-0.7837337255477905,-0.5238789319992065,0.44064152240753174,0.2284826934337616
33.95,0.05351411551237106,-0.06030368432402611,-0.2041102945804596,-0.7651857733726501,0.5673728585243225,0.19061939418315887
34.0,0.24765363335609436,-0.4051981568336487,0.09656953811645508,-0.6068902611732483,0.1290559023618698,0.11211713403463364
34.05,0.3731365203857422,-0.4192161560058594,-0.5160346627235413,-0.22045373916625977,-0.4231964647769928,0.09159653633832932
34.1,0.30639737844467163,-0.026456763967871666,-1.1608633995056152,0.055916283279657364,-0.4482437074184418,0.07423794269561768
34.15,0.328643798828125,0.2290707677602768,-1.3388214111328125,0.12010709196329117,-0.024671707302331924,0.017894143238663673
34.2,0.5833619832992554,0.3618727922439575,-0.8844377994537354,0.05811057612299919,0.3020803928375244,-0.020468318834900856
34.25,1.0568217039108276,0.5307285189628601,-0.6826015114784241,0.04770296439528465,0.10665635764598846,0.06370110809803009
34.3,1.6779190301895142,0.5921565890312195,-0.5425074100494385,0.13436363637447357,-0.08643584698438644,0.16186213493347168
34.35,2.2816717624664307,0.5883628726005554,0.265168696641922,0.34665873646736145,-0.022369839251041412,0.22612345218658447
34.4,2.5440797805786133,0.8882009983062744,1.017839789390564,0.7254292964935303,-0.04698142036795616,0.34237366914749146
34.45,2.251249313354492,1.5578720569610596,2.5004873275756836,1.0883936882019043,0.00304882088676095,0.4340693950653076
34.5,1.2556700706481934,1.8919516801834106,4.204614639282227,1.2706371545791626,-0.13066157698631287,0.6134451627731323
34.55,-0.2412712574005127,1.1674154996871948,5.015284538269043,1.012923002243042,-0.6784513592720032,0.835976779460907
34.6,-1.7385071516036987,-0.03692566230893135,5.175175666809082,0.3705390691757202,-1.4834868907928467,0.9271067976951599
34.65,-3.532261371612549,-0.5460400581359863,4.968299865722656,-0.3108004033565521,-2.018251419067383,0.8545538783073425
34.7,-5.78776216506958,0.00315232970751822,3.8976922035217285,-0.9572904706001282,-2.311591386795044,0.6553482413291931
34.75,-7.963165283203125,0.6076540946960449,1.611161708831787,-1.4873580932617188,-2.836796522140503,0.36848577857017517
34.8,-8.537238121032715,1.0544202327728271,-1.9173883199691772,-1.7493140697479248,-3.9443435668945312,0.17286467552185059
34.85,-5.250771999359131,1.9316065311431885,-6.4272236824035645,-1.99212646484375,-5.477224826812744,0.34523671865463257
34.9,-1.0504894256591797,1.6007496118545532,-8.919380187988281,-2.5795750617980957,-6.122408866882324,0.2878696024417877
34.95,2.77984881401062,0.19941863417625427,-8.136601448059082,-2.8855223655700684,-5.458297252655029,-0.45815950632095337
35.0,5.530881881713867,-1.38911771774292,-5.950788497924805,-2.554276704788208,-4.1579132080078125,-1.3625174760818481
35.05,7.250515937805176,-2.565969467163086,-4.169955730438232,-1.8734385967254639,-2.8481943607330322,-1.7070140838623047
35.1,7.4424896240234375,-3.444303512573242,-2.9686553478240967,-1.0330452919006348,-1.3416016101837158,-1.4729846715927124
35.15,6.078000545501709,-3.3373632431030273,-3.2521164417266846,-0.1704690158367157,0.4518822729587555,-0.9366437792778015
35.2,3.621786117553711,-2.7959253787994385,-4.530918598175049,0.5399490594863892,2.422628402709961,-0.35900288820266724
35.25,0.8998115062713623,-1.1745917797088623,-6.308842658996582,0.9732335209846497,4.2268452644348145,0.3024081587791443
35.3,-3.0101888179779053,1.6955199241638184,-8.162090301513672,1.2284066677093506,5.720766544342041,0.526826798915863
35.35,-8.236490249633789,4.5932183265686035,-8.043129920959473,0.8551542162895203,6.797918319702148,0.05561605095863342
35.4,-12.574455261230469,5.275521278381348,-3.3201961517333984,-0.27294591069221497,7.0663275718688965,0.06333984434604645
35.45,-12.416231155395508,3.4856936931610107,2.431377649307251,-0.9299883246421814,6.567057132720947,0.842751681804657
35.5,-9.574267387390137,1.0271799564361572,6.399750709533691,-0.7130536437034607,5.854992389678955,1.5224902629852295
35.55,-5.858025074005127,-1.2019680738449097,8.671598434448242,-0.12252026796340942,5.281492233276367,1.7062965631484985
35.6,-1.0692481994628906,-2.2730538845062256,9.49577522277832,0.28078198432922363,4.823360919952393,1.4972902536392212
35.65,4.818009376525879,-2.5478076934814453,8.58448314666748,0.39799433946609497,4.201493263244629,1.0676268339157104
35.7,9.77401351928711,-2.378377914428711,5.605662822723389,0.19858992099761963,3.2374813556671143,0.5912353992462158
35.75,11.982115745544434,-1.8913732767105103,2.762497663497925,-0.06674014776945114,1.8295142650604248,0.2601841986179352
35.8,11.417325973510742,-0.9906516671180725,2.5335307121276855,-0.33987483382225037,0.11872460693120956,0.17832006514072418
35.85,9.797630310058594,-0.07330381870269775,4.360860824584961,-0.5918720364570618,-1.5070247650146484,0.12098246067762375
35.9,6.222404956817627,1.4530173540115356,8.121973037719727,-0.625071108341217,-3.162532329559326,-0.09230440855026245
35.95,0.10091638565063477,2.812268018722534,10.319961547851562,-0.2998082935810089,-4.618259429931641,-0.2702181339263916
36.0,-6.3562421798706055,3.039149045944214,8.555743217468262,0.07566750049591064,-5.821095943450928,-0.1235312819480896
36.05,-10.00377082824707,1.59437894821167,3.8366284370422363,0.3268027603626251,-6.6991071701049805,0.42966488003730774
36.1,-10.461641311645508,-0.08848248422145844,-0.6915755271911621,0.1302506923675537,-7.035199165344238,0.8406998515129089
36.15,-9.29832649230957,-0.7166246771812439,-4.454930305480957,0.177000492811203,-6.812603950500488,0.9660754799842834
36.2,-5.352884292602539,-1.1795663833618164,-8.233317375183105,0.4181177616119385,-5.97626256942749,1.179033637046814
36.25,0.9421253204345703,-0.7027172446250916,-11.387285232543945,0.2745364010334015,-4.465892314910889,0.9536213874816895
36.3,4.7994279861450195,-1.495256781578064,-9.121331214904785,-0.3265729546546936,-2.5380098819732666,-0.14035850763320923
36.35,4.445601940155029,-0.8331198692321777,-6.837516784667969,0.08801120519638062,-1.0174486637115479,-1.0973929166793823
36.4,5.0675249099731445,-0.2844977080821991,-4.962804317474365,0.9407579302787781,-0.13962024450302124,-0.4185001254081726
36.45,3.8113901615142822,-0.0014720367034897208,-4.610744953155518,1.525320053100586,0.3866586685180664,0.8540467023849487
36.5,3.0881617069244385,-0.09330044686794281,-4.36369514465332,1.668959379196167,1.0573662519454956,1.5613977909088135
36.55,0.8500220775604248,1.2886232137680054,-4.400870323181152,1.8435847759246826,2.2853176593780518,0.8941335678100586
36.6,-1.0856196880340576,1.6998246908187866,-4.056894779205322,1.458923101425171,3.258763313293457,0.5094603896141052
36.65,-3.0122873783111572,1.8747856616973877,-2.4906699657440186,0.9707088470458984,3.705498218536377,0.48826783895492554
36.7,-3.8519458770751953,1.7632304430007935,-1.1631840467453003,0.8139898777008057,4.154890537261963,0.6318370699882507
36.75,-5.072620391845703,0.7568309903144836,-0.4587993025779724,0.5944275259971619,5.111234188079834,0.4761485755443573
36.8,-5.700493812561035,0.41788265109062195,0.2545755207538605,0.12019041180610657,5.838778018951416,0.1623130440711975
36.85,-5.6479949951171875,0.181950181722641,1.6830822229385376,-0.7909656763076782,6.277644157409668,-0.1279151290655136
36.9,-4.726634979248047,-0.05025247111916542,4.8899431228637695,-1.4911125898361206,6.243011951446533,0.0856502503156662
36.95,-1.348313570022583,-0.7845911979675293,5.730903625488281,-0.7724650502204895,5.0155181884765625,0.3749251067638397
37.0,-0.6399350166320801,-1.1168997287750244,2.8292832374572754,-0.01329302042722702,3.126418352127075,0.2605116069316864
37.05,0.8461650609970093,0.18976299464702606,3.2210030555725098,-0.1809777170419693,1.631513237953186,0.4318605065345764
37.1,2.9161922931671143,-0.21840375661849976,1.5918937921524048,0.5339463949203491,0.3414786458015442,-0.1710602194070816
37.15,4.824692249298096,-0.9692877531051636,0.7335366606712341,0.7524149417877197,0.1251697838306427,-0.6809827089309692
37.2,6.946132659912109,-0.3642213046550751,2.2802038192749023,0.2117530107498169,0.5129302740097046,-0.6843603253364563
37.25,8.673269271850586,0.28253310918807983,2.7743048667907715,-0.022084981203079224,0.26386165618896484,-0.7394574284553528
37.3,7.987864971160889,1.3357375860214233,3.616065740585327,-0.1787600964307785,-0.3552664518356323,-0.5502018928527832
37.35,5.150925636291504,2.222806215286255,4.206476211547852,-0.21590955555438995,-1.076675534248352,-0.02001766674220562
37.4,2.3881728649139404,2.2714130878448486,4.323616981506348,-0.2776632606983185,-1.6532959938049316,0.5716120004653931
37.45,-0.2715088129043579,1.7039165496826172,3.8916518688201904,-0.3108240067958832,-2.095707416534424,0.8674286007881165
37.5,-2.3643531799316406,0.7559860348701477,2.8076648712158203,-0.2049962282180786,-2.4414472579956055,0.8823817372322083
37.55,-4.391246795654297,-0.13714440166950226,0.8397985696792603,-0.1592315435409546,-2.669576644897461,0.8150858879089355
37.6,-5.04057502746582,-0.9508146047592163,-0.9397669434547424,-0.45890891551971436,-2.675151824951172,0.7993958592414856
37.65,-3.9528188705444336,-0.8466932773590088,-2.0972156524658203,-0.5975179672241211,-2.6740095615386963,0.6576337814331055
37.7,-2.7794907093048096,0.2910328209400177,-3.615412712097168,-0.32176756858825684,-2.622767686843872,0.43019747734069824
37.75,-2.201143264770508,1.5965160131454468,-6.489871501922607,-0.023997798562049866,-2.454338788986206,0.3264484405517578
37.8,-1.5168137550354004,2.0847506523132324,-8.07571792602539,-0.02837824821472168,-2.566544771194458,0.8037629723548889
37.85,-0.07361888885498047,0.8477597236633301,-8.359748840332031,-0.02831411361694336,-3.1748993396759033,2.000443458557129
37.9,2.218830108642578,-0.8720795512199402,-5.948801040649414,-0.38024193048477173,-3.1262400150299072,2.3277981281280518
37.95,1.6140538454055786,-1.3237504959106445,-1.328711986541748,-0.9178079962730408,-2.0873639583587646,1.19460129737854
38.0,0.8178712725639343,-1.9769214391708374,2.5087013244628906,-0.7688392400741577,-1.185674786567688,0.45965519547462463
38.05,-0.7281773090362549,-0.9758685827255249,3.8317794799804688,-0.4011419415473938,-0.7416613101959229,-0.07895896583795547
38.1,-3.066847801208496,-0.27959102392196655,4.52593469619751,-0.19416168332099915,-0.8059351444244385,-0.2292352020740509
38.15,-3.4136648178100586,1.0179145336151123,3.5923495292663574,0.05105431377887726,-1.246199607849121,-0.007404537405818701
38.2,-2.933783769607544,0.8709896206855774,2.491183042526245,-0.1394398957490921,-1.9520825147628784,0.004974815994501114
38.25,-1.741689920425415,1.7009326219558716,-0.46673065423965454,-0.4691861867904663,-2.7045764923095703,0.1741652488708496
38.3,1.0918993949890137,0.9254973530769348,-2.273326873779297,-0.8474351167678833,-3.0708327293395996,0.34535878896713257
38.35,3.0962142944335938,-0.31191131472587585,-2.4327268600463867,-0.9441308379173279,-2.7903287410736084,0.2534063756465912
38.4,4.160635948181152,-1.212456464767456,-2.3853607177734375,-0.5526057481765747,-1.9666365385055542,-0.05015214905142784
38.45,3.7152700424194336,-1.8554271459579468,-3.3923349380493164,0.15786032378673553,-0.8997638821601868,-0.33845055103302
38.5,3.950265884399414,-2.2887542247772217,-4.090495586395264,0.5842609405517578,0.210737943649292,0.11963464319705963
38.55,3.8931519985198975,-2.5563766956329346,-4.632848262786865,1.0533477067947388,1.2834607362747192,0.3861163258552551
38.6,2.974393844604492,-1.868178129196167,-5.920764446258545,1.6274298429489136,2.409397602081299,0.14890843629837036
38.65,1.6285674571990967,-0.38006362318992615,-7.484914779663086,1.9246292114257812,3.4720475673675537,0.08247598260641098
38.7,-0.7947587966918945,1.2724642753601074,-8.052552223205566,1.8865013122558594,4.53660774230957,-0.24778462946414948
38.75,-4.73383903503418,2.8393337726593018,-6.489243030548096,1.507524013519287,5.6305036544799805,-0.8431994318962097
38.8,-7.489060401916504,3.3187878131866455,-3.420661449432373,0.9841980338096619,6.372592926025391,-1.0478591918945312
38.85,-9.95854663848877,3.773005247116089,1.5657992362976074,0.0507906973361969,6.845667362213135,-0.9729074835777283
38.9,-7.334231853485107,2.0457711219787598,6.794267177581787,-0.759543776512146,6.427898406982422,-0.17516067624092102
38.95,-2.558824062347412,0.31734219193458557,9.397315979003906,-0.442985475063324,4.809478759765625,0.35609251260757446
39.0,0.24874210357666016,-1.4431538581848145,8.637181282043457,0.10605313628911972,3.091214418411255,0.16061770915985107
39.05,1.8560290336608887,-2.2645583152770996,6.700819969177246,0.2338157445192337,1.841867446899414,-0.22790315747261047
39.1,2.6418209075927734,-2.295079469680786,4.380284309387207,-0.19147315621376038,1.176792025566101,-0.39428552985191345
39.15,4.0130085945129395,-1.5982056856155396,3.688070297241211,-0.7979714274406433,0.9087437391281128,-0.40917760133743286
39.2,2.426499366760254,-0.2761668860912323,1.4838168621063232,-0.5654700994491577,0.048375822603702545,-1.035788893699646
39.25,1.4365384578704834,0.17153653502464294,0.25147032737731934,-0.3330737352371216,-0.6510940194129944,-1.2730122804641724
39.3,0.7935922741889954,0.8883354067802429,-0.763197124004364,0.12892144918441772,-1.5200157165527344,-1.256219744682312
39.35,1.3231279850006104,1.8153451681137085,-1.7487938404083252,0.5372865796089172,-2.259821653366089,-1.1938350200653076
39.4,3.435713291168213,1.5737930536270142,-2.5229055881500244,0.7470400333404541,-2.2511088848114014,-1.201608419418335
39.45,3.6673495769500732,2.119162082672119,-1.5502880811691284,0.7264003753662109,-1.2006311416625977,-1.3023016452789307
39.5,2.2309975624084473,3.6442811489105225,-1.8155337572097778,0.8857159614562988,-0.03176802024245262,-0.9877385497093201
39.55,1.516573429107666,3.457477331161499,-0.7673869132995605,0.2791837453842163,1.3041530847549438,0.014013253152370453
39.6,2.5168650150299072,1.8451083898544312,1.0213422775268555,-0.4650098979473114,1.242884874343872,1.1346642971038818
39.65,2.3540544509887695,0.6986381411552429,0.8582584261894226,-0.3016238212585449,-0.10848329961299896,1.5499188899993896
39.7,0.9611949324607849,0.371001273393631,1.2859095335006714,-0.071169912815094,-0.6896487474441528,1.4891207218170166
39.75,-0.296911358833313,-0.35211771726608276,2.6193740367889404,0.10372185707092285,-0.9173882007598877,1.228126883506775
39.8,-0.7724525928497314,-1.4072202444076538,4.267214298248291,0.7520118951797485,-1.7889683246612549,0.8722877502441406
39.85,-1.2944142818450928,-1.629514217376709,2.513523817062378,1.1859567165374756,-2.6023175716400146,0.6330133080482483
39.9,-2.1594674587249756,-1.99213707447052,3.704397439956665,0.15751489996910095,-2.5546061992645264,0.670589804649353
39.95,-3.5883193016052246,-1.0617995262145996,2.1275875568389893,0.15618059039115906,-3.143803119659424,0.5703698396682739
40.0,-5.3787336349487305,-1.0139317512512207,0.5116187930107117,-0.22608380019664764,-3.446045398712158,0.4457535445690155
40.05,-6.568488597869873,-0.7891964316368103,-2.306065797805786,-0.6590815186500549,-3.7760772705078125,0.22479447722434998
40.1,-6.561738967895508,0.5036705732345581,-4.703132152557373,-1.2198312282562256,-3.936218500137329,-0.34506019949913025
40.15,-4.110685348510742,-0.3141336143016815,-6.60878324508667,-1.5404590368270874,-4.251423358917236,-0.6476731300354004
40.2,-0.6155133247375488,1.2852740287780762,-7.652417182922363,-1.7976391315460205,-4.778273105621338,-0.6825368404388428
40.25,4.565598964691162,1.1224381923675537,-6.653099060058594,-2.1904568672180176,-4.8861470222473145,-0.5213402509689331
40.3,7.030948638916016,0.026649070903658867,-2.933900833129883,-2.045898199081421,-4.000260353088379,-1.0736970901489258
40.35,7.19505500793457,-0.6129451394081116,-0.7155426144599915,-1.3439780473709106,-2.6822669506073,-1.235544204711914
40.4,6.2809553146362305,-1.3779771327972412,-0.5364598035812378,-0.6383554339408875,-1.2116179466247559,-0.7776840925216675
40.45,4.785640239715576,-2.2950868606567383,-1.2223609685897827,0.015061825513839722,0.4442439079284668,-0.2249547839164734
40.5,3.058814525604248,-2.274219512939453,-2.7263834476470947,0.8389227986335754,1.9593602418899536,0.16092842817306519
40.55,1.5910292863845825,-2.3032169342041016,-4.094837188720703,1.6920907497406006,3.122149705886841,0.3325542211532593
40.6,-0.24320101737976074,-2.0276050567626953,-5.5222697257995605,2.5693461894989014,3.9584004878997803,-0.11473077535629272
40.65,-2.1298460960388184,-1.42718505859375,-6.265951633453369,3.204338550567627,4.566641330718994,-0.7509865760803223
40.7,-5.2824554443359375,1.6054041385650635,-5.803286552429199,3.678283929824829,5.039741516113281,-1.329782247543335
40.75,-5.779865264892578,3.3722116947174072,-2.895907163619995,3.6413331031799316,4.4725341796875,-1.2248622179031372
40.8,-5.28441047668457,1.9403446912765503,0.05142536386847496,2.700014591217041,2.9877171516418457,-0.5690134763717651
40.85,-5.009555339813232,2.118586301803589,2.0457675457000732,2.4894185066223145,1.7349435091018677,-0.6850231289863586
40.9,-3.1531155109405518,2.7597529888153076,5.089885234832764,2.3323185443878174,2.005391836166382,-1.1972788572311401
40.95,-0.6490600109100342,2.076099157333374,6.864891529083252,1.658789873123169,3.0089988708496094,-1.2531654834747314
41.0,1.3964273929595947,0.5914208889007568,7.787031173706055,1.236541748046875,3.4166862964630127,-0.8911044597625732
41.05,3.2062392234802246,-1.2826368808746338,6.351836204528809,0.49704399704933167,2.774669885635376,-0.566550612449646
41.1,4.643829822540283,-3.826960563659668,5.4608659744262695,-0.37637078762054443,1.6731371879577637,-0.3847367763519287
41.15,4.345836639404297,-2.429870843887329,4.519242286682129,-1.018480896949768,0.4251236021518707,-0.16747286915779114
41.2,3.2847001552581787,1.8262255191802979,4.572783470153809,-1.4383701086044312,-0.030378974974155426,0.21839183568954468
41.25,2.339432954788208,3.638671398162842,2.0149011611938477,-1.958931565284729,-0.4261600077152252,0.6032316088676453
41.3,1.711792230606079,3.164870023727417,-0.8667998313903809,-2.3848555088043213,-1.455605149269104,1.0048489570617676
41.35,-0.0629199743270874,2.311713457107544,-2.616554021835327,-2.4899590015411377,-2.6572113037109375,1.7182024717330933
41.4,-1.615180492401123,1.996996283531189,-4.2389116287231445,-2.3867220878601074,-3.327531576156616,2.2643260955810547
41.45,-0.2970435619354248,-0.5474956631660461,-5.031956195831299,-1.9406112432479858,-2.8813374042510986,2.1503281593322754
41.5,-0.004611372947692871,-2.3589563369750977,-2.7720448970794678,-1.61783766746521,-1.036178469657898,0.9417456984519958
41.55,-0.687662661075592,-2.408500909805298,-1.3800312280654907,-0.9819228649139404,-0.2176590859889984,0.024314654991030693
41.6,-0.6717461347579956,-2.0147335529327393,-2.3203630447387695,0.3052915334701538,-0.6448797583580017,0.14816109836101532
41.65,0.01949918270111084,-1.604544758796692,-3.47666072845459,1.2443946599960327,-0.657433032989502,0.01975144073367119
41.7,-0.11978816986083984,-0.9100666046142578,-3.158426284790039,1.6323726177215576,-0.06874895840883255,-0.4868433475494385
41.75,-0.02681601047515869,0.18141473829746246,-2.6439599990844727,1.9255008697509766,0.2702658176422119,-0.7196491360664368
41.8,0.4195265769958496,1.1381561756134033,-1.9023391008377075,1.9563944339752197,0.5430940389633179,-0.7966374754905701
41.85,0.5178877115249634,1.4474031925201416,-0.635796308517456,1.6230844259262085,1.0210402011871338,-0.7791256308555603
41.9,0.7265523076057434,1.4770985841751099,0.7628169059753418,0.983045756816864,1.2818193435668945,-0.6260813474655151
41.95,1.3689355850219727,0.8283559083938599,1.2036373615264893,0.5003541707992554,0.8981912136077881,-0.4165411591529846
42.0,1.9577555656433105,0.4398852288722992,1.7058608531951904,0.17127984762191772,0.7999099493026733,-0.26834213733673096
42.05,2.1905593872070312,0.18497951328754425,1.3895914554595947,0.026718340814113617,0.8768801093101501,-0.10344430804252625
42.1,1.9113986492156982,0.3078633248806,0.9685251116752625,-0.1465293914079666,0.9951505064964294,0.08804439008235931
42.15,1.5101557970046997,0.7221213579177856,0.9914088249206543,-0.33132293820381165,1.0377837419509888,0.25246086716651917
42.2,1.2395790815353394,0.9818984270095825,1.0885355472564697,-0.38673192262649536,0.8246354460716248,0.3359469473361969
42.25,0.9204934239387512,0.24921421706676483,0.9072836637496948,-0.24972295761108398,0.5664605498313904,0.37353894114494324
42.3,0.41260743141174316,-0.14246562123298645,0.9693995714187622,-0.11738933622837067,0.47896891832351685,0.3942767083644867
42.35,-0.3932580351829529,0.27141374349594116,1.4088048934936523,-0.0666804164648056,0.3080355226993561,0.4026206135749817
42.4,-0.8122499585151672,-0.09803114831447601,0.9056317210197449,-0.06061640381813049,-0.22974266111850739,0.46012863516807556
42.45,-0.7879664301872253,-0.60749351978302,-0.23243458569049835,-0.19841314852237701,-0.3807844817638397,0.4786630868911743
42.5,-1.2901090383529663,-0.1932298094034195,0.471393346786499,-0.4800106883049011,0.23715105652809143,0.3548108637332916
42.55,-1.6941274404525757,0.3151129484176636,0.7696490287780762,-0.5939313769340515,0.5343260765075684,0.2329634130001068
42.6,-1.7087796926498413,0.9420433044433594,0.5839770436286926,-0.6550912857055664,0.3790000379085541,0.10435950756072998
42.65,-1.5004682540893555,0.3467054069042206,-0.43447086215019226,-0.8324738144874573,-0.07242660224437714,0.11306851357221603
42.7,-1.206217646598816,-0.2691212296485901,-0.7997567057609558,-1.074042558670044,-0.4463866055011749,0.12391826510429382
42.75,-0.9446678161621094,-0.9194060564041138,-1.6657401323318481,-1.0515429973602295,-0.916784942150116,0.21954037249088287
42.8,-0.7796456217765808,-1.1883126497268677,-2.015733480453491,-0.9106259942054749,-1.0558608770370483,0.27732548117637634
42.85,-0.5066028833389282,-1.056239128112793,-2.056624174118042,-0.5046690106391907,-1.1410951614379883,0.25625333189964294
42.9,-0.22968775033950806,-0.7973147034645081,-1.6659865379333496,0.17521685361862183,-1.1137486696243286,0.04017098248004913
42.95,0.12074774503707886,0.04727279394865036,-2.105483055114746,0.9146693348884583,-1.006394863128662,-0.36603227257728577
43.0,0.21825557947158813,0.6582815051078796,-1.8148980140686035,1.4261410236358643,-0.7670570015907288,-0.6503334045410156
43.05,0.7186943888664246,0.5472795367240906,-1.4677929878234863,1.6217012405395508,-0.42778539657592773,-0.7641568183898926
43.1,1.7147693634033203,0.7648241519927979,-0.3858371376991272,1.5103363990783691,0.15229615569114685,-0.8430806398391724
43.15,1.9554591178894043,1.1574898958206177,1.6271318197250366,1.3067998886108398,0.4325508177280426,-0.6801518201828003
43.2,1.9284570217132568,1.1417027711868286,3.2843573093414307,1.2216100692749023,0.025214603170752525,-0.4784867465496063
43.25,2.27718448638916,1.1213685274124146,2.6108827590942383,1.1003217697143555,-0.8916701674461365,-0.279750794172287
43.3,2.1676158905029297,0.982589840888977,2.45939564704895,0.748969316482544,-1.1356920003890991,-0.04096570238471031
43.35,1.5051454305648804,1.9661715030670166,1.8201318979263306,0.34094905853271484,-1.1611772775650024,0.2679252028465271
43.4,0.9803308844566345,0.7672645449638367,-0.29455649852752686,-0.1541353315114975,-1.131047248840332,0.6022428870201111
43.45,0.35714125633239746,-1.158021092414856,-0.5255740284919739,-0.410137414932251,-0.3171413838863373,0.8743841648101807
43.5,-1.1803927421569824,-1.754955530166626,-0.26009318232536316,-0.3768696188926697,0.17582081258296967,1.0424724817276
43.55,-1.2651170492172241,-0.17464259266853333,-1.2164419889450073,-0.12189993262290955,0.06704919040203094,0.9997019171714783
43.6,-1.1263377666473389,-0.25942713022232056,-0.8339594602584839,0.01305428147315979,0.7515290975570679,0.6198045611381531
43.65,-0.9099950790405273,-1.4417469501495361,0.5332131385803223,-0.01736067235469818,1.2862262725830078,0.17146927118301392
43.7,-0.7919873595237732,-1.1293041706085205,0.8669622540473938,0.12128421664237976,0.7197189927101135,-0.12983174622058868
43.75,-0.31426844000816345,-1.1912719011306763,0.5010910630226135,0.22721907496452332,0.18946504592895508,-0.2595887780189514
43.8,0.16641052067279816,-0.7321835160255432,0.6387991309165955,0.2149474173784256,0.39262810349464417,-0.44889530539512634
43.85,0.6072771549224854,-0.022568728774785995,1.25995934009552,0.2115173041820526,0.5695930123329163,-0.6076328158378601
43.9,1.1626445055007935,1.0694676637649536,0.9656317830085754,0.22586622834205627,0.18463023006916046,-0.7674065828323364
43.95,1.8180378675460815,1.4917900562286377,0.16759370267391205,0.03829014301300049,-0.31060758233070374,-0.7542383670806885
44.0,1.7653248310089111,1.1392757892608643,-0.037735555320978165,-0.3090702295303345,-0.4089920222759247,-0.5331102013587952
44.05,1.7287639379501343,0.7963802814483643,-0.37396055459976196,-0.5305046439170837,-0.3360138535499573,-0.26648882031440735
44.1,1.6417205333709717,0.1452418714761734,-0.5206878185272217,-0.5930062532424927,-0.054639123380184174,0.02160957083106041
44.15,1.3937880992889404,-0.09503071010112762,-0.19386595487594604,-0.5247268080711365,0.2919163107872009,0.2098834216594696
44.2,1.1181095838546753,0.026236604899168015,-0.036616381257772446,-0.34735944867134094,0.43865519762039185,0.2789894640445709
44.25,0.8556504249572754,-0.023950526490807533,-0.09638383984565735,-0.19639933109283447,0.4952079951763153,0.29268181324005127
44.3,0.7184560298919678,-0.023364026099443436,-0.015211852267384529,-0.07872196286916733,0.5511423349380493,0.22240887582302094
44.35,0.7764702439308167,0.23734769225120544,-0.3198963701725006,-0.024266600608825684,0.6065361499786377,0.12899965047836304
44.4,0.7933127880096436,0.48792946338653564,0.024828679859638214,-0.10501976311206818,0.7695487141609192,0.042056407779455185
44.45,0.9257203936576843,0.28465086221694946,0.6503251791000366,-0.14050447940826416,0.516990065574646,-0.024735884740948677
44.5,0.8833956122398376,-0.3862161934375763,0.7044628858566284,-0.04904226213693619,-0.15149174630641937,-0.02741379663348198
44.55,0.5169162750244141,-0.1731576919555664,0.4082130193710327,0.05244794487953186,-0.5693867802619934,-0.02907872013747692
44.6,0.16003671288490295,0.4162521958351135,0.4624520242214203,0.03661434352397919,-0.6226832270622253,-0.046527937054634094
44.65,-0.11367510259151459,0.2388324737548828,0.4830460250377655,-0.15440300107002258,-0.8833667039871216,0.03812427818775177
44.7,-0.5026979446411133,0.25954532623291016,-0.0024592087138444185,-0.44085460901260376,-1.599843144416809,0.23871901631355286
44.75,-0.945723831653595,1.650611162185669,-0.7610957026481628,-0.49461936950683594,-2.3578298091888428,0.3886943757534027
44.8,0.41338050365448,0.04783263057470322,-2.3185977935791016,-0.4390321373939514,-2.36510968208313,0.42569974064826965
44.85,-0.09893909096717834,-1.2464772462844849,-0.883122980594635,-0.6247361898422241,-1.0164874792099,0.06159387528896332
44.9,-1.3121178150177002,-0.48198431730270386,1.0605759620666504,-0.22849932312965393,-0.6554868817329407,-0.10066662728786469
44.95,-0.7244052886962891,-0.9050914645195007,0.9037081599235535,0.6648224592208862,-1.995932698249817,0.21348348259925842
45.0,-0.052751149982213974,-0.32279589772224426,-0.0575847402215004,1.1168409585952759,-2.9792215824127197,0.46951958537101746
45.05,1.0357221364974976,0.7921029925346375,-0.5838380455970764,1.3341915607452393,-2.601980209350586,0.4296441376209259
45.1,1.0337014198303223,0.18044577538967133,-0.49800342321395874,0.8383509516716003,-1.160280704498291,0.3416230082511902
45.15,0.42976126074790955,0.11696536839008331,-0.7237759828567505,0.06927163898944855,-0.07651395350694656,0.24874041974544525
45.2,0.006616473197937012,-0.07203958928585052,-0.40992969274520874,-0.5542006492614746,0.5341393947601318,0.06086381897330284
45.25,-0.680212140083313,-0.5171500444412231,0.3741814196109772,-0.853049099445343,1.0073307752609253,-0.16068394482135773
45.3,-1.1125643253326416,-0.3666965067386627,0.9648147821426392,-0.762312650680542,0.865787923336029,-0.2673242688179016
45.35,-0.8245488405227661,-0.18063363432884216,0.5905537009239197,-0.3572930097579956,0.19849133491516113,-0.13490130007266998
45.4,0.044628165662288666,0.3807592988014221,0.06984500586986542,0.12732291221618652,-0.2664894163608551,-0.004107256885617971
45.45,-0.06758883595466614,1.5446093082427979,0.8422292470932007,0.38642433285713196,-0.30812281370162964,0.08760664612054825
45.5,1.5731697082519531,2.426332712173462,0.316719114780426,0.31968116760253906,-1.0185506343841553,0.43162801861763
45.55,2.1557326316833496,2.8130393028259277,0.09409567713737488,0.01310458779335022,-0.8730071187019348,0.6216326355934143
45.6,1.2158268690109253,2.233776330947876,0.5964574217796326,-0.3530735969543457,0.05808127298951149,0.6246376037597656
45.65,0.2748250961303711,0.8809100389480591,0.7030659317970276,-0.5701650381088257,0.2201637476682663,0.7128468155860901
45.7,-0.03856852650642395,-0.1701517552137375,0.6849550008773804,-0.4657787084579468,-0.09385808557271957,0.8606412410736084
45.75,-0.3568265438079834,-0.49661552906036377,0.6836628913879395,-0.23043110966682434,-0.15465077757835388,0.9836565256118774
45.8,-0.46333926916122437,-0.9649955630302429,0.21320189535617828,-0.12010589241981506,0.06520888209342957,1.0078473091125488
45.85,-1.0212600231170654,-1.2596304416656494,0.029809411615133286,-0.13784661889076233,0.2824951708316803,0.9321248531341553
45.9,-1.117637038230896,-1.2305500507354736,-0.026041777804493904,-0.11929646134376526,0.1660550832748413,0.7901707887649536
45.95,-1.119652509689331,-1.4299994707107544,-0.24747557938098907,-0.1749068796634674,0.06984815746545792,0.579456090927124
46.0,-1.3610072135925293,-1.6967185735702515,-0.3614751696586609,-0.3387490510940552,0.055472563952207565,0.29816535115242004
46.05,-1.2695318460464478,-1.642676591873169,-0.6110495328903198,-0.4169731140136719,-0.06797408312559128,0.010359163396060467
46.1,-1.0544735193252563,-1.7228882312774658,-0.5747640132904053,-0.41988605260849,-0.0023460020311176777,-0.35698202252388
46.15,-0.8974568843841553,-0.8788349032402039,-0.475318044424057,-0.27864664793014526,0.08211114257574081,-0.691200852394104
46.2,-0.7410344481468201,-0.9531174898147583,-1.1411511898040771,-0.22251015901565552,0.2390711009502411,-0.8913848996162415
46.25,-0.9117330312728882,-0.9159280061721802,-1.016438603401184,-0.13036316633224487,0.5677241683006287,-1.0794668197631836
46.3,-0.42576509714126587,-0.8876162767410278,-0.8856897950172424,0.08650821447372437,0.8247805237770081,-1.1878002882003784
46.35,-0.5987034440040588,-0.9614726305007935,-0.32842355966567993,0.37019479274749756,1.2642377614974976,-1.2602771520614624
46.4,-0.21852752566337585,-0.3519507050514221,0.6517134308815002,0.9010682106018066,1.7073267698287964,-1.285959005355835
46.45,0.20035690069198608,1.1231193542480469,1.9039698839187622,1.5759731531143188,2.0036733150482178,-1.2491838932037354
46.5,1.3318482637405396,3.0729355812072754,2.756520986557007,2.0879878997802734,1.6010373830795288,-1.0046732425689697
46.55,2.8754677772521973,2.491929292678833,2.040288209915161,1.6879024505615234,1.0824775695800781,-0.7619736790657043
46.6,2.5313470363616943,1.6953165531158447,2.9204390048980713,0.456927627325058,0.6710256338119507,-0.5990602970123291
46.65,2.2835850715637207,1.0240670442581177,2.4826173782348633,-0.3925650715827942,-0.21560072898864746,-0.31251129508018494
46.7,1.5798861980438232,1.0492011308670044,1.9457045793533325,-1.0993329286575317,-0.4292380213737488,0.01733645610511303
46.75,2.1881327629089355,0.8274004459381104,-0.337283730506897,-1.4638502597808838,-0.9801048040390015,0.3385927677154541
46.8,1.481227993965149,0.576185405254364,-0.8444456458091736,-1.6119706630706787,-0.7747435569763184,0.5379410982131958
46.85,1.3851711750030518,-0.290121853351593,-2.7462704181671143,-1.702173113822937,-0.5755218267440796,0.6864781379699707
46.9,0.7053831815719604,-0.975430428981781,-2.822429656982422,-1.2903127670288086,0.08304731547832489,0.7544304728507996
46.95,0.25305211544036865,-2.0424914360046387,-2.300896406173706,-0.5953901410102844,0.581468939781189,0.6959591507911682
47.0,-0.1964951753616333,-1.509798288345337,-1.2574042081832886,0.13849744200706482,0.8561103343963623,0.4269217550754547
47.05,-0.8571995496749878,-0.8671094179153442,-0.7681781053543091,0.7605087757110596,0.8539630174636841,0.20999300479888916
47.1,-1.6083166599273682,-0.051314447075128555,-0.14579260349273682,1.2302849292755127,0.7712952494621277,-0.09932833909988403
47.15,-3.0772595405578613,0.5832346081733704,1.8595757484436035,1.6585936546325684,0.11196686327457428,-0.7943867444992065
47.2,-1.7346529960632324,1.4692727327346802,-0.9706653356552124,1.8894635438919067,-2.6953530311584473,-1.64290189743042
47.25,-2.358257293701172,0.6752995252609253,1.4440321922302246,1.0857110023498535,-1.4892475605010986,-2.160785436630249
47.3,-0.023226261138916016,0.03753075376152992,3.1469478607177734,0.8569916486740112,0.5572572350502014,-2.0239176750183105
47.35,1.0782471895217896,0.6491831541061401,4.764004707336426,0.5712254643440247,0.9775408506393433,-1.6313029527664185
47.4,3.840775489807129,1.2766820192337036,3.721351385116577,-0.2460218071937561,0.3873528838157654,-1.5345790386199951
47.45,4.813985824584961,0.13556592166423798,2.940122365951538,-0.8469891548156738,0.35216593742370605,-1.3002722263336182
47.5,4.8155951499938965,-0.9683674573898315,1.466394305229187,-1.138814091682434,0.10636251419782639,-0.9422957897186279
47.55,4.5092878341674805,-1.1853464841842651,0.19351759552955627,-1.119246244430542,-0.08151810616254807,-0.3577594459056854
47.6,3.598127603530884,-0.900474488735199,0.13391666114330292,-0.7798851728439331,-0.0454898439347744,0.28161823749542236
47.65,3.1778130531311035,-0.3870352506637573,0.2260631024837494,-0.31336119771003723,-0.09380906820297241,0.9088267683982849
47.7,2.895659923553467,0.8987181186676025,0.6367430090904236,0.2954787015914917,0.3132416009902954,1.3961846828460693
47.75,2.5169973373413086,2.1474051475524902,-0.10313984006643295,0.7537336349487305,1.0476435422897339,1.760887622833252
47.8,0.9033217430114746,1.9873030185699463,0.2662156820297241,0.7712247371673584,2.313493013381958,1.9098128080368042
47.85,0.002874612808227539,1.529226541519165,1.2329778671264648,0.2470530867576599,2.8618292808532715,1.6757903099060059
47.9,-0.7272906303405762,0.9569520950317383,1.2328158617019653,-0.5102973580360413,2.0423102378845215,1.4444433450698853
47.95,-1.1712126731872559,0.4283999800682068,0.8180885910987854,-0.9853250980377197,0.5916474461555481,1.272754430770874
48.0,-1.5640771389007568,-0.23850548267364502,-0.03553332760930061,-1.0549089908599854,-0.6262993812561035,1.2200251817703247
48.05,-1.4892785549163818,-0.8334295153617859,-0.8813127875328064,-0.9152600169181824,-1.1562713384628296,1.1249868869781494
48.1,-1.5133647918701172,-1.4230290651321411,-0.8896551132202148,-0.7600113153457642,-0.7755882740020752,0.8089901208877563
48.15,-1.2788407802581787,-1.6288282871246338,-0.675281286239624,-0.4888399541378021,-0.15267987549304962,0.29172396659851074
48.2,-0.8347891569137573,-1.4638787508010864,-0.21937750279903412,-0.0801498293876648,0.0795254334807396,-0.17802375555038452
48.25,-0.24096524715423584,-1.234660267829895,-0.3300243318080902,0.39128631353378296,-0.33586159348487854,-0.38346219062805176
48.3,0.5023118257522583,-0.5809717178344727,-0.3210830092430115,0.6459444761276245,-0.9234811663627625,-0.5018548369407654
48.35,0.8968066573143005,0.31068140268325806,0.2570580542087555,0.7688310146331787,-1.4817029237747192,-0.5802775621414185
48.4,1.561616063117981,0.8250324130058289,0.9696921706199646,0.9519566297531128,-1.9432790279388428,-0.56395423412323
48.45,0.9028777480125427,1.4895001649856567,1.8265987634658813,1.073399543762207,-2.0249691009521484,-0.47329840064048767
48.5,0.8055294752120972,0.455543577671051,1.3008983135223389,0.9066277742385864,-2.329602003097534,-0.2886927127838135
