Time [s],Acc_x [m/s^2],Acc_y [m/s^2],Acc_z [m/s^2],Gyro_x [1/s],Gyro_y [1/s],Gyro_z [1/s]
0.0,1.4975519180297852,0.25446510314941406,0.3462711572647095,0.42947515845298767,-0.5790358185768127,-0.7856626510620117
0.05,1.1047236919403076,0.079955093562603,0.4625992178916931,0.30821681022644043,-0.4044308662414551,-0.6311657428741455
0.1,0.23185795545578003,0.24272441864013672,0.3067622184753418,0.1542271077632904,-0.11308524012565613,-0.36255908012390137
0.15,0.061512965708971024,0.49066734313964844,0.12824106216430664,0.1820673644542694,-0.03782397881150246,-0.28024953603744507
0.2,-0.3317662477493286,0.2253713458776474,0.18935427069664001,0.19779831171035767,-0.05307707190513611,-0.2404232770204544
0.25,-0.5064259171485901,0.11224459111690521,0.25961506366729736,0.15447494387626648,-0.10379883646965027,-0.21930347383022308
0.3,-0.24809584021568298,0.15432453155517578,0.09685852378606796,0.0899125412106514,-0.1068197712302208,-0.22483965754508972
0.35,-0.10164052248001099,0.2171344757080078,0.054017357528209686,0.0802760124206543,-0.07292462885379791,-0.2267717570066452
0.4,0.0972609743475914,0.11811637878417969,0.04056001827120781,0.08767987787723541,0.0185503289103508,-0.21146199107170105
0.45,0.07581000030040741,0.11805534362792969,0.0716937780380249,0.044172950088977814,0.04124477133154869,-0.08037524670362473
0.5,0.15879808366298676,0.16179847717285156,0.06411068886518478,-0.0073686386458575726,0.08727492392063141,0.04955266788601875
0.55,-0.02874651737511158,0.5036859512329102,0.16526071727275848,-0.08636389672756195,0.18086516857147217,0.19784271717071533
0.6,-0.126230388879776,0.8311491012573242,0.30546730756759644,-0.2621775269508362,0.12272169440984726,0.4253731667995453
0.65,-0.10698424279689789,0.9170293807983398,0.14517438411712646,-0.47784310579299927,0.13988645374774933,0.5920494198799133
0.7,-0.37452441453933716,0.6896028518676758,0.05689774453639984,-0.6803408265113831,0.19913357496261597,0.6987318396568298
0.75,-0.4779371917247772,0.3111133575439453,-0.047261208295822144,-0.7836891412734985,0.19393384456634521,0.7467770576477051
0.8,-0.5338448286056519,-0.052293773740530014,-0.23394295573234558,-0.7848491668701172,0.16858209669589996,0.7633817791938782
0.85,-0.6151837110519409,-0.2336282730102539,-0.41603976488113403,-0.750968873500824,0.16548502445220947,0.7377794981002808
0.9,-0.5782277584075928,-0.1726522296667099,-0.4680204689502716,-0.6770779490470886,0.1305241584777832,0.6744182109832764
0.95,-0.6307216286659241,-0.09287452697753906,-0.23898114264011383,-0.5695372819900513,0.05995602160692215,0.5993679165840149
1.0,-0.5901609063148499,-0.0724039152264595,-0.002776386449113488,-0.4549139142036438,-0.034499067813158035,0.5408916473388672
1.05,-0.4492832124233246,-0.05913067236542702,0.026493942365050316,-0.42055243253707886,-0.05613290145993233,0.5193132758140564
1.1,-0.3610990345478058,-0.14499187469482422,-0.13064664602279663,-0.41522908210754395,0.038707416504621506,0.48120421171188354
1.15,-0.4699917733669281,-0.08675003051757812,-0.17923885583877563,-0.34211310744285583,0.11295650899410248,0.4431470036506653
1.2,-0.5031095743179321,0.16289806365966797,-0.07842332869768143,-0.24757611751556396,0.11989709734916687,0.43405067920684814
1.25,-0.425846666097641,0.24173355102539062,0.0075347269885241985,-0.21557316184043884,0.11969031393527985,0.44166624546051025
1.3,-0.41152140498161316,0.21427059173583984,-0.015439034439623356,-0.22882792353630066,0.12610997259616852,0.4309746325016022
1.35,-0.426816463470459,0.15178203582763672,-0.021480929106473923,-0.24519972503185272,0.12524206936359406,0.38768813014030457
1.4,-0.3754958510398865,0.11821460723876953,-0.018625203520059586,-0.24630685150623322,0.10251972079277039,0.35799500346183777
1.45,-0.2994421720504761,0.16104602813720703,-0.1424434781074524,-0.24995161592960358,0.08294422924518585,0.3403078317642212
1.5,-0.2583676278591156,0.1640605926513672,-0.1623249053955078,-0.24678689241409302,0.05441911891102791,0.33648931980133057
1.55,-0.20336201786994934,0.18764781951904297,-0.13144290447235107,-0.2346382737159729,0.02080276980996132,0.34971678256988525
1.6,-0.14077632129192352,0.20582866668701172,-0.11104295402765274,-0.23788657784461975,0.008154007606208324,0.36384880542755127
1.65,-0.17549556493759155,0.19259929656982422,-0.11141039431095123,-0.2583148181438446,0.024027513340115547,0.358766108751297
1.7,-0.19636443257331848,0.1354818344116211,-0.12928447127342224,-0.26466405391693115,0.0386151559650898,0.34851500391960144
1.75,-0.09056876599788666,0.07944965362548828,-0.10228829085826874,-0.24833866953849792,0.03999577835202217,0.3485355079174042
1.8,-0.010377775877714157,0.10236930847167969,-0.13000145554542542,-0.22650662064552307,0.06394363939762115,0.3533012866973877
1.85,-0.12617594003677368,0.14255237579345703,-0.09458648413419724,-0.21521203219890594,0.11743389070034027,0.36018654704093933
1.9,-0.21442310512065887,0.24681472778320312,-0.029166124761104584,-0.2102198302745819,0.14265063405036926,0.3587522804737091
1.95,-0.22632192075252533,0.3926124572753906,-0.05350908264517784,-0.22619549930095673,0.13476400077342987,0.35469117760658264
2.0,-0.2551904022693634,0.4224395751953125,-0.1146567165851593,-0.2793113887310028,0.12603968381881714,0.3559591770172119
2.05,-0.33561116456985474,0.3187980651855469,-0.14121779799461365,-0.34787341952323914,0.12813620269298553,0.35262346267700195
2.1,-0.3290320336818695,0.2027721405029297,-0.12499231845140457,-0.3768742084503174,0.10328291356563568,0.3558310270309448
2.15,-0.2742631733417511,0.08910655975341797,-0.18758754432201385,-0.37123793363571167,0.07938672602176666,0.34885430335998535
2.2,-0.29024145007133484,0.001404765178449452,-0.1780168116092682,-0.3681272268295288,0.08610095083713531,0.33285361528396606
2.25,-0.2640954852104187,0.012373924255371094,-0.07749160379171371,-0.35037025809288025,0.081525519490242,0.3328203856945038
2.3,-0.2715287208557129,0.1126108169555664,-0.12314704060554504,-0.33345192670822144,0.06921695172786713,0.3359004855155945
2.35,-0.35664770007133484,0.07715511322021484,-0.2018292099237442,-0.3454814851284027,0.06951422989368439,0.31040430068969727
2.4,-0.4369087219238281,-0.05418205261230469,-0.15963007509708405,-0.34905534982681274,0.07350336760282516,0.2787289321422577
2.45,-0.47352293133735657,-0.23720741271972656,-0.11524638533592224,-0.31613337993621826,0.0724244937300682,0.2368059754371643
2.5,-0.3451245129108429,-0.40254688262939453,-0.16688357293605804,-0.2577371597290039,0.05073223263025284,0.16216915845870972
2.55,-0.21182852983474731,-0.41690731048583984,-0.13376674056053162,-0.18758076429367065,0.021917764097452164,0.08558954298496246
2.6,-0.17191702127456665,-0.36515235900878906,-0.059666406363248825,-0.11057938635349274,0.008122572675347328,0.020502520725131035
2.65,-0.20851340889930725,-0.33498668670654297,-0.07501872628927231,-0.032004520297050476,0.0070345038548111916,-0.026932455599308014
2.7,-0.244673490524292,-0.36754608154296875,-0.05091274902224541,0.049003131687641144,0.001696767401881516,-0.056518565863370895
2.75,-0.323100209236145,-0.49631404876708984,-0.029751993715763092,0.1406397968530655,-0.013772610574960709,-0.10741616040468216
2.8,-0.47082075476646423,-0.6207990646362305,-0.09111349284648895,0.2525315582752228,-0.04086620360612869,-0.1850808709859848
2.85,-0.5747315883636475,-0.7031946182250977,-0.16637900471687317,0.3836407959461212,-0.0869220420718193,-0.28196340799331665
2.9,-0.8060282468795776,-0.9463462829589844,-0.28682538866996765,0.5104317665100098,-0.12810973823070526,-0.41071128845214844
2.95,-0.9380942583084106,-0.8089914321899414,-0.37959855794906616,0.7239515781402588,-0.2090248316526413,-0.5612561702728271
3.0,-0.8021599054336548,-0.240020751953125,-0.28750503063201904,0.9228609800338745,-0.33149442076683044,-0.7860578894615173
3.05,-0.5954203605651855,0.11472702026367188,-0.20021164417266846,0.9643422365188599,-0.3946317136287689,-1.112472653388977
3.1,-0.389417827129364,0.13081073760986328,-0.04182600602507591,1.0132983922958374,-0.44198983907699585,-1.4259366989135742
3.15,0.19858218729496002,0.4717721939086914,0.010834070853888988,1.1872615814208984,-0.5889664888381958,-1.5479665994644165
3.2,0.9235213398933411,0.8816356658935547,0.25135713815689087,1.3100128173828125,-0.6855489015579224,-1.4025273323059082
3.25,1.3256580829620361,0.8492536544799805,0.4089769423007965,1.1970113515853882,-0.5756004452705383,-1.2120139598846436
3.3,1.6270241737365723,0.9685640335083008,0.38085219264030457,0.9739564657211304,-0.36989739537239075,-1.023952841758728
3.35,1.4935449361801147,0.786107063293457,0.43054893612861633,0.7141641974449158,-0.055535975843667984,-0.7460337281227112
3.4,1.1656731367111206,0.4656658172607422,0.1793154925107956,0.4849521815776825,0.29147398471832275,-0.47477832436561584
3.45,0.3511296510696411,0.2727212905883789,-0.15053163468837738,0.33819010853767395,0.6108840107917786,-0.2905900776386261
3.5,-0.7743209600448608,-0.16977787017822266,-0.3870775103569031,0.2833636403083801,0.819310188293457,-0.38693439960479736
3.55,-1.5386121273040771,-0.3172740936279297,-0.4711359739303589,0.37189608812332153,0.7555155158042908,-0.6106732487678528
3.6,-1.5004563331604004,0.1444406509399414,-0.2572009563446045,0.48353052139282227,0.3571750521659851,-0.5796887874603271
3.65,-0.6679649949073792,0.5545778274536133,0.03850850462913513,0.4729415774345398,-0.0631115585565567,-0.45698457956314087
3.7,0.08206743001937866,0.6041069030761719,0.08034144341945648,0.36184078454971313,-0.17027677595615387,-0.4213862717151642
3.75,0.156168594956398,0.4322805404663086,0.09043415635824203,0.24874132871627808,-0.10014907270669937,-0.39767444133758545
3.8,0.2401731312274933,0.3618288040161133,0.10420522093772888,0.20489540696144104,-0.06687363237142563,-0.34330034255981445
3.85,0.4110058546066284,0.3550758361816406,0.2388942390680313,0.17317357659339905,-0.1119525283575058,-0.25446727871894836
3.9,0.46434611082077026,0.39363861083984375,0.2278359979391098,0.11665024608373642,-0.12519031763076782,-0.18043453991413116
3.95,0.41710224747657776,0.35513973236083984,0.09178430587053299,0.04301077499985695,-0.048984188586473465,-0.12145177274942398
4.0,0.1534181833267212,0.27712440490722656,0.03804102912545204,-0.022964436560869217,0.026176009327173233,-0.04102061316370964
4.05,-0.04203739017248154,0.29401206970214844,0.010318819433450699,-0.06390955299139023,0.00025586638366803527,0.005907845683395863
4.1,-0.1405133605003357,0.20851802825927734,-0.060421474277973175,-0.06409677118062973,-0.02545301616191864,-0.012888824567198753
4.15,-0.24050813913345337,0.05593967065215111,0.017518190667033195,-0.05461695417761803,-0.05589209496974945,-0.004713818430900574
4.2,-0.036845818161964417,0.056697845458984375,0.040589869022369385,-0.063456691801548,-0.1419070065021515,0.04726455360651016
4.25,0.10406504571437836,0.15803146362304688,-0.02013086900115013,-0.0736711323261261,-0.14848056435585022,0.09370233863592148
4.3,-0.015384620055556297,0.17464351654052734,0.04431883245706558,-0.07265277206897736,-0.11561713367700577,0.1213378757238388
4.35,0.11793907731771469,0.1682577133178711,0.15719489753246307,-0.05286110192537308,-0.15573301911354065,0.1215691789984703
4.4,0.4332704544067383,0.1162872239947319,0.25195980072021484,-0.05443210527300835,-0.1982899308204651,0.16813956201076508
4.45,0.7128353714942932,0.10205268859863281,0.24596723914146423,-0.09844094514846802,-0.1799180954694748,0.29789769649505615
4.5,0.8111172318458557,0.10581016540527344,0.21997077763080597,-0.14095139503479004,-0.08512809872627258,0.4087969958782196
4.55,0.7367539405822754,0.0891275405883789,0.12333256006240845,-0.13195836544036865,0.061389222741127014,0.44341135025024414
4.6,0.3873737156391144,0.09438228607177734,0.021938461810350418,-0.08139728754758835,0.2053809016942978,0.44868841767311096
4.65,-0.11715084314346313,0.06437492370605469,0.009616278111934662,-0.04296058416366577,0.27860742807388306,0.47477006912231445
4.7,-0.38196226954460144,0.06924628466367722,0.03142021968960762,-0.01083945482969284,0.27586060762405396,0.4590738117694855
4.75,-0.4523771107196808,0.12903785705566406,0.03800610080361366,0.013309277594089508,0.27069640159606934,0.3831319808959961
4.8,-0.48470914363861084,0.10486888140439987,0.038784679025411606,0.011100418865680695,0.2596067488193512,0.3015247583389282
4.85,-0.555018424987793,0.018866533413529396,0.07524770498275757,0.002778373658657074,0.2188558131456375,0.24759645760059357
4.9,-0.4674217998981476,-0.040993694216012955,0.03206896036863327,0.010581858456134796,0.13963785767555237,0.21960757672786713
4.95,-0.16828465461730957,0.013403890654444695,0.019160471856594086,0.0336051881313324,0.04977910593152046,0.1947961002588272
5.0,0.14633873105049133,0.09444904327392578,0.08912783116102219,0.05660715699195862,0.0011203837348148227,0.1788279116153717
5.05,0.47857919335365295,0.2319793701171875,0.21247106790542603,0.07587204873561859,0.0035107010044157505,0.19760411977767944
5.1,1.1010069847106934,0.40689754486083984,0.30318447947502136,0.07754568755626678,0.07513654977083206,0.2611311078071594
5.15,1.7106910943984985,0.6205835342407227,0.336812287569046,0.04488381743431091,0.1413092017173767,0.5451699495315552
5.2,1.7264378070831299,0.7078027725219727,0.31186333298683167,-0.00782535970211029,0.32961520552635193,0.9948149919509888
5.25,1.1900603771209717,0.9787397384643555,0.24424931406974792,-0.15049439668655396,0.6013168692588806,1.3156012296676636
5.3,-0.10385258495807648,0.7271108627319336,0.43199998140335083,-0.31919199228286743,0.6778528094291687,1.5107591152191162
5.35,-1.0804686546325684,0.1457815021276474,0.3979642391204834,-0.4520972967147827,0.7236412763595581,1.3648167848587036
5.4,-1.1091630458831787,-0.08402062207460403,0.05104857310652733,-0.39810293912887573,0.5746250152587891,1.0348849296569824
5.45,-0.5915175080299377,-0.17244625091552734,-0.29056477546691895,-0.22776181995868683,0.346464604139328,0.838998019695282
5.5,-0.9102306365966797,-0.13766193389892578,-0.4661959111690521,-0.36081182956695557,0.42916038632392883,0.566703200340271
5.55,-1.5241506099700928,-0.27997779846191406,-0.39050254225730896,-0.45741182565689087,0.42294472455978394,0.3393575847148895
5.6,-1.2870469093322754,-0.3238353729248047,-0.21257145702838898,-0.209997296333313,0.11838047206401825,0.39492422342300415
5.65,-0.8285894393920898,-0.20282840728759766,-0.32013097405433655,-0.07399824261665344,-0.10213233530521393,0.4265584647655487
5.7,-0.5179237723350525,-0.016627296805381775,-0.6469153761863708,-0.16608212888240814,-0.12950201332569122,0.297993004322052
5.75,-0.5231910347938538,-0.0166158527135849,-0.6563665270805359,-0.23840010166168213,-0.1179402694106102,0.21658936142921448
5.8,-0.4956943988800049,0.04794217273592949,-0.5715733766555786,-0.2002638876438141,-0.12974365055561066,0.20784364640712738
5.85,-0.18598024547100067,0.12135602533817291,-0.507300853729248,-0.08576297760009766,-0.14724279940128326,0.23109938204288483
5.9,-0.06934529542922974,0.011410721577703953,-0.32337307929992676,-0.08373082429170609,-0.09102897346019745,0.19490177929401398
5.95,-0.1376146823167801,0.13576984405517578,-0.17168481647968292,-0.15723980963230133,-0.003551411908119917,0.0756431519985199
6.0,0.05149715021252632,0.44065284729003906,0.031063901260495186,-0.12374646961688995,-0.0015840253327041864,0.039249882102012634
6.05,0.2694283723831177,0.6816310882568359,0.049370575696229935,-0.1353801190853119,0.015487179160118103,0.08459863066673279
6.1,0.3119919002056122,0.5844964981079102,-0.03216271474957466,-0.27793222665786743,0.0842670127749443,0.11656638979911804
6.15,0.1666097193956375,0.27385807037353516,-0.051906783133745193,-0.4292765259742737,0.16099108755588531,0.10708321630954742
6.2,0.10267913341522217,0.14236831665039062,-0.12212861329317093,-0.46845394372940063,0.1951727271080017,0.09996087849140167
6.25,0.14431162178516388,0.01356316264718771,-0.18575328588485718,-0.4371207356452942,0.20269173383712769,0.11570113897323608
6.3,-0.04549683257937431,-0.2126445770263672,-0.16374792158603668,-0.4714159071445465,0.23045840859413147,0.10342177748680115
6.35,-0.4191795289516449,-0.26982784271240234,0.028295010328292847,-0.47170111536979675,0.22845648229122162,0.0725802630186081
6.4,-0.49907833337783813,-0.2174844890832901,0.20582003891468048,-0.37752190232276917,0.16067948937416077,0.05828001722693443
6.45,-0.2877422869205475,-5.2456824050750583e-05,0.08873310685157776,-0.3085569739341736,0.07235629111528397,0.05081157013773918
6.5,-0.0638112872838974,0.1285877227783203,-0.06491506844758987,-0.306464821100235,0.025132950395345688,0.03527574986219406
6.55,-0.1027064099907875,0.041797637939453125,0.002324518980458379,-0.3650994300842285,0.04226655140519142,-0.031634602695703506
6.6,-0.2889879047870636,-0.18117237091064453,0.08087524771690369,-0.4162084758281708,0.049106448888778687,-0.08663348853588104
6.65,-0.2800144553184509,-0.2540769577026367,0.021200649440288544,-0.35029953718185425,0.0022389222867786884,-0.06319515407085419
6.7,-0.23130562901496887,-0.2696971893310547,-0.1343984603881836,-0.22391311824321747,-0.03478191792964935,-0.03282205015420914
6.75,-0.17751991748809814,-0.22852420806884766,-0.2399097979068756,-0.09987608343362808,-0.03734719753265381,-0.0008478902163915336
6.8,-0.10399177670478821,-0.15637493133544922,-0.2027776688337326,0.011663442477583885,-0.024677373468875885,0.01770239695906639
6.85,-0.06680188328027725,-0.2802257537841797,-0.033682774752378464,0.056311290711164474,-0.00488418759778142,-0.03445425257086754
6.9,-0.05582066625356674,-0.15852832794189453,0.10994578897953033,0.09038227051496506,-0.014856108464300632,-0.07761643081903458
6.95,-0.0412122905254364,0.22974109649658203,0.0276779904961586,0.12812288105487823,-0.05101023241877556,-0.05092311650514603
7.0,-0.0060015954077243805,0.39414501190185547,-0.1555606871843338,0.1413680762052536,-0.06069819629192352,0.009884810075163841
7.05,-0.040691666305065155,0.33237457275390625,-0.1590861827135086,0.13233190774917603,-0.04089420288801193,0.05554190278053284
7.1,-0.12350931018590927,0.2083148956298828,-0.11148186773061752,0.07957209646701813,-0.006947086658328772,0.0653197392821312
7.15,-0.09467197954654694,0.19734859466552734,-0.20898455381393433,0.017322637140750885,0.026789620518684387,0.04361168295145035
7.2,0.0032120123505592346,0.2066793590784073,-0.29489678144454956,0.00393654964864254,0.05412199720740318,0.0289201270788908
7.25,0.046568647027015686,0.15278053283691406,-0.2374909520149231,0.03772462159395218,0.07090147584676743,0.0566861592233181
7.3,-0.027970202267169952,0.13999557495117188,-0.1491650640964508,0.06037044897675514,0.07356002181768417,0.07367552071809769
7.35,0.0042223818600177765,0.20702266693115234,-0.1361873298883438,0.0337388701736927,0.06953631341457367,0.03914783522486687
7.4,0.10191504657268524,0.34218692779541016,-0.15045419335365295,0.004262586124241352,0.05766284838318825,0.027437010779976845
7.45,0.1610538810491562,0.4197378158569336,-0.1806400567293167,-0.029965296387672424,0.04999271780252457,0.05064992979168892
7.5,0.08024650812149048,0.39778614044189453,-0.18068070709705353,-0.11696263402700424,0.05597156658768654,0.05430039018392563
7.55,-0.00916535034775734,0.36882591247558594,-0.1512039750814438,-0.2252626121044159,0.06249268352985382,0.02810799516737461
7.6,0.033187925815582275,0.29654979705810547,-0.012272919528186321,-0.2711564302444458,0.04731832072138786,0.028821678832173347
7.65,0.1798415184020996,0.3486757278442383,0.012832178734242916,-0.3061682879924774,0.033134013414382935,0.02955920435488224
7.7,0.3696158230304718,0.4005422592163086,-0.032251935452222824,-0.3912062346935272,0.047800466418266296,-0.031545527279376984
7.75,0.40107622742652893,0.3066730499267578,-0.017048319801688194,-0.5469177961349487,0.08567781746387482,-0.1865193098783493
7.8,0.3832903206348419,0.06548690795898438,0.023408392444252968,-0.7136654853820801,0.10999418795108795,-0.320666640996933
7.85,0.44867992401123047,-0.03083132952451706,-0.12360695749521255,-0.8234349489212036,0.1316324919462204,-0.3694654107093811
7.9,0.20444735884666443,-0.19590377807617188,-0.1847916841506958,-0.8114564418792725,0.17581331729888916,-0.30637332797050476
7.95,-0.2115543782711029,-0.30124855041503906,-0.1127215251326561,-0.6590612530708313,0.21418088674545288,-0.18398164212703705
8.0,-0.5718350410461426,-0.32287025451660156,-0.15096724033355713,-0.42429491877555847,0.21306005120277405,-0.043810732662677765
8.05,-0.6202285885810852,-0.2706918716430664,-0.17339728772640228,-0.22441914677619934,0.18957315385341644,0.032212790101766586
8.1,-0.6054618954658508,-0.2431640625,-0.09416572004556656,-0.10081547498703003,0.13354946672916412,0.026967251673340797
8.15,-0.602681577205658,-0.10903836041688919,0.033493053168058395,-0.03027539700269699,0.047338955104351044,-0.004491876345127821
8.2,-0.5269710421562195,0.005534168798476458,-0.027911022305488586,0.01503309141844511,-0.07086998224258423,-0.027820367366075516
8.25,-0.39749085903167725,-0.2452249526977539,-0.14132899045944214,0.06622731685638428,-0.19342197477817535,-0.01885622926056385
8.3,-0.41392290592193604,-1.0474605560302734,0.1539362370967865,0.20258180797100067,-0.32099056243896484,0.018587341532111168
8.35,-0.6075866222381592,-1.7435684204101562,0.3301331400871277,0.5015867948532104,-0.5175098180770874,0.027681462466716766
8.4,-0.8737444877624512,-2.2800745964050293,-0.07639145106077194,0.9385890364646912,-0.756868839263916,0.05706018954515457
8.45,-1.1845126152038574,-2.0876731872558594,-0.7065700888633728,1.3225681781768799,-0.9804717302322388,-0.07030108571052551
8.5,-1.3222739696502686,-0.9543494582176208,-1.5671442747116089,1.538496494293213,-1.1184725761413574,-0.37725403904914856
8.55,-1.2010964155197144,0.8030309677124023,-1.0655696392059326,1.5051672458648682,-1.1753395795822144,-0.8975467085838318
8.6,-0.7252809405326843,1.6212244033813477,-0.32645636796951294,1.3081297874450684,-1.1155503988265991,-1.5777204036712646
8.65,-0.3768119215965271,1.6919574737548828,-0.2818111479282379,1.0198259353637695,-0.9355124235153198,-1.9969936609268188
8.7,-0.436733216047287,1.8495683670043945,-0.17792600393295288,0.8939909934997559,-0.8076082468032837,-2.186047315597534
8.75,0.7534494400024414,1.5532646179199219,-0.17775362730026245,0.9178262948989868,-1.1216610670089722,-2.080556869506836
8.8,2.9910888671875,1.395857810974121,0.2739550769329071,0.9503485560417175,-1.3422446250915527,-1.746631383895874
8.85,3.6677916049957275,1.0220098495483398,0.2757646143436432,0.9831548929214478,-1.0758147239685059,-1.2852405309677124
8.9,2.0936639308929443,0.6400985717773438,1.1224970817565918,0.6555331945419312,-0.6691329479217529,-0.650478184223175
8.95,1.7456021308898926,0.2825774848461151,1.1879366636276245,0.26982736587524414,-0.2839442491531372,-0.2680733799934387
9.0,1.7634955644607544,0.040748607367277145,0.06089860200881958,0.0460740327835083,0.1475037932395935,-0.09496171027421951
9.05,0.659138023853302,-0.1825837939977646,-0.49367716908454895,-0.11890162527561188,0.5153179168701172,0.12157359719276428
9.1,-0.03503277152776718,-0.11517713963985443,-0.4490639269351959,-0.0721636712551117,0.5558044910430908,0.28810742497444153
9.15,-0.15300939977169037,0.25302696228027344,-0.007877614349126816,0.08310538530349731,0.3826783001422882,0.3561992049217224
9.2,-0.34277042746543884,0.3841543197631836,0.4116746187210083,0.16359102725982666,0.30100497603416443,0.23459625244140625
9.25,-0.4404619336128235,0.45366379618644714,0.6534422039985657,0.13693562150001526,0.28753241896629333,0.007989981211721897
9.3,-0.27222633361816406,0.4160003364086151,0.6572989225387573,0.07960379868745804,0.1233329027891159,-0.0020183660089969635
9.35,0.1173354983329773,0.09953688085079193,0.5587491393089294,0.03141506761312485,-0.027724772691726685,0.06685856729745865
9.4,0.1445421278476715,0.028055183589458466,0.27025219798088074,-0.00910142995417118,-0.02580159530043602,0.030919484794139862
9.45,-0.18456608057022095,0.18349170684814453,0.1167130097746849,-0.0011133787920698524,0.029999539256095886,-0.007998231798410416
9.5,-0.007751349359750748,0.28246593475341797,0.17364513874053955,0.03531018644571304,-0.04240471124649048,0.038258038461208344
9.55,0.41515469551086426,0.0035905789118260145,0.2812657654285431,0.04776868224143982,-0.15110206604003906,0.038062673062086105
9.6,0.6152605414390564,-0.24877548217773438,0.28198468685150146,0.04202260822057724,-0.025232307612895966,-0.11292801797389984
9.65,0.7997568249702454,-0.02416897751390934,0.5294891595840454,0.0894603505730629,0.05645394325256348,-0.14505323767662048
9.7,0.9917684197425842,0.8238353729248047,0.8352237939834595,0.04699724167585373,-0.09552109241485596,0.09733784943819046
9.75,0.9490228295326233,1.5471735000610352,0.12274140864610672,-0.13203942775726318,-0.12779493629932404,0.31023576855659485
9.8,-0.4230133891105652,1.0346746444702148,-1.0853650569915771,-0.2629367709159851,0.15160918235778809,0.28706789016723633
9.85,-1.965773105621338,-0.0944499596953392,-1.7025107145309448,-0.24897421896457672,0.3139643669128418,0.17708107829093933
9.9,-2.373116970062256,-0.8751897811889648,-1.555424451828003,-0.14968761801719666,-0.006785073317587376,0.25853851437568665
9.95,-1.9797263145446777,-0.7388467788696289,-0.9730720520019531,-0.07384682446718216,-0.37784135341644287,0.313200980424881
10.0,-1.346785068511963,-0.0795755386352539,-0.3761340081691742,-0.03343946486711502,-0.6826550364494324,0.17939311265945435
10.05,-0.9034924507141113,0.6331644058227539,-0.1533949226140976,0.004028935916721821,-0.908430278301239,-0.003363850526511669
10.1,-0.7156487703323364,0.6286077499389648,-0.12022960931062698,-0.06327009201049805,-1.032005786895752,-0.13295452296733856
10.15,-0.23950235545635223,0.10243130475282669,-0.2586129605770111,-0.2354356348514557,-1.1820119619369507,-0.1455288529396057
10.2,0.19421833753585815,-0.2684278190135956,-0.48733529448509216,-0.3301161229610443,-1.2781544923782349,-0.11225787550210953
10.25,0.4654032588005066,-0.16298578679561615,-0.5984795093536377,-0.30374789237976074,-1.2971689701080322,-0.11880036443471909
10.3,0.6550220251083374,0.20937253534793854,-0.4396281838417053,-0.18679645657539368,-1.3275030851364136,-0.1259300857782364
10.35,0.6550941467285156,0.4678478240966797,0.008939309976994991,-0.041793711483478546,-1.338437795639038,-0.1574862152338028
10.4,0.6838630437850952,0.5056591033935547,0.40703311562538147,-0.03319770097732544,-1.3085236549377441,-0.1964890956878662
10.45,1.0349040031433105,0.31719303131103516,0.5923495292663574,-0.12819133698940277,-1.1873173713684082,-0.252766877412796
10.5,1.179224967956543,0.5601167678833008,0.44339144229888916,-0.1863439381122589,-1.0129964351654053,-0.3035185933113098
10.55,0.5310770869255066,0.9469680786132812,0.38197845220565796,-0.24338965117931366,-0.942956268787384,-0.3292214572429657
10.6,0.4150463342666626,1.0080842971801758,0.7066332697868347,-0.45699194073677063,-1.0990246534347534,-0.29604917764663696
10.65,0.6920707821846008,0.48469826579093933,0.7353808879852295,-0.6361035108566284,-1.058823823928833,-0.47948530316352844
10.7,0.8034970164299011,-0.48970508575439453,0.23965895175933838,-0.4991443157196045,-0.7586244344711304,-0.738791286945343
10.75,0.3643363118171692,-0.7983293533325195,-0.20952986180782318,-0.2581537961959839,-0.6649378538131714,-0.5791135430335999
10.8,0.3559569716453552,-0.7391452789306641,-0.21154727041721344,-0.18056905269622803,-0.8716944456100464,-0.23535379767417908
10.85,0.8422565460205078,-0.6338224411010742,0.2549629509449005,-0.08310136198997498,-1.0067481994628906,-0.08171817660331726
10.9,0.8579107522964478,-0.6709470748901367,0.44745150208473206,0.13429804146289825,-0.7883527278900146,-0.003381845774129033
10.95,0.8518561124801636,-0.3429746627807617,0.7255350351333618,0.41337519884109497,-0.3940543532371521,-0.026012707501649857
11.0,0.8613169193267822,0.23386093974113464,1.2037667036056519,0.44440117478370667,-0.03132004663348198,-0.033120013773441315
11.05,1.1455638408660889,0.5938252806663513,1.7629534006118774,0.26807844638824463,0.35330408811569214,-0.09764300286769867
11.1,1.7236021757125854,0.29997536540031433,1.8133149147033691,0.14501401782035828,1.0202730894088745,-0.21963968873023987
11.15,2.210136890411377,-0.27047252655029297,0.8287937641143799,0.33546513319015503,1.8495265245437622,-0.3044717311859131
11.2,1.5466855764389038,-1.1641731262207031,-1.186179280281067,0.9148297309875488,2.526456356048584,-0.4520154297351837
11.25,-0.8485538959503174,-1.4226053953170776,-2.6073551177978516,1.3557250499725342,2.6002135276794434,-0.5210709571838379
11.3,-2.6933326721191406,-0.13594336807727814,-2.406486749649048,1.3580737113952637,1.9387454986572266,-0.13529014587402344
11.35,-2.1312434673309326,0.6749429702758789,-0.958206295967102,0.9392556548118591,0.7529873847961426,0.4985490143299103
11.4,-0.8981918096542358,1.230360984802246,0.1536596715450287,0.6589310169219971,0.037514954805374146,0.7018565535545349
11.45,-1.1090219020843506,1.361043930053711,0.3685356080532074,0.488299697637558,0.046982161700725555,0.3898332417011261
11.5,-1.4508534669876099,1.0353937149047852,0.2972855269908905,0.22804448008537292,0.04752644896507263,0.05053685978055
11.55,-0.5347268581390381,0.7219057083129883,0.301329642534256,-0.0010625729337334633,-0.26852869987487793,-0.06238722428679466
11.6,0.17574986815452576,0.31992053985595703,0.3708203136920929,-0.0896197110414505,-0.38370490074157715,-0.14596308767795563
11.65,0.2833406329154968,-0.012843137606978416,0.2785470485687256,-0.08242723345756531,-0.2891068458557129,-0.19297482073307037
11.7,0.3218468427658081,-0.10191059857606888,0.2171565741300583,-0.07193918526172638,-0.2155473232269287,-0.1316843181848526
11.75,0.2794777750968933,-0.08441448956727982,0.29536521434783936,-0.07122930139303207,-0.16715866327285767,-0.037125490605831146
11.8,0.16953200101852417,-0.08737850934267044,0.26576751470565796,-0.05238931253552437,-0.09167708456516266,0.01291379053145647
11.85,0.1484626829624176,-0.0625610426068306,0.1889113336801529,-0.039818622171878815,-0.04166517034173012,0.038439661264419556
11.9,0.07257117331027985,0.05925845727324486,0.16018250584602356,-0.04582563042640686,-0.01919564977288246,0.07278602570295334
11.95,0.030246619135141373,0.17184829711914062,0.2394549548625946,-0.0630083829164505,-0.007825847715139389,0.11151904612779617
12.0,-0.013269457966089249,0.18140219151973724,0.2841956615447998,-0.08793244510889053,0.026864221319556236,0.14077816903591156
12.05,0.09850084036588669,0.12996292114257812,0.20718099176883698,-0.1200464591383934,0.08262162655591965,0.16987088322639465
12.1,0.17304982244968414,0.2094717025756836,-0.0005728391115553677,-0.12767791748046875,0.14501193165779114,0.20537309348583221
12.15,-0.14914089441299438,0.28726959228515625,0.007652287371456623,-0.0778948962688446,0.2025153636932373,0.16315358877182007
12.2,-0.3946565091609955,0.32214832305908203,-0.06761745363473892,-0.01756792701780796,0.2010662853717804,0.06471599638462067
12.25,-0.42857393622398376,0.23942089080810547,-0.15636885166168213,-0.010361161082983017,0.09790223091840744,-0.006380152422934771
12.3,-0.22350168228149414,0.23665142059326172,-0.10401523858308792,-0.0191065464168787,-0.05592310428619385,-0.04191029071807861
12.35,-0.0827237069606781,0.261260986328125,0.08989039808511734,-0.034766074270009995,-0.16339313983917236,-0.043217550963163376
12.4,0.14741984009742737,0.3384246826171875,0.23165597021579742,-0.06281571090221405,-0.2220352441072464,-0.024025743827223778
12.45,0.2559112310409546,0.21265219151973724,0.33463114500045776,-0.09685038775205612,-0.19584119319915771,-0.020090995356440544
12.5,0.2580614686012268,0.09198474138975143,0.3295140564441681,-0.10093273222446442,-0.12660665810108185,-0.037736926227808
12.55,0.2778400182723999,0.10102652758359909,0.30767711997032166,-0.1034698411822319,-0.08190732449293137,-0.024625472724437714
12.6,0.23988911509513855,0.10540103167295456,0.25627756118774414,-0.104578897356987,-0.03778790310025215,-0.0006883416208438575
12.65,0.09574814885854721,0.05227374657988548,0.1722843497991562,-0.09080831706523895,0.033805232495069504,0.004603206180036068
12.7,0.009430453181266785,0.04024314507842064,0.07084797322750092,-0.07851254940032959,0.07869775593280792,0.016300877556204796
12.75,-0.021342173218727112,0.0627737045288086,0.0417831726372242,-0.06631489098072052,0.08698621392250061,0.03508118912577629
12.8,-0.1390448361635208,0.09447002410888672,0.025792494416236877,-0.04116710275411606,0.10042533278465271,0.03568549454212189
12.85,-0.2091873288154602,0.14066410064697266,0.015056909061968327,-0.023276329040527344,0.09888303279876709,0.03121654875576496
12.9,-0.19164422154426575,0.25058650970458984,0.05270498991012573,-0.010033274069428444,0.07999666035175323,0.015514147467911243
12.95,-0.1704004853963852,0.19390392303466797,0.048690494149923325,-0.004537556786090136,0.043562404811382294,-0.000554898171685636
13.0,-0.10871519893407822,0.1485729217529297,0.06745163351297379,-0.013678698800504208,0.004399261903017759,-0.001100662280805409
13.05,-0.07539977878332138,0.16341781616210938,0.08896934986114502,-0.033256568014621735,-0.02210390754044056,0.011948584578931332
13.1,-0.019292840734124184,0.12569522857666016,0.12424672394990921,-0.05109894275665283,-0.03621594235301018,0.024560080841183662
13.15,-0.009112400934100151,0.09931372851133347,0.1297062337398529,-0.04889880493283272,-0.024576561525464058,0.021769264712929726
13.2,0.02369651384651661,0.08312797546386719,0.07983054220676422,-0.05475412309169769,-0.02066241391003132,0.034963179379701614
13.25,0.0063656531274318695,0.10838603973388672,0.11097028851509094,-0.056258201599121094,-0.018067875877022743,0.04531777650117874
13.3,0.00526207871735096,0.11684989929199219,0.1082274541258812,-0.04789150133728981,-0.015494700521230698,0.04065937548875809
13.35,-0.022519949823617935,0.13600444793701172,0.09057284146547318,-0.031262125819921494,-0.00783002469688654,0.02379724010825157
13.4,-0.006581868976354599,0.1360607147216797,0.11136551946401596,-0.022026848047971725,-0.010397235862910748,0.013189314864575863
13.45,0.09343476593494415,0.16705894470214844,0.15987971425056458,-0.021180253475904465,-0.0004110567970201373,0.006707626860588789
13.5,0.22631998360157013,0.10959147661924362,0.2983226180076599,-0.019902430474758148,0.021269703283905983,0.016406118869781494
13.55,0.4831770956516266,0.16905687749385834,0.6329055428504944,-0.03169427067041397,0.0710635855793953,0.08405087143182755
13.6,0.9683660268783569,0.12024591118097305,1.114495038986206,-0.13664406538009644,0.16356238722801208,0.2468966841697693
13.65,1.6357464790344238,-0.003996876068413258,1.3643317222595215,-0.27579450607299805,0.3697473406791687,0.4525970220565796
13.7,1.7770612239837646,0.08658692985773087,1.1652714014053345,-0.4022220969200134,0.6873763799667358,0.590208113193512
13.75,1.8916280269622803,0.3898506164550781,0.45233917236328125,-0.41482704877853394,1.0558809041976929,0.5108556151390076
13.8,1.4166845083236694,0.5530824661254883,-0.2522759437561035,-0.38991522789001465,1.3837041854858398,0.35949966311454773
13.85,0.5148769617080688,0.5705051422119141,-0.8682277798652649,-0.33395007252693176,1.686107873916626,0.2562507390975952
13.9,-0.2611921429634094,0.37167075276374817,-1.0150556564331055,-0.3445581793785095,1.7225311994552612,0.2924896478652954
13.95,-1.223935842514038,0.13747693598270416,-0.9967172741889954,-0.3275158107280731,1.4343979358673096,0.47284260392189026
14.0,-2.715049982070923,-0.38779354095458984,-0.9864556789398193,-0.17597752809524536,1.082157015800476,0.34328600764274597
14.05,-3.272043466567993,-0.5526933670043945,-0.5296095609664917,-0.010394427925348282,0.6648791432380676,-0.20033825933933258
14.1,-2.3617444038391113,-0.5819721221923828,-0.466635525226593,0.10059238225221634,0.2569623291492462,-0.6614614725112915
14.15,-0.7844730615615845,-0.4422130584716797,-0.632978081703186,0.25353947281837463,0.06788021326065063,-0.9323437213897705
14.2,-0.18200816214084625,-0.0667724534869194,-0.2491951584815979,0.46414709091186523,0.05766293406486511,-0.9012877345085144
14.25,0.11349660158157349,-0.03661346435546875,0.06183344125747681,0.5178138017654419,0.057368017733097076,-0.5968225598335266
14.3,0.0932217687368393,0.5356931686401367,0.26431143283843994,0.5345560312271118,0.0658387839794159,-0.2561011016368866
14.35,0.15296489000320435,0.8038949966430664,0.574327290058136,0.43478819727897644,0.11086788028478622,-0.02665652707219124
14.4,0.2538037896156311,0.8364400863647461,0.5020958185195923,0.2429238110780716,0.16882860660552979,0.09075247496366501
14.45,0.23732830584049225,0.7022809982299805,0.21807776391506195,0.07286311686038971,0.2136036604642868,0.1667637676000595
14.5,0.22487220168113708,0.678741455078125,-0.3034058213233948,-0.05922984331846237,0.2105720341205597,0.15580151975154877
14.55,-0.10419831424951553,0.6447629928588867,-0.379238098859787,-0.09740929305553436,0.2643390893936157,0.2481398731470108
14.6,-0.7095885276794434,1.0358963012695312,-0.7743164300918579,-0.1304609179496765,0.31880879402160645,0.4499185085296631
14.65,-2.160367488861084,-0.1678028404712677,0.2745640277862549,-0.30285030603408813,0.09425972402095795,0.47060129046440125
14.7,-2.9020276069641113,0.558870255947113,0.8450822830200195,-0.3896264433860779,-0.5205535888671875,0.2343960851430893
14.75,-1.2365511655807495,1.070368766784668,0.030203314498066902,-0.5194969773292542,-1.3033947944641113,0.13667403161525726
14.8,0.4002678394317627,0.5530328750610352,-0.5348820090293884,-0.6401422619819641,-1.8979887962341309,0.11445759236812592
14.85,1.3916078805923462,-0.4590406119823456,-0.5335822105407715,-0.6243036389350891,-2.01179575920105,0.09813754260540009
14.9,1.9795541763305664,-0.9866294860839844,-0.20541447401046753,-0.4912646412849426,-1.6941897869110107,0.04653310030698776
14.95,1.9659240245819092,-1.1332883834838867,0.22000348567962646,-0.31858018040657043,-1.1859842538833618,0.10602510720491409
15.0,1.7322229146957397,-0.8957605361938477,0.4734397232532501,-0.1148485541343689,-0.7384706735610962,0.2508699297904968
15.05,1.2138328552246094,-0.3717317581176758,0.5095567107200623,0.07629194110631943,-0.33310210704803467,0.3625391721725464
15.1,0.45882463455200195,0.1006002351641655,0.4691460430622101,0.2281675934791565,0.026935333386063576,0.2811656594276428
15.15,-0.2833424210548401,0.4340047836303711,0.43536055088043213,0.26858073472976685,0.17326563596725464,0.16382655501365662
15.2,-0.41228845715522766,0.6095666885375977,0.353740930557251,0.21757382154464722,0.11628027260303497,0.08838522434234619
15.25,-0.254925400018692,0.47345542907714844,0.1727876216173172,0.11336424946784973,0.016674499958753586,0.021447043865919113
15.3,-0.10713298618793488,0.07367324829101562,0.007579960394650698,0.05340573191642761,-0.04791077598929405,-0.05209270864725113
15.35,0.10347794741392136,-0.0004034006269648671,-0.09781554341316223,0.06911415606737137,-0.10154084116220474,-0.04546565189957619
15.4,0.2552306056022644,0.13047122955322266,-0.0439215786755085,0.10487694293260574,-0.1236463263630867,-0.0009335148497484624
15.45,0.22382447123527527,0.16547870635986328,0.0005277109448798001,0.09838850051164627,-0.04979892820119858,0.013529369607567787
15.5,0.061847198754549026,0.22620868682861328,0.015687264502048492,0.06048792228102684,0.03411750867962837,0.021049700677394867
15.55,0.017798425629734993,0.28491878509521484,0.027657415717840195,0.03345390409231186,0.06366965174674988,0.032042279839515686
15.6,-0.01951560191810131,0.31406688690185547,0.07301236689090729,8.009281009435654e-05,0.08217379450798035,0.02274959161877632
15.65,0.1450076848268509,0.23517799377441406,0.13328614830970764,-0.04237939044833183,0.08305329084396362,0.02011132799088955
15.7,0.06827807426452637,0.21115398406982422,0.2704298198223114,-0.0980127602815628,0.1235274076461792,0.048169903457164764
15.75,0.4366404414176941,0.14013290405273438,0.325836718082428,-0.1554289013147354,0.28835952281951904,0.006564286537468433
15.8,0.76302570104599,0.0878744125366211,0.25462520122528076,-0.15427683293819427,0.49151748418807983,-0.003236212069168687
15.85,0.3615734577178955,-0.12104320526123047,0.12251213192939758,-0.2147061824798584,0.7349419593811035,-0.0620676651597023
15.9,-1.3140441179275513,-0.9710664749145508,-0.477836936712265,-0.15209874510765076,0.8529303073883057,-0.15581369400024414
15.95,-0.9824127554893494,-0.010294914245605469,-0.24782095849514008,0.18725505471229553,0.3577946424484253,-0.27867192029953003
16.0,-0.2796085476875305,0.4751405715942383,0.18976812064647675,0.21048174798488617,-0.058573585003614426,-0.09629702568054199
16.05,0.46076828241348267,0.4385232925415039,0.3557954728603363,0.13647451996803284,-0.13295067846775055,0.018156995996832848
16.1,0.27465540170669556,0.15523624420166016,0.10202798992395401,0.07508507370948792,0.08605875074863434,-0.09715254604816437
16.15,0.046314142644405365,-0.009282107464969158,-0.1456495225429535,0.04959668964147568,0.1499003916978836,-0.10417278110980988
16.2,0.011017002165317535,0.007792479358613491,-0.21900928020477295,0.05110559239983559,0.09288877248764038,-0.001892758533358574
16.25,-0.0733000710606575,0.14819622039794922,-0.11659464985132217,0.06823144108057022,0.05499786138534546,0.05284840613603592
16.3,-0.28844258189201355,0.22281551361083984,-0.07113678008317947,0.07465577870607376,0.04587671533226967,0.04257337749004364
16.35,-0.3327259421348572,0.31012535095214844,-0.07165800780057907,0.05975854769349098,0.01104114018380642,0.010315731167793274
16.4,-0.2206592708826065,0.31865978240966797,-0.0026170776691287756,0.03990088403224945,-0.06234345957636833,-0.011135134845972061
16.45,0.029843825846910477,0.27182674407958984,0.011106719262897968,0.03122318908572197,-0.1294693946838379,-0.016657086089253426
16.5,0.13733595609664917,0.1564779281616211,-0.005142933689057827,0.011756135150790215,-0.13190974295139313,-0.0207161046564579
16.55,0.15307103097438812,0.060975074768066406,0.049603987485170364,-0.005024092271924019,-0.12254957109689713,-0.004336935002356768
16.6,0.15783537924289703,0.0872640609741211,0.06376499682664871,-0.005984306801110506,-0.0766257718205452,0.007524366024881601
16.65,0.13382208347320557,0.0955953598022461,0.010672424919903278,0.003560854820534587,-0.024830712005496025,0.008291699923574924
16.7,0.1393590271472931,0.07799339294433594,0.037565793842077255,0.012349318712949753,0.005982485134154558,0.012615172192454338
16.75,0.08477555960416794,0.10601997375488281,0.04550876095890999,0.015848590061068535,0.02591726742684841,0.009772605262696743
16.8,0.07487334311008453,0.1894388198852539,-0.0006796512170694768,0.02093813195824623,0.030235644429922104,0.0067106252536177635
16.85,-0.0451776348054409,0.17790508270263672,-0.03357316553592682,0.014955559745430946,0.04621710628271103,0.00228542136028409
16.9,-0.06288681924343109,0.2228403091430664,-0.05176858976483345,0.006844658404588699,0.03803722932934761,0.0037475901190191507
16.95,-0.05067881941795349,0.14867401123046875,-0.056924592703580856,0.00023897940991446376,0.015170490369200706,0.0016171422321349382
17.0,-0.0026284893974661827,0.0792093276977539,-0.036101508885622025,0.001943366602063179,-0.0013451501727104187,0.0008827340789139271
17.05,0.029817761853337288,0.1659231185913086,-0.02058802917599678,0.0037998626939952374,-0.009111002087593079,0.008520380593836308
17.1,0.009257003664970398,0.17925357818603516,0.021189969033002853,0.003988489508628845,-0.022451868280768394,0.013113118708133698
17.15,-0.007471163757145405,0.17130470275878906,0.04847041144967079,0.007849548943340778,-0.03173677623271942,0.0018333990592509508
17.2,0.07900729775428772,0.17123126983642578,0.11136812716722488,0.013032701797783375,-0.024239569902420044,-0.018066851422190666
17.25,0.11840389668941498,0.14864826202392578,0.0989859327673912,0.015885327011346817,-0.003202204592525959,-0.027528416365385056
17.3,0.14418400824069977,0.1777334213256836,0.06414436548948288,0.009677872061729431,0.02008000947535038,-0.03220988065004349
17.35,0.034815408289432526,0.15429019927978516,0.016846539452672005,0.0004324810579419136,0.05115348845720291,-0.035917144268751144
17.4,-0.026565004140138626,0.16046142578125,-0.04731927067041397,-0.005005633924156427,0.05613011121749878,-0.01880274899303913
17.45,-0.05688730627298355,0.159942626953125,-0.11744539439678192,-0.006549365818500519,0.0352393314242363,-0.003624644363299012
17.5,-0.09674642235040665,0.1764059066772461,-0.047633104026317596,-0.001855351496487856,0.01910191774368286,-0.005299090873450041
17.55,-0.06300988048315048,0.15769100189208984,-0.04172294959425926,-0.0009959626477211714,0.0009809009497985244,-0.012149494141340256
17.6,-0.08006313443183899,0.1290454864501953,0.03081979975104332,-0.007944660261273384,-0.014923031441867352,-0.013773314654827118
17.65,-0.022541578859090805,0.15224647521972656,0.03356177359819412,-0.008925801143050194,-0.02081206999719143,-0.013806614093482494
17.7,0.06161109730601311,0.2064809799194336,0.03766406327486038,-0.00928818341344595,-0.025762423872947693,-0.01709391362965107
17.75,0.036039259284734726,0.2134542465209961,0.017924470826983452,-0.011697638779878616,-0.01825396902859211,-0.0179478470236063
17.8,0.04792576655745506,0.18354034423828125,0.001101772184483707,-0.018509354442358017,-0.014656418934464455,-0.004625855479389429
17.85,0.1180594265460968,0.15866374969482422,0.0351981520652771,-0.029287811368703842,-0.016671860590577126,0.010388392955064774
17.9,0.10547341406345367,0.0950307846069336,0.06033781170845032,-0.03563639521598816,0.00011124664160888642,0.017295582219958305
17.95,0.003977818414568901,0.001033781678415835,0.04701430723071098,-0.03944521024823189,0.017908737063407898,0.014513760805130005
18.0,0.05299296975135803,0.12807559967041016,-0.06100252643227577,-0.029591619968414307,0.026092734187841415,0.01710839569568634
18.05,-0.02419069968163967,0.17132854461669922,-0.07111597061157227,-0.0452258363366127,0.022479135543107986,0.024548636749386787
18.1,0.0077751511707901955,0.07835769653320312,-0.013380107469856739,-0.060842592269182205,0.0020931903272867203,0.04609323665499687
18.15,0.031462546437978745,-0.010952945798635483,-0.11810074001550674,-0.06894394010305405,0.012538652867078781,0.05002839118242264
18.2,0.004729490727186203,-0.13065147399902344,-0.14774081110954285,-0.05435055494308472,0.024401649832725525,0.04251508787274361
18.25,0.025903964415192604,-0.028203006833791733,-0.10267185419797897,-0.014835938811302185,0.016572214663028717,0.039876583963632584
18.3,-0.08554265648126602,0.12398052215576172,-0.028763985261321068,0.026003826409578323,0.010437477380037308,0.01667122170329094
18.35,-0.06126980483531952,0.2317819595336914,-0.03890503942966461,0.045158036053180695,-0.010498649440705776,-0.00965430773794651
18.4,-0.03942447528243065,0.0879058837890625,-0.010343370959162712,0.0323529914021492,-0.05076714605093002,-0.021447213366627693
18.45,0.1213797926902771,0.03008747100830078,0.012588298879563808,0.03725770488381386,-0.08140591531991959,-0.016464250162243843
18.5,0.20488660037517548,-0.17725849151611328,0.07297205179929733,0.051429372280836105,-0.06369141489267349,0.019038068130612373
18.55,0.3214693069458008,-0.0731201171875,0.18522945046424866,0.061891742050647736,-0.013628175482153893,0.08535992354154587
18.6,0.505159318447113,0.07039164751768112,0.40291541814804077,0.06343404948711395,0.10860203951597214,0.16795898973941803
18.65,0.25777119398117065,0.10642049461603165,0.7769085168838501,0.07248979806900024,0.25127100944519043,0.19329872727394104
18.7,0.12033863365650177,0.21922586858272552,0.4608469307422638,0.14681819081306458,0.22114096581935883,0.1250380277633667
18.75,-0.7270129919052124,-0.6113348007202148,0.5277948379516602,0.16177980601787567,0.12765653431415558,0.1588958501815796
18.8,-0.7890316247940063,-0.21516133844852448,0.07029858976602554,0.3255040645599365,-0.07225494086742401,-0.0368853323161602
18.85,0.34290462732315063,-0.04563618078827858,0.20327800512313843,0.44519859552383423,-0.38376712799072266,-0.2857467532157898
18.9,1.7813456058502197,1.4564208984375,-0.2323911339044571,0.6347999572753906,-0.4169800579547882,-0.7195852398872375
18.95,1.860575556755066,2.270975112915039,-0.14765797555446625,0.6309687495231628,-0.03706856444478035,-1.2554576396942139
19.0,0.6530882120132446,1.621445655822754,-0.1647639125585556,0.451151043176651,0.6162253022193909,-1.4619975090026855
19.05,0.4301980137825012,-0.33815765380859375,-0.2743035852909088,0.18320953845977783,0.8451868295669556,-0.9544527530670166
19.1,-0.7110537886619568,-1.1214284896850586,-0.9985626935958862,-0.05339767038822174,0.9459419846534729,-0.6213780641555786
19.15,-1.7292816638946533,-0.9548215866088867,-1.0039963722229004,-0.1656828373670578,0.7934615015983582,-0.5304603576660156
19.2,-1.2494797706604004,-0.29570862650871277,-0.8838062286376953,-0.005508903414011002,0.4166618287563324,-0.22116070985794067
19.25,-0.8504945635795593,0.009956369176506996,-0.5419891476631165,0.20340168476104736,0.041514452546834946,0.1484510749578476
19.3,-1.1815550327301025,0.5058965682983398,0.08499117195606232,0.30153220891952515,0.014634979888796806,0.15413635969161987
19.35,-1.3943417072296143,0.1883859485387802,0.19493994116783142,0.1636103391647339,-0.11013861000537872,0.016208713874220848
19.4,-0.4116191864013672,0.24057960510253906,-0.11912930011749268,0.08744247257709503,-0.4657299518585205,-0.015370671637356281
19.45,0.6308599710464478,0.0750885084271431,-0.1786733865737915,0.020343542098999023,-0.6714520454406738,0.0620838962495327
19.5,1.0602854490280151,0.4712209701538086,0.2444729208946228,0.046981409192085266,-0.664201021194458,0.0714341551065445
19.55,0.9466052651405334,0.41843700408935547,0.6196454763412476,0.06286543607711792,-0.5730427503585815,-0.02893209084868431
19.6,1.0765460729599,0.41578006744384766,0.7981134653091431,0.059851326048374176,-0.5320732593536377,-0.07105351239442825
19.65,1.5117006301879883,0.1013326495885849,0.8239835500717163,-0.010850595310330391,-0.4573514461517334,-0.11396769434213638
19.7,1.4889335632324219,0.09323500841856003,0.6088098883628845,-0.0004983209073543549,-0.19028723239898682,-0.18566682934761047
19.75,0.9787817597389221,0.19652652740478516,0.28469258546829224,0.01661764644086361,0.1289600431919098,-0.16515621542930603
19.8,0.02912282757461071,0.15941333770751953,0.09895700961351395,0.02670506201684475,0.27876201272010803,-0.09976586699485779
19.85,-0.5102373361587524,0.3227071762084961,-0.03425603732466698,0.018108908087015152,0.2447962760925293,-0.10420797020196915
