Time [s],Acc_x [m/s^2],Acc_y [m/s^2],Acc_z [m/s^2],Gyro_x [1/s],Gyro_y [1/s],Gyro_z [1/s]
0.0,-0.031128520146012306,0.12760446965694427,0.0433722585439682,-0.006637624464929104,0.006727974861860275,0.007613939233124256
0.05,-0.053107209503650665,0.058788299560546875,0.049628615379333496,-0.0064219944179058075,0.002462338889017701,-0.0022376636043190956
0.1,-0.050017569214105606,0.1091918870806694,-0.004303292371332645,0.0011998722329735756,0.012751290574669838,-0.01126001589000225
0.15,-0.019810842350125313,0.08849620074033737,0.04107986018061638,0.0023454485926777124,0.007294818758964539,-0.007063242606818676
0.2,-0.0015418380498886108,0.1033782884478569,0.06875070184469223,0.001059038331732154,0.005689405836164951,-0.006360092666000128
0.25,-0.04392882063984871,0.09998607635498047,0.08145811408758163,0.0016883164644241333,-0.0002016088110394776,-0.0004730774089694023
0.3,-0.041257355362176895,0.06347083300352097,0.022045768797397614,-0.0018471949733793736,-0.006555679254233837,0.00015364591672550887
0.35,-0.021084513515233994,0.04358291253447533,-0.006463191006332636,-0.002925922628492117,-0.0035587141755968332,-0.001095163868740201
0.4,-0.0014263764023780823,0.05982685089111328,0.04664009064435959,-0.002732116263359785,-0.003519474295899272,-0.003997062798589468
0.45,0.001840219832956791,0.08719634264707565,0.026746613904833794,-0.002912056865170598,-1.6470597984152846e-05,-0.0027318070642650127
0.5,-0.02425212413072586,0.14901922643184662,0.08589271456003189,-0.0016895500011742115,0.0005437663057819009,-0.008585612289607525
0.55,-0.04821952432394028,0.1075429916381836,0.08980376273393631,-0.0027973533142358065,-6.53823371976614e-05,-0.0031784905586391687
0.6,0.0008132969960570335,0.05924701318144798,0.03018016740679741,-0.009819773957133293,-0.0023194625973701477,0.0072041843086481094
0.65,-0.02985563315451145,0.08570479601621628,0.01828697882592678,-0.006182070821523666,-0.00067382917040959,0.0073832860216498375
0.7,-0.0035860612988471985,0.10827254503965378,0.03877916932106018,-0.004486646503210068,0.0023253941908478737,0.0034113607835024595
0.75,-0.007682781666517258,0.06713484972715378,0.012955207377672195,-0.0029430733993649483,0.007418720051646233,0.0008289118995890021
0.8,-0.02083219587802887,0.07911013811826706,0.04003112390637398,-0.0012357982341200113,0.003459372790530324,-0.0005204157205298543
0.85,-0.03588998317718506,0.11585426330566406,0.0682879164814949,-0.0015844616573303938,0.008307049982249737,0.0008628612267784774
0.9,-0.03367733955383301,0.10522270202636719,0.06620627641677856,-0.00628705183044076,0.006273559760302305,0.004354848526418209
0.95,-0.011899027973413467,0.04283428192138672,0.03532721474766731,-0.009052647277712822,0.00483692204579711,0.0027834405191242695
1.0,0.03311573341488838,0.08003043383359909,0.06379828602075577,-0.006309632211923599,-9.519349987385795e-05,-0.0016471878625452518
1.05,-0.013763539493083954,0.1049814224243164,0.11478907614946365,-0.0032129138708114624,0.003267470980063081,-0.005665266420692205
1.1,-0.047661423683166504,0.03939247503876686,0.0981283187866211,-0.0070714871399104595,0.005536905024200678,-0.0071976929903030396
1.15,-0.05889882147312164,0.06635379791259766,0.09774678200483322,-0.01711452007293701,0.019724007695913315,-0.014881746843457222
1.2,-0.015146784484386444,0.13454245030879974,-0.04659684747457504,-0.02086665667593479,0.01216905377805233,-0.014475704170763493
1.25,-0.0470946803689003,0.04635143652558327,0.13511806726455688,-0.014928423799574375,0.0014313239371404052,-0.0053856996819376945
1.3,-0.056609541177749634,0.13772106170654297,0.16087260842323303,-0.021821720525622368,0.0022421476896852255,-0.004468412138521671
1.35,-0.002477116882801056,0.13191984593868256,0.08597737550735474,-0.03373810648918152,-0.0186054278165102,0.0002515401574783027
1.4,0.03788411617279053,-0.0005645757191814482,0.026427673175930977,-0.04329988360404968,-0.04107210412621498,0.003985031042248011
1.45,0.002760048024356365,0.03350638970732689,0.0022709337063133717,-0.019076358526945114,-0.016119806095957756,-0.0010466044768691063
1.5,-0.00474344938993454,0.07489489763975143,0.08324340730905533,0.004701660480350256,0.003755433950573206,0.0008711502887308598
1.55,-0.031159158796072006,0.09675407409667969,0.0829336866736412,0.012737641111016273,0.009370706044137478,-0.0029924786649644375
1.6,-0.05184037238359451,0.0975046157836914,0.05959709733724594,0.019248781725764275,0.02193547412753105,-0.00958198495209217
1.65,0.00357243069447577,0.0804748460650444,0.008189518935978413,0.01774340122938156,0.016282612457871437,-0.007452048361301422
1.7,-0.03920969367027283,0.08306121081113815,0.012794794514775276,0.014736296609044075,0.012763913720846176,-0.006064333021640778
1.75,-0.03216516599059105,0.09184645861387253,0.01827865093946457,0.007055356167256832,0.003644368378445506,-0.006172713823616505
1.8,-0.05563636124134064,0.1410684436559677,0.06000175699591637,0.0011667213402688503,0.0018797601805999875,-0.0027201753109693527
1.85,-0.0050446996465325356,0.05002402886748314,0.011797217652201653,0.004296724684536457,0.003598873969167471,-0.004636961966753006
1.9,0.0015808275202289224,0.139432892203331,-0.0037042489275336266,0.004220879636704922,0.009097863920032978,-0.011850674636662006
1.95,-0.043323270976543427,0.11025237292051315,0.019712094217538834,0.005377789959311485,0.0009942743927240372,-0.008377083577215672
2.0,-0.03943056985735893,0.08329199999570847,0.010045936331152916,0.0009875500109046698,0.0035269083455204964,7.924300007289276e-05
2.05,-0.034059084951877594,0.1378793567419052,0.07147141546010971,-0.0010795771377161145,0.0017968169413506985,0.0038251508958637714
2.1,-0.002004537731409073,0.07547282427549362,0.04301511496305466,-0.00409028260037303,0.003928943537175655,0.002986353589221835
2.15,-0.033400293439626694,0.1181325912475586,0.06154065579175949,-0.005635693669319153,0.003752687480300665,0.0024032513611018658
2.2,0.01664121262729168,0.04329776391386986,0.0351603664457798,-0.0032022406812757254,0.0038823015056550503,0.00030915671959519386
2.25,-0.01674925535917282,0.08025931566953659,0.06932280212640762,-0.003475617617368698,0.002720367396250367,-0.0005481335683725774
2.3,-0.010603941977024078,0.13401411473751068,0.09233463555574417,-0.004703208804130554,-0.004779391922056675,0.003300091251730919
2.35,0.002600729465484619,0.08908652514219284,0.06859444826841354,-0.004258323460817337,0.0029851365834474564,-0.0010409881360828876
2.4,0.030732417479157448,0.07550334185361862,0.08400719612836838,-0.0037656158674508333,0.007138992194086313,-0.00858271773904562
2.45,-0.06792432069778442,0.10727405548095703,0.039633385837078094,-0.006715815048664808,0.006951883435249329,-0.005995380692183971
2.5,-0.06739193201065063,0.08732222765684128,0.01770990714430809,-0.005615749396383762,0.001571789151057601,-0.0008751783752813935
2.55,-0.04544540122151375,0.0953817293047905,0.04280826821923256,-0.009782912209630013,0.002597193466499448,-0.0014657011488452554
2.6,-0.03213255852460861,0.10732460021972656,0.0821518823504448,-0.010454976931214333,0.004994737915694714,-0.0017301825573667884
2.65,-0.04113004356622696,0.06690501421689987,0.041666217148303986,-0.006375499069690704,0.01214100793004036,-0.0028771180659532547
2.7,-0.001895969733595848,0.09894656389951706,-0.03589692339301109,-0.012566274031996727,0.008469847962260246,-0.0016759345307946205
2.75,-0.06415138393640518,0.08153247833251953,0.039391618221998215,-0.020440299063920975,0.014216671697795391,0.013389422558248043
2.8,-0.05568358302116394,0.21427343785762787,0.10147614777088165,-0.04600321501493454,0.026779720559716225,0.024457575753331184
2.85,-0.21744801104068756,0.28652191162109375,0.19143208861351013,-0.12059646099805832,-0.021588195115327835,0.05499061569571495
2.9,-0.40984827280044556,0.3580665588378906,0.11950347572565079,-0.3539707660675049,-0.2745777368545532,0.1356632560491562
2.95,0.15565656125545502,0.612733781337738,0.5394889712333679,-0.4601977467536926,-0.4972221851348877,0.18777765333652496
3.0,0.2619495689868927,0.9378919005393982,0.7235442996025085,-0.4743501543998718,-0.5164120197296143,0.13203740119934082
3.05,0.20427674055099487,0.45181748270988464,0.1647486835718155,-0.45802855491638184,-0.27068042755126953,-0.04973335564136505
3.1,0.07288971543312073,1.0127571821212769,0.526491105556488,-0.346781849861145,0.23837904632091522,-0.2578122019767761
3.15,0.933527946472168,0.5155372023582458,1.2712061405181885,-0.4632507860660553,0.7011897563934326,-0.35239720344543457
3.2,0.7678285837173462,0.8845919966697693,0.42787301540374756,-0.5685746073722839,1.5337978601455688,-0.5737732648849487
3.25,1.130077600479126,0.39042654633522034,-0.013959133066236973,-0.5832127928733826,1.9732621908187866,-0.82438063621521
3.3,1.0735503435134888,-0.09918123483657837,-0.5686931610107422,-0.5353837609291077,2.2095344066619873,-1.0340750217437744
3.35,0.8859407901763916,-0.8154487609863281,-0.7334116101264954,-0.4783565104007721,2.2749855518341064,-1.156333565711975
3.4,0.3120146095752716,-1.2205618619918823,-1.0268741846084595,-0.30172768235206604,2.1755282878875732,-1.171749472618103
3.45,0.17019295692443848,-1.1274441480636597,-1.0484588146209717,-0.05591413378715515,1.9004292488098145,-1.0071955919265747
3.5,-0.032589346170425415,-0.6982221007347107,-0.6293020844459534,0.1655764877796173,1.5606145858764648,-0.9258567094802856
3.55,-0.1217447966337204,-0.3473481833934784,-0.46699991822242737,0.31602850556373596,1.3207857608795166,-0.8552573323249817
3.6,-0.12836046516895294,0.06649874895811081,-0.06801735609769821,0.3921303153038025,1.1434645652770996,-0.8633420467376709
3.65,-0.05666692554950714,0.23825356364250183,-0.35746681690216064,0.33872175216674805,0.9450803995132446,-0.7666556239128113
3.7,-0.09286569058895111,-0.24839971959590912,-0.15752102434635162,0.34383082389831543,0.7709884643554688,-0.7122002243995667
3.75,-0.13414545357227325,-0.33353421092033386,-0.060402948409318924,0.3407207131385803,0.538799524307251,-0.632287859916687
3.8,-0.038078222423791885,0.5709027647972107,-0.16341619193553925,0.35058265924453735,0.31336185336112976,-0.5690721273422241
3.85,-0.046194225549697876,0.4167938232421875,0.35319405794143677,0.28434935212135315,0.06880306452512741,-0.470722496509552
3.9,-0.05905497074127197,0.07433129101991653,0.354732871055603,0.15729738771915436,-0.06959190964698792,-0.34826046228408813
3.95,0.0508730411529541,-0.22485731542110443,0.005006138700991869,0.05156003683805466,-0.15933705866336823,-0.29188838601112366
4.0,0.01918083429336548,-0.2827624976634979,-0.22749046981334686,0.13036781549453735,-0.16598595678806305,-0.36792629957199097
4.05,-0.05053424835205078,-0.33535096049308777,-0.20552514493465424,0.19331365823745728,-0.29618164896965027,-0.3162195384502411
4.1,0.17785191535949707,-0.09746742248535156,-0.0303786713629961,0.2792072296142578,-0.3735656142234802,-0.3420519530773163
4.15,0.02544122189283371,0.03860855475068092,0.2324729859828949,0.258402556180954,-0.4012259244918823,-0.291446715593338
4.2,0.07165224850177765,0.6866597533226013,0.3831442892551422,0.22421015799045563,-0.40355783700942993,-0.255126416683197
4.25,0.36224061250686646,0.3758668899536133,1.0554720163345337,0.151641845703125,-0.3321811258792877,-0.3657892644405365
4.3,-0.02930659055709839,0.5402030348777771,0.6093197464942932,0.09377408772706985,-0.13280853629112244,-0.3153599202632904
4.35,-0.25246986746788025,-0.21557900309562683,0.0329107828438282,-0.013564303517341614,-0.02996833622455597,-0.2626863420009613
4.4,-0.3067929446697235,0.15739251673221588,0.2229091078042984,0.09782008826732635,0.09631899744272232,-0.3477754592895508
4.45,0.32396313548088074,0.15303418040275574,0.028579136356711388,0.07589257508516312,0.08876883238554001,-0.2564319968223572
4.5,0.037813521921634674,0.06717109680175781,0.1667357087135315,-0.006993219256401062,0.08137498795986176,-0.21772485971450806
4.55,0.04791475087404251,-0.12943550944328308,0.2652639150619507,0.09863732010126114,0.16638177633285522,-0.17369253933429718
4.6,0.13297933340072632,0.017412181943655014,0.11343930661678314,0.09110058099031448,0.12993405759334564,-0.08316871523857117
4.65,-0.1358450949192047,0.20804880559444427,-0.05566738173365593,-0.011326507665216923,0.012682449072599411,0.002063473453745246
4.7,0.04378347843885422,0.2794770896434784,0.04562530666589737,-0.10421223193407059,-0.3086186349391937,0.2602698504924774
4.75,0.15495949983596802,-0.2203035205602646,-0.014411704614758492,-0.3027155101299286,-0.369489848613739,0.24656440317630768
4.8,0.1327149122953415,-0.10368061065673828,0.020336346700787544,-0.17991352081298828,-0.15389420092105865,0.058585960417985916
4.85,0.1295931041240692,0.09633634239435196,-0.23037226498126984,-0.16527384519577026,-0.122464619576931,0.0002753956650849432
4.9,0.10782773792743683,-0.062343597412109375,0.01373288407921791,-0.16098952293395996,-0.16060176491737366,-0.059607844799757004
4.95,0.12123112380504608,0.010850916616618633,0.41187411546707153,-0.08273156732320786,-0.038318928331136703,-0.22745990753173828
5.0,-0.06065434589982033,-0.005132666323333979,0.13979661464691162,-0.048388250172138214,0.05247531458735466,-0.19941753149032593
5.05,-0.14242063462734222,0.18664836883544922,0.09894520789384842,-0.019108228385448456,0.05286859720945358,-0.16037505865097046
5.1,-0.15884289145469666,0.021853458136320114,0.16175499558448792,0.026141934096813202,0.029114387929439545,-0.13119226694107056
5.15,-0.283974289894104,0.1594858318567276,0.4664497673511505,0.04059884697198868,0.05937410518527031,-0.12175639718770981
5.2,0.2119469940662384,0.055796608328819275,-0.05177999660372734,0.001807456836104393,0.034212980419397354,-0.045358020812273026
5.25,-0.15310299396514893,0.06743050366640091,0.168341726064682,-0.004949161782860756,0.05255206301808357,-0.03050975874066353
5.3,-0.10338620096445084,0.04048920050263405,0.061366017907857895,-0.01774536818265915,0.016502775251865387,0.043982990086078644
5.35,0.04150014370679855,0.08369826525449753,-0.04473401606082916,-0.04099443927407265,-0.03757321834564209,0.06449190527200699
5.4,-0.24287958443164825,0.06810475140810013,0.16611824929714203,-0.0935690775513649,-0.07173727452754974,0.08018680661916733
5.45,-0.05745555832982063,0.03374767303466797,0.048236582428216934,-0.13614508509635925,-0.15385252237319946,0.11594357341527939
5.5,-0.09909358620643616,-0.10133741796016693,0.09095709025859833,-0.12447478622198105,-0.1348923295736313,0.08768174052238464
5.55,-0.19173282384872437,0.16017532348632812,0.11520873755216599,-0.06375019252300262,-0.06319970637559891,0.013218941166996956
5.6,-0.06785321980714798,0.10093307495117188,0.13879534602165222,-0.08018867671489716,-0.0748535767197609,0.04161146655678749
5.65,-0.2522141635417938,0.028465285897254944,0.12285450100898743,-0.08362528681755066,-0.08188053220510483,0.08776775747537613
5.7,-0.27768421173095703,0.06989385187625885,0.24212059378623962,-0.07934831827878952,-0.11719265580177307,0.1325085312128067
5.75,-0.0644712820649147,-0.07359693944454193,0.12204206734895706,-0.07130733132362366,-0.13387073576450348,0.1331907957792282
5.8,-0.05306685343384743,-0.028485290706157684,0.0897732675075531,-0.04915207624435425,-0.10406716912984848,0.10774154216051102
5.85,-0.0811038389801979,0.10155106335878372,0.20280322432518005,-0.04189722239971161,-0.08402155339717865,0.07014136016368866
5.9,-0.016485434025526047,-0.011478420346975327,0.0538807138800621,-0.02146654948592186,-0.0386221706867218,0.03961309418082237
5.95,-0.1224437728524208,0.21981430053710938,0.2018050104379654,-0.001284395344555378,-0.008253904059529305,0.029946964234113693
6.0,-0.032851219177246094,-0.11936663091182709,0.157729834318161,-0.03773284703493118,0.03494643047451973,0.14431166648864746
6.05,-0.24922555685043335,-0.04518602043390274,0.1965053379535675,0.011302676051855087,0.06653745472431183,0.08867565542459488
6.1,-0.5021323561668396,-0.06646152585744858,0.1515384316444397,0.012607589364051819,0.08584822714328766,0.021224332973361015
6.15,-0.5243685245513916,-0.012566533870995045,0.20930422842502594,0.03912791237235069,0.101939857006073,-0.05425873398780823
6.2,-0.14255698025226593,0.10372257977724075,0.17732171714305878,0.04339645802974701,0.10884374380111694,-0.08482823520898819
6.25,-0.18536195158958435,-0.03155228868126869,0.3481006622314453,0.10980495065450668,0.20228023827075958,-0.12868550419807434
6.3,-0.25700464844703674,0.22272396087646484,-0.0029967559967190027,0.14886805415153503,0.2076919823884964,-0.17763738334178925
6.35,-0.4703819751739502,0.074037566781044,0.12780354917049408,0.10066884011030197,0.09294816851615906,-0.14702202379703522
6.4,-0.2844986021518707,0.0857553631067276,0.15701353549957275,0.10026298463344574,0.07428296655416489,-0.13232730329036713
6.45,-0.06364847719669342,0.010526666417717934,0.18749158084392548,0.06345897912979126,0.028709067031741142,-0.11734960973262787
6.5,-0.09924008697271347,0.027674680575728416,0.06978616118431091,0.07965496182441711,0.041635651141405106,-0.16986845433712006
6.55,-0.22010304033756256,-0.04074094444513321,0.22107334434986115,0.07150875777006149,0.05327523872256279,-0.17029178142547607
6.6,-0.26650866866111755,0.01024057250469923,0.18271981179714203,0.08641529828310013,0.04404278099536896,-0.14208289980888367
6.65,-0.2698694169521332,0.005697270389646292,0.2184750735759735,0.08179080486297607,0.04794313386082649,-0.16574113070964813
6.7,-0.058626849204301834,0.0883932113647461,0.08061946928501129,0.09283149242401123,0.04951935634016991,-0.19430680572986603
6.75,-0.23691993951797485,0.07818890362977982,0.06905710697174072,0.12766407430171967,0.10727488249540329,-0.20474086701869965
6.8,-0.2693929672241211,0.11285305768251419,0.11616784334182739,0.10059687495231628,0.08544660359621048,-0.15648885071277618
6.85,-0.19751113653182983,-0.03717515617609024,0.20065659284591675,0.06933809071779251,0.039629966020584106,-0.11907961964607239
6.9,-0.28266918659210205,0.017779367044568062,0.1582622230052948,0.07029352337121964,0.044096022844314575,-0.10337680578231812
6.95,-0.18918216228485107,0.009477632120251656,0.22752536833286285,0.06713607162237167,0.03624514117836952,-0.0925108790397644
7.0,-0.10820818692445755,0.12143611907958984,0.12589731812477112,0.08102997392416,0.04251721873879433,-0.10062333941459656
7.05,-0.1910862922668457,0.08573151379823685,0.09004414081573486,0.04641684889793396,0.026395438238978386,-0.08684565126895905
7.1,-0.17847579717636108,0.08720303326845169,0.19699189066886902,0.03014528378844261,0.006488736253231764,-0.10699894279241562
7.15,-0.29892805218696594,0.12978744506835938,0.1328897327184677,0.012121237814426422,-0.011608146131038666,-0.11256209015846252
7.2,-0.2919076085090637,0.06690694391727448,0.19706667959690094,0.012094888836145401,0.001165957422927022,-0.0917908176779747
7.25,-0.22728374600410461,-0.0012283158721402287,0.16314706206321716,0.00032299384474754333,-0.00408733356744051,-0.08428391814231873
7.3,-0.2302463948726654,0.036259666085243225,0.19087627530097961,-0.006189316511154175,0.0009664593380875885,-0.07728885114192963
7.35,-0.2565062940120697,-0.04367063194513321,0.2251323014497757,0.010273508727550507,0.014853314496576786,-0.0610433965921402
7.4,-0.17982842028141022,-0.0005111549398861825,0.16264578700065613,0.02536863088607788,0.009798319078981876,-0.05372599884867668
7.45,-0.2438305765390396,0.012865085154771805,0.20999090373516083,0.015723448246717453,0.0051079546101391315,-0.04364022612571716
7.5,-0.21190950274467468,0.0057258750312030315,0.13802418112754822,0.02377123199403286,0.0038068166468292475,-0.04286117106676102
7.55,-0.21297687292099,0.02034379355609417,0.13373762369155884,0.00797281600534916,0.001336430199444294,-0.03163069486618042
7.6,-0.1104007363319397,-0.01683424413204193,0.20586340129375458,0.001781979575753212,0.004786794539541006,-0.02037004753947258
7.65,-0.22652243077754974,-0.029167156666517258,0.15130066871643066,-0.00036445725709199905,0.005682209972292185,-0.028760135173797607
7.7,-0.2375486195087433,0.039074912667274475,0.22927354276180267,-0.011142484843730927,0.006614857818931341,-0.0290229395031929
7.75,-0.2541224956512451,0.06361676007509232,0.1602800190448761,-0.005753656849265099,0.003093969076871872,-0.024015825241804123
7.8,-0.2514832317829132,0.04029752314090729,0.20374977588653564,-0.003250810317695141,0.0014553904766216874,-0.025790538638830185
7.85,-0.28844544291496277,0.027167335152626038,0.11828599870204926,-0.002586368005722761,-0.007976467721164227,-0.007917097769677639
7.9,-0.2192971408367157,0.036997806280851364,0.1470213532447815,0.001964072696864605,-0.0016402752371504903,-0.000729310151655227
7.95,-0.2406107485294342,-0.016762716695666313,0.11524337530136108,0.003754778765141964,0.0059935832396149635,-0.015776244923472404
8.0,-0.2643839120864868,0.04533292353153229,0.1828344464302063,0.0036835139617323875,0.011233885772526264,-0.02608407661318779
8.05,-0.2006397545337677,0.11354447156190872,0.16559265553951263,0.008300291374325752,0.00409677904099226,-0.016881883144378662
8.1,-0.1550007164478302,0.15024375915527344,0.21135403215885162,0.009455854073166847,0.0005543568986468017,-0.012369675561785698
8.15,-0.208840012550354,-0.04558942839503288,0.1474897563457489,0.011718017049133778,0.0011632167734205723,-0.01197498943656683
8.2,-0.20878641307353973,0.02943994104862213,0.19476303458213806,0.007191249169409275,0.004571434110403061,-0.00388529640622437
8.25,-0.17921438813209534,0.057134635746479034,0.09972305595874786,0.013282068073749542,0.007528477348387241,0.0010152366012334824
8.3,-0.2733263671398163,0.0417184978723526,0.15144236385822296,0.0020430213771760464,0.00471377233043313,0.006419805344194174
8.35,-0.22609274089336395,0.05277825891971588,0.17781010270118713,0.007724622264504433,0.004004994407296181,0.008290438912808895
8.4,-0.2514548897743225,0.052157413214445114,0.10505784302949905,0.005865682847797871,-0.0015215097228065133,0.006700812838971615
8.45,-0.2617030739784241,-0.026836378499865532,0.10833156853914261,0.00965060107409954,0.0012460928410291672,0.007307498715817928
8.5,-0.16519884765148163,-0.03233812749385834,0.14338400959968567,-0.006597446743398905,-0.017605405300855637,0.005280173383653164
8.55,-0.2623227834701538,0.031598106026649475,0.18118354678153992,0.00794310960918665,-0.004330300725996494,-0.005117612425237894
8.6,-0.287499338388443,-0.06815716624259949,0.22163125872612,-0.0035725273191928864,-0.008329873904585838,0.004887956660240889
8.65,-0.19623073935508728,-0.047648411244153976,0.19840388000011444,0.011093556880950928,-0.0038710294757038355,0.013261689804494381
8.7,-0.24908915162086487,-0.1423463523387909,0.21164639294147491,0.014177735894918442,-0.005220016930252314,0.013614337891340256
8.75,-0.15920370817184448,-0.131404846906662,0.2413954883813858,0.03281765058636665,0.005874513648450375,0.010689282789826393
8.8,-0.30266669392585754,0.06816007196903229,0.16897287964820862,0.036819398403167725,0.010044118389487267,-0.0010332787642255425
8.85,-0.19915004074573517,-0.010056478902697563,0.17105963826179504,0.03655168414115906,0.008328705094754696,-0.008594641461968422
8.9,-0.30981266498565674,0.027770059183239937,0.1372690200805664,0.021611403673887253,0.0017832884332165122,-0.0002194290136685595
8.95,-0.2737077474594116,-0.030283909291028976,0.12640374898910522,0.009604264982044697,-0.004935548175126314,0.010484779253602028
9.0,-0.35415753722190857,0.07695866376161575,0.06660660356283188,0.011740222573280334,0.003432966535910964,-0.0004539799119811505
9.05,-0.23194965720176697,0.11703873425722122,0.08660006523132324,0.013479248620569706,0.004032272845506668,0.0005234575364738703
9.1,-0.3168703019618988,0.035481467843055725,0.13402269780635834,0.015765346586704254,0.017332354560494423,-0.002772631123661995
9.15,-0.286471962928772,0.044868484139442444,0.10713140666484833,0.016336485743522644,0.004720386583358049,-0.007101298309862614
9.2,-0.2200380563735962,-0.03229997307062149,0.2230890691280365,0.008366024121642113,0.013832024298608303,3.078450754401274e-05
9.25,-0.25691619515419006,-0.050583817064762115,0.15005943179130554,0.024911195039749146,0.01062952633947134,-0.010327245108783245
9.3,-0.27220937609672546,0.042561545968055725,0.15502332150936127,0.02364354394376278,0.017433812841773033,-0.016134580597281456
9.35,-0.2079814076423645,0.0969848707318306,0.20687483251094818,0.028631923720240593,0.02006828598678112,-0.00222349283285439
9.4,-0.30790895223617554,0.1704416275024414,0.1504235416650772,0.01881394535303116,-0.0020813795272260904,-0.00846758484840393
9.45,-0.19794803857803345,-0.00027178163873031735,0.16930393874645233,0.014529913663864136,-0.0012622651411220431,-0.006350236013531685
9.5,-0.17558597028255463,-0.07319829612970352,0.1519315540790558,0.012732281349599361,-0.0025413266848772764,-0.014378055930137634
9.55,-0.2702293395996094,-0.026484468951821327,0.14799857139587402,0.020588908344507217,0.0029596607200801373,-0.016677387058734894
9.6,-0.3231680393218994,-0.06769654154777527,0.23955389857292175,0.02258409932255745,-0.0032782061025500298,-0.017916537821292877
9.65,-0.22363753616809845,0.02242375537753105,0.09991315007209778,0.02071205899119377,-0.007532570976763964,-0.024655034765601158
9.7,-0.3270084261894226,-0.0022620949894189835,0.14755061268806458,0.015029845759272575,-0.003886529942974448,-0.04007066413760185
9.75,-0.23400188982486725,0.06153489649295807,0.20621103048324585,0.006001409143209457,-0.0024270128924399614,-0.01616557128727436
9.8,-0.27330827713012695,0.05922605097293854,0.16847385466098785,0.007770441006869078,-7.140695379348472e-05,-0.01118224486708641
9.85,-0.17954127490520477,0.08626175671815872,0.12245386838912964,0.00692560663446784,-0.0036326711997389793,-0.018396414816379547
9.9,-0.2530530095100403,0.06821443140506744,0.197966530919075,-0.002982240403071046,0.001249912311322987,-0.009935112670063972
9.95,-0.23494157195091248,-0.03032873198390007,0.15135374665260315,-0.00288359634578228,-0.0021225728560239077,-0.00030906894244253635
10.0,-0.29809173941612244,-0.04840371385216713,0.19112488627433777,-0.0019252242054790258,0.0040940772742033005,0.00046794448280707
10.05,-0.2496948540210724,0.06005765497684479,0.16019055247306824,0.0018394808284938335,-0.001272817375138402,0.0043328143656253815
10.1,-0.2664692997932434,-0.01896856352686882,0.13027183711528778,-0.005004161968827248,0.002046333160251379,0.011240744031965733
10.15,-0.22739055752754211,-0.040734272450208664,0.12407267838716507,-0.0019546421244740486,-0.002371541690081358,0.005752944387495518
10.2,-0.31548887491226196,0.016146676614880562,0.10207393765449524,0.0041935560293495655,-0.0008314461447298527,-0.002535901963710785
10.25,-0.23024414479732513,-0.010647755116224289,0.1795310378074646,0.0009010754874907434,0.004491424188017845,-0.00015352206537500024
10.3,-0.2763647139072418,0.0377664715051651,0.14161144196987152,0.0006046434864401817,-0.0004366093489807099,-0.004624500870704651
10.35,-0.15008863806724548,-0.19647786021232605,0.15615661442279816,-0.008774526417255402,-0.004761960357427597,0.010856411419808865
10.4,-0.17079347372055054,-0.08070371299982071,0.18899890780448914,-0.004111310467123985,-0.0029673969838768244,0.0011954721994698048
10.45,-0.2737126350402832,0.110567107796669,0.18218035995960236,-0.0018374428618699312,0.00020538270473480225,-0.001034723361954093
10.5,-0.28754937648773193,0.10776901990175247,0.11812449991703033,-0.0038213361985981464,-0.004048618953675032,0.003728053532540798
10.55,-0.22928424179553986,-0.016686419025063515,0.20459090173244476,-0.00858925562351942,-0.00326617993414402,-0.011039547622203827
10.6,-0.2836286425590515,0.14687442779541016,0.08406855911016464,-0.004513283260166645,-0.0014030170859768987,-0.009037608280777931
10.65,-0.28871017694473267,-0.19422146677970886,0.13033242523670197,-0.02364843338727951,-0.006370612885802984,0.012950459495186806
10.7,-0.18268327414989471,0.03265286609530449,0.16745823621749878,-0.018204808235168457,0.00028091546846553683,0.014450066722929478
10.75,-0.3414924442768097,-0.09507080912590027,0.18599605560302734,-0.017258331179618835,0.006633468437939882,0.014916517771780491
10.8,-0.2762766480445862,-0.03079221583902836,0.17220723628997803,-0.009632411412894726,-0.006675312761217356,0.0041520013473927975
10.85,-0.28699785470962524,0.07967664301395416,0.18019121885299683,-0.018275219947099686,-0.002737166592851281,0.010171588510274887
10.9,-0.23270708322525024,0.016618741676211357,0.13941989839076996,-0.009657460264861584,0.00023741422046441585,0.009714999236166477
10.95,-0.2109874188899994,-0.030876141041517258,0.1778545081615448,-0.01360306702554226,-0.0010656286031007767,0.00032033590832725167
11.0,-0.17267723381519318,0.13659095764160156,0.15038417279720306,-0.006165456026792526,0.001244682352989912,0.0014937791274860501
11.05,-0.325562059879303,-0.043358780443668365,0.10954050719738007,-0.006328532472252846,-0.0016871793195605278,-0.0026896882336586714
11.1,-0.159684419631958,0.04188252240419388,0.13167418539524078,-0.004604427609592676,0.0029446918051689863,0.003438112325966358
11.15,-0.25495535135269165,-0.028283100575208664,0.1408679038286209,-0.00709637301042676,0.0032521348912268877,-0.004053677432239056
11.2,-0.21497754752635956,0.015762344002723694,0.15919041633605957,-0.007863250561058521,0.001609538565389812,0.00028749663033522666
11.25,-0.2544410228729248,-0.05024144798517227,0.14841511845588684,-0.0033326612319797277,0.005259736906737089,-0.008851101621985435
11.3,-0.23338264226913452,0.06836987286806107,0.18742163479328156,-0.0005671470426023006,0.002609191695228219,-0.013463480398058891
11.35,-0.31553444266319275,0.0012273952597752213,0.06914914399385452,-0.006899416446685791,0.006269580684602261,0.00019632335170172155
11.4,-0.28736966848373413,0.013648048974573612,0.11378074437379837,-0.01195182278752327,-0.0013804148184135556,0.001570340828038752
11.45,-0.3050159811973572,0.11020852625370026,0.14467597007751465,-0.003701290115714073,0.004246086347848177,-0.012332506477832794
11.5,-0.21088705956935883,0.01607324182987213,0.19938704371452332,-0.005502108484506607,0.0049415272660553455,-0.0021612325217574835
11.55,-0.31083932518959045,0.031241435557603836,0.150869220495224,-0.008798547089099884,0.003608761355280876,-0.005253992509096861
11.6,-0.23108439147472382,0.05031491443514824,0.1588377207517624,-0.010491247288882732,0.002309848088771105,0.004195096902549267
11.65,-0.2687959671020508,0.05546952784061432,0.1291700005531311,-0.0272380281239748,-0.0016477437457069755,0.012111568823456764
11.7,-0.2212703824043274,0.058886539191007614,0.13563105463981628,-0.03462155908346176,-0.0010145670967176557,0.015239126048982143
11.75,-0.26984766125679016,0.033233657479286194,0.1307421326637268,-0.03627476096153259,0.005448854062706232,-0.002990039298310876
11.8,-0.22635528445243835,0.05194283649325371,0.08368447422981262,-0.05549295246601105,-0.0046606906689703465,0.002941843355074525
11.85,-0.4043169915676117,-0.033163994550704956,0.1651698350906372,-0.07543148845434189,-0.006927134469151497,0.011970877647399902
11.9,-0.1323346048593521,-0.466640442609787,0.02770051173865795,-0.09434425830841064,-0.011569204740226269,0.015293163247406483
11.95,-0.31412243843078613,-0.2816857695579529,0.1740628033876419,-0.12950009107589722,-0.024465544149279594,0.013798227533698082
12.0,-0.3099307715892792,0.05985833331942558,0.07618634402751923,-0.12492372840642929,-0.020430445671081543,0.02218105085194111
12.05,-0.11012211441993713,0.22312164306640625,0.2649359703063965,-0.13119159638881683,-0.03158792480826378,0.02146291173994541
12.1,-0.1535288691520691,0.14735031127929688,0.16669555008411407,-0.10120205581188202,-0.04130499064922333,0.002664732513949275
12.15,-0.28115326166152954,0.06186201050877571,0.20565751194953918,-0.08488927781581879,-0.021942222490906715,0.013485082425177097
12.2,-0.2599582076072693,0.08994389325380325,0.16905009746551514,-0.043490439653396606,0.004697049036622047,0.030432529747486115
12.25,-0.13775986433029175,0.06614971160888672,0.09323804080486298,-0.03250766918063164,-0.001343163545243442,0.033441200852394104
12.3,-0.2958957254886627,0.012469309382140636,0.13590683043003082,-0.01276281289756298,-0.002560713794082403,-0.0009894933318719268
12.35,-0.2676997184753418,-0.1044301763176918,0.14988186955451965,0.005702810361981392,0.007895675487816334,-0.003287586849182844
12.4,-0.1758311688899994,-0.04989336058497429,0.19515059888362885,0.03474752604961395,0.016481850296258926,-0.01642061583697796
12.45,-0.26328712701797485,0.043108951300382614,0.10910262167453766,0.04140055179595947,0.012403684668242931,-0.043748967349529266
12.5,-0.23962192237377167,0.03165246173739433,0.15546849370002747,0.051680631935596466,0.0037154306191951036,-0.042600978165864944
12.55,-0.17554396390914917,0.029001247137784958,0.1105043888092041,0.050400249660015106,-0.006851512938737869,0.003987467382103205
12.6,-0.336181640625,-0.03598687797784805,0.14207950234413147,0.05034644156694412,-0.007218868471682072,0.005465025547891855
12.65,-0.2191762775182724,0.048715606331825256,0.21969033777713776,0.06455623358488083,0.0036711718421429396,-0.01206204853951931
12.7,-0.3672558665275574,0.25118064880371094,0.11012638360261917,0.06167634576559067,0.006919157691299915,-0.03587919846177101
12.75,-0.30572566390037537,0.049676910042762756,0.10017300397157669,-0.010692000389099121,-0.03557654470205307,0.07281041145324707
12.8,-0.4644044041633606,-0.012607543729245663,0.23760659992694855,-0.024139821529388428,-0.0336499847471714,0.11058203876018524
12.85,-0.1031583696603775,0.007826813496649265,0.12010780721902847,0.006639853119850159,-0.036954257637262344,0.15633715689182281
12.9,0.018778041005134583,-0.1864289939403534,0.21720029413700104,0.03440805897116661,-0.03870207816362381,0.11029258370399475
12.95,-0.1760960966348648,0.0065784575417637825,0.12459501624107361,0.09289270639419556,-0.007069116458296776,-0.032355085015296936
13.0,-0.2689550817012787,0.1495513916015625,0.005458867643028498,0.1199234202504158,0.022321635857224464,-0.07045364379882812
13.05,-0.31618818640708923,-0.029447533190250397,0.1839188039302826,0.04617053270339966,0.003174676327034831,-0.024585172533988953
13.1,-0.19470669329166412,0.11243725568056107,0.14310318231582642,0.05185985565185547,0.018669866025447845,-0.049217574298381805
13.15,-0.3659026026725769,0.0657196193933487,0.08000334352254868,0.009075194597244263,-0.005576212890446186,-0.013223587535321712
13.2,-0.1470283418893814,0.07998371869325638,0.26030004024505615,-0.01730605587363243,0.005183617118746042,0.004306435119360685
13.25,-0.09556068480014801,0.08921051025390625,0.15622049570083618,-0.001825365237891674,0.013932585716247559,-0.027106303721666336
13.3,-0.3554801046848297,0.030087491497397423,0.1899845153093338,0.008214239031076431,-0.0024523090105503798,-0.052669525146484375
13.35,-0.1599486768245697,-0.09585568308830261,0.29301688075065613,0.030797241255640984,0.008513221517205238,-0.040012579411268234
13.4,-0.2829819321632385,0.019380580633878708,0.028135551139712334,0.05152914300560951,0.025825215503573418,-0.0522136352956295
13.45,-0.32268890738487244,-0.056240059435367584,0.09520891308784485,0.012874527834355831,0.004549834877252579,0.033087197691202164
13.5,-0.16236476600170135,0.017935767769813538,0.24342061579227448,0.01384080108255148,0.015127052552998066,0.029305169358849525
13.55,-0.31804075837135315,0.14616107940673828,0.11113321781158447,0.0188804529607296,0.00017664668848738074,0.007466694340109825
13.6,-0.21766266226768494,-0.10705087333917618,0.21215184032917023,-0.026979409158229828,-0.021068479865789413,0.04215245693922043
13.65,-0.12891826033592224,0.06657124310731888,0.21485942602157593,-0.005995878949761391,0.030887607485055923,-0.05389409139752388
13.7,-0.20366016030311584,-0.052338577806949615,0.20430345833301544,0.019786031916737556,0.0038496367633342743,-0.07757334411144257
13.75,-0.2278634011745453,-0.00400922866538167,0.19253979623317719,0.06649190187454224,0.02220499888062477,-0.10983194410800934
13.8,-0.24204105138778687,0.02730943262577057,0.13395348191261292,0.05443531274795532,0.02041621319949627,-0.08772295713424683
13.85,-0.28950080275535583,-0.02837560698390007,0.120555080473423,0.025171736255288124,-0.0028683748096227646,-0.03788477182388306
13.9,-0.08507493138313293,-0.2613639533519745,0.20448392629623413,-0.007316663861274719,-0.00027400071849115193,-0.003713532816618681
13.95,-0.15882177650928497,0.03467751294374466,0.13304808735847473,-0.028588421642780304,-0.006814562249928713,0.02047542668879032
14.0,-0.2573252022266388,-0.02248857356607914,0.20138579607009888,-0.03293919563293457,-0.003852228168398142,0.023775514215230942
14.05,-0.3085513710975647,0.09523297846317291,0.1919909417629242,-0.021958980709314346,0.001852845074608922,0.0163394957780838
14.1,-0.20102068781852722,0.06749439984560013,0.151767760515213,-0.03309791907668114,-0.002791231032460928,0.028111575171351433
14.15,-0.21095167100429535,-0.06756208091974258,0.128012552857399,-0.03055480308830738,-0.001411215402185917,0.02458309568464756
14.2,-0.23742713034152985,0.05445576831698418,0.13636414706707,-0.01811964437365532,3.024475518031977e-05,0.010624431073665619
14.25,-0.24396370351314545,0.04795647785067558,0.09594567865133286,-0.011652559041976929,-0.005819745361804962,0.00360084674321115
14.3,-0.21548250317573547,-0.022029859945178032,0.15747803449630737,-0.006641907151788473,0.0025998875498771667,0.0023437757045030594
14.35,-0.30618828535079956,0.1293783187866211,0.10231053829193115,0.0017076050862669945,0.0024020937271416187,0.018408162519335747
14.4,-0.26064640283584595,0.04812528192996979,0.1434221863746643,-0.010259462520480156,0.0032430964056402445,0.020808903500437737
14.45,-0.20782363414764404,0.011130346916615963,0.15163826942443848,-0.006792998407036066,0.004671756643801928,-0.0061246431432664394
14.5,-0.34076231718063354,0.021998422220349312,0.09963884204626083,0.00972740352153778,0.003792928298935294,-0.014620459638535976
14.55,-0.3142353594303131,0.08604241162538528,0.09157261997461319,-0.004694834351539612,0.002011899370700121,0.010724031366407871
14.6,-0.28272345662117004,0.040735259652137756,0.14671432971954346,-0.008264865726232529,-0.001149482442997396,0.015379790216684341
14.65,-0.24671152234077454,-0.1768464744091034,0.15303298830986023,-0.003947020974010229,0.0009111806866712868,0.00968053750693798
14.7,-0.13117314875125885,-0.15853211283683777,0.11771047860383987,0.003204269800335169,0.004136348143219948,-0.010199479758739471
14.75,-0.3346952199935913,0.04826928675174713,0.11608182638883591,0.008241529576480389,0.0026084252167493105,-0.011956358328461647
14.8,-0.22940155863761902,-0.06915948539972305,0.1401839256286621,-0.006365187931805849,0.0021861365530639887,0.009748672135174274
14.85,-0.17840097844600677,0.08075428754091263,0.13955272734165192,-0.001122080022469163,0.0056497338227927685,0.0030441756825894117
14.9,-0.2905564308166504,0.019131675362586975,0.12294391542673111,-0.002458686474710703,0.0011855168268084526,0.003836960531771183
14.95,-0.3115692734718323,0.005083105061203241,0.18963764607906342,0.0024516626726835966,0.004459573421627283,-0.005889991298317909
15.0,-0.28806236386299133,-0.021960239857435226,0.11413443833589554,0.015461926348507404,0.001633638166822493,-0.01901056431233883
15.05,-0.26909518241882324,0.11214447766542435,0.15245020389556885,0.0409223698079586,0.01993337832391262,-0.040227048099040985
15.1,-0.2418227344751358,0.0638275220990181,0.17322732508182526,0.05969291925430298,0.027249954640865326,-0.0026201081927865744
15.15,-0.41202980279922485,0.08989812433719635,0.16595686972141266,0.021455194801092148,-0.00925581343472004,0.08807048201560974
15.2,-0.2907848358154297,0.22092247009277344,0.1658254861831665,-0.020583122968673706,-0.03156351298093796,0.1651572287082672
15.25,-0.3030366003513336,-0.062357883900403976,0.018673736602067947,-0.027919501066207886,-0.03664679452776909,0.21440085768699646
15.3,-0.3714175224304199,0.12810231745243073,0.21719278395175934,-0.03638259321451187,-0.0330299437046051,0.2524043321609497
15.35,-0.42758476734161377,0.2527761459350586,0.18315251171588898,-0.08340375125408173,-0.08707454800605774,0.36984914541244507
15.4,-0.2667689323425293,0.07338619977235794,0.08222395181655884,-0.08550919592380524,-0.08673515915870667,0.48123884201049805
15.45,-0.36193394660949707,-0.12274739146232605,0.16654932498931885,-0.0960579663515091,-0.05750992149114609,0.5124398469924927
15.5,-0.005775004625320435,-0.060696590691804886,0.17576825618743896,-0.05574291944503784,-0.03612247109413147,0.440310537815094
15.55,-0.32244572043418884,-0.024775482714176178,0.16420751810073853,-0.016777142882347107,0.0036061364226043224,0.285480260848999
15.6,-0.4043867588043213,-0.05338379368185997,0.2593679428100586,-0.029697641730308533,-0.019356492906808853,0.2547001838684082
15.65,-0.2587522566318512,0.10008717328310013,0.16321374475955963,0.06922896206378937,0.060077518224716187,0.21263913810253143
15.7,-0.26432859897613525,0.13312816619873047,0.11895640939474106,0.044478848576545715,0.02846401184797287,0.2278129756450653
15.75,-0.4464642107486725,-0.032731980085372925,0.1923951506614685,0.02438400685787201,0.0006639016210101545,0.24301019310951233
15.8,-0.26796212792396545,-0.1378898322582245,0.14858034253120422,0.04495016485452652,0.06525496393442154,0.1906619369983673
15.85,-0.041692543774843216,0.04945755377411842,0.09336698800325394,0.04275048151612282,0.04407664015889168,0.14214050769805908
15.9,-0.21584175527095795,-0.012631394900381565,0.27817708253860474,0.02647470124065876,0.06583864241838455,0.02850591391324997
15.95,-0.2725144028663635,-0.11758515983819962,0.15231923758983612,0.06160803139209747,0.07122370600700378,-0.09085765480995178
16.0,-0.30740106105804443,-0.07840154320001602,-0.01597938872873783,0.052429474890232086,0.08578052371740341,-0.17817778885364532
16.05,-0.3989565968513489,0.1674509048461914,0.10905172675848007,-0.014301389455795288,0.06134015694260597,-0.17150476574897766
16.1,-0.2886018455028534,-0.03161713853478432,0.22588703036308289,-0.0621299222111702,0.048514388501644135,-0.12407250702381134
16.15,-0.24401342868804932,0.05958939343690872,0.012180011719465256,-0.07396667450666428,0.015822719782590866,-0.10152679681777954
16.2,-0.050809986889362335,0.029012687504291534,0.16027283668518066,-0.12815602123737335,0.004236232955008745,-0.08960671722888947
16.25,-0.023363392800092697,0.024691585451364517,0.11354561150074005,-0.10662935674190521,0.02641470730304718,-0.14915573596954346
16.3,-0.2813701331615448,0.1030130460858345,0.11234081536531448,-0.09185624122619629,0.0403706356883049,-0.17718397080898285
16.35,-0.1229427307844162,0.09194470196962357,0.16589166224002838,-0.1079377830028534,0.004041250329464674,-0.1542159467935562
16.4,-0.188078835606575,0.12489128857851028,0.07833441346883774,-0.0772959440946579,0.02945174276828766,-0.15950798988342285
16.45,-0.20275132358074188,0.06842041015625,0.044529031962156296,-0.08775695413351059,0.024029264226555824,-0.10702688992023468
16.5,-0.15215544402599335,0.1738109588623047,0.030237700790166855,-0.0695876032114029,0.048286762088537216,-0.08836152404546738
16.55,-0.2083636373281479,0.06931973248720169,0.16135051846504211,-0.08085022866725922,0.02103101648390293,-0.06958550959825516
16.6,-0.13045361638069153,0.04452228918671608,0.029060350731015205,-0.07500693202018738,-0.009735914878547192,-0.06056280434131622
16.65,-0.17011424899101257,0.09525871276855469,0.09080883860588074,-0.0642317533493042,0.008007610216736794,-0.056047916412353516
16.7,-0.274562805891037,0.1837453842163086,0.015550229698419571,-0.058384377509355545,0.00018227208056487143,-0.015406433492898941
16.75,-0.24615813791751862,0.008718498051166534,-0.062190696597099304,-0.058633409440517426,-0.009402032010257244,0.04284801334142685
16.8,-0.14472950994968414,-0.20073696970939636,0.06306406855583191,-0.05016007646918297,0.005588141735643148,0.07259245961904526
16.85,-0.03755153715610504,-0.0707244724035263,0.16399741172790527,-0.039949528872966766,-0.0016967697301879525,0.06871187686920166
16.9,-0.14585764706134796,0.08502388745546341,0.1865071952342987,-0.020320944488048553,-0.002785875927656889,0.03593738377094269
16.95,-0.08648630976676941,0.03759479895234108,0.10657205432653427,-0.031304460018873215,-0.0054937079548835754,0.04563751816749573
17.0,-0.20219308137893677,0.29892250895500183,0.1352766901254654,-0.025999052450060844,0.0044142985716462135,0.029812924563884735
17.05,-0.22052894532680511,0.12541770935058594,0.05859055370092392,-0.01847023144364357,-0.007173238787800074,0.03685997799038887
17.1,-0.19220909476280212,-0.07805918157100677,0.04761480912566185,-0.012885769829154015,0.0037200981751084328,0.02852974459528923
17.15,-0.18450811505317688,-0.12902352213859558,0.03714472055435181,-0.020458964630961418,-0.001953422324731946,0.029583575204014778
17.2,-0.20773935317993164,-0.04649733006954193,0.07330381125211716,-0.009852084331214428,0.0011899385135620832,0.014714952558279037
17.25,-0.1652265042066574,-0.027543053030967712,0.1328389048576355,0.002183208242058754,0.007113906089216471,1.5906241515040165e-06
17.3,-0.1868138164281845,0.08542824536561966,0.19103582203388214,-0.0008845040574669838,-0.011961572803556919,0.018481777980923653
17.35,-0.1507941335439682,0.09529399871826172,0.09041229635477066,0.010564309544861317,-0.001395279890857637,0.0132056949660182
17.4,-0.18796312808990479,0.006146443076431751,0.10702840983867645,0.018107041716575623,0.00918060913681984,8.78259670571424e-05
17.45,-0.16434091329574585,-0.11205767095088959,0.04791020601987839,0.015031564980745316,0.0015464361058548093,0.007494612596929073
17.5,-0.22463107109069824,-0.02926824986934662,0.08642734587192535,0.01763336919248104,-0.0018468709895387292,0.004008942283689976
17.55,-0.19537577033042908,-0.03710363432765007,0.13846533000469208,0.004175606183707714,-0.003426882205531001,0.0316244438290596
17.6,-0.07144950330257416,-0.0019006629008799791,0.16690495610237122,0.010923408903181553,0.0003224260581191629,0.029033780097961426
17.65,-0.1916324645280838,0.01905728317797184,0.05716311186552048,0.00920434482395649,0.004584303125739098,0.013187793083488941
17.7,-0.19413693249225616,0.04291249439120293,0.15026861429214478,-0.005031130276620388,-0.005974708124995232,0.008344150148332119
17.75,-0.13590951263904572,0.018131263554096222,0.0892578661441803,0.0010224082507193089,-0.009329760447144508,0.010830583982169628
17.8,-0.1691858172416687,0.05849362164735794,0.12144073843955994,5.3159426897764206e-05,0.005626782774925232,0.009133964776992798
17.85,-0.1711794137954712,0.10234738141298294,0.09907364845275879,-0.008957765996456146,-0.0032582476269453764,0.02513093501329422
17.9,-0.14840108156204224,0.05969524756073952,0.047313835471868515,-0.006440524011850357,-0.0011280558537691832,0.021877018734812737
17.95,-0.15789392590522766,0.0384674146771431,0.09334547817707062,-0.007640042342245579,0.006012566387653351,0.010656141676008701
18.0,-0.15464743971824646,0.10609054565429688,0.10479824990034103,-0.010429571382701397,0.001135394093580544,0.009045245125889778
18.05,-0.268646240234375,0.09418392926454544,0.08915259689092636,-0.013050181791186333,0.0003488890652079135,0.01901911571621895
18.1,-0.11950577795505524,0.006793986540287733,0.14618487656116486,-0.018559765070676804,-0.0018228311091661453,0.025752823799848557
18.15,-0.18070662021636963,0.07298088818788528,0.12744683027267456,-0.013643092475831509,-0.00221757753752172,0.017375126481056213
18.2,-0.1838187575340271,0.04759408161044121,0.13057883083820343,-0.015382743440568447,-0.002261027693748474,0.026625003665685654
18.25,-0.14496353268623352,0.009296427480876446,0.11951659619808197,-0.01901397667825222,0.0004704296588897705,0.030438249930739403
18.3,-0.17187611758708954,0.005582822952419519,0.158599853515625,-0.0219785887748003,-0.002262868918478489,0.027923574671149254
18.35,-0.15996380150318146,0.043696410953998566,0.11962439119815826,-0.015112042427062988,-0.00014704567729495466,0.02221115678548813
18.4,-0.14230941236019135,-0.031249986961483955,0.13019701838493347,-0.01527293212711811,0.002114253118634224,0.020615527406334877
18.45,-0.18855801224708557,0.02696610428392887,0.08491808921098709,-0.010923052206635475,0.0008845495758578181,0.016345089301466942
18.5,-0.20698003470897675,0.03561021015048027,0.11227019131183624,-0.009296553209424019,0.0027361272368580103,0.014482230879366398
18.55,-0.1828422248363495,0.0657348707318306,0.1000719740986824,-0.006750432774424553,-0.001670780242420733,0.013827078975737095
18.6,-0.15101023018360138,0.03745175153017044,0.09150473773479462,-0.00892216619104147,0.0010268182959407568,0.024357466027140617
18.65,-0.1366252452135086,0.05132962018251419,0.12682317197322845,-0.008940277621150017,0.001355137093923986,0.022646218538284302
18.7,-0.13363097608089447,0.07311344891786575,0.17842507362365723,-0.011974678374826908,6.802133430028334e-05,0.017063559964299202
18.75,-0.18570880591869354,0.015713704749941826,0.1852577179670334,-0.007425204385071993,-0.0022887212689965963,0.014165574684739113
18.8,-0.13262923061847687,0.0410928800702095,0.10618327558040619,-0.00622002687305212,-7.420317706419155e-05,0.010504133999347687
18.85,-0.1700175553560257,0.026209842413663864,0.12790584564208984,-0.010023053735494614,0.0026146061718463898,-0.0003890764492098242
18.9,-0.19728341698646545,0.003062260104343295,0.0886240303516388,-0.009407171979546547,-0.0022093544248491526,0.010976449586451054
18.95,-0.18163667619228363,0.0512247160077095,0.09336821734905243,-0.007913663983345032,-0.0018364526331424713,0.015677526593208313
19.0,-0.2289595603942871,0.08595753461122513,0.10633354634046555,-0.007590831257402897,-0.004111146088689566,0.01922900788486004
19.05,-0.21447177231311798,0.00328923505730927,0.07708613574504852,-0.006136202719062567,-0.004734032321721315,0.020935874432325363
19.1,-0.12917646765708923,-0.023096073418855667,0.1110256090760231,-0.0035339416936039925,-0.001466776942834258,0.017500197514891624
19.15,-0.17224283516407013,0.012307178229093552,0.10760927945375443,-0.002701330464333296,0.00040331168565899134,0.01293921284377575
19.2,-0.14168065786361694,0.03580570966005325,0.15426650643348694,0.0018824299331754446,0.004508513025939465,0.00791359506547451
19.25,-0.18921761214733124,0.08880424499511719,0.06622432917356491,0.01762671023607254,0.0068948338739573956,0.005978918634355068
19.3,-0.22593986988067627,0.11153984814882278,0.06785410642623901,0.012264855206012726,0.002485169330611825,0.04877544194459915
19.35,-0.17937710881233215,0.14981460571289062,0.04290840029716492,-0.016773998737335205,-0.01787128672003746,0.12186171114444733
19.4,-0.2415163815021515,0.11682511121034622,0.08448240906000137,-0.04567347466945648,-0.02538066916167736,0.19480407238006592
19.45,-0.2030404508113861,0.14029788970947266,0.003675847314298153,-0.07788065075874329,-0.051762789487838745,0.2877436578273773
19.5,-0.02942933514714241,0.35454270243644714,0.07852483540773392,-0.10024768114089966,-0.0917590856552124,0.4296329617500305
19.55,-0.48253023624420166,0.030089396983385086,-0.030904533341526985,-0.08963614702224731,-0.27283602952957153,0.6839758157730103
19.6,-0.6654117107391357,-0.024438833817839622,-0.16098034381866455,-0.11729958653450012,-0.40129104256629944,0.8867717981338501
19.65,-0.22870269417762756,0.2544049918651581,0.021779485046863556,-0.11739686131477356,-0.4773905575275421,1.0232772827148438
19.7,0.07984194904565811,-0.0011787561234086752,-0.2769494354724884,-0.10206139087677002,-0.30778616666793823,0.9583678841590881
19.75,0.5894371271133423,0.10249992460012436,-0.18107883632183075,0.041418373584747314,-0.07532563805580139,0.9698632955551147
19.8,1.1332337856292725,0.2509526014328003,-0.7364704608917236,0.14347916841506958,0.015358605422079563,1.1219487190246582
19.85,0.9188486933708191,-0.0030327499844133854,-0.6380694508552551,0.29719942808151245,0.2598629593849182,1.236189842224121
