Time [s],Acc_x [m/s^2],Acc_y [m/s^2],Acc_z [m/s^2],Gyro_x [1/s],Gyro_y [1/s],Gyro_z [1/s]
0.0,0.04983479157090187,-0.24111846089363098,-0.009514993987977505,-0.005023440346121788,-0.007412964478135109,0.00013935964670963585
0.025,0.04467150568962097,-0.24037745594978333,-0.023822136223316193,-0.0049530682153999805,-0.007292110938578844,0.00017218680295627564
0.05,0.027531597763299942,-0.23539069294929504,-0.05559435486793518,-0.00339561328291893,-0.004543269518762827,0.0008232119143940508
0.075,0.011663651093840599,-0.22300341725349426,-0.05906529352068901,-0.004718940705060959,-0.004234151914715767,-0.0012015855172649026
0.1,0.01199273206293583,-0.20644858479499817,-0.025873322039842606,-0.00556248240172863,-0.004538930021226406,-0.0001653070212341845
0.125,0.010131094604730606,-0.18987372517585754,-0.011393876746296883,-0.005189887247979641,-0.006913055200129747,0.00012465249164961278
0.15,0.0001951104641193524,-0.1873331218957901,-0.0011400777148082852,-0.005949861835688353,-0.008695363998413086,-0.00032994229695759714
0.175,-0.008549808524549007,-0.19388297200202942,-0.0018427622271701694,-0.007505052722990513,-0.005606065969914198,-0.0021785045973956585
0.2,0.0017425194382667542,-0.19779208302497864,-0.0050462340004742146,-0.006691485643386841,-0.002259989967569709,-0.00036494454252533615
0.225,0.02447609230875969,-0.2049427330493927,-0.006503117270767689,-0.00677715428173542,-0.0028697845991700888,-0.001801389385946095
0.25,0.03822946920990944,-0.2210417091846466,-0.015564275905489922,-0.006738639902323484,-0.0029527160804718733,-0.0021838368847966194
0.275,0.04338233172893524,-0.22516539692878723,-0.03489786759018898,-0.0042293863371014595,0.0012896268162876368,-0.0010501513024792075
0.3,0.036823615431785583,-0.22252658009529114,-0.05912940576672554,-0.0028410041704773903,0.003640224225819111,-0.00041443886584602296
0.325,0.016544675454497337,-0.20070937275886536,-0.07756223529577255,-0.00265584047883749,0.003983119037002325,-0.00025001459289342165
0.35,0.006731981411576271,-0.19464686512947083,-0.056046947836875916,-0.003146542003378272,0.0037932335399091244,0.0012618463952094316
0.375,0.016752712428569794,-0.20960524678230286,-0.034395527094602585,-0.0035407189279794693,0.002463608980178833,-0.00034445704659447074
0.4,0.022984623908996582,-0.2137632668018341,-0.02003151923418045,-0.0021875265520066023,0.0012436892138794065,-0.000421633361838758
0.425,0.03273665904998779,-0.19922354817390442,-0.0006245692493394017,-0.0005493806675076485,7.214291690615937e-05,-4.768901999341324e-05
0.45,0.0234934464097023,-0.20105841755867004,0.013298951089382172,-0.0011310658883303404,-0.0015015521785244346,-0.0003676659252960235
0.475,0.008778490126132965,-0.21346095204353333,0.007284984923899174,-0.0027973917312920094,-0.0009380648261867464,-0.0007425794610753655
0.5,-0.00013379985466599464,-0.23745539784431458,0.0038993535563349724,-0.0059099383652210236,-0.0015934754628688097,2.303216388099827e-05
0.525,0.003833238035440445,-0.2600612938404083,-0.028012888506054878,-0.008921656757593155,-0.006003089714795351,-0.0009902050951495767
0.55,0.014887062832713127,-0.26333335041999817,-0.02750491537153721,-0.007469400763511658,-0.007585632149130106,-0.0024531830567866564
0.575,0.03949880972504616,-0.2490864098072052,-0.0059647224843502045,-0.003973024431616068,-0.005890095606446266,-0.0016141057712957263
0.6,0.035734936594963074,-0.2385893166065216,0.03635351359844208,-0.001866958918981254,-0.006120640784502029,-0.0009325866703875363
0.625,0.015266778878867626,-0.21756461262702942,0.04892781376838684,-0.00016271573258563876,0.000295923586236313,0.001944134826771915
0.65,0.0053787874057888985,-0.20787814259529114,0.014127073809504509,-0.0016794404946267605,0.0046240538358688354,0.0022447844967246056
0.675,0.00012761467951349914,-0.22828486561775208,0.0015013037482276559,0.00041476410115137696,-0.0004166729049757123,0.0024339028168469667
0.7,-0.0005070727784186602,-0.23682311177253723,0.0024599339812994003,0.0006442352314479649,-0.00496951537206769,0.0020898517686873674
0.725,-0.009112657979130745,-0.2270050346851349,0.00392023753374815,0.0011381333461031318,0.0018691052682697773,0.002938607009127736
0.75,-0.02771969698369503,-0.22126296162605286,-0.001415077829733491,5.389354191720486e-05,0.005354973953217268,0.004871183540672064
0.775,-0.045986469835042953,-0.21487048268318176,-0.028622465208172798,-0.0036325519904494286,0.0013159411028027534,0.007324709091335535
0.8,-0.06237826123833656,-0.2076578438282013,-0.02306559681892395,-0.0035244617611169815,0.0016843159683048725,0.008189741522073746
0.825,-0.0685759037733078,-0.19294074177742004,-0.012522744946181774,-0.004214291460812092,-0.002340617822483182,0.009512088261544704
0.85,-0.07717076689004898,-0.18357564508914948,-0.024427225813269615,-0.005654687061905861,-0.010996811091899872,0.01059347577393055
0.875,-0.098997101187706,-0.19029809534549713,-0.0431416779756546,-0.0108305923640728,-0.016329985111951828,0.012655293568968773
0.9,-0.1298372447490692,-0.20874692499637604,-0.049777351319789886,-0.012223449535667896,-0.019858477637171745,0.01629643142223358
0.925,-0.11561546474695206,-0.21971799433231354,-0.028179025277495384,-0.012362319976091385,-0.022977234795689583,0.018644433468580246
0.95,-0.09482607990503311,-0.20651915669441223,0.017080144956707954,-0.01427614688873291,-0.025554148480296135,0.02196529321372509
0.975,-0.08418993651866913,-0.19624903798103333,0.07280819118022919,-0.016507845371961594,-0.033839866518974304,0.025010744109749794
1.0,-0.06981341540813446,-0.2003784477710724,0.11909482628107071,-0.024146266281604767,-0.03551138564944267,0.027248693630099297
1.025,-0.08566228300333023,-0.18512536585330963,0.13649161159992218,-0.0346752405166626,-0.030236907303333282,0.03457209840416908
1.05,-0.13835133612155914,-0.1518726497888565,0.1618669182062149,-0.04760917276144028,-0.028002191334962845,0.04014758765697479
1.075,-0.18921321630477905,-0.15714454650878906,0.19246691465377808,-0.06030012667179108,-0.02544374391436577,0.047251809388399124
1.1,-0.21347835659980774,-0.1676025390625,0.22289572656154633,-0.06657125055789948,-0.028238726779818535,0.05437825992703438
1.125,-0.21985429525375366,-0.19696523249149323,0.21669432520866394,-0.08049562573432922,-0.024337515234947205,0.059372756630182266
1.15,-0.21271255612373352,-0.18178462982177734,0.1329348385334015,-0.09065625816583633,-0.022642692551016808,0.06516841799020767
1.175,-0.25516438484191895,-0.15853595733642578,0.13774169981479645,-0.10727687180042267,-0.019275538623332977,0.06574897468090057
1.2,-0.28847840428352356,-0.14361286163330078,0.2924003005027771,-0.11601528525352478,-0.008638705126941204,0.07571905851364136
1.225,-0.27455323934555054,-0.13382244110107422,0.42352786660194397,-0.1186128780245781,-0.0326855406165123,0.08130574226379395
1.25,-0.306500107049942,-0.13583850860595703,0.439493864774704,-0.1490180790424347,-0.0528462715446949,0.08917529135942459
1.275,-0.3994194567203522,-0.06447790563106537,0.44599801301956177,-0.19218920171260834,-0.053055714815855026,0.10763563960790634
1.3,-0.5213510990142822,-0.021917320787906647,0.5723991990089417,-0.26884955167770386,-0.030632883310317993,0.12679368257522583
1.325,-0.6145997047424316,-0.07898709923028946,0.6772284507751465,-0.364753782749176,-0.019351975992321968,0.1552363485097885
1.35,-0.6839653253555298,-0.2920999526977539,0.4415339231491089,-0.475712388753891,-0.0460805781185627,0.1853157877922058
1.375,-0.7766115665435791,-0.5488557815551758,-0.2680373191833496,-0.5739010572433472,-0.18455089628696442,0.2234506756067276
1.4,-0.9717116355895996,-0.5978736281394958,-1.1037278175354004,-0.5929021835327148,-0.47974660992622375,0.19226206839084625
1.425,-1.1440967321395874,-0.5087078809738159,-1.7767254114151,-0.5123773813247681,-0.6848174333572388,0.13323140144348145
1.45,-0.9202548265457153,-0.4957236349582672,-2.076087474822998,-0.3166400194168091,-0.7466726303100586,0.0958675742149353
1.475,-0.1989014744758606,-0.46764087677001953,-1.6860754489898682,-0.11634642630815506,-0.7753363847732544,0.061262309551239014
1.5,0.9533140659332275,-0.1169319823384285,-0.7623092532157898,0.012291199527680874,-0.6767350435256958,0.037653520703315735
1.525,2.2511844635009766,0.14297564327716827,-0.059162307530641556,0.01796131022274494,-0.5729333162307739,0.0010022320784628391
1.55,2.65397310256958,0.07510831207036972,0.06948960572481155,0.017010219395160675,-0.4793122112751007,0.043594345450401306
1.575,1.8770263195037842,-0.16258925199508667,0.23848991096019745,0.009194307029247284,-0.33849483728408813,0.051911331713199615
1.6,0.8236461877822876,-0.35407841205596924,0.74563068151474,-0.004697328433394432,-0.16926124691963196,0.044720619916915894
1.625,0.3414524793624878,-0.37796127796173096,1.2972300052642822,0.029819468036293983,-0.14804846048355103,0.07651165127754211
1.65,0.6467679142951965,-0.13503563404083252,1.6578408479690552,0.14010058343410492,-0.41257038712501526,0.09002841264009476
1.675,1.2831988334655762,0.22018133103847504,1.6549072265625,0.20689935982227325,-0.5275606513023376,0.08379863202571869
1.7,1.5276929140090942,0.1257828176021576,1.111120581626892,0.09324418008327484,-0.34145766496658325,0.0649709552526474
1.725,0.9896005392074585,-0.20721067488193512,0.48212847113609314,-0.1333789974451065,0.10669969022274017,0.043585821986198425
1.75,-0.25610747933387756,-0.5314159989356995,0.2659469246864319,-0.31035366654396057,0.3585291802883148,-0.0014836840564385056
1.775,-1.450869083404541,-0.7197169661521912,0.5293821692466736,-0.3474142849445343,0.44267842173576355,-0.05494719371199608
1.8,-1.426317811012268,-0.33986562490463257,0.6856525540351868,-0.2431161105632782,0.3287992477416992,-0.10389848053455353
1.825,-0.25341376662254333,0.18181994557380676,0.33959993720054626,-0.09506812691688538,0.11321097612380981,-0.05161811783909798
1.85,0.8060921430587769,-0.08951003849506378,-0.07408798485994339,-0.22150424122810364,-0.08260742574930191,-0.05956688150763512
1.875,1.2730292081832886,-0.5273277163505554,-0.09434665739536285,-0.3603711426258087,0.10675007104873657,-0.13666294515132904
1.9,1.4001179933547974,-0.8458349704742432,-0.15575028955936432,-0.5304188132286072,0.5687057375907898,-0.2841358780860901
1.925,1.1155904531478882,-0.7656146883964539,-0.23931579291820526,-0.5785418152809143,0.974927544593811,-0.3444792330265045
1.95,0.4394363462924957,-0.25901609659194946,-0.02060934156179428,-0.5020831823348999,1.106345772743225,-0.23978517949581146
1.975,-0.08930446952581406,-0.10254384577274323,0.22648033499717712,-0.4420737624168396,0.9587052464485168,-0.14403671026229858
2.0,-0.37263214588165283,-0.2002420574426651,0.638882577419281,-0.3328745663166046,0.4914361834526062,-0.1065244972705841
2.025,-0.5579731464385986,-0.2806568443775177,1.2965008020401,-0.35378724336624146,0.21842871606349945,-0.08222480863332748
2.05,-0.21390050649642944,-0.21304042637348175,1.9818605184555054,-0.4517621099948883,0.20372816920280457,-0.12590491771697998
2.075,0.7962631583213806,0.010575157590210438,2.235259532928467,-0.5165270566940308,0.07124384492635727,-0.15808767080307007
2.1,1.905539870262146,-0.23480439186096191,1.501861333847046,-0.6831077337265015,0.18319986760616302,-0.1694697141647339
2.125,2.8368396759033203,-1.2039417028427124,-0.3606244921684265,-0.7567785382270813,0.5924807190895081,-0.2121831178665161
2.15,2.9894473552703857,-1.318884253501892,-1.426079511642456,-0.4543724060058594,0.6977514624595642,-0.28426286578178406
2.175,2.3155508041381836,-0.6751883029937744,-1.0778919458389282,-0.25737354159355164,0.5178972482681274,-0.40857529640197754
2.2,1.6156229972839355,-0.3067294657230377,-0.3242400884628296,-0.4104290008544922,0.6657834649085999,-0.5432540774345398
2.225,1.6190053224563599,0.059375643730163574,-0.22983098030090332,-0.31293344497680664,0.650312066078186,-0.4947185218334198
2.25,2.369743585586548,0.6782006025314331,-0.4769875407218933,-0.0740707516670227,0.3774084746837616,-0.46079814434051514
2.275,3.0300450325012207,0.9873999357223511,-0.7010881304740906,0.044230952858924866,0.22325293719768524,-0.5560437440872192
2.3,2.9208669662475586,0.8190525770187378,-1.0388609170913696,0.15718024969100952,0.4918462038040161,-0.6814926266670227
2.325,2.663224458694458,0.6497658491134644,-1.4475476741790771,0.28051894903182983,0.7897562384605408,-0.8188319206237793
2.35,2.5355160236358643,0.5495251417160034,-1.7789983749389648,0.4111153483390808,0.8965553045272827,-0.8790343999862671
2.375,2.0817689895629883,0.5020865797996521,-2.024153470993042,0.5430959463119507,0.8491235971450806,-0.9100221991539001
2.4,1.3761025667190552,0.7047224044799805,-1.9170981645584106,0.7206790447235107,0.7398186922073364,-0.9611766338348389
2.425,1.087998867034912,1.144766926765442,-1.495147943496704,0.9051202535629272,0.5602360963821411,-1.0142256021499634
2.45,1.0561583042144775,1.4227410554885864,-1.3740240335464478,1.0086073875427246,0.42732518911361694,-1.0439668893814087
2.475,0.3582134246826172,1.6060402393341064,-1.4322630167007446,1.1324409246444702,0.3941107392311096,-0.9553263187408447
2.5,-0.68540358543396,1.3782522678375244,-1.016750693321228,1.2489829063415527,0.301882803440094,-0.83177649974823
2.525,-1.2390141487121582,0.9092752933502197,0.01859816163778305,1.306408166885376,0.005912292283028364,-0.8376545310020447
2.55,-1.7650434970855713,0.17228329181671143,1.4466700553894043,1.2709624767303467,-0.2272256314754486,-0.841505765914917
2.575,-2.5309553146362305,-0.6204690337181091,2.8039870262145996,1.014237880706787,-0.30651408433914185,-0.7127143144607544
2.6,-2.547555923461914,-0.7940893173217773,3.7815983295440674,0.5628125667572021,-0.39640769362449646,-0.49507051706314087
2.625,-0.9365853667259216,-1.3559685945510864,4.00575590133667,-0.1726391613483429,-0.7391514182090759,-0.2887180745601654
2.65,0.48984479904174805,-2.4896650314331055,3.4359939098358154,-1.0965558290481567,-1.1341885328292847,-0.10564206540584564
2.675,-0.6154201030731201,-2.3162424564361572,2.1549830436706543,-1.2977327108383179,-0.9552009701728821,0.2531506419181824
2.7,-3.2614684104919434,-0.7713707685470581,0.24333243072032928,-0.934153139591217,-0.8698729276657104,0.7430375218391418
2.725,-4.520562648773193,-0.3578124940395355,-1.4355261325836182,-0.8702951669692993,-0.9080019593238831,0.9105334877967834
2.75,-3.6186368465423584,-1.1914079189300537,-1.9127739667892456,-0.8944419622421265,-1.044697642326355,1.063464641571045
2.775,-1.7160415649414062,-1.7208757400512695,-1.4190409183502197,-0.7690426707267761,-1.0621912479400635,1.131406307220459
2.8,0.09475857019424438,-1.838254690170288,-1.3491172790527344,-0.7363216876983643,-1.2897721529006958,1.1482669115066528
2.825,0.971053421497345,-1.6748058795928955,-1.6536474227905273,-0.5204855799674988,-1.475941777229309,1.2520475387573242
2.85,0.6297953724861145,-1.3558169603347778,-1.4217501878738403,-0.22382260859012604,-1.0839887857437134,1.267477035522461
2.875,-0.5338121056556702,-0.8751488327980042,-0.4796167314052582,-0.08609026670455933,-0.42857441306114197,1.2298498153686523
2.9,-2.0552680492401123,-0.4663514196872711,0.306949645280838,-0.1288052797317505,0.1661231815814972,1.1242353916168213
2.925,-3.3543612957000732,-0.06164524331688881,0.19498109817504883,-0.1367015689611435,0.2511330246925354,1.0384198427200317
2.95,-4.379972457885742,0.30951064825057983,-0.33091601729393005,-0.08701519668102264,-0.08166132867336273,0.8823636174201965
2.975,-5.442599296569824,0.7281461358070374,-0.5283687710762024,0.004339128732681274,-0.24592840671539307,0.5877541899681091
3.0,-6.157505512237549,1.224953293800354,-0.37211740016937256,0.06520368158817291,-0.32470232248306274,0.29124686121940613
3.025,-5.857458114624023,1.3597532510757446,-0.4722301959991455,0.04768574237823486,-0.6150057911872864,0.0606672503054142
3.05,-4.585687160491943,1.331697940826416,-1.0004802942276,0.12272600829601288,-1.085348129272461,-0.1562611311674118
3.075,-3.058079957962036,1.197730541229248,-1.6819944381713867,0.14512141048908234,-1.3284958600997925,-0.4020257890224457
3.1,-1.7904412746429443,1.0174726247787476,-2.0210695266723633,0.12617498636245728,-1.1394942998886108,-0.604287326335907
3.125,-0.8885523676872253,0.5634185671806335,-1.7785626649856567,0.11216609179973602,-0.8382394313812256,-0.7631190419197083
3.15,-0.6413711905479431,-0.15975657105445862,-1.3836932182312012,0.14095813035964966,-0.6669634580612183,-0.853766679763794
3.175,-0.9665148854255676,-0.6007766127586365,-1.147517442703247,0.2910974621772766,-0.7078986167907715,-0.8877187371253967
3.2,-1.2392112016677856,-0.5747784972190857,-1.036839485168457,0.4672588109970093,-0.9504109621047974,-0.9187114238739014
3.225,-1.1696627140045166,-0.5901193022727966,-1.1088159084320068,0.5846284031867981,-1.1851956844329834,-1.0109686851501465
3.25,-0.8866612315177917,-0.5905455946922302,-1.2946667671203613,0.7000526189804077,-1.1448681354522705,-1.1044563055038452
3.275,-0.5038602948188782,-0.2593497633934021,-1.0137118101119995,0.8371059894561768,-0.9204838871955872,-1.114741325378418
3.3,-0.02187311463057995,0.24480822682380676,-0.08847164362668991,0.9611063003540039,-0.7382485866546631,-1.0682542324066162
3.325,0.44170117378234863,0.5240917205810547,0.9230065941810608,1.0420501232147217,-0.6503551602363586,-0.9457448124885559
3.35,0.32408249378204346,0.4506320655345917,1.5100972652435303,1.014359474182129,-0.6166338920593262,-0.7110632061958313
3.375,-0.5841292142868042,0.43918901681900024,1.6279873847961426,0.8631395101547241,-0.5425008535385132,-0.4247884154319763
3.4,-1.9409091472625732,0.48996657133102417,1.3360928297042847,0.6284767985343933,-0.2948850691318512,-0.21755975484848022
3.425,-2.8280327320098877,0.36855629086494446,0.31435421109199524,0.33804357051849365,0.001916971756145358,-0.13712552189826965
3.45,-2.188267469406128,-0.01635054126381874,-0.742462694644928,-0.004673480987548828,-0.318284809589386,-0.2143416851758957
3.475,-0.8273112177848816,-0.7228002548217773,-0.2142222672700882,-0.6690815687179565,-1.283465027809143,-0.4237399101257324
3.5,-0.21828392148017883,-0.0008172985399141908,0.5525351166725159,-0.9602832198143005,-1.7073336839675903,-0.3171961009502411
3.525,-0.6276018023490906,1.3079025745391846,-0.5784857273101807,-1.1547647714614868,-1.3000359535217285,-0.12450101971626282
3.55,-1.1723271608352661,1.3135226964950562,-3.3144283294677734,-1.278254747390747,-0.013894198462367058,-0.035733580589294434
3.575,-1.8791316747665405,0.4872840642929077,-4.2441301345825195,-1.8300834894180298,-1.061410903930664,-0.3563377261161804
3.6,-2.004744052886963,0.25498801469802856,-3.3318750858306885,-1.9194039106369019,-2.735844850540161,-0.1988804042339325
3.625,0.05886790156364441,-1.3158141374588013,-1.3802016973495483,-1.7389140129089355,-2.541825294494629,0.11441273242235184
3.65,2.961874485015869,-3.0212090015411377,-0.5685784816741943,-1.4462926387786865,-2.13547945022583,0.2770370841026306
3.675,3.981112480163574,-2.830806255340576,-0.3445460796356201,-0.844914972782135,-1.8732397556304932,0.3785930275917053
3.7,3.3914682865142822,-1.6618849039077759,1.986514925956726,-0.27430781722068787,-1.1834783554077148,0.4333428740501404
3.725,3.4722156524658203,0.4456372559070587,6.817756652832031,-0.22005395591259003,-0.9513391852378845,0.6434727311134338
3.75,4.365908622741699,2.010254383087158,8.600674629211426,-0.5595400929450989,-1.1436880826950073,1.1065315008163452
3.775,2.6321775913238525,0.8235185742378235,2.4927620887756348,-0.8879872560501099,0.07608788460493088,0.8762910962104797
3.8,0.8955066800117493,-1.2653714418411255,-1.920816421508789,-0.6796271204948425,1.2299753427505493,0.4739874005317688
3.825,0.9713047742843628,-2.066642999649048,-1.3269942998886108,-0.8161143660545349,-0.5868077874183655,0.6172870993614197
3.85,0.9564880132675171,-1.2807953357696533,-0.13218238949775696,-0.5613508820533752,-3.0889298915863037,0.73662269115448
3.875,-0.11519350856542587,0.20615582168102264,-0.021482016891241074,-0.1557101607322693,-3.0005502700805664,0.4130929708480835
3.9,-0.46764448285102844,1.2626172304153442,-0.01873072050511837,-0.1373206526041031,-1.611519455909729,0.22022652626037598
3.925,0.38183099031448364,1.614776849746704,0.1886395961046219,-0.2902226746082306,-1.8359957933425903,0.10527347028255463
3.95,2.0663270950317383,0.8597316145896912,0.0026796036399900913,-0.5216034054756165,-2.505645275115967,-0.051153287291526794
3.975,2.4691336154937744,-0.6528370380401611,-0.4611700177192688,-0.5203019380569458,-2.541764259338379,-0.7804771661758423
4.0,2.3646230697631836,-2.0946831703186035,-0.7736926674842834,-0.29648780822753906,-2.5233571529388428,-0.9379860758781433
4.025,3.182648181915283,-2.8038220405578613,0.37762534618377686,-0.10451851040124893,-3.396047830581665,-0.3297189772129059
4.05,2.930161476135254,-1.801089882850647,3.56740665435791,-0.1575317084789276,-4.317500114440918,0.6061164140701294
4.075,0.7834001779556274,0.033298250287771225,5.627223014831543,-0.3865007758140564,-4.118873596191406,1.0412172079086304
4.1,-1.3458099365234375,0.7730332612991333,4.187464714050293,-0.4736565351486206,-3.192887783050537,0.7636436820030212
4.125,-2.204054832458496,0.11843407154083252,2.4768710136413574,-0.29264527559280396,-2.1725852489471436,0.13276265561580658
4.15,-2.509424924850464,-0.05823787301778793,1.3766798973083496,-0.16619788110256195,-1.490849494934082,-0.07301925122737885
4.175,-1.8250428438186646,-0.23636995255947113,-0.32384487986564636,-0.15698009729385376,-1.3812366724014282,-0.02403898537158966
4.2,-1.4616433382034302,-0.02212795615196228,-0.8927595615386963,-0.15137755870819092,-1.5203490257263184,0.15561442077159882
4.225,-1.778464913368225,0.58309006690979,-0.028025276958942413,-0.2106141448020935,-1.8057057857513428,0.3763476610183716
4.25,-1.8831353187561035,0.7927830219268799,0.6620500683784485,-0.22459733486175537,-1.6767719984054565,0.37860405445098877
4.275,-1.808548927307129,0.6239473223686218,1.1266483068466187,-0.034243565052747726,-0.7357092499732971,0.22422559559345245
4.3,-1.4394218921661377,0.15149317681789398,1.157973289489746,-0.049173373728990555,-0.08019454032182693,0.11524612456560135
4.325,-0.7638148069381714,-0.3854122459888458,0.7802234888076782,-0.1917182207107544,0.25717049837112427,0.11276327818632126
4.35,-0.7344784140586853,-0.8223925828933716,1.0086537599563599,-0.21078115701675415,0.8455802202224731,0.12652815878391266
4.375,-0.5103299617767334,-1.0111209154129028,1.1411218643188477,-0.3797575831413269,0.9797868132591248,0.3272722363471985
4.4,0.3534432649612427,-0.8500062227249146,-0.07109317928552628,-0.47852033376693726,1.0797287225723267,0.5069001913070679
4.425,1.2649750709533691,-0.5903264284133911,-1.873533010482788,-0.4964570999145508,1.1150723695755005,0.6289766430854797
4.45,1.1332098245620728,-0.2934770882129669,-2.633323907852173,-0.5424167513847351,1.0721830129623413,0.6880567669868469
4.475,0.4178107678890228,0.31208711862564087,-2.2725632190704346,-0.5368438959121704,0.7930576205253601,0.7810378074645996
4.5,-0.03409451246261597,0.5954686403274536,-1.458227276802063,-0.41522327065467834,0.5969045758247375,0.8313232064247131
4.525,-0.3819621205329895,0.4157363176345825,-1.1149227619171143,-0.3181041479110718,0.4693065583705902,0.8124476671218872
4.55,-0.40653011202812195,0.05560501292347908,-1.1828455924987793,-0.2573237121105194,0.5184609293937683,0.6341760754585266
4.575,-0.014306575059890747,-0.2864875793457031,-1.0085995197296143,-0.20916637778282166,0.5568714141845703,0.43109261989593506
4.6,0.3674973249435425,-0.21766094863414764,-0.5718755125999451,-0.28305888175964355,0.5129621028900146,0.33780741691589355
4.625,0.5461350679397583,-0.14533428847789764,-0.36850085854530334,-0.2921382188796997,0.10880324244499207,0.3460931181907654
4.65,0.6487365961074829,-0.264956533908844,-0.5380157232284546,-0.2565908432006836,-0.39108332991600037,0.39045268297195435
4.675,0.5086055994033813,-0.4234963059425354,-0.9279345870018005,-0.25216981768608093,-0.7788082361221313,0.39490118622779846
4.7,0.07426413893699646,-0.6709566116333008,-1.194132924079895,-0.15737426280975342,-1.1036731004714966,0.3510219156742096
4.725,-0.192757248878479,-0.5985088348388672,-1.2313368320465088,-0.15506182610988617,-1.3779572248458862,0.32428693771362305
4.75,-0.25547000765800476,-0.5996856689453125,-1.0075675249099731,-0.11818741261959076,-1.5569196939468384,0.23159442842006683
4.775,-0.3815404772758484,-0.5347757339477539,-1.1002384424209595,-0.05892353877425194,-1.7173644304275513,0.18432524800300598
4.8,-0.1411014199256897,-0.3235034644603729,-1.7208958864212036,0.07108897715806961,-1.8668049573898315,0.19808454811573029
4.825,0.05429565906524658,-0.32384201884269714,-1.9407927989959717,0.262726753950119,-2.1913585662841797,0.2973427474498749
4.85,-0.9025921821594238,0.22266019880771637,-0.7187159657478333,0.20832759141921997,-2.6397833824157715,0.42613470554351807
4.875,-2.1755425930023193,1.2029697895050049,0.25718772411346436,-0.11324642598628998,-2.7603964805603027,0.4141618311405182
4.9,-1.930455207824707,1.0425894260406494,-0.43448394536972046,-0.044861625880002975,-1.9310119152069092,-0.15577369928359985
4.925,-0.5047025680541992,0.6408616304397583,-1.232628345489502,0.17152665555477142,-0.5421239137649536,-0.5965927839279175
4.95,1.0651323795318604,0.3827400207519531,-0.8256174325942993,0.45797473192214966,-0.088593989610672,-0.5322596430778503
4.975,1.5574930906295776,0.13683974742889404,-0.05918746069073677,0.701539158821106,-0.21780113875865936,-0.27245524525642395
5.0,0.2298537790775299,0.15393638610839844,-0.12189042568206787,0.677010178565979,-0.8966764211654663,-0.041982971131801605
5.025,-1.6126872301101685,-0.02231869287788868,-0.4659530520439148,0.7055163979530334,-1.160641074180603,0.009579540230333805
5.05,-2.2428321838378906,-0.07530573010444641,-0.8694289326667786,0.8552587628364563,-0.8117557168006897,-0.16531367599964142
5.075,-1.3014013767242432,0.5636026859283447,-1.3796314001083374,1.1363680362701416,-0.24448244273662567,-0.41912123560905457
5.1,-0.6290273666381836,1.5497230291366577,-1.1511589288711548,1.455955147743225,-0.24279887974262238,-0.5899127721786499
5.125,-0.8320927619934082,2.2990658283233643,0.11345091462135315,1.5188977718353271,-0.6368657350540161,-0.6644359827041626
5.15,-1.4253511428833008,1.9953157901763916,1.9681669473648071,1.5209815502166748,-0.5998923778533936,-0.8520970940589905
5.175,-2.2170722484588623,0.9948598742485046,4.0525407791137695,1.5259926319122314,-0.19678470492362976,-1.0469632148742676
5.2,-2.6775574684143066,0.10400491207838058,5.888440132141113,1.3835899829864502,0.4247479736804962,-1.077240228652954
5.225,-2.191239356994629,-0.9599686861038208,6.186058044433594,1.3118318319320679,1.273645043373108,-0.938560962677002
5.25,-1.3007330894470215,-1.899349570274353,6.102788925170898,1.2459330558776855,1.9783295392990112,-0.6958386898040771
5.275,-0.2574191093444824,-2.6960196495056152,6.121867656707764,1.142488718032837,2.1939573287963867,-0.481792151927948
5.3,1.1931952238082886,-3.895280122756958,5.550336837768555,1.047988772392273,2.579469919204712,-0.2800295054912567
5.325,2.20466685295105,-5.309642791748047,4.487225532531738,0.9591900110244751,2.8090577125549316,0.03858215734362602
5.35,2.1554017066955566,-5.7644147872924805,3.642549991607666,0.671981930732727,2.8211052417755127,0.4169459939002991
5.375,1.5747137069702148,-4.13314151763916,2.8076486587524414,0.18933477997779846,2.8349764347076416,0.9393115043640137
5.4,1.0797237157821655,-0.7183725237846375,1.4961227178573608,-0.2519856095314026,2.765657663345337,1.634945273399353
5.425,0.9371495246887207,1.9938843250274658,-0.7320595383644104,-0.19308269023895264,3.389348030090332,2.0741007328033447
5.45,0.4762778878211975,2.4105913639068604,-3.281599998474121,0.29675835371017456,4.9280524253845215,1.708489179611206
5.475,-1.084678053855896,1.5470614433288574,-4.886619567871094,0.34463396668434143,5.7330803871154785,0.7417684197425842
5.5,-1.7617731094360352,1.2052091360092163,-4.477104187011719,-0.09271994233131409,4.7255778312683105,0.29788675904273987
5.525,-0.09715855121612549,0.5262061953544617,-3.543982982635498,-0.5777244567871094,2.763593912124634,-0.0006784560973756015
5.55,1.7021974325180054,0.025147423148155212,-3.819822072982788,-0.7585728168487549,0.3541387617588043,-0.11369858682155609
5.575,0.5868629813194275,0.9639436602592468,-3.9496312141418457,-0.8727789521217346,-1.2286127805709839,0.23785336315631866
5.6,-1.1882811784744263,1.918835163116455,-2.6009974479675293,-1.0161749124526978,-1.4724080562591553,0.03991552069783211
5.625,-0.16931381821632385,1.3209172487258911,-0.4263438582420349,-0.7160723805427551,-0.7813644409179688,-0.2524806261062622
5.65,1.4342701435089111,0.19378170371055603,1.927119493484497,-0.32020652294158936,0.5935852527618408,0.2386852502822876
5.675,0.9956048727035522,0.5714281797409058,3.7174248695373535,0.006040722131729126,1.2166544198989868,0.5347967743873596
5.7,-0.13533324003219604,1.66889488697052,3.149228811264038,0.1597055196762085,1.119991421699524,0.6609983444213867
5.725,-0.8527110815048218,0.9802343249320984,0.09282910823822021,0.2698986530303955,1.6479309797286987,0.1058388203382492
5.75,-1.2834358215332031,-0.34892162680625916,-2.0771028995513916,-0.03187340497970581,1.4897083044052124,-0.25457826256752014
5.775,-1.0728282928466797,-0.976771354675293,-1.7239984273910522,-0.2457490861415863,0.5055616497993469,-0.10481728613376617
5.8,-0.1806953400373459,-1.2793341875076294,0.39154788851737976,-0.25290945172309875,-0.6075497269630432,0.05070969834923744
5.825,0.9660494923591614,-1.6429190635681152,3.3129241466522217,-0.08714033663272858,-0.7224575877189636,0.10357218235731125
5.85,1.7865768671035767,-1.6131244897842407,5.479707717895508,0.11209677904844284,-0.4201030433177948,0.26809820532798767
5.875,2.22943115234375,-0.951200008392334,4.771198749542236,0.19679886102676392,0.5065678954124451,0.4118692874908447
5.9,1.5892990827560425,-1.0075277090072632,1.7520304918289185,0.1534465253353119,1.536163568496704,0.1786232739686966
5.925,0.25337448716163635,-2.151423692703247,-1.2876126766204834,0.06508554518222809,1.9428589344024658,0.020945454016327858
5.95,-0.7991712689399719,-2.718527317047119,-2.771348237991333,-0.08841844648122787,1.1946008205413818,0.20088393986225128
5.975,-1.1736475229263306,-1.4154977798461914,-1.7920787334442139,-0.14849409461021423,0.050718117505311966,0.4402402341365814
6.0,-1.0440232753753662,-0.028816161677241325,0.7094148397445679,-0.1720847487449646,-0.5471398830413818,0.2528071999549866
6.025,-0.4717319905757904,-0.5216323137283325,2.1702053546905518,-0.1469203233718872,-0.09720315784215927,0.029101015999913216
6.05,0.10233384370803833,-1.5081733465194702,2.092024087905884,-0.15280775725841522,0.42345649003982544,-0.03205373138189316
6.075,0.6105859279632568,-1.4778358936309814,1.82621431350708,-0.30787527561187744,0.4763064980506897,-0.013058492913842201
6.1,0.8631393909454346,-1.1082355976104736,1.4058434963226318,-0.404231458902359,0.43630945682525635,-0.11645586043596268
6.125,0.6420894861221313,-0.3895922899246216,0.2874276041984558,-0.49165186285972595,0.4853065013885498,-0.08251222968101501
6.15,0.20631256699562073,0.7576323747634888,-0.7513619661331177,-0.3880733251571655,0.8487327694892883,0.14534658193588257
6.175,-0.523923397064209,1.7599996328353882,-1.0095921754837036,-0.23990267515182495,0.8056752681732178,0.34774160385131836
6.2,-1.50794517993927,2.1955981254577637,-0.7328049540519714,-0.17433200776576996,0.553439736366272,0.42502641677856445
6.225,-2.183668613433838,2.2688651084899902,-0.9508482813835144,-0.08563875406980515,0.2738931477069855,0.47322356700897217
6.25,-2.1579809188842773,1.8832221031188965,-1.3897061347961426,0.0440831333398819,0.10379306972026825,0.4310792088508606
6.275,-1.441688060760498,0.8274338245391846,-0.6189837455749512,0.17902569472789764,0.02699834667146206,0.2775750160217285
6.3,-0.49529069662094116,-0.02720451168715954,1.0969929695129395,0.2778356075286865,-0.1522730141878128,0.3843088448047638
6.325,-0.08961641788482666,-0.4422799348831177,2.049062967300415,0.3207792043685913,-0.3332843482494354,0.571832001209259
6.35,-0.2780449688434601,-0.8529273271560669,1.5336377620697021,0.27719646692276,-0.08447679132223129,0.6279934048652649
6.375,-0.7712420225143433,-1.1218329668045044,0.6865450143814087,0.24312824010849,0.3022429049015045,0.6274910569190979
6.4,-1.4541723728179932,-0.9706907272338867,0.6816941499710083,0.39769208431243896,0.1674376130104065,0.6584433913230896
6.425,-2.4385085105895996,-0.5166090726852417,0.6962428092956543,0.5014083981513977,-0.09321630746126175,0.7429878115653992
6.45,-3.2533373832702637,0.1828167885541916,0.11175228655338287,0.34545406699180603,0.014670266769826412,0.6921870708465576
6.475,-3.1036784648895264,1.0689443349838257,-0.01143255177885294,0.16952437162399292,0.10054492205381393,0.6119939088821411
6.5,-3.331000328063965,1.9615416526794434,0.8279716372489929,0.18455465137958527,0.23352017998695374,0.2640656530857086
6.525,-3.1585099697113037,2.8332104682922363,1.7482030391693115,0.31719374656677246,0.11811444908380508,-0.10766889899969101
6.55,-2.4225971698760986,2.593489170074463,1.7710620164871216,0.12577834725379944,0.5373389720916748,-0.2716209888458252
6.575,-1.5740702152252197,0.9937698841094971,0.2379475235939026,-0.11747179925441742,0.9433117508888245,-0.3966313600540161
6.6,-0.09154856204986572,-1.1724244356155396,-1.1219635009765625,-0.0681450366973877,1.3091577291488647,-0.7861796617507935
6.625,1.3032370805740356,-2.38374924659729,0.31815195083618164,0.3288153111934662,1.136433482170105,-1.0189858675003052
6.65,1.6316701173782349,-1.9473061561584473,3.7170753479003906,0.5337256193161011,0.7313969731330872,-0.8607980012893677
6.675,2.011934757232666,-1.5003076791763306,5.408085823059082,0.19622868299484253,1.0022600889205933,-0.822138249874115
6.7,1.7279187440872192,-0.8055137395858765,3.817720413208008,-0.21006284654140472,1.5200475454330444,-0.46434521675109863
6.725,-0.23896990716457367,0.10418795794248581,1.2852818965911865,-0.3503507971763611,2.2357583045959473,-0.400355726480484
6.75,-1.1863664388656616,1.0681583881378174,0.509042501449585,-0.3684595227241516,2.163844585418701,-0.849998950958252
6.775,0.20496788620948792,1.637447476387024,1.4648932218551636,-0.5994973182678223,1.7785046100616455,-1.2430083751678467
6.8,2.340346574783325,1.6823101043701172,2.63874888420105,-0.8356399536132812,1.65764582157135,-1.260748267173767
6.825,4.313196659088135,1.1455045938491821,2.803968906402588,-1.0396453142166138,1.7280164957046509,-1.2313491106033325
6.85,5.380117416381836,0.4509721100330353,1.9324584007263184,-1.2127418518066406,1.7932956218719482,-1.0134669542312622
6.875,5.20185661315918,0.041614074259996414,0.8623389005661011,-1.0431983470916748,2.1314282417297363,-0.7614937424659729
6.9,4.433750152587891,-0.3236231207847595,0.19344255328178406,-0.9629037976264954,2.5238113403320312,-0.7447110414505005
6.925,4.114929676055908,-0.6212515234947205,-0.21561282873153687,-0.9996092915534973,2.857297897338867,-0.7966890335083008
6.95,3.9220426082611084,-0.5857442617416382,-0.6046088337898254,-1.0036052465438843,3.3406333923339844,-1.0068827867507935
6.975,3.533334732055664,-0.5715058445930481,-0.9454607367515564,-1.0059211254119873,3.686876058578491,-1.1923580169677734
7.0,3.040534019470215,-0.5670588612556458,-0.9772669672966003,-1.0206977128982544,3.3681561946868896,-1.1172020435333252
7.025,2.814520835876465,-0.1626283973455429,-0.715165376663208,-1.0776454210281372,2.8921186923980713,-0.8310614228248596
7.05,3.1000442504882812,0.33652666211128235,-0.9326867461204529,-1.1514513492584229,2.5422921180725098,-0.34846991300582886
7.075,3.5060081481933594,0.563798725605011,-1.8914397954940796,-1.0570440292358398,2.4219839572906494,0.16845662891864777
7.1,3.368898868560791,0.3387630879878998,-2.7363758087158203,-0.9388048648834229,2.7419350147247314,0.3408413231372833
7.125,2.592003107070923,-0.0555354543030262,-2.6244893074035645,-0.8855029940605164,3.220430850982666,0.14482958614826202
7.15,1.61945378780365,-0.17138299345970154,-2.0293948650360107,-0.6584373116493225,3.1666746139526367,0.045345813035964966
7.175,1.0256747007369995,-0.3721848130226135,-1.796417474746704,-0.2089308500289917,2.928088903427124,0.20174507796764374
7.2,0.845632791519165,-0.9296942949295044,-1.789501667022705,0.254846453666687,2.9970481395721436,0.4271380603313446
7.225,0.955390453338623,-1.6779491901397705,-1.239087700843811,0.48176270723342896,3.0656962394714355,0.4761413037776947
7.25,1.229494333267212,-2.4357640743255615,-0.1746675819158554,0.47123977541923523,3.0199947357177734,0.253138929605484
7.275,1.0991265773773193,-2.8916738033294678,0.4119943678379059,0.4780174493789673,2.9706099033355713,-0.054971788078546524
7.3,0.6219246983528137,-2.945762872695923,0.2764362394809723,0.6151400208473206,2.790879249572754,-0.14199696481227875
7.325,0.25176069140434265,-3.0308284759521484,0.2120782732963562,0.6798797249794006,2.5739352703094482,-0.025503195822238922
7.35,0.15378877520561218,-3.3792243003845215,0.42856529355049133,0.5440735816955566,2.5503478050231934,0.005803246982395649
7.375,0.015204846858978271,-3.7792696952819824,0.8668118715286255,0.21919813752174377,2.9654040336608887,-0.18654952943325043
7.4,-0.744551420211792,-4.127119064331055,1.4559063911437988,-0.028769686818122864,3.2986369132995605,-0.40734028816223145
7.425,-2.992626190185547,-3.8223226070404053,1.6829229593276978,-0.014107197523117065,2.8867321014404297,-0.42287659645080566
7.45,-5.641640663146973,-0.05817943811416626,1.4585644006729126,0.4303094744682312,1.8819139003753662,-0.39202365279197693
7.475,-5.771123886108398,6.679497241973877,1.4302482604980469,1.6461577415466309,0.47394490242004395,-1.0265240669250488
7.5,-5.074914455413818,6.9033589363098145,0.3605939447879791,0.9271601438522339,-0.6141439080238342,-0.6704960465431213
7.525,-5.223556041717529,2.6427695751190186,-0.994007408618927,0.16548049449920654,-0.36777445673942566,-0.3288457691669464
7.55,-4.199285507202148,0.8555474877357483,-1.637969732284546,0.798320472240448,-0.8664343357086182,-0.7765367031097412
7.575,-2.316957712173462,1.1659187078475952,-1.3069965839385986,0.7037956714630127,-1.2202826738357544,-0.7612619400024414
7.6,-1.0406365394592285,1.5259259939193726,-1.0019611120224,0.4945603609085083,-1.4023246765136719,-0.7953313589096069
7.625,-0.07680827379226685,0.9983388781547546,-0.8166761994361877,0.22934439778327942,-1.0496680736541748,-0.5468860268592834
7.65,1.0594195127487183,0.5959749221801758,-0.8922889828681946,0.2847575843334198,-0.7512891292572021,-0.4589175581932068
7.675,2.223200798034668,-0.18243040144443512,-2.292367458343506,0.1782952845096588,-0.3175126016139984,-0.4257684350013733
7.7,2.537534475326538,-1.3868515491485596,-3.4567108154296875,0.062271248549222946,0.20996400713920593,-0.27866286039352417
7.725,1.2295591831207275,-1.966360330581665,-2.5663719177246094,0.07789210975170135,1.1262989044189453,-0.27381792664527893
7.75,-0.7841957807540894,-2.2057578563690186,-0.8045564293861389,0.08658308535814285,1.6163684129714966,-0.4221545457839966
7.775,-1.7355632781982422,-2.5670132637023926,0.3254973292350769,0.17876337468624115,1.1773197650909424,-0.5546082854270935
7.8,-1.0814779996871948,-2.404924154281616,0.9268233180046082,0.3557732403278351,0.563201904296875,-0.6234809160232544
7.825,-0.0817447304725647,-1.4566079378128052,1.4207309484481812,0.6246927976608276,-0.17263294756412506,-0.7753581404685974
7.85,0.07459753751754761,-1.4215441942214966,1.3390356302261353,0.6748740673065186,-0.4762175679206848,-0.7943241596221924
7.875,0.1744406521320343,-2.5226242542266846,0.48807600140571594,0.6616848707199097,-0.37518176436424255,-0.7530988454818726
7.9,1.1045620441436768,-2.7509543895721436,-0.5086463689804077,0.7826231718063354,-0.6946165561676025,-1.0538201332092285
7.925,2.1339993476867676,-1.6617740392684937,-0.28941938281059265,0.7845116257667542,-0.7373022437095642,-1.3385133743286133
7.95,2.586843252182007,0.20819929242134094,0.8675172924995422,0.7644520998001099,-0.22508230805397034,-1.3367927074432373
7.975,2.6887526512145996,1.8904131650924683,2.7506520748138428,0.8599452972412109,0.18198929727077484,-1.134101152420044
8.0,3.1057333946228027,2.5522162914276123,5.156947135925293,0.8939516544342041,0.6172474026679993,-0.9534507393836975
8.025,4.4829792976379395,2.6750800609588623,6.776264190673828,0.637505054473877,0.48735424876213074,-0.8690350651741028
8.05,6.4209418296813965,3.1437337398529053,7.219361782073975,0.27637815475463867,0.26385483145713806,-0.6827057003974915
8.075,7.8769917488098145,3.7954916954040527,6.67216682434082,-0.1481034755706787,0.11521178483963013,-0.36454159021377563
8.1,7.662013530731201,3.525341749191284,5.765392303466797,-0.6554961800575256,0.3923647999763489,0.3922112286090851
8.125,5.025793075561523,2.953063726425171,4.385985374450684,-1.312086820602417,0.8615217208862305,1.2265586853027344
8.15,1.2609825134277344,3.3859188556671143,1.1593174934387207,-1.8797260522842407,0.15472827851772308,1.6086382865905762
8.175,-0.22215676307678223,4.394019603729248,-4.037467956542969,-1.8476357460021973,-0.8764960765838623,1.8043040037155151
8.2,0.4967808723449707,5.063196659088135,-7.285178184509277,-1.0053521394729614,0.37194910645484924,1.8563185930252075
8.225,0.13263893127441406,3.326925039291382,-7.169101715087891,-1.0866763591766357,3.1377131938934326,2.2993428707122803
8.25,-1.6946920156478882,1.6557422876358032,-5.911154270172119,-1.0005707740783691,3.7938313484191895,2.365807294845581
8.275,-3.604609966278076,1.0369831323623657,-4.633419036865234,-0.6466382145881653,3.3306117057800293,1.8664997816085815
8.3,-4.340520858764648,0.15448811650276184,-3.9448680877685547,-0.22448822855949402,2.43563175201416,1.5977318286895752
8.325,-4.645711898803711,-1.9767496585845947,-2.874391794204712,0.16286307573318481,1.8430800437927246,1.8117082118988037
8.35,-4.6309332847595215,-4.585177898406982,-1.0256359577178955,0.14812910556793213,1.6397868394851685,1.8750613927841187
8.375,-3.65390944480896,-6.484097957611084,0.8011912107467651,-0.14366859197616577,1.8921780586242676,1.6572858095169067
8.4,-2.2546443939208984,-6.807465553283691,1.7685295343399048,-0.18837930262088776,2.047210454940796,1.0724512338638306
8.425,-0.8713274002075195,-5.315813064575195,2.264594793319702,0.1293446123600006,1.6968755722045898,0.2706321179866791
8.45,0.727238118648529,-2.776228904724121,2.705303192138672,0.30731654167175293,1.2364211082458496,-0.26620593667030334
8.475,1.9308369159698486,-0.6185467839241028,3.2606022357940674,-0.061333827674388885,1.595925211906433,-0.12525682151317596
8.5,2.7903337478637695,-0.04701745882630348,3.7571632862091064,-0.34698399901390076,1.6025242805480957,0.33954569697380066
8.525,3.3388752937316895,-1.2850470542907715,3.7976646423339844,0.15248320996761322,0.2987881004810333,0.6069314479827881
8.55,2.001725673675537,-3.5209925174713135,3.837169647216797,0.629080593585968,-0.3927294909954071,0.5402969717979431
8.575,-1.742149829864502,-4.217935085296631,2.882143974304199,0.31664201617240906,-0.3515234589576721,0.48747768998146057
8.6,-4.52297830581665,-0.5499388575553894,-0.07424133270978928,0.013071846216917038,-0.6395226716995239,-0.16484235227108002
8.625,-2.653627872467041,4.166296005249023,-3.20747709274292,0.4078870415687561,-1.5659915208816528,-1.2818294763565063
8.65,-2.6971683502197266,3.1154563426971436,-3.5160927772521973,0.5306062698364258,-1.8281086683273315,-0.7612106800079346
8.675,-4.126201152801514,-0.3153435289859772,-0.10366454720497131,0.11919589340686798,-0.9183900356292725,-0.32517480850219727
8.7,-4.558286666870117,-1.1163585186004639,2.0555806159973145,-0.25525325536727905,0.598804235458374,-0.44775232672691345
8.725,-4.248576641082764,0.13404498994350433,0.8282344341278076,0.3396356999874115,-0.7718406915664673,-0.712655246257782
8.75,-3.524440050125122,1.4042630195617676,-1.9536166191101074,0.7298517227172852,-3.070145606994629,-0.9407163262367249
8.775,-2.9107565879821777,1.6700588464736938,-4.884285926818848,0.39736083149909973,-2.193164587020874,-1.0874871015548706
8.8,-2.212623357772827,1.35630464553833,-5.4907307624816895,0.07641682028770447,-0.9423977732658386,-1.1993582248687744
8.825,-1.2641453742980957,1.721916675567627,-2.6729986667633057,0.016567230224609375,-0.3935184180736542,-1.377190351486206
8.85,-0.3540680706501007,2.302513360977173,0.840997040271759,-0.045313745737075806,-0.49535930156707764,-1.2764594554901123
8.875,-0.14744853973388672,2.2048227787017822,3.490673065185547,-0.11295628547668457,-0.9052720665931702,-1.1374565362930298
8.9,-0.613242506980896,1.3440313339233398,4.612365245819092,-0.09833720326423645,-1.5251233577728271,-1.2121222019195557
8.925,-0.5820953249931335,0.30958840250968933,3.352271795272827,-0.07405981421470642,-2.582533836364746,-1.3498268127441406
8.95,0.7256722450256348,-0.7203046083450317,0.6020662188529968,-0.10933628678321838,-3.55690336227417,-1.4927113056182861
8.975,2.332486391067505,-2.024840831756592,-1.6810705661773682,-0.32715073227882385,-3.843472719192505,-1.5320746898651123
9.0,3.1909172534942627,-3.1164824962615967,-2.489353895187378,-0.527687668800354,-3.267775058746338,-1.4331309795379639
9.025,3.39675235748291,-3.85432505607605,-2.4283816814422607,-0.5498305559158325,-2.5377681255340576,-1.26731538772583
9.05,3.1708145141601562,-4.146695137023926,-1.9278329610824585,-0.4844436049461365,-2.0527329444885254,-1.0869016647338867
9.075,2.560591220855713,-3.347569704055786,-1.1291505098342896,-0.4029921293258667,-1.8341422080993652,-0.9951820969581604
9.1,1.086377739906311,-1.5778411626815796,-0.4617405831813812,-0.3519696891307831,-1.491308331489563,-0.871504545211792
9.125,-0.695158839225769,0.7396727800369263,-0.20007964968681335,-0.2543102502822876,-1.0553399324417114,-0.8391053676605225
9.15,-1.9725494384765625,2.5088648796081543,-0.28862935304641724,-0.0539361834526062,-1.0788801908493042,-1.0282251834869385
9.175,-1.6485049724578857,2.9059348106384277,-0.5092833638191223,-0.10143625736236572,-1.6194190979003906,-0.9838274717330933
9.2,-0.7453129887580872,3.1153006553649902,-0.23004890978336334,-0.053963854908943176,-1.4357794523239136,-0.5829269289970398
9.225,-1.4853487014770508,3.621589183807373,0.1841432750225067,0.09247848391532898,-0.5539759993553162,-0.20987439155578613
9.25,-3.265629768371582,3.8255603313446045,0.47477445006370544,0.11481630057096481,-0.11397083103656769,0.132206529378891
9.275,-4.691591739654541,3.573956251144409,1.1376463174819946,-0.02390313893556595,-0.20076027512550354,0.2880289852619171
9.3,-5.4539384841918945,2.8313300609588623,2.0340030193328857,-0.19759203493595123,-0.2714008390903473,0.33589690923690796
9.325,-5.426617622375488,1.6239410638809204,2.115032434463501,-0.28745564818382263,-0.37518084049224854,0.2139148712158203
9.35,-4.682248592376709,0.21359004080295563,1.5199511051177979,-0.2919800579547882,-0.640644907951355,-0.03632098808884621
9.375,-3.4193220138549805,-1.0707882642745972,1.0531032085418701,-0.29956603050231934,-0.8811013102531433,-0.2679421007633209
9.4,-2.1523075103759766,-2.004971504211426,0.7908072471618652,-0.3081877827644348,-0.9216724038124084,-0.3931027948856354
9.425,-1.494299292564392,-2.4322288036346436,0.49416908621788025,-0.26151853799819946,-0.7676685452461243,-0.44124698638916016
9.45,-1.2547162771224976,-2.349594831466675,0.14830029010772705,-0.13699978590011597,-0.4554668366909027,-0.44998711347579956
9.475,-0.5089618563652039,-1.921687364578247,-0.13306301832199097,-0.04914766550064087,-0.40457552671432495,-0.45057639479637146
9.5,0.7209036946296692,-1.5397074222564697,-0.27746590971946716,-0.03168453276157379,-0.6442656517028809,-0.4417951703071594
9.525,1.1222513914108276,-1.0430386066436768,-0.22044163942337036,0.07278516888618469,-0.705143928527832,-0.5019620656967163
9.55,-0.0849333330988884,-0.07774066925048828,-0.05665380507707596,0.35788148641586304,-0.0696464404463768,-0.5140259265899658
9.575,-2.0871078968048096,0.8653061985969543,0.3379981815814972,0.5535333752632141,0.6145851612091064,-0.43507716059684753
9.6,-3.7043659687042236,1.0997613668441772,0.737903356552124,0.5155953168869019,0.7684463262557983,-0.3931611478328705
9.625,-4.272634029388428,0.7445263266563416,0.8029429316520691,0.28139442205429077,0.3397327959537506,-0.3907150328159332
9.65,-3.6268019676208496,0.08291274309158325,0.3430507183074951,-0.14383988082408905,-0.49340417981147766,-0.44152188301086426
9.675,-2.308867931365967,-0.41360267996788025,-0.11753103882074356,-0.5005054473876953,-1.3159900903701782,-0.4649520814418793
9.7,-0.7474697232246399,-0.7788792252540588,0.2283499538898468,-0.548315703868866,-1.5669400691986084,-0.42570456862449646
9.725,0.6533238887786865,-1.4478247165679932,1.2066326141357422,-0.5630190968513489,-1.2942216396331787,-0.31374821066856384
9.75,1.186158537864685,-2.0857009887695312,1.9333856105804443,-0.6011410355567932,-0.8669101595878601,-0.19332236051559448
9.775,0.3620496988296509,-2.1379220485687256,1.8348205089569092,-0.5934218168258667,-0.3855031132698059,-0.0965992659330368
9.8,-1.2627967596054077,-1.250718116760254,0.7483342289924622,-0.5545574426651001,-0.1269705593585968,0.024795372039079666
9.825,-2.847895622253418,-0.050713296979665756,-0.33194297552108765,-0.5615581274032593,0.06650768965482712,0.09660238772630692
9.85,-3.5173251628875732,0.4648193120956421,-0.44740644097328186,-0.8664633631706238,-0.24718619883060455,0.04580128937959671
9.875,-2.5374040603637695,0.3994133770465851,0.12825581431388855,-1.432202696800232,-1.3123606443405151,0.09876105189323425
9.9,-0.6785563230514526,0.02009585127234459,0.982536792755127,-2.0369863510131836,-2.042358875274658,0.32187777757644653
9.925,0.19827890396118164,-0.3206139802932739,2.0990428924560547,-2.3111274242401123,-1.895210862159729,0.5605640411376953
9.95,-0.7646387815475464,0.27409934997558594,3.133432149887085,-2.0844695568084717,-0.9429667592048645,0.6840460896492004
9.975,-3.0310873985290527,1.592176914215088,2.305140972137451,-1.507391333580017,0.3515819311141968,0.5912471413612366
10.0,-5.25508975982666,2.2618110179901123,-0.512371838092804,-1.1440205574035645,1.0773125886917114,0.4461415708065033
10.025,-3.826443672180176,1.7767072916030884,-1.045545220375061,-1.582533359527588,-0.5034540295600891,0.7401089072227478
10.05,1.9205598831176758,0.5368308424949646,-0.48171466588974,-1.9028639793395996,-2.002595901489258,1.3430968523025513
10.075,5.438220024108887,0.39288488030433655,-2.526275634765625,-0.9500806331634521,-1.563433051109314,1.4652198553085327
10.1,4.429096221923828,1.158380389213562,-3.266153335571289,-0.38212814927101135,-1.0769389867782593,0.8280683755874634
10.125,6.482418060302734,-0.10001038759946823,-2.7017650604248047,0.2683006823062897,-0.045930009335279465,0.4470142126083374
10.15,10.480948448181152,-1.680960774421692,-1.947346568107605,0.19648805260658264,-1.0232106447219849,1.0443331003189087
10.175,8.668340682983398,-1.9297599792480469,-1.880879282951355,0.03376448154449463,-1.2358213663101196,1.6129066944122314
10.2,3.4899210929870605,-1.8433899879455566,-1.941165566444397,-0.1508256196975708,-1.622617483139038,2.0776166915893555
10.225,-0.8814886808395386,1.2814886569976807,-1.5310474634170532,0.3489687442779541,-2.3033270835876465,2.1559059619903564
10.25,-3.7588906288146973,4.782270431518555,-0.34191739559173584,0.7019835710525513,-1.8557149171829224,1.3417516946792603
10.275,-5.197838306427002,2.239553213119507,0.34600958228111267,0.464924156665802,-0.6625418663024902,0.3494441509246826
10.3,-3.6015493869781494,-3.1523563861846924,-0.2551303803920746,0.07291785627603531,-0.6479453444480896,-0.030299173668026924
10.325,0.35898277163505554,-6.152691841125488,-0.0679868757724762,0.21471090614795685,-2.278547763824463,0.01593165285885334
10.35,4.559137344360352,-5.2754364013671875,1.3004480600357056,0.5590613484382629,-2.852389097213745,0.2653931677341461
10.375,6.297822952270508,-1.6374129056930542,2.7066540718078613,0.7596725821495056,-1.7977725267410278,0.8173360228538513
10.4,4.7539262771606445,1.0106693506240845,2.8250324726104736,0.39942124485969543,-0.5305194854736328,1.0381494760513306
10.425,2.16886830329895,0.7284114956855774,1.1874428987503052,-0.12698297202587128,-0.2079228311777115,0.8667028546333313
10.45,0.11762416362762451,-0.5075703263282776,-0.46677112579345703,-0.5001543760299683,-0.47606468200683594,0.6713663935661316
10.475,-1.1024715900421143,-0.30715644359588623,-1.6989858150482178,-0.5692864656448364,-1.2519633769989014,0.7215630412101746
10.5,-0.9963198304176331,0.7262012958526611,-2.71319580078125,-0.445686399936676,-1.9491565227508545,0.7761755585670471
10.525,0.6116890907287598,0.6481848955154419,-2.7916293144226074,-0.4543501138687134,-2.2642500400543213,0.6004286408424377
10.55,2.3965888023376465,-0.10629288852214813,-1.520474910736084,-0.3178067207336426,-2.5218796730041504,0.4584670662879944
10.575,2.9423410892486572,0.1657273769378662,0.23431535065174103,0.054740339517593384,-2.5510337352752686,0.5992388725280762
10.6,2.4255363941192627,1.404570460319519,1.405470371246338,0.12265065312385559,-2.290057420730591,0.6359257698059082
10.625,1.3975228071212769,1.6818305253982544,0.8607631325721741,-0.16601625084877014,-1.8525445461273193,0.3522052466869354
10.65,0.3087279498577118,-0.1872243881225586,-1.1197731494903564,-0.5196801424026489,-1.5499274730682373,-0.23340390622615814
10.675,-0.13314086198806763,-2.6916005611419678,-2.622772455215454,-0.5816205143928528,-2.106416940689087,-0.4598175883293152
10.7,0.5563392639160156,-3.973154067993164,-3.239645481109619,-0.4269503057003021,-3.396394968032837,0.0570969358086586
10.725,1.5269932746887207,-3.696389675140381,-2.771742105484009,-0.27629736065864563,-4.635458946228027,0.7464513182640076
10.75,2.2630739212036133,-2.6117987632751465,-0.2245226502418518,-0.1758561134338379,-5.415007591247559,1.333560824394226
10.775,1.8403956890106201,-1.6920056343078613,3.690437078475952,-0.16582652926445007,-5.6838698387146,1.7063171863555908
10.8,0.4870246648788452,-1.4640153646469116,5.507901191711426,-0.24673667550086975,-5.1230149269104,1.7731032371520996
10.825,-0.5147542953491211,-1.5510715246200562,3.2355010509490967,-0.4725240468978882,-4.027286052703857,1.5529205799102783
10.85,-1.1932432651519775,-1.2621726989746094,-0.6610211730003357,-0.6289388537406921,-2.6393086910247803,1.1296991109848022
10.875,-1.5745809078216553,-0.5626505017280579,-2.9082119464874268,-0.4913471043109894,-2.3707759380340576,0.8883624076843262
10.9,-2.1809229850769043,-0.3015277087688446,-3.715012788772583,-0.3992564380168915,-2.5903711318969727,0.8607223629951477
10.925,-1.6701009273529053,-0.4550502896308899,-3.2318243980407715,-0.3157375156879425,-2.8325254917144775,0.9721532464027405
10.95,-0.5006709694862366,0.108955517411232,-2.4364519119262695,-0.4103749394416809,-2.702162504196167,1.071429967880249
10.975,0.12605684995651245,1.1599304676055908,-2.618839740753174,-0.4265422224998474,-2.2359514236450195,1.012935757637024
11.0,-0.5589790344238281,2.277827739715576,-3.37737774848938,-0.33038151264190674,-1.9481933116912842,1.1613688468933105
11.025,-2.369539499282837,4.028803825378418,-3.495342254638672,-0.3108830451965332,-2.0212936401367188,1.4424394369125366
11.05,-3.22401762008667,5.121603012084961,-2.837167739868164,-0.018406063318252563,-1.881078839302063,1.2155214548110962
11.075,-2.183363437652588,5.106601238250732,-1.7120249271392822,0.424641489982605,-1.3687191009521484,0.4315524399280548
11.1,-1.3047658205032349,4.77787446975708,-0.8749285936355591,0.7821112871170044,-1.2501331567764282,-0.1500764638185501
11.125,-1.690766453742981,4.468085765838623,-0.986532986164093,1.1542606353759766,-1.590059757232666,-0.25838589668273926
11.15,-1.5467755794525146,3.9920690059661865,-1.4023534059524536,1.523205041885376,-1.433759331703186,-0.5319010019302368
11.175,1.1907891035079956,3.294374942779541,-0.7690336108207703,1.7654798030853271,-0.5931740403175354,-1.1378926038742065
11.2,3.9971065521240234,2.3242454528808594,0.5259485244750977,1.699603796005249,-0.2652851641178131,-1.120065689086914
11.225,3.8457300662994385,1.3015849590301514,1.9678465127944946,1.593376874923706,-0.9250820875167847,-0.7390596270561218
11.25,2.167048931121826,0.18424198031425476,3.0310378074645996,1.5758056640625,-1.5947099924087524,-0.7993813157081604
11.275,1.1615724563598633,-1.068630576133728,3.5306448936462402,1.4997498989105225,-1.0445815324783325,-1.0276294946670532
11.3,0.9106545448303223,-2.163848876953125,3.4653472900390625,1.484452486038208,-0.10396575927734375,-0.868281364440918
11.325,0.6725695729255676,-2.9293994903564453,3.041633367538452,1.5267539024353027,0.3484479784965515,-0.6281387209892273
11.35,-0.06604206562042236,-3.447854518890381,2.649711847305298,1.5382835865020752,0.35445114970207214,-0.48603948950767517
11.375,-1.3203518390655518,-3.8519153594970703,2.8196327686309814,1.5131654739379883,0.44669148325920105,-0.365796834230423
11.4,-1.9455267190933228,-4.215764999389648,3.3926498889923096,1.357042908668518,0.9280922412872314,-0.161991149187088
11.425,-1.1925612688064575,-4.467986583709717,3.6114892959594727,1.0917540788650513,1.5854978561401367,0.14543570578098297
11.45,0.2229236364364624,-4.369483470916748,3.1087753772735596,0.8193166255950928,1.871191143989563,0.4452285170555115
11.475,1.1846740245819092,-3.781083822250366,2.185373306274414,0.6374850869178772,1.7979382276535034,0.6802979111671448
11.5,1.5052810907363892,-2.7161097526550293,1.4483141899108887,0.6228607296943665,1.9345782995224,0.9414005875587463
11.525,1.7718778848648071,-1.356142282485962,0.644000232219696,0.7073014974594116,2.6665403842926025,1.2817813158035278
11.55,1.9599580764770508,-0.29953303933143616,-1.0484919548034668,0.7294341325759888,3.6715667247772217,1.5703823566436768
11.575,1.4548436403274536,-0.06521133333444595,-2.899498224258423,0.6307632923126221,4.053884506225586,1.6074126958847046
11.6,0.558727502822876,-0.0011147885816171765,-3.220050096511841,0.44570279121398926,3.3330061435699463,1.410474419593811
11.625,0.02396535873413086,0.333624929189682,-2.2083749771118164,0.31281736493110657,2.4587461948394775,1.2688696384429932
11.65,-0.0412081778049469,0.09276776760816574,-1.2189173698425293,0.2739121615886688,2.215691566467285,1.033862829208374
11.675,0.47418004274368286,-0.9766913652420044,-0.46113234758377075,0.24240227043628693,2.0715134143829346,0.6976462602615356
11.7,1.4279919862747192,-2.1418447494506836,0.6147411465644836,0.17972338199615479,1.427895426750183,0.3319799602031708
11.725,1.992708683013916,-2.191889762878418,1.796120524406433,-0.03453047573566437,0.6417751908302307,0.1309405267238617
11.75,1.3134722709655762,-1.1989473104476929,2.4829301834106445,-0.3462837338447571,0.5094989538192749,0.24041517078876495
11.775,-0.06432491540908813,-0.5689688920974731,2.7382335662841797,-0.6646233797073364,1.252524971961975,0.3506234884262085
11.8,-0.41789305210113525,-0.15463165938854218,2.1957879066467285,-0.930480420589447,2.1371705532073975,0.30359187722206116
11.825,0.14661608636379242,1.2872105836868286,0.00857633724808693,-1.0848567485809326,2.5300421714782715,0.17444534599781036
11.85,0.1758509874343872,3.3140625953674316,-3.1176321506500244,-1.0651328563690186,2.3152973651885986,-0.042574405670166016
11.875,-0.4129760265350342,3.643653631210327,-5.0055365562438965,-1.0234918594360352,1.5959373712539673,-0.34812256693840027
11.9,-0.8715053796768188,2.2281041145324707,-3.7085165977478027,-0.9944998025894165,0.43326979875564575,-0.45743945240974426
11.925,-0.7319844961166382,1.436432957649231,0.30989259481430054,-0.6842877864837646,-0.332633376121521,-0.3482735753059387
11.95,0.2568148374557495,1.0121030807495117,4.866628646850586,-0.407137393951416,0.11945872753858566,-0.41270536184310913
11.975,2.001091718673706,-0.35288092494010925,7.440103530883789,-0.5282072424888611,0.7911772727966309,-0.3643854260444641
12.0,2.673567056655884,-1.711068868637085,7.294780731201172,-0.6878668069839478,1.4127970933914185,0.025817908346652985
12.025,1.9616518020629883,-1.2286114692687988,6.9008989334106445,-0.6469478607177734,2.150151014328003,0.3407909572124481
12.05,1.3414936065673828,0.6116693019866943,6.610411167144775,-0.6114253401756287,2.6305289268493652,0.4973628520965576
12.075,1.0715266466140747,1.9456710815429688,4.098977088928223,-0.6485655307769775,3.0515999794006348,0.5606104135513306
12.1,0.339585542678833,2.059516191482544,-0.3144438564777374,-0.6537874937057495,3.5790388584136963,0.5352362990379333
12.125,-1.1497844457626343,1.256872534751892,-3.7865777015686035,-0.4517901539802551,3.5708184242248535,0.4173019230365753
12.15,-2.3551816940307617,0.20582807064056396,-4.172632694244385,-0.08367153257131577,2.7330803871154785,0.2744378447532654
12.175,-2.1179630756378174,-0.36301878094673157,-2.009244441986084,0.12318901717662811,1.5857353210449219,0.26418113708496094
12.2,-0.9829374551773071,-0.6885347366333008,0.12727415561676025,0.1970691680908203,0.9150455594062805,0.3817395865917206
12.225,-0.12064443528652191,-1.2994719743728638,1.0548723936080933,0.11054793000221252,0.8134632110595703,0.3828827738761902
12.25,0.18806007504463196,-1.6966040134429932,1.1816211938858032,-0.03716067224740982,0.8766704797744751,0.17709656059741974
12.275,0.012537866830825806,-1.2899523973464966,0.7955528497695923,-0.04438692703843117,0.7677488327026367,-0.06069492548704147
12.3,-0.6057671904563904,-0.49058058857917786,0.49728551506996155,0.013131372630596161,0.5586754083633423,-0.30348774790763855
12.325,-1.1000244617462158,0.134680837392807,0.5694112777709961,-0.02950000762939453,0.6845728754997253,-0.49136781692504883
12.35,-1.7434358596801758,0.5324565768241882,0.3605194091796875,-0.11464402079582214,0.8344001173973083,-0.5501888990402222
12.375,-3.330331325531006,1.0946487188339233,0.018213490024209023,-0.12856702506542206,0.9086664915084839,-0.6775245070457458
12.4,-4.73545503616333,1.6753593683242798,0.3546901047229767,-0.17249652743339539,1.0566937923431396,-1.083145022392273
12.425,-4.368557453155518,2.3856215476989746,1.074025273323059,-0.27179983258247375,0.8439747095108032,-1.4207020998001099
12.45,-3.1417970657348633,3.443275213241577,1.3953510522842407,-0.2738640308380127,0.3453892171382904,-1.5849477052688599
12.475,-1.418360948562622,3.414797306060791,1.011319637298584,-0.4007686376571655,0.5887153148651123,-2.0684351921081543
12.5,2.461097240447998,0.7254589796066284,-0.21394944190979004,-0.5303511023521423,1.2150914669036865,-2.5060722827911377
12.525,6.707546234130859,-3.3371496200561523,-0.6504352688789368,-0.6190519332885742,0.534174382686615,-2.226135492324829
12.55,8.114936828613281,-5.366203784942627,0.2219383716583252,-0.6178411245346069,-0.3341115713119507,-1.7020320892333984
12.575,6.696263790130615,-4.609804153442383,-1.152328372001648,0.13925185799598694,0.5508754253387451,-1.5563042163848877
12.6,3.450997829437256,-3.726830244064331,-3.9551455974578857,1.0481935739517212,1.891316294670105,-1.8710030317306519
12.625,-0.03485894203186035,-2.83333683013916,-5.039050579071045,1.4259309768676758,1.6297476291656494,-1.6139432191848755
12.65,-1.7769994735717773,-1.1974695920944214,-3.93583345413208,1.4748716354370117,0.5350973010063171,-0.8769950270652771
12.675,-1.438194751739502,0.9919856190681458,-1.3293334245681763,1.3221148252487183,-0.37045571208000183,-0.44959768652915955
12.7,-1.0147877931594849,3.11439847946167,0.6887452006340027,1.2205524444580078,-0.23296886682510376,-0.45898643136024475
12.725,-2.1514391899108887,4.10950231552124,0.607149064540863,1.006192684173584,1.0447285175323486,-0.5316641926765442
12.75,-3.6303062438964844,3.434941053390503,0.033513374626636505,0.23811468482017517,1.824586272239685,-0.47979429364204407
12.775,-3.648427963256836,1.7884535789489746,0.2276037186384201,-0.9447214007377625,0.6952478289604187,-0.11468811333179474
12.8,-2.6380035877227783,-0.2726295292377472,-0.17138627171516418,-2.235960006713867,-0.8284862637519836,0.42602330446243286
12.825,-1.0048896074295044,-2.634298086166382,-0.9654061794281006,-3.374711275100708,-1.7119410037994385,0.8718107342720032
12.85,1.555164098739624,-4.463023662567139,-0.21395345032215118,-3.8777365684509277,-2.136793375015259,1.214963436126709
12.875,3.7080860137939453,-4.386186599731445,2.6362199783325195,-3.658714771270752,-2.051971912384033,1.4382126331329346
12.9,3.6081161499023438,-2.499664068222046,5.808716297149658,-2.933805465698242,-1.5096781253814697,1.5344053506851196
12.925,2.1042561531066895,-0.5501513481140137,7.644830703735352,-2.1403708457946777,-0.5852152705192566,1.5697414875030518
12.95,1.5427415370941162,0.43886247277259827,8.153244018554688,-1.6274452209472656,0.6044943928718567,1.6178462505340576
12.975,2.6768057346343994,0.9272915124893188,7.595096111297607,-1.2969355583190918,1.8695015907287598,1.3773037195205688
13.0,4.271766662597656,1.9859215021133423,5.7197465896606445,-1.0422604084014893,2.7441604137420654,1.1081151962280273
13.025,4.162555694580078,3.494295120239258,2.777151346206665,-0.8619043827056885,3.498779535293579,0.9537221193313599
13.05,1.8445277214050293,4.346965312957764,0.19507068395614624,-0.9676030874252319,4.043221473693848,0.6938599348068237
13.075,-0.37189844250679016,4.1701788902282715,-1.1686092615127563,-1.3084497451782227,3.932661533355713,0.6234269142150879
13.1,-0.4667181968688965,3.5410799980163574,-1.7610459327697754,-1.5031872987747192,3.517314910888672,0.652722179889679
13.125,0.5898990631103516,3.110715389251709,-2.179305076599121,-1.6560745239257812,3.356734037399292,0.17325526475906372
13.15,0.27626049518585205,3.0834269523620605,-2.2629213333129883,-1.8414463996887207,3.157639265060425,-0.17897693812847137
13.175,-1.615844964981079,2.868469715118408,-2.0276246070861816,-1.9109904766082764,3.115826368331909,-0.3341946601867676
13.2,-2.7077958583831787,1.7855525016784668,-2.0482676029205322,-1.973423719406128,3.089569330215454,-0.41976138949394226
13.225,-2.2608675956726074,0.48983508348464966,-1.992304801940918,-1.871497631072998,2.886056900024414,-0.11660847812891006
13.25,-1.2700386047363281,-0.404534250497818,-1.753395438194275,-1.596186637878418,2.4939489364624023,0.12059067189693451
13.275,-0.5481456518173218,-1.0386590957641602,-1.6888930797576904,-1.30826997756958,2.130124807357788,0.12209452688694
13.3,-0.37731385231018066,-1.7506476640701294,-1.8784326314926147,-1.1018846035003662,2.009148120880127,-0.040471553802490234
13.325,-0.5305225253105164,-2.3810617923736572,-2.210003137588501,-0.8668174147605896,1.9910064935684204,-0.17114664614200592
13.35,-0.7062402367591858,-2.832195281982422,-2.363091230392456,-0.626508355140686,1.9050196409225464,-0.1927013248205185
13.375,-0.7395005226135254,-3.2573249340057373,-2.0629546642303467,-0.427735835313797,1.7755721807479858,-0.17266599833965302
13.4,-0.6462713479995728,-3.627310276031494,-1.3853015899658203,-0.2169169932603836,1.5878500938415527,-0.10131653398275375
13.425,-0.4145866334438324,-3.7528114318847656,-0.8493165373802185,0.08877374976873398,1.3580502271652222,0.005407687742263079
13.45,0.15006694197654724,-3.796382427215576,-1.05214262008667,0.35522472858428955,1.2254493236541748,0.056514959782361984
13.475,0.9019372463226318,-3.6286072731018066,-1.7145748138427734,0.5603694915771484,1.2015448808670044,0.0875849798321724
13.5,1.3669884204864502,-2.7916929721832275,-1.777884840965271,0.6746765375137329,1.201058030128479,0.04792307689785957
13.525,1.3630491495132446,-1.9323724508285522,-1.3740208148956299,0.5410807132720947,1.384529709815979,-0.2641741633415222
13.55,0.8547986745834351,-1.7338030338287354,-1.2781274318695068,0.4783537685871124,1.6581510305404663,-0.6306190490722656
13.575,0.006935805082321167,-1.8276445865631104,-1.0453602075576782,0.5456241965293884,1.8396841287612915,-0.8643133044242859
13.6,-0.7490959167480469,-1.967377781867981,-0.4899439811706543,0.5040463209152222,1.8992149829864502,-1.027235746383667
13.625,-1.057002067565918,-2.072378396987915,-0.09661231189966202,0.5183742046356201,1.7975592613220215,-1.0815685987472534
13.65,-1.1237266063690186,-2.1247565746307373,-0.0011248104274272919,0.6345449686050415,1.583416223526001,-1.0773892402648926
13.675,-1.1721187829971313,-2.16698956489563,0.24896733462810516,0.6879030466079712,1.3823859691619873,-1.0816258192062378
13.7,-1.18110990524292,-2.0321781635284424,0.9130887389183044,0.7101089358329773,1.178523063659668,-1.054643988609314
13.725,-1.013930320739746,-1.4398709535598755,1.7127233743667603,0.8835572004318237,0.923089861869812,-1.0174416303634644
13.75,-0.5348454117774963,-0.6740589737892151,1.9566891193389893,0.9652246236801147,0.791694700717926,-1.0346314907073975
13.775,-0.49009472131729126,-0.3059110939502716,1.5511448383331299,0.732934832572937,0.8804022669792175,-1.0989753007888794
13.8,-1.2785725593566895,-0.017085988074541092,1.9820448160171509,0.3944777250289917,0.964381992816925,-1.206782341003418
13.825,-1.8938640356063843,0.7446814775466919,3.595092296600342,0.1784614622592926,0.9359956979751587,-1.266078233718872
13.85,-1.5191211700439453,1.559398889541626,4.813246726989746,0.05333435535430908,0.8933921456336975,-1.171269416809082
13.875,-0.7281022071838379,1.9127970933914185,4.926996231079102,-0.003205418586730957,0.6235913634300232,-0.9988992810249329
13.9,-0.321422815322876,2.1683597564697266,4.626541614532471,0.3628297448158264,-0.3082553446292877,-0.9497954845428467
13.925,-0.32349085807800293,2.8497259616851807,3.9524221420288086,1.089464783668518,-1.1849714517593384,-1.0736920833587646
13.95,0.09361618757247925,3.6588330268859863,2.542886972427368,1.434640884399414,-1.3732742071151733,-1.0971230268478394
13.975,1.4877558946609497,3.4350903034210205,1.1613017320632935,1.0098031759262085,-1.0980019569396973,-0.9809443950653076
14.0,2.917726993560791,2.080839157104492,0.6441903114318848,0.34293100237846375,-0.5283107757568359,-1.0387252569198608
14.025,3.659381151199341,1.1532809734344482,0.2520727813243866,0.1375001072883606,0.013253915123641491,-1.3200947046279907
14.05,4.876143455505371,1.1698205471038818,-1.1248325109481812,0.3193959891796112,0.4398830831050873,-1.3947023153305054
14.075,5.657373905181885,0.9515330195426941,-2.319025993347168,0.5394474267959595,0.9615901112556458,-1.1343963146209717
14.1,3.1455578804016113,0.44436532258987427,-0.8150963187217712,0.7923648357391357,0.7346261143684387,-0.9026776552200317
14.125,-0.8525201082229614,0.4325438141822815,2.343064785003662,0.6908052563667297,0.023005306720733643,-0.8501582145690918
14.15,-2.6758992671966553,-0.06911934912204742,3.3561768531799316,-0.05409252643585205,0.5438233017921448,-0.5313095450401306
14.175,-2.657822608947754,-1.9221330881118774,1.500345230102539,-0.5962050557136536,1.5695559978485107,0.0008919152314774692
14.2,-2.054741859436035,-2.776883125305176,-1.1542308330535889,-0.21449168026447296,1.2970929145812988,0.06983519345521927
14.225,-1.2614502906799316,-0.9801949858665466,-2.0241048336029053,0.5590067505836487,0.13213258981704712,-0.2610238194465637
14.25,-0.8892762064933777,1.0156023502349854,-0.8083163499832153,0.7953051328659058,-0.9053093791007996,-0.40974047780036926
14.275,-0.7857685685157776,0.7506515383720398,0.47439733147621155,0.43919238448143005,-1.535294532775879,-0.2825333774089813
14.3,-0.06658141314983368,-0.38506609201431274,-0.18911366164684296,0.10526448488235474,-1.1422150135040283,-0.27022674679756165
14.325,0.9971640706062317,-0.404025137424469,-2.2046186923980713,0.1466045081615448,-0.21833397448062897,-0.43432673811912537
14.35,1.457444667816162,0.1200551837682724,-2.800215721130371,0.30072829127311707,0.19334100186824799,-0.4893386960029602
14.375,0.8604964017868042,0.07949350029230118,-1.2422411441802979,0.20801016688346863,0.31790775060653687,-0.36119017004966736
14.4,-0.09795317053794861,-0.43388184905052185,0.9679466485977173,0.05623114854097366,0.3611562252044678,-0.2592107057571411
14.425,-0.5709740519523621,-0.8805133700370789,2.440535306930542,0.02748294174671173,0.13660037517547607,-0.2938803732395172
14.45,-0.3715916872024536,-0.9281808733940125,2.7987523078918457,0.07238929718732834,-0.34662389755249023,-0.4264785945415497
14.475,0.3310413360595703,-0.7368499636650085,2.451242685317993,0.15547338128089905,-0.792774498462677,-0.5215216279029846
14.5,1.3519197702407837,-0.5310404300689697,1.8806750774383545,0.20868505537509918,-0.9825587272644043,-0.5207118988037109
14.525,2.461306095123291,-0.5186951756477356,1.4674572944641113,0.18655070662498474,-0.8555889129638672,-0.36432239413261414
14.55,3.3951802253723145,-0.8633245825767517,1.3661445379257202,0.08426414430141449,-0.4646070599555969,-0.1013873815536499
14.575,3.5744216442108154,-1.4529805183410645,1.1895915269851685,-0.06970507651567459,-0.19942979514598846,0.13988767564296722
14.6,2.4529638290405273,-2.1109113693237305,0.8494164347648621,-0.23888151347637177,-0.26649025082588196,0.3636130690574646
14.625,0.6679129004478455,-2.4231598377227783,0.6971616148948669,-0.3391285240650177,0.025505756959319115,0.5012279748916626
14.65,-0.4131743311882019,-2.053067445755005,0.6496860980987549,-0.2550932466983795,0.4420892894268036,0.37753719091415405
14.675,-0.5882526636123657,-1.4002171754837036,0.26671674847602844,-0.08333121240139008,0.1919766217470169,0.08660481125116348
14.7,-0.41297152638435364,-0.7778387665748596,-0.4929473400115967,0.0003713071346282959,-0.146114319562912,-0.12104889005422592
14.725,-0.21728244423866272,0.16288669407367706,-1.2378075122833252,0.09887062013149261,-0.24571222066879272,-0.3137114644050598
14.75,0.040105998516082764,1.2864991426467896,-1.5324398279190063,0.27981090545654297,-0.2016746550798416,-0.6304821968078613
14.775,0.6334103941917419,1.9240849018096924,-1.722603440284729,0.4317561388015747,-0.05355821177363396,-0.9640865921974182
14.8,1.4082369804382324,2.068004846572876,-1.919765830039978,0.6228796243667603,0.07771093398332596,-1.2278448343276978
14.825,1.9733638763427734,2.123438835144043,-1.1721055507659912,0.9348083138465881,0.20014089345932007,-1.4428235292434692
14.85,2.45367431640625,2.6067323684692383,0.6291210055351257,1.2200005054473877,0.33769866824150085,-1.6065025329589844
14.875,2.703221082687378,3.554814577102661,2.64728045463562,1.3091087341308594,0.3091552257537842,-1.596098780632019
14.9,2.0251479148864746,3.7266685962677,4.3241353034973145,1.1373882293701172,0.4210380017757416,-1.2222912311553955
14.925,0.9076251983642578,2.7875375747680664,5.020131587982178,0.8677213788032532,0.5161823630332947,-0.8356307148933411
14.95,0.4176206588745117,1.7950679063796997,4.418039798736572,0.5251632928848267,0.14908304810523987,-0.8439573645591736
14.975,0.782214343547821,1.0814905166625977,2.8653852939605713,0.10342901945114136,-0.31771549582481384,-1.0538177490234375
15.0,1.635584831237793,0.11410411447286606,1.1474056243896484,-0.09516957402229309,-0.4933641254901886,-1.1339327096939087
15.025,2.198542594909668,-1.4878648519515991,-0.020360006019473076,-0.06966614723205566,-0.2586381435394287,-0.9535359144210815
15.05,2.3159005641937256,-2.9021730422973633,-0.45448705554008484,-0.10289263725280762,0.08996418118476868,-0.7015385627746582
15.075,2.085524082183838,-3.1549289226531982,-0.25000444054603577,-0.19144928455352783,0.5128511190414429,-0.4184233546257019
15.1,1.1672215461730957,-2.3011090755462646,0.07714352011680603,-0.1925162672996521,1.099538803100586,-0.045670367777347565
15.125,0.440622478723526,-1.3420106172561646,0.08239185065031052,-0.19225984811782837,1.5074156522750854,0.26821792125701904
15.15,1.1068800687789917,-0.8825962543487549,-0.00920464564114809,-0.2536642849445343,1.3489021062850952,0.3520037829875946
15.175,1.9206706285476685,-0.6807892322540283,0.19846057891845703,-0.30046331882476807,0.9527497291564941,0.485726922750473
15.2,1.3357337713241577,-0.20561999082565308,0.9614384174346924,-0.3021809458732605,0.9099085927009583,0.8929741382598877
15.225,0.2671566605567932,0.6293153166770935,2.1605310440063477,-0.3920052647590637,1.0108718872070312,1.2699077129364014
15.25,0.143976092338562,1.0374937057495117,2.9245846271514893,-0.598565399646759,0.9216721057891846,1.5218607187271118
15.275,0.79143226146698,0.821685791015625,2.456489086151123,-0.7968645691871643,0.6609858274459839,1.7519502639770508
15.3,1.1692806482315063,0.5042685866355896,1.2596745491027832,-0.9167287349700928,0.2942672073841095,1.9592114686965942
15.325,0.9040127992630005,0.19945140182971954,0.17790992558002472,-0.9012930989265442,-0.05364888161420822,2.1050074100494385
15.35,0.4602283537387848,0.0736083909869194,-0.7413729429244995,-0.7093268036842346,-0.2765445113182068,2.1190104484558105
15.375,0.11029374599456787,0.2889138162136078,-2.0227489471435547,-0.4746859669685364,-0.3033579885959625,2.1431050300598145
15.4,-0.49497294425964355,0.637319803237915,-3.4873151779174805,-0.3593975305557251,0.009972001425921917,2.2685320377349854
15.425,-1.6901040077209473,0.6666205525398254,-3.890078067779541,-0.5133556723594666,0.8729112148284912,2.437682867050171
15.45,-2.978783130645752,0.1485656499862671,-3.1131491661071777,-0.7893447875976562,1.6849018335342407,2.5348451137542725
15.475,-3.6242613792419434,-0.69468754529953,-1.877705693244934,-0.9843329787254333,2.1094067096710205,2.4559807777404785
15.5,-3.3584656715393066,-1.4203041791915894,-0.3641825318336487,-1.055694341659546,2.0965042114257812,2.2546074390411377
15.525,-2.4765751361846924,-2.015958786010742,0.9335305094718933,-0.8473701477050781,1.5094578266143799,1.9974417686462402
15.55,-1.7116098403930664,-2.827199697494507,1.4579787254333496,-0.5540235042572021,0.9278453588485718,1.573734164237976
15.575,-1.3980331420898438,-3.5091023445129395,1.2661024332046509,-0.42120394110679626,0.8478457927703857,0.9879435896873474
15.6,-1.1978564262390137,-3.49294376373291,1.018958568572998,-0.34543582797050476,1.0108861923217773,0.46775922179222107
15.625,-0.5403401255607605,-2.785322427749634,1.3683210611343384,-0.2150842845439911,1.012507677078247,0.11346393823623657
15.65,0.9130139350891113,-1.4232571125030518,2.328134298324585,-0.19147157669067383,0.9752992391586304,-0.11681743711233139
15.675,2.803550958633423,0.7247273325920105,3.095304012298584,-0.23127172887325287,0.8187796473503113,-0.19493408501148224
15.7,3.907374143600464,3.2700300216674805,2.8165247440338135,-0.26733455061912537,0.4818892776966095,-0.15456025302410126
15.725,3.492392063140869,4.933732032775879,1.5191261768341064,-0.47966858744621277,0.4155559241771698,-0.14393950998783112
15.75,2.5559885501861572,3.973231554031372,-0.008252921514213085,-0.3394167721271515,0.5512570142745972,-0.16228702664375305
15.775,1.2793660163879395,0.7351045608520508,-0.9903996586799622,0.25963231921195984,0.5867112278938293,-0.1629675030708313
15.8,-1.5305429697036743,-0.9352607131004333,-0.8234255909919739,0.30959516763687134,0.8164528012275696,-0.5134811401367188
15.825,-4.009100914001465,0.5793203711509705,-0.06068665534257889,-0.34494152665138245,0.882597029209137,-1.4878016710281372
15.85,-2.5418601036071777,1.3977197408676147,0.7021872401237488,-0.530591607093811,0.30409640073776245,-1.5929911136627197
15.875,-0.4339364767074585,-0.5237475633621216,2.5335581302642822,0.13671404123306274,-0.329447865486145,-0.9109845161437988
15.9,-1.8047122955322266,-3.1096863746643066,3.2392776012420654,0.5342469811439514,-0.78668212890625,-0.511681079864502
15.925,-2.929381847381592,-3.504011869430542,0.4229804575443268,0.31431612372398376,-0.9467096924781799,-0.5587373971939087
15.95,-1.5651719570159912,-1.8394994735717773,-3.228559732437134,0.29342254996299744,-0.6480327248573303,-0.6814546585083008
15.975,-0.10397613048553467,-0.7233828902244568,-4.067665100097656,0.6841390132904053,-0.9733498096466064,-0.46204784512519836
16.0,0.0016408562660217285,-0.8518982529640198,-2.7499146461486816,0.7781825065612793,-1.5516341924667358,-0.30899420380592346
16.025,-0.7530567646026611,-1.2141637802124023,-2.0487685203552246,0.44613879919052124,-1.1224312782287598,-0.37254631519317627
16.05,-1.0548834800720215,-0.9541473388671875,-1.7536622285842896,0.22753243148326874,-0.052675556391477585,-0.5790404081344604
16.075,-0.6367056369781494,-0.36888691782951355,-0.61739581823349,0.13077037036418915,0.6492134928703308,-0.6681728959083557
16.1,-0.14601865410804749,-0.07519246637821198,0.5832555294036865,0.022709861397743225,0.6902214288711548,-0.6028499007225037
16.125,0.21605828404426575,-0.32650285959243774,0.7082458734512329,-0.013078540563583374,0.5509665608406067,-0.403927206993103
16.15,0.4481496512889862,-0.949445903301239,0.4449804723262787,0.06219802051782608,0.38052311539649963,-0.17505179345607758
16.175,0.3216032385826111,-1.5355417728424072,0.5829625129699707,0.18935036659240723,0.15063895285129547,-0.13940592110157013
16.2,-0.01941847801208496,-1.9831631183624268,0.9494086503982544,0.25263914465904236,-0.10125058889389038,-0.17064256966114044
16.225,-0.3878667950630188,-1.9705345630645752,1.0050691366195679,0.24062561988830566,-0.40155330300331116,-0.22689330577850342
16.25,-0.6338580846786499,-1.4921504259109497,0.451077401638031,0.26525548100471497,-0.780250608921051,-0.42055994272232056
16.275,-0.3568675220012665,-0.7964583039283752,-0.41792571544647217,0.377719908952713,-1.2545169591903687,-0.7349693179130554
16.3,0.25849515199661255,0.016177186742424965,-0.894065797328949,0.4259216785430908,-1.3275529146194458,-0.8565412759780884
16.325,0.37742048501968384,0.5501070618629456,-0.7390753030776978,0.3919871151447296,-0.8750381469726562,-0.6716018319129944
16.35,-0.02066151425242424,0.853699803352356,-0.1316143125295639,0.38949668407440186,-0.41816049814224243,-0.5267903804779053
16.375,-0.2557962238788605,1.2221451997756958,0.5579469799995422,0.3496992886066437,-0.13662874698638916,-0.609739363193512
16.4,-0.027415484189987183,1.5281250476837158,0.9811492562294006,0.2751869261264801,-0.07853610068559647,-0.8252429962158203
16.425,0.43909335136413574,1.5873748064041138,1.1730499267578125,0.2180618792772293,-0.1695387065410614,-1.043175458908081
16.45,0.7188988924026489,1.4615249633789062,1.1847652196884155,0.16952207684516907,-0.35566288232803345,-1.2290858030319214
16.475,0.7526548504829407,1.4622440338134766,1.074550986289978,0.08562633395195007,-0.5028910040855408,-1.3314111232757568
16.5,0.7934591174125671,1.6191846132278442,0.66456139087677,-0.05874994397163391,-0.5563313364982605,-1.3883190155029297
16.525,1.1581554412841797,1.568930745124817,-0.19780252873897552,-0.11290353536605835,-0.6649976372718811,-1.6145622730255127
16.55,2.035024881362915,1.5758639574050903,-1.2027478218078613,0.008537769317626953,-0.796269953250885,-2.037383794784546
16.575,3.3665084838867188,2.1099023818969727,-1.4789080619812012,0.2789543867111206,-0.7406634092330933,-2.4081244468688965
16.6,4.812294006347656,2.332202672958374,-0.20881107449531555,0.5788909792900085,-0.4858108460903168,-2.465301275253296
16.625,5.438331127166748,1.041253685951233,2.080350637435913,0.6867983341217041,-0.07070469856262207,-2.1006736755371094
16.65,5.419549465179443,-1.6123846769332886,3.930879592895508,0.6621121168136597,0.327947735786438,-1.2670097351074219
16.675,6.2874956130981445,-3.729494333267212,3.9105944633483887,0.37600409984588623,0.23700793087482452,-0.407243937253952
16.7,6.318291187286377,-3.5452377796173096,2.303541660308838,-0.2835862636566162,-0.20958878099918365,0.21754415333271027
16.725,4.288290977478027,-1.7468458414077759,0.9928719997406006,-0.9427719116210938,-0.6320911645889282,0.7861070036888123
16.75,2.2876386642456055,-0.2982485294342041,0.8715850114822388,-0.937135636806488,-0.6882041096687317,1.3662906885147095
16.775,0.9397042989730835,0.11959350854158401,1.3951544761657715,-0.4979255795478821,-0.17755387723445892,1.8496280908584595
16.8,0.029651105403900146,0.38852691650390625,1.5554643869400024,-0.41332390904426575,0.2796552777290344,2.0451607704162598
16.825,-0.5963442921638489,1.0072861909866333,0.8889367580413818,-0.5557103157043457,0.2950352728366852,2.1405107975006104
16.85,-1.4478214979171753,1.4288980960845947,-0.01404582615941763,-0.5485373735427856,0.2974199652671814,2.3376803398132324
16.875,-2.3427371978759766,1.4287742376327515,-0.4059692323207855,-0.45788586139678955,0.5595098733901978,2.444918394088745
16.9,-2.86215877532959,1.2750276327133179,-0.42526233196258545,-0.4764149785041809,0.7517874836921692,2.4205265045166016
16.925,-3.021393060684204,0.9966491460800171,-0.4591497480869293,-0.5889092683792114,0.7681223154067993,2.4058496952056885
16.95,-3.2366278171539307,0.5093053579330444,-0.8436543345451355,-0.6130127906799316,0.5549642443656921,2.2978882789611816
16.975,-3.6234614849090576,-0.1380545198917389,-1.247214436531067,-0.6068872809410095,0.6262845396995544,2.080838680267334
17.0,-3.7568726539611816,-0.7815310955047607,-1.4026329517364502,-0.6050975322723389,0.6607921719551086,1.8098996877670288
17.025,-3.454270362854004,-1.5109175443649292,-1.131877064704895,-0.5521331429481506,0.5619025230407715,1.5607391595840454
17.05,-2.637000560760498,-2.3073387145996094,-0.24064204096794128,-0.5216750502586365,0.6206276416778564,1.3804889917373657
17.075,-1.2398637533187866,-2.7941277027130127,0.7268332242965698,-0.4630039930343628,0.5004639625549316,1.1393369436264038
17.1,0.3951234817504883,-2.538477659225464,1.1337883472442627,-0.20305757224559784,0.0036760473158210516,0.7230799794197083
17.125,1.462260365486145,-1.5544513463974,1.0141569375991821,0.1439172327518463,-0.5196121335029602,0.1786668747663498
17.15,1.4898998737335205,-0.3865377604961395,0.6625277400016785,0.2772696614265442,-0.5846635699272156,-0.31705042719841003
17.175,1.1111350059509277,0.5255364775657654,0.3539049029350281,0.39106717705726624,-0.3055376410484314,-0.5375806093215942
17.2,1.3451002836227417,0.8177604675292969,0.4026709794998169,0.6138473153114319,-0.06583823263645172,-0.38470715284347534
17.225,2.1030893325805664,0.01041391585022211,1.0276767015457153,0.5505614876747131,0.1455232948064804,-0.031192736700177193
17.25,2.033836841583252,-1.6151671409606934,2.227748155593872,0.2411782592535019,0.2593824565410614,0.14151190221309662
17.275,0.16964662075042725,-2.751793384552002,3.501185178756714,0.12369696795940399,-0.049106743186712265,-0.025076091289520264
17.3,-2.602806568145752,-1.4841127395629883,3.9582905769348145,0.39164531230926514,-0.972470223903656,-0.47549131512641907
17.325,-3.68776535987854,1.677619457244873,2.270353078842163,0.6767204999923706,-2.0028162002563477,-1.20594322681427
17.35,-2.594752311706543,2.5549426078796387,-0.7145471572875977,0.3619593381881714,-2.0440330505371094,-0.9748907089233398
17.375,-1.8313829898834229,0.6856091022491455,-1.478768229484558,-0.3227669298648834,-0.6674268245697021,0.029613681137561798
17.4,-2.107483386993408,-0.30924591422080994,-0.4482267498970032,-0.41755402088165283,0.2606427073478699,0.35991373658180237
17.425,-2.7126951217651367,-0.1238257959485054,-0.5986236333847046,0.16265922784805298,-0.48412972688674927,0.28677400946617126
17.45,-3.1080963611602783,-0.39351627230644226,-1.8124914169311523,0.5199342966079712,-1.980022668838501,0.2625464200973511
17.475,-2.9233345985412598,-0.8806588649749756,-2.9351561069488525,0.24808326363563538,-2.5366153717041016,0.07658453285694122
17.5,-2.40980863571167,-0.186595618724823,-3.4359664916992188,0.12939514219760895,-1.9753823280334473,-0.2939499616622925
17.525,-1.7942545413970947,1.25666081905365,-2.9278552532196045,0.3620028793811798,-1.4162148237228394,-0.5663537383079529
17.55,-1.1823042631149292,1.4782679080963135,-1.7820202112197876,0.42792361974716187,-1.3716278076171875,-0.5301191210746765
17.575,-0.677345871925354,0.45605483651161194,-0.8068452477455139,0.20207762718200684,-1.3469741344451904,-0.42521238327026367
17.6,-0.4327087998390198,-0.16104505956172943,0.006873846519738436,0.06454981118440628,-1.2508751153945923,-0.5194651484489441
17.625,-0.23735839128494263,-0.03602313995361328,0.4531104564666748,0.11303724348545074,-1.478742241859436,-0.6073746085166931
17.65,0.24336500465869904,0.04468056932091713,0.2800324559211731,0.1411108672618866,-1.925422191619873,-0.5872525572776794
17.675,0.6342263221740723,-0.16501909494400024,-0.15314523875713348,0.19983403384685516,-2.256417751312256,-0.567865788936615
17.7,0.6651327013969421,-0.336978018283844,-0.5391643643379211,0.2532027065753937,-2.2772138118743896,-0.49409011006355286
17.725,0.848188042640686,-0.3926335275173187,-0.8999997973442078,0.1780295968055725,-2.15706729888916,-0.3658977150917053
17.75,1.1512222290039062,-0.3982125520706177,-1.1009000539779663,0.05387121066451073,-2.1838719844818115,-0.31494030356407166
17.775,0.9020131826400757,-0.28998953104019165,-0.976991593837738,0.01920076459646225,-2.2076947689056396,-0.32519787549972534
17.8,0.20566818118095398,-0.09621144086122513,-0.8247179985046387,0.025584444403648376,-2.110475778579712,-0.2873712480068207
17.825,-0.33411306142807007,0.009447152726352215,-0.8084195852279663,0.019543763250112534,-2.1069343090057373,-0.22498276829719543
17.85,-0.3768731951713562,-0.0024566049687564373,-0.8969845175743103,0.031107187271118164,-2.2950124740600586,-0.22428254783153534
17.875,0.13437719643115997,0.1141825020313263,-0.9035013318061829,0.05521116405725479,-2.6085948944091797,-0.28430798649787903
17.9,0.7835543155670166,0.3675994575023651,-0.5538310408592224,0.06088999658823013,-2.792070150375366,-0.3504336178302765
17.925,1.1047435998916626,0.3187093138694763,-0.25977611541748047,0.0805092602968216,-2.7451603412628174,-0.35996994376182556
17.95,1.0669524669647217,-0.20263205468654633,-0.3617296516895294,0.08609482645988464,-2.6490907669067383,-0.3151690363883972
17.975,0.6174893379211426,-0.7916995882987976,-0.528786838054657,0.029385477304458618,-2.5749855041503906,-0.28644368052482605
18.0,-0.2998257875442505,-1.013733983039856,-0.8248764872550964,-0.04038117825984955,-2.5179483890533447,-0.29984885454177856
18.025,-1.297070026397705,-0.8348883986473083,-1.4415879249572754,-0.13115134835243225,-2.5393502712249756,-0.29450714588165283
18.05,-1.889031171798706,-0.7348068356513977,-2.300204277038574,-0.3117811679840088,-2.6374881267547607,-0.2565291225910187
18.075,-1.8087453842163086,-0.9090384244918823,-3.1479480266571045,-0.46736007928848267,-3.0154664516448975,-0.2676776349544525
18.1,-0.9156595468521118,-0.9137668013572693,-3.661482810974121,-0.4643562138080597,-3.8205621242523193,-0.30705201625823975
18.125,0.7222185134887695,-0.5902137756347656,-3.622405767440796,-0.34566596150398254,-4.717112064361572,-0.2730264961719513
18.15,2.539371967315674,-0.4459840655326843,-2.918912410736084,-0.344310462474823,-5.304283142089844,-0.24133746325969696
18.175,3.9619901180267334,-0.42619264125823975,-1.3390885591506958,-0.42456555366516113,-5.5279645919799805,-0.2786351442337036
18.2,4.79575777053833,0.002902536652982235,1.4943832159042358,-0.4421808421611786,-5.51107931137085,-0.3031831979751587
18.225,4.638174057006836,0.6323456764221191,5.244813442230225,-0.40552830696105957,-5.21853494644165,-0.30142807960510254
18.25,2.6932973861694336,0.6694322228431702,7.9714460372924805,-0.4930083751678467,-4.426627159118652,-0.218973770737648
18.275,-0.4030890464782715,0.061338216066360474,7.723520755767822,-0.6041035056114197,-3.123558282852173,-0.09106342494487762
18.3,-2.4439401626586914,-0.6716957092285156,4.9528913497924805,-0.5925593972206116,-2.247645616531372,0.051671259105205536
18.325,-2.6681294441223145,-0.9140509963035583,2.0152320861816406,-0.5420677065849304,-2.1807634830474854,0.2362944334745407
18.35,-2.2268149852752686,-0.04534798860549927,0.15394920110702515,-0.30310410261154175,-1.7985618114471436,0.37022799253463745
18.375,-2.1014044284820557,1.230444312095642,-1.2624642848968506,0.00920248031616211,-1.1198203563690186,0.4122869372367859
18.4,-2.0002198219299316,1.094539999961853,-2.41935133934021,0.05173896253108978,-0.8044940829277039,0.15215249359607697
18.425,-1.326967716217041,-0.2895877957344055,-2.680936336517334,-0.06842141598463058,-0.9285025596618652,-0.2406959980726242
18.45,-0.2579004764556885,-1.0188360214233398,-1.877909779548645,-0.14334669709205627,-1.1940908432006836,-0.2653084397315979
18.475,0.47032177448272705,-0.9253960847854614,-0.6477134823799133,-0.18547648191452026,-1.4901707172393799,-0.05496001988649368
18.5,0.8543168306350708,-1.2557995319366455,0.28422799706459045,-0.23470178246498108,-1.994630217552185,0.15213903784751892
18.525,1.037247657775879,-1.6977351903915405,0.8218900561332703,-0.3398215174674988,-2.552950382232666,0.4053347110748291
18.55,0.7866183519363403,-1.1321518421173096,1.1430732011795044,-0.43358367681503296,-2.6036880016326904,0.6311633586883545
18.575,0.2520855963230133,-0.21928223967552185,1.280181884765625,-0.3124961256980896,-2.0962984561920166,0.5269085168838501
18.6,0.003340810537338257,-0.0367918387055397,1.0475378036499023,0.041286759078502655,-1.375954508781433,0.09340760856866837
18.625,0.23121321201324463,-0.14752966165542603,0.6778469681739807,0.28153371810913086,-0.7950428128242493,-0.24076946079730988
18.65,0.5799294114112854,-0.12188348174095154,0.7652963399887085,0.26413312554359436,-0.4799663722515106,-0.27553829550743103
18.675,0.6845045685768127,-0.16625607013702393,1.3223005533218384,0.06906109303236008,-0.5894738435745239,-0.10310094058513641
18.7,0.3845234513282776,-0.03825196996331215,1.8395845890045166,-0.17813318967819214,-0.9863168001174927,0.12861821055412292
18.725,-0.11294567584991455,0.5273303985595703,2.0841617584228516,-0.2947582006454468,-1.2049615383148193,0.3424118757247925
18.75,-0.5230984687805176,0.9365607500076294,1.8600102663040161,-0.22871671617031097,-0.9196518063545227,0.4063909351825714
18.775,-0.8651014566421509,0.8250057101249695,0.8746808171272278,-0.17855438590049744,-0.3333214521408081,0.36879414319992065
18.8,-1.2448583841323853,0.5114662051200867,-0.15249522030353546,-0.23363421857357025,-0.10009651631116867,0.3673012852668762
18.825,-1.3537771701812744,0.23874203860759735,-0.5104632377624512,-0.31711262464523315,-0.2038540095090866,0.4296834468841553
18.85,-0.9553019404411316,-0.27159300446510315,-1.2005679607391357,-0.3432207703590393,-0.259645015001297,0.474875271320343
18.875,-0.41520488262176514,-0.9333572387695312,-2.236259937286377,-0.3281930088996887,-0.23029178380966187,0.4858838617801666
18.9,-0.06398874521255493,-1.2882108688354492,-2.252425193786621,-0.3736675977706909,-0.25760766863822937,0.6360286474227905
18.925,-0.2552953362464905,-1.2993507385253906,-1.682403326034546,-0.3994855284690857,-0.46007421612739563,0.7914424538612366
18.95,-0.8578484654426575,-1.1562480926513672,-1.3502447605133057,-0.24700139462947845,-0.4946090281009674,0.7475000619888306
18.975,-1.1994267702102661,-1.1570377349853516,-1.3226619958877563,-0.09515847265720367,-0.43165260553359985,0.6479671597480774
19.0,-1.173337459564209,-1.4127731323242188,-1.6143476963043213,-0.0774088054895401,-0.5557144284248352,0.6290598511695862
19.025,-1.126037359237671,-1.56843101978302,-1.671530842781067,-0.21544818580150604,-0.8304576873779297,0.7168392539024353
19.05,-1.1077425479888916,-1.3972711563110352,-1.2167034149169922,-0.4149591326713562,-1.1205490827560425,0.846058189868927
19.075,-1.3072350025177002,-1.0258731842041016,-0.7199797034263611,-0.45424628257751465,-0.9882791042327881,0.7319866418838501
19.1,-1.473556399345398,-1.0701932907104492,-0.14717766642570496,-0.31798842549324036,-0.705375075340271,0.48081648349761963
19.125,-0.9055432677268982,-1.5898057222366333,0.11571291834115982,-0.19962966442108154,-0.44102948904037476,0.326679527759552
19.15,-0.02362794429063797,-1.6623194217681885,0.4149518311023712,-0.15477488934993744,-0.15201182663440704,0.22900885343551636
19.175,0.5836233496665955,-0.8563243746757507,0.939215362071991,-0.13589854538440704,0.050905294716358185,0.22233647108078003
19.2,0.6125025749206543,0.7674713134765625,1.3819557428359985,-0.2779079079627991,-0.07422096282243729,0.5160260796546936
19.225,0.008160889148712158,3.153441905975342,1.508913516998291,-0.6166596412658691,-0.2724180221557617,0.9487471580505371
19.25,-0.3841247856616974,5.051293849945068,0.03800490126013756,-0.9091601371765137,0.02387731336057186,1.0068765878677368
19.275,-0.2266845703125,5.343728542327881,-2.8135757446289062,-0.8825841546058655,0.33090123534202576,0.8390156030654907
19.3,-0.1375575065612793,4.282420635223389,-4.795755863189697,-0.6044606566429138,0.12368857860565186,0.6692994832992554
19.325,-0.9300111532211304,2.9955391883850098,-4.246098518371582,-0.12787340581417084,-0.2925642430782318,0.5795067548751831
19.35,-2.8550121784210205,2.149916172027588,-2.195035934448242,0.4647531807422638,-0.5854016542434692,0.4639352858066559
19.375,-5.055233955383301,1.3880869150161743,-1.0528624057769775,0.8768146634101868,-0.28252357244491577,0.09830502420663834
19.4,-5.636452674865723,0.9513641595840454,-1.0412935018539429,0.9502310752868652,0.36895790696144104,-0.6397481560707092
19.425,-2.7069830894470215,1.4603456258773804,-1.5495635271072388,0.9317936897277832,0.8141429424285889,-1.3373361825942993
19.45,1.3525137901306152,1.8875601291656494,-2.9220709800720215,1.1000003814697266,1.1614640951156616,-1.5601500272750854
19.475,3.048041820526123,2.0785303115844727,-3.7245442867279053,1.5786346197128296,0.8823229074478149,-1.40973699092865
19.5,2.1728427410125732,2.512906074523926,-1.5261650085449219,2.021791934967041,-0.17090502381324768,-1.440946102142334
19.525,1.1544225215911865,2.06082820892334,2.4848926067352295,2.0187811851501465,-0.8389488458633423,-1.7239612340927124
19.55,0.8088194131851196,0.7597693204879761,5.255062580108643,1.767287015914917,-0.7556324601173401,-1.5823490619659424
19.575,0.48809313774108887,-0.7106097340583801,6.122739315032959,1.5234184265136719,-0.0645226463675499,-1.3128595352172852
19.6,0.40360069274902344,-2.0384292602539062,6.294938564300537,1.376286506652832,0.4902501106262207,-1.1593748331069946
19.625,1.0459682941436768,-3.258897066116333,6.368117809295654,1.2665293216705322,0.7290748357772827,-0.9644706845283508
19.65,2.0572118759155273,-4.492829322814941,6.034693717956543,1.2620019912719727,1.0445502996444702,-0.7280212044715881
19.675,2.9108967781066895,-5.732239246368408,5.113323211669922,1.3891677856445312,1.511647343635559,-0.5697300434112549
19.7,3.5052061080932617,-6.391242980957031,3.7538599967956543,1.4175610542297363,2.1252615451812744,-0.29475873708724976
19.725,3.696998357772827,-5.6765875816345215,1.629729986190796,1.2813749313354492,2.578056573867798,0.21581779420375824
19.75,2.66858172416687,-3.161146402359009,-0.9019655585289001,0.8747227787971497,2.487218141555786,0.8149110078811646
19.775,0.45951077342033386,0.3515816628932953,-2.646156072616577,0.47670236229896545,1.880016565322876,1.2275081872940063
19.8,-1.5006272792816162,3.1811139583587646,-3.3151888847351074,0.39850330352783203,1.646480917930603,1.3221176862716675
19.825,-2.3662662506103516,3.456181287765503,-2.913344144821167,0.5767073631286621,2.151524782180786,0.6841338276863098
19.85,-2.231663942337036,1.8071246147155762,-1.8440312147140503,0.5927475690841675,2.3751626014709473,-0.38859793543815613
19.875,-1.5402511358261108,0.678117036819458,-0.7940658330917358,0.17472848296165466,1.6756798028945923,-1.1197746992111206
19.9,-0.7144314646720886,-0.2044677585363388,0.6214936375617981,-0.6425516605377197,0.1487264484167099,-1.63170325756073
19.925,-0.33689945936203003,-2.187326192855835,2.4323291778564453,-1.4924674034118652,-1.4216558933258057,-2.165522336959839
