Time [s],Acc_x [m/s^2],Acc_y [m/s^2],Acc_z [m/s^2],Gyro_x [1/s],Gyro_y [1/s],Gyro_z [1/s]
0.0,-0.017306461930274963,0.07405281811952591,-0.001783636282198131,-0.0004442037607077509,0.00751596549525857,0.0007829199894331396
0.025,-0.016696475446224213,0.07712937146425247,0.008125404827296734,-0.0004478365008253604,0.0073641398921608925,0.0006940420134924352
0.05,-0.014015702530741692,0.0912628248333931,0.019926326349377632,-0.0006317622028291225,0.003845756873488426,-0.0012863000156357884
0.075,-0.005977306514978409,0.10403729975223541,0.006754911504685879,-0.002998805372044444,0.0023135219234973192,-0.00037680650711990893
0.1,3.283543628640473e-05,0.08989430218935013,-0.000563323381356895,-0.0027699528727680445,0.0036202557384967804,0.0001627740275580436
0.125,-0.016253462061285973,0.09122086316347122,-0.006691844202578068,-0.003292921930551529,0.006338667124509811,0.0004221872368361801
0.15,-0.020354442298412323,0.0949564129114151,-0.010378474369645119,-0.005464164540171623,0.009980480186641216,0.0005564700695686042
0.175,-0.0014988547191023827,0.08127976208925247,-0.03762896731495857,-0.005780717357993126,0.010792197659611702,-0.0010603615082800388
0.2,0.014404446817934513,0.0780181959271431,-0.06125529855489731,-0.005093833897262812,0.00855463556945324,-0.0016255149384960532
0.225,0.016325373202562332,0.08862114697694778,-0.01868405193090439,-0.0034736685920506716,0.007416194770485163,-0.0015534348785877228
0.25,0.0052291336469352245,0.09930135309696198,0.0050333342514932156,-0.002292504534125328,0.012208874337375164,0.0007345704361796379
0.275,-0.0072875479236245155,0.08440972119569778,-0.0006462398450821638,-0.0034856146667152643,0.014218452386558056,0.0012273022439330816
0.3,0.003907615318894386,0.07199764996767044,-0.015276997350156307,-0.0029968086164444685,0.015826839953660965,0.0013760789297521114
0.325,0.006749989930540323,0.06194020062685013,-0.01673966646194458,-0.0035723154433071613,0.014659784734249115,-0.0004866278904955834
0.35,0.0015736287459731102,0.0594644621014595,0.004014657344669104,-0.004680724814534187,0.009241119027137756,-0.0014416726771742105
0.375,-0.00795841682702303,0.0678567960858345,0.024229297414422035,-0.002782548312097788,0.008634822443127632,0.00033117542625404894
0.4,-0.01908356137573719,0.0793314054608345,0.02572312019765377,-0.0029828823171555996,0.010918247513473034,0.0009184045484289527
0.425,-0.018921565264463425,0.08588124066591263,0.007073721848428249,-0.003937765955924988,0.00995984673500061,0.0007542834500782192
0.45,-0.026023980230093002,0.09190083295106888,0.01395343616604805,-0.004112856462597847,0.009679920971393585,0.0006361373816616833
0.475,-0.026183880865573883,0.10511018335819244,0.015355631709098816,-0.004071477800607681,0.009702892042696476,-0.0009182968642562628
0.5,-0.01729634404182434,0.10942460596561432,-0.0009357058443129063,-0.005923745222389698,0.006602836772799492,0.001681978115811944
0.525,-0.01975291408598423,0.08968449383974075,-0.007403904106467962,-0.004594110883772373,0.008916317485272884,0.0027165242936462164
0.55,-0.01552692148834467,0.08411217480897903,-0.025324003770947456,-0.003289471846073866,0.010870176367461681,0.0030471845529973507
0.575,-2.7231406420469284e-05,0.10520555078983307,-0.018969539552927017,-0.00022551481379196048,0.009505360387265682,0.0031441054306924343
0.6,0.014700029045343399,0.11304379999637604,-0.006757567171007395,-0.0010447311215102673,0.009995534084737301,0.003131799167022109
0.625,0.011388779617846012,0.11072827875614166,-0.01564837247133255,0.000128905288875103,0.009386781603097916,0.003234830219298601
0.65,-0.004778575152158737,0.11414910852909088,-0.012485201470553875,-0.00044454843737185,0.011518542654812336,0.005140354856848717
0.675,-0.032168298959732056,0.11348535120487213,0.006594283506274223,-0.002776497043669224,0.015433931723237038,0.005703056696802378
0.7,-0.039660412818193436,0.10798551142215729,0.02561905048787594,-0.005033026449382305,0.02270619012415409,0.006298290565609932
0.725,-0.037600770592689514,0.11695672571659088,0.03403560444712639,-0.004504195414483547,0.01546345092356205,0.00558297848328948
0.75,-0.03582678362727165,0.1312570720911026,0.05198662355542183,-0.007524082437157631,0.011818446218967438,0.00497436011210084
0.775,-0.014757752418518066,0.1315622478723526,0.08715635538101196,-0.008324770256876945,0.011314522475004196,0.004935713484883308
0.8,-0.019211577251553535,0.1130991131067276,0.07686705142259598,-0.013266264460980892,0.010355144739151001,0.006360409781336784
0.825,-0.07062672078609467,0.09050370752811432,0.06612520664930344,-0.015938321128487587,0.020923366770148277,0.011052112095057964
0.85,-0.12571749091148376,0.07820512354373932,0.09658726304769516,-0.013064653612673283,0.028292302042245865,0.012650546617805958
0.875,-0.17704951763153076,0.08331873267889023,0.11000063270330429,-0.01717788726091385,0.017498143017292023,0.011418476700782776
0.9,-0.1795826554298401,0.1039305031299591,0.10345525294542313,-0.022100243717432022,0.0007661216077394783,0.01294935867190361
0.925,-0.13940897583961487,0.08125878870487213,0.08739352971315384,-0.0221746526658535,-0.018230440095067024,0.013490012846887112
0.95,-0.0829734057188034,0.058662429451942444,0.03784038498997688,-0.01735662668943405,-0.01985822431743145,0.015998948365449905
0.975,-0.0287100151181221,0.06875229626893997,-0.010273351334035397,-0.013511817902326584,-0.014021128416061401,0.0226884912699461
1.0,-0.06565152108669281,0.08394528925418854,-0.000669974775519222,-0.01355238351970911,-0.007389840669929981,0.02969173900783062
1.025,-0.14809514582157135,0.12180235981941223,0.012051563709974289,-0.008436331525444984,-0.008176004514098167,0.034523867070674896
1.05,-0.2278984934091568,0.1531257927417755,0.04738592356443405,-0.005978683941066265,-0.015778889879584312,0.0364261232316494
1.075,-0.25754132866859436,0.1685982048511505,0.15085221827030182,-0.01108806487172842,-0.017929796129465103,0.03784212842583656
1.1,-0.2583155333995819,0.16564753651618958,0.27451232075691223,-0.024272100999951363,-0.006290389224886894,0.03635062649846077
1.125,-0.26921090483665466,0.13630583882331848,0.3666561245918274,-0.03890008479356766,0.012891247868537903,0.033246513456106186
1.15,-0.3109177350997925,0.11452868580818176,0.4278656244277954,-0.05288377404212952,0.011249623261392117,0.03153708577156067
1.175,-0.3892155885696411,0.1264505684375763,0.43719932436943054,-0.06988291442394257,0.035358961671590805,0.034382227808237076
1.2,-0.44368669390678406,0.1401081532239914,0.36633288860321045,-0.08498534560203552,0.04940987378358841,0.038479503244161606
1.225,-0.40868568420410156,0.08395293354988098,0.30248787999153137,-0.09716211259365082,0.04001697525382042,0.041099175810813904
1.25,-0.3766859769821167,0.0802936851978302,0.3411354422569275,-0.09722422063350677,0.026684507727622986,0.046467993408441544
1.275,-0.4578925371170044,0.17243008315563202,0.4792206287384033,-0.11489961296319962,-0.015978125855326653,0.05711303651332855
1.3,-0.7547369003295898,0.29418855905532837,0.6226533055305481,-0.15303638577461243,-0.06931531429290771,0.05739955976605415
1.325,-1.2331953048706055,0.2997037172317505,0.7192946672439575,-0.2198437601327896,-0.09113334864377975,0.03999268263578415
1.35,-1.6204622983932495,0.2421513944864273,0.8980263471603394,-0.29515573382377625,-0.11539799720048904,0.004216325469315052
1.375,-1.6557464599609375,0.12029945105314255,1.2651628255844116,-0.4011737108230591,-0.1562425047159195,-0.055832043290138245
1.4,-1.5495820045471191,-0.001956863794475794,1.6520379781723022,-0.542008101940155,-0.2708446681499481,-0.14084604382514954
1.425,-1.6102328300476074,0.15126141905784607,1.7324638366699219,-0.7386234402656555,-0.3609110116958618,-0.2450266182422638
1.45,-1.5925521850585938,0.9456540942192078,1.5529121160507202,-0.9865837097167969,-0.370219886302948,-0.3865731954574585
1.475,-1.0664273500442505,2.2442657947540283,1.363598346710205,-1.1245402097702026,-0.5312771201133728,-0.5700913667678833
1.5,-0.15582509338855743,3.144984722137451,0.9263865947723389,-1.2148135900497437,-0.71111661195755,-0.7273833155632019
1.525,0.6011853814125061,3.3788886070251465,0.24644149839878082,-1.4013612270355225,-0.7018904089927673,-0.7897413372993469
1.55,0.7236466407775879,3.057804584503174,-0.6795879006385803,-1.6030455827713013,-0.989840030670166,-0.9225515127182007
1.575,1.2466484308242798,2.4606897830963135,-2.2984747886657715,-1.4694762229919434,-0.538602352142334,-1.2201099395751953
1.6,2.859952449798584,1.1620616912841797,-3.430542230606079,-1.229610800743103,-0.8114315867424011,-1.14769446849823
1.625,3.387662410736084,-0.412553071975708,-3.229438304901123,-1.3971924781799316,-1.038169026374817,-0.9663907289505005
1.65,2.4739761352539062,-1.3423607349395752,-2.9328339099884033,-1.2197962999343872,-0.5310950875282288,-1.023327112197876
1.675,1.7355220317840576,-2.3289973735809326,-2.7108101844787598,-0.8745362758636475,-0.13808466494083405,-1.2553516626358032
1.7,1.9730092287063599,-3.6446075439453125,-2.0559604167938232,-0.5391511917114258,0.12567929923534393,-1.291234016418457
1.725,2.6961350440979004,-4.443442344665527,-1.0411189794540405,-0.22158613801002502,0.12523046135902405,-0.9091546535491943
1.75,3.254373073577881,-4.058930397033691,-0.2621128559112549,0.016103968024253845,0.041978880763053894,-0.4173748791217804
1.775,3.2024946212768555,-2.5471811294555664,-0.023138035088777542,0.24515455961227417,0.4034792184829712,-0.34354665875434875
1.8,2.3011834621429443,-0.5087110996246338,-0.07482008635997772,0.452351838350296,1.058382511138916,-0.6604793667793274
1.825,0.7321605682373047,1.2571029663085938,0.07442090660333633,0.5232181549072266,1.57509446144104,-1.027681827545166
1.85,-0.3856379985809326,2.239929437637329,0.6990554928779602,0.34920546412467957,1.805722713470459,-1.194016933441162
1.875,-0.3323507010936737,2.208754777908325,1.0474425554275513,-0.01119077205657959,1.6714476346969604,-0.9134289026260376
1.9,0.719164252281189,1.2011756896972656,0.287040114402771,-0.30740290880203247,0.9224130511283875,-0.07855167984962463
1.925,2.2174551486968994,-0.2871047854423523,-0.8257570862770081,-0.7075358629226685,0.14253880083560944,0.8933159708976746
1.95,3.0792598724365234,-0.9879611730575562,-1.1347235441207886,-0.7146829962730408,-0.1366632580757141,1.4164518117904663
1.975,3.18731427192688,-0.8896163702011108,-0.9022804498672485,-0.4636880159378052,0.21722900867462158,1.301936149597168
2.0,3.2863540649414062,-0.34670478105545044,-0.6293228268623352,-0.18086650967597961,0.8480324745178223,1.0317305326461792
2.025,3.7337088584899902,0.47579455375671387,-0.5281571745872498,0.049812525510787964,1.201473593711853,1.1482144594192505
2.05,4.131346225738525,1.0083682537078857,-0.37263956665992737,-0.020311802625656128,1.2421222925186157,1.5107622146606445
2.075,3.8005480766296387,0.8967941403388977,0.16129715740680695,-0.22770476341247559,0.9003186821937561,1.8672648668289185
2.1,2.914088487625122,0.31996798515319824,0.4023153483867645,-0.14452984929084778,1.0602236986160278,1.6542607545852661
2.125,1.857025384902954,-0.5373489260673523,-0.35103094577789307,0.002273648977279663,1.3081320524215698,1.4342552423477173
2.15,0.4121538996696472,-1.0354892015457153,-1.2721467018127441,0.15612944960594177,1.6345280408859253,1.4679075479507446
2.175,-0.8322892785072327,-1.1234264373779297,-1.5631828308105469,0.26944446563720703,1.792280912399292,1.6145027875900269
2.2,-1.27437424659729,-0.8369064331054688,-1.239836573600769,0.5303709506988525,1.533803105354309,1.6820405721664429
2.225,-1.1672375202178955,-0.1594323217868805,-0.27673763036727905,1.0155434608459473,0.9554598331451416,1.6173685789108276
2.25,-0.9479213356971741,0.539704442024231,0.8561117053031921,1.4478888511657715,0.6032310724258423,1.437948226928711
2.275,-0.6988162994384766,0.7982627153396606,1.2604483366012573,1.5383719205856323,0.6299534440040588,1.1317734718322754
2.3,-0.3165982961654663,0.7312002778053284,1.0401870012283325,1.4364638328552246,0.37048229575157166,0.7904991507530212
2.325,0.6537261605262756,0.3971881568431854,1.1359498500823975,1.3067896366119385,-0.15315790474414825,0.3736836910247803
2.35,1.9722803831100464,-0.016712386161088943,0.9651711583137512,1.1689391136169434,-0.2830103039741516,-0.05028676614165306
2.375,2.392502546310425,0.14653854072093964,0.20610441267490387,1.0587025880813599,-0.2958155870437622,-0.4072667062282562
2.4,1.0349712371826172,1.6200658082962036,0.5089327692985535,0.7937598824501038,0.5997164249420166,-0.9286590218544006
2.425,-1.3007795810699463,3.5531468391418457,2.140207290649414,0.596703827381134,1.2009835243225098,-1.1448167562484741
2.45,-2.5446720123291016,4.0269856452941895,3.3989510536193848,0.20742808282375336,0.45649954676628113,-1.1208925247192383
2.475,-1.4614137411117554,3.3144917488098145,2.2645390033721924,-0.06858670711517334,-0.14196456968784332,-1.1552985906600952
2.5,-0.08121974766254425,1.3370734453201294,-0.49094080924987793,-0.3496149480342865,0.08417639881372452,-1.0469560623168945
2.525,-0.4063538908958435,-1.2185983657836914,-1.6257848739624023,-0.5466556549072266,0.7822968363761902,-1.0831841230392456
2.55,-3.3976171016693115,-2.9317922592163086,-1.00398850440979,-0.310119092464447,1.1429647207260132,-1.2086910009384155
2.575,-6.604473114013672,-2.7881429195404053,-0.4197584390640259,0.05403068661689758,1.2406789064407349,-1.0338021516799927
2.6,-7.27738618850708,-1.42399263381958,-0.19603218138217926,0.12768517434597015,0.7843729853630066,-0.7757121324539185
2.625,-5.322720527648926,0.7976213097572327,-0.01089863758534193,0.007645592093467712,0.24948999285697937,-0.7104701995849609
2.65,-2.071503162384033,2.1991238594055176,0.8458344340324402,0.07990453392267227,-0.43239378929138184,-0.5545903444290161
2.675,0.2229205071926117,0.3243207633495331,1.0163427591323853,0.033771827816963196,-0.7047988176345825,-0.5445416569709778
2.7,0.2073340117931366,-1.1403447389602661,-0.40200766921043396,0.03604471683502197,-0.14018329977989197,-0.7457131743431091
2.725,-1.2975406646728516,-0.49246400594711304,-0.5997853875160217,0.04392203688621521,0.7197545170783997,-0.5263636708259583
2.75,-2.3929450511932373,0.09907551109790802,0.7100692987442017,0.03964337706565857,0.9301484823226929,-0.356229305267334
2.775,-2.973613739013672,-0.1578567624092102,1.5808842182159424,-0.03614885360002518,0.44873571395874023,-0.29483115673065186
2.8,-2.7765324115753174,-0.21317371726036072,1.6594775915145874,-0.01715981215238571,-0.09178469330072403,-0.2739854156970978
2.825,-1.754075288772583,0.14819729328155518,1.4412575960159302,-0.16270342469215393,-0.6425906419754028,-0.2957478165626526
2.85,-0.8537845611572266,0.2881088852882385,1.198112964630127,-0.30042120814323425,-0.8269168734550476,-0.32983458042144775
2.875,-0.5946785807609558,0.03298381343483925,0.6396225094795227,-0.34557539224624634,-0.6327638030052185,-0.32406771183013916
2.9,-0.8076072335243225,-0.3781089782714844,0.12727117538452148,-0.39299476146698,-0.44276803731918335,-0.23146644234657288
2.925,-1.1152100563049316,-0.429566353559494,-0.3432222306728363,-0.3143545389175415,-0.18560856580734253,-0.13412164151668549
2.95,-1.0947185754776,0.16539013385772705,-0.3640570044517517,-0.14993895590305328,-0.1284123659133911,-0.11571989953517914
2.975,-1.1140034198760986,0.7011415362358093,-0.22600328922271729,-0.01497027650475502,-0.3635081648826599,-0.13548441231250763
3.0,-1.2432234287261963,0.5043613314628601,-0.21350722014904022,-0.1137300431728363,-0.6553125381469727,-0.13645333051681519
3.025,-1.2970753908157349,0.12203419953584671,-0.16903866827487946,-0.20909743010997772,-0.8459173440933228,-0.05447228252887726
3.05,-1.331536054611206,0.1401740461587906,-0.024698393419384956,-0.19064170122146606,-0.9125919938087463,-0.06169184297323227
3.075,-1.5100123882293701,0.181984081864357,0.17553408443927765,-0.17493276298046112,-0.8320586085319519,-0.12170262634754181
3.1,-1.5614805221557617,0.1707393079996109,0.264764666557312,-0.14341282844543457,-0.877461314201355,-0.13386785984039307
3.125,-1.3874404430389404,0.12171757966279984,0.15551255643367767,-0.15361849963665009,-1.0233010053634644,-0.09098254889249802
3.15,-1.2462894916534424,-0.17484943568706512,0.2750539183616638,-0.1619798094034195,-1.1480262279510498,-0.05856790393590927
3.175,-1.1669199466705322,-0.16814225912094116,0.8012845516204834,-0.10657340288162231,-0.9162572026252747,-0.17522087693214417
3.2,-0.6617134213447571,0.27903372049331665,0.8222136497497559,-0.2167963832616806,-1.0687881708145142,-0.17349639534950256
3.225,0.36827731132507324,0.39617636799812317,0.30977940559387207,-0.3647409975528717,-1.3650609254837036,0.0200035460293293
3.25,0.9701891541481018,0.1275586485862732,-0.011793483048677444,-0.45758509635925293,-1.3946822881698608,0.1885349303483963
3.275,0.01476392149925232,0.2663288414478302,-0.4115189015865326,-0.4003523588180542,-0.959847629070282,0.2269810438156128
3.3,-1.5618045330047607,0.778583824634552,-0.8094034194946289,-0.3083893656730652,-0.4125862121582031,0.22373922169208527
3.325,-2.494260549545288,1.0419658422470093,-1.3255271911621094,-0.3765628933906555,-0.4717058539390564,0.26805612444877625
3.35,-2.4107589721679688,1.0741056203842163,-1.746023178100586,-0.48688560724258423,-0.8748897910118103,0.3742576241493225
3.375,-1.8438665866851807,1.0841115713119507,-1.7936478853225708,-0.5716629028320312,-1.1815203428268433,0.38941842317581177
3.4,-1.3363144397735596,0.8940041661262512,-1.5952574014663696,-0.511189341545105,-1.0695621967315674,0.2933270335197449
3.425,-1.5200368165969849,0.6702826023101807,-1.651056170463562,-0.432342529296875,-0.9503037333488464,0.34021061658859253
3.45,-2.4096364974975586,0.4791501760482788,-2.624727249145508,-0.3523552715778351,-0.5922410488128662,0.37404683232307434
3.475,-2.6846072673797607,0.5245898962020874,-3.2268385887145996,-0.24149052798748016,-0.5286673307418823,0.4813857972621918
3.5,-2.691709518432617,0.718204915523529,-3.249450445175171,-0.11102409660816193,-0.7677150964736938,0.6770328879356384
3.525,-2.5891690254211426,0.6163448095321655,-3.1688315868377686,0.04957270622253418,-1.0275558233261108,0.7592520713806152
3.55,-2.237215042114258,0.44362673163414,-2.8750672340393066,0.28767111897468567,-1.2875908613204956,0.8216615915298462
3.575,-1.602692723274231,0.6923878192901611,-1.7916196584701538,0.3995799124240875,-1.6023553609848022,1.0267037153244019
3.6,-1.3010326623916626,1.1839821338653564,-0.2381346970796585,0.29148486256599426,-1.9031771421432495,1.2557252645492554
3.625,-1.630201816558838,1.220109224319458,0.6638283133506775,0.11436742544174194,-2.0795133113861084,1.4162853956222534
3.65,-1.515762209892273,0.4840213358402252,0.728797435760498,0.05809497833251953,-2.2806777954101562,1.4715056419372559
3.675,-0.9010269641876221,-0.31246182322502136,0.7566344738006592,-0.0070955753326416016,-2.343937873840332,1.4034435749053955
3.7,-1.7123111486434937,-1.0385932922363281,0.20733508467674255,-0.27713268995285034,-1.7927141189575195,1.121487021446228
3.725,-3.9442191123962402,-1.5184763669967651,-0.5720504522323608,-0.3708088994026184,-1.4253820180892944,0.6380139589309692
3.75,-5.384459495544434,-1.4964499473571777,-2.7637064456939697,-0.24171793460845947,-1.9749400615692139,0.1116243526339531
3.775,-2.4872004985809326,-0.6683890223503113,-5.230865001678467,0.11329494416713715,-3.1746633052825928,-0.2820521295070648
3.8,3.215106248855591,1.3878355026245117,-3.6216931343078613,0.6246137619018555,-4.093887805938721,-0.3666120767593384
3.825,5.033390522003174,2.5382258892059326,0.6261898279190063,0.645145833492279,-4.070817947387695,-0.8509445786476135
3.85,3.0435659885406494,2.3097620010375977,2.8042867183685303,0.5206387042999268,-3.4680979251861572,-1.2937757968902588
3.875,1.8671212196350098,1.780076026916504,2.152531147003174,0.6208252906799316,-2.9931368827819824,-1.6608302593231201
3.9,1.9902671575546265,1.3660392761230469,0.14960896968841553,0.9346972107887268,-2.302342653274536,-1.857295274734497
3.925,2.508702278137207,1.6131974458694458,-2.021597146987915,1.2580640316009521,-1.7940735816955566,-1.6959197521209717
3.95,3.79205322265625,2.057559013366699,-2.6638712882995605,1.3461384773254395,-2.2576510906219482,-1.487093210220337
3.975,5.174489974975586,1.758147120475769,-1.311480164527893,1.1561450958251953,-3.046982765197754,-1.3511244058609009
4.0,5.725276470184326,1.020506501197815,0.11801943182945251,0.8468248844146729,-3.5826363563537598,-1.3677191734313965
4.025,5.984828948974609,0.16272114217281342,0.15736009180545807,0.6461809873580933,-3.798025131225586,-1.5464181900024414
4.05,5.741107940673828,-0.6616654992103577,0.1772868037223816,0.40660151839256287,-4.180471897125244,-1.7158492803573608
4.075,4.16944694519043,-0.9886279702186584,1.6459078788757324,0.09978049993515015,-4.325912952423096,-1.6530224084854126
4.1,1.523463487625122,-0.6715500950813293,4.027337074279785,-0.0024479329586029053,-3.6961379051208496,-1.2447701692581177
4.125,0.1748495101928711,-0.7600367665290833,5.324812889099121,0.12019187211990356,-2.8542394638061523,-1.0002515316009521
4.15,1.336962103843689,-1.823836326599121,4.762973785400391,0.315060019493103,-2.471855878829956,-1.086991310119629
4.175,3.0904393196105957,-2.864243745803833,4.068570137023926,0.42737677693367004,-2.1890106201171875,-0.923080563545227
4.2,3.7175843715667725,-3.024385452270508,3.562072992324829,0.5042293667793274,-1.7031757831573486,-0.5252770185470581
4.225,2.881714344024658,-2.204206943511963,2.6687653064727783,0.5729228854179382,-1.0160002708435059,-0.07942160964012146
4.25,1.8025749921798706,-1.3687843084335327,1.8584250211715698,0.4861205518245697,-0.5635428428649902,0.23341023921966553
4.275,1.1605433225631714,-1.0281689167022705,1.5771878957748413,0.37916791439056396,-0.27576911449432373,0.5519137382507324
4.3,0.7630360722541809,-0.6856481432914734,1.671859622001648,0.31077876687049866,0.20568540692329407,1.0241062641143799
4.325,0.41824406385421753,0.06698885560035706,1.8940038681030273,0.15804553031921387,0.7061659693717957,1.4875527620315552
4.35,-0.05888324975967407,1.1852771043777466,1.5572113990783691,0.01587429642677307,0.9630876183509827,1.468002438545227
4.375,-1.0948209762573242,2.1116697788238525,0.5869288444519043,-0.05060321092605591,0.9789783954620361,1.08371102809906
4.4,-1.389135479927063,1.7218602895736694,-0.29722607135772705,-0.023937329649925232,0.8548758625984192,0.5373502373695374
4.425,-0.2788027226924896,0.13067729771137238,-1.020593285560608,-0.011879712343215942,0.5185890793800354,0.1309526115655899
4.45,0.5380774736404419,-1.0029031038284302,-1.684577226638794,-0.175781711935997,0.3520289361476898,0.13344179093837738
4.475,-0.129020094871521,-0.595393180847168,-2.120168685913086,-0.3845827877521515,0.5564107298851013,0.5366178750991821
4.5,-0.8113253116607666,0.39979860186576843,-2.344038963317871,-0.2925277054309845,0.8759551048278809,0.8358532786369324
4.525,-0.4634585380554199,0.8536980152130127,-2.508246421813965,-0.1260950118303299,0.8585475087165833,1.0547035932540894
4.55,-0.13403820991516113,0.8891746997833252,-2.4955649375915527,-0.2156461924314499,0.4416138529777527,1.0033118724822998
4.575,-0.8091766834259033,1.014960527420044,-1.788542628288269,-0.39652180671691895,0.05470504239201546,0.9022481441497803
4.6,-1.7269554138183594,1.0945885181427002,-0.9610757827758789,-0.4950130581855774,-0.059919871389865875,0.6959835886955261
4.625,-1.66121244430542,1.0009777545928955,-1.098009467124939,-0.5613099336624146,-0.4016941487789154,0.5258530974388123
4.65,-0.8503785729408264,0.6487371325492859,-1.8784677982330322,-0.5681479573249817,-0.7645720839500427,0.41113150119781494
4.675,-0.5878486037254333,-0.05608547851443291,-2.079213857650757,-0.5017958283424377,-1.1083093881607056,0.21515323221683502
4.7,-0.6057076454162598,-0.7186850905418396,-1.360378384590149,-0.36639338731765747,-1.175708293914795,0.050077952444553375
4.725,-0.8710455298423767,-1.0369586944580078,-0.4894982576370239,-0.19753378629684448,-1.0958032608032227,0.08769483119249344
4.75,-1.573259949684143,-1.2267255783081055,-0.2505798935890198,-0.06194763630628586,-1.1038950681686401,0.041365910321474075
4.775,-2.065535545349121,-1.0725687742233276,-0.818993866443634,-0.0861506462097168,-1.145911693572998,0.09758865833282471
4.8,-1.9741573333740234,-0.11607053875923157,-1.7244654893875122,-0.22190405428409576,-1.3756840229034424,0.1481599658727646
4.825,-0.730873703956604,1.8181251287460327,-2.3856279850006104,-0.12610310316085815,-1.3112523555755615,0.15686169266700745
4.85,1.4718269109725952,3.467440128326416,-2.7034595012664795,0.022953152656555176,-0.9352294206619263,0.1221003606915474
4.875,2.7354493141174316,2.546506881713867,-1.6846225261688232,-0.08006581664085388,-1.3080008029937744,0.12839777767658234
4.9,1.0432846546173096,-0.06906046718358994,1.4443330764770508,-0.2620028555393219,-1.7557300329208374,-0.050076957792043686
4.925,-2.355299949645996,-1.8234355449676514,4.415007591247559,-0.23897585272789001,-1.040564775466919,-0.2525779902935028
4.95,-3.055661201477051,-0.9295186996459961,4.789420127868652,-0.36452674865722656,-0.6064151525497437,-0.296296089887619
4.975,0.10487699508666992,0.9741716384887695,3.1568825244903564,-0.9233596324920654,-0.5001174211502075,0.09524853527545929
5.0,2.942061185836792,0.787278950214386,1.6634093523025513,-0.8996224403381348,0.012296904809772968,0.38426193594932556
5.025,2.5087478160858154,0.489179402589798,1.4583781957626343,-0.5534670352935791,0.26842835545539856,0.6498586535453796
5.05,0.7522210478782654,1.2813739776611328,1.8832367658615112,-0.3202342391014099,-0.016926458105444908,0.4549280107021332
5.075,0.25421375036239624,1.6361056566238403,1.7668548822402954,-0.07427605986595154,-0.20296862721443176,-0.03895231708884239
5.1,0.6192337274551392,0.8348760604858398,1.4779688119888306,0.1560656577348709,-0.12487658113241196,-0.26967114210128784
5.125,0.8499560356140137,-0.158180370926857,1.3389577865600586,0.1937924176454544,0.25095728039741516,-0.22515623271465302
5.15,1.5665419101715088,-0.7400648593902588,1.4746118783950806,0.1795995831489563,0.20519661903381348,-0.21242134273052216
5.175,1.9936596155166626,-0.4478819668292999,1.6760872602462769,0.1074153482913971,0.12450600415468216,-0.05454117804765701
5.2,0.6575429439544678,0.016675829887390137,2.0651907920837402,0.1589963138103485,-0.011235515587031841,-0.03589886426925659
5.225,-1.0892287492752075,-0.2791014015674591,2.638002872467041,0.26363277435302734,0.103425532579422,-0.1260988861322403
5.25,-1.6830012798309326,-0.7151432037353516,2.692045211791992,0.20728115737438202,0.5225798487663269,-0.048812512308359146
5.275,-0.9791332483291626,-0.37316226959228516,1.8252252340316772,0.023970670998096466,1.0980066061019897,0.15935580432415009
5.3,-0.2005944401025772,0.16646768152713776,0.410362184047699,-0.10626338422298431,1.4857016801834106,0.2514602541923523
5.325,0.01616889238357544,0.3926449716091156,-0.607158362865448,-0.1454712301492691,1.5187221765518188,0.23107673227787018
5.35,-0.17051191627979279,0.1899128556251526,-0.6208075881004333,-0.09241819381713867,1.5725330114364624,0.15423014760017395
5.375,-0.3601025640964508,-0.21416759490966797,-0.15581652522087097,-0.036978743970394135,1.7382546663284302,0.0510307215154171
5.4,-0.06774362921714783,0.012653369456529617,-0.35303157567977905,-0.05172567069530487,1.8836835622787476,0.06673900783061981
5.425,0.35172051191329956,1.2151700258255005,-1.2403732538223267,-0.09630849212408066,2.1308069229125977,0.1760445237159729
5.45,0.1719486117362976,1.814483880996704,-2.188154458999634,-0.15432116389274597,2.0745224952697754,0.14074134826660156
5.475,-0.3851280212402344,1.1005260944366455,-3.0208940505981445,-0.31625938415527344,1.8920955657958984,0.1105843186378479
5.5,-0.9754624366760254,0.7125446796417236,-3.6370744705200195,-0.34777045249938965,1.7903780937194824,0.07398902624845505
5.525,-1.458536982536316,0.8280166387557983,-3.6986167430877686,-0.30100417137145996,1.764180064201355,-0.11347521841526031
5.55,-1.6055198907852173,0.27823761105537415,-2.8686490058898926,-0.29972168803215027,1.7999039888381958,-0.3015439212322235
5.575,-1.1669293642044067,-0.33525073528289795,-1.589019536972046,-0.23455215990543365,2.010486364364624,-0.3479459285736084
5.6,-0.3984766900539398,0.38589489459991455,-0.904435396194458,-0.12179140001535416,2.416012763977051,-0.14498883485794067
5.625,-0.12902742624282837,1.5662109851837158,-0.8251444101333618,-0.10222658514976501,2.149266481399536,0.0942932516336441
5.65,-0.20720969140529633,1.5151703357696533,-0.8016424179077148,-0.2955029010772705,1.63008713722229,0.0267845056951046
5.675,-0.3071630597114563,0.929024875164032,-0.3780374526977539,-0.3160843253135681,0.9740268588066101,-0.07769570499658585
5.7,-0.5942598581314087,0.5481310486793518,1.0038950443267822,-0.19877716898918152,0.5046431422233582,-0.24460528790950775
5.725,-0.44133299589157104,0.04075521230697632,3.08091402053833,-0.08085652440786362,0.6638367176055908,-0.35999420285224915
5.75,0.639493465423584,-0.5504639148712158,4.4269938468933105,-0.0006707906723022461,1.4495766162872314,-0.3534092307090759
5.775,1.6928037405014038,-0.8793767690658569,3.8740432262420654,0.05499030649662018,2.19844651222229,-0.2931705415248871
5.8,1.822972059249878,-0.8306267857551575,1.5236576795578003,0.21137508749961853,2.92328143119812,-0.23669643700122833
5.825,0.7753052711486816,-0.8449298143386841,-1.3802136182785034,0.3722042143344879,3.0655863285064697,-0.28556787967681885
5.85,-0.9766680002212524,-1.0683478116989136,-3.530729055404663,0.42935454845428467,2.6932976245880127,-0.29338258504867554
5.875,-2.350827932357788,-0.9672353863716125,-3.8410210609436035,0.46877652406692505,2.1443285942077637,-0.2796397805213928
5.9,-2.761180877685547,-0.2682149112224579,-2.1252946853637695,0.4693928360939026,1.280914545059204,-0.39312511682510376
5.925,-2.441845178604126,0.3274862468242645,0.8604253530502319,0.30492332577705383,0.3675602972507477,-0.6407507061958313
5.95,-1.9520479440689087,0.19900521636009216,3.2628369331359863,-0.05280590057373047,-0.24319523572921753,-0.966778039932251
5.975,-1.5327067375183105,-0.21279624104499817,3.9695885181427,-0.4028705358505249,0.007847354747354984,-1.2681398391723633
6.0,-1.1152806282043457,-0.3392544090747833,3.2993125915527344,-0.5035235285758972,0.9653497934341431,-1.5381748676300049
6.025,-0.6309077739715576,-0.14675046503543854,1.749221682548523,-0.36752161383628845,1.6735031604766846,-1.6100751161575317
6.05,-0.06385529041290283,0.03782178834080696,-0.25529584288597107,-0.19432756304740906,1.6143263578414917,-1.3578364849090576
6.075,0.740397036075592,-0.2604399025440216,-1.770272970199585,-0.2653394937515259,1.2038965225219727,-1.3014148473739624
6.1,1.22417414188385,-0.48054608702659607,-1.803463339805603,-0.5360453128814697,0.49531903862953186,-1.2763593196868896
6.125,1.227484107017517,-0.1402474194765091,-1.3810570240020752,-0.6286622285842896,0.21147608757019043,-0.9971003532409668
6.15,0.8020291924476624,0.35175609588623047,-1.2990574836730957,-0.6157931685447693,0.16274982690811157,-0.6631751656532288
6.175,-0.06487324833869934,0.5820361375808716,-1.2656950950622559,-0.5761704444885254,0.07316265255212784,-0.47479021549224854
6.2,-0.7800041437149048,0.650605320930481,-0.466461718082428,-0.45634394884109497,-0.08590072393417358,-0.2553112506866455
6.225,-0.9186985492706299,0.8372852206230164,0.7393280863761902,-0.009200029075145721,0.1345914900302887,0.05074210837483406
6.25,-0.6901071667671204,1.360249638557434,0.9295927286148071,0.5928223133087158,0.7700164914131165,0.2780658006668091
6.275,-0.663759708404541,1.8999159336090088,0.09733884781599045,0.652174174785614,1.0528960227966309,0.31683701276779175
6.3,-1.268248438835144,1.7883609533309937,-0.23187889158725739,0.2561613619327545,0.8446053266525269,0.16861592233181
6.325,-1.9764376878738403,0.6332199573516846,0.10255491733551025,0.06407753378152847,0.36204424500465393,0.12824024260044098
6.35,-1.8927353620529175,-0.6501569151878357,0.4465358853340149,0.23336613178253174,0.26869332790374756,0.1985776722431183
6.375,-1.6244794130325317,-1.6654921770095825,0.9243863821029663,0.4802192151546478,0.37540537118911743,0.24945200979709625
6.4,-1.5320560932159424,-1.687292218208313,1.7743102312088013,0.5567251443862915,0.31407198309898376,0.42465636134147644
6.425,-1.1695098876953125,-0.7203722596168518,2.533513069152832,0.7677572965621948,0.3559969365596771,0.6726689338684082
6.45,-0.947551429271698,0.20711995661258698,3.061143159866333,0.849564790725708,0.3513331413269043,0.7071065902709961
6.475,-1.7053427696228027,1.9766895771026611,2.902094602584839,0.6509296298027039,0.4498593509197235,0.6605092883110046
6.5,-2.538393259048462,5.499918460845947,1.6145719289779663,0.3028630316257477,0.3227159082889557,0.610618531703949
6.525,-2.5460941791534424,7.024938583374023,0.4205814301967621,-0.19439871609210968,-0.16609369218349457,0.44999074935913086
6.55,-0.33144426345825195,2.546032190322876,0.7269054055213928,-0.558989405632019,-0.019767578691244125,-0.08562540262937546
6.575,3.6354033946990967,-3.425567388534546,1.448076844215393,-0.17900171875953674,0.4706859290599823,-0.19191540777683258
6.6,4.275050640106201,-4.925272464752197,0.6444687247276306,-0.06445688009262085,0.6658083200454712,0.23498305678367615
6.625,2.1156742572784424,-3.0635507106781006,-1.431429386138916,0.112444207072258,1.1886765956878662,0.4602208137512207
6.65,0.7272146940231323,-0.4771757423877716,-3.1737897396087646,0.1822168081998825,0.9695126414299011,0.7119088172912598
6.675,1.0485141277313232,1.4090033769607544,-3.1974401473999023,0.29377812147140503,0.23082959651947021,0.9410736560821533
6.7,1.9979116916656494,1.3085241317749023,-1.416500449180603,0.3181127607822418,0.005643333308398724,0.6134381294250488
6.725,2.901977062225342,-0.4276631772518158,0.35144540667533875,0.33936697244644165,0.5186482667922974,0.07868462800979614
6.75,3.4014246463775635,-1.6579500436782837,1.1600185632705688,0.5217541456222534,1.3591035604476929,-0.09986120462417603
6.775,3.065185785293579,-1.1216825246810913,0.9814891219139099,0.7142958641052246,1.8096444606781006,0.10424076020717621
6.8,1.8292604684829712,0.441216379404068,0.34683698415756226,0.7938745617866516,1.9187899827957153,0.2768308222293854
6.825,0.20674124360084534,1.768174409866333,-0.492648184299469,0.6779000759124756,1.9452060461044312,0.21786749362945557
6.85,-0.8607760667800903,1.8501056432724,-1.1167162656784058,0.27741625905036926,1.5838700532913208,-0.027808777987957
6.875,-0.6545583605766296,0.6711293458938599,-0.8402153253555298,-0.027076706290245056,1.2703917026519775,-0.32296285033226013
6.9,0.8111311793327332,-0.9786426424980164,-0.10787078738212585,-0.13222742080688477,1.32986319065094,-0.5165514349937439
6.925,1.9774949550628662,-2.1586079597473145,0.007003233768045902,-0.09980203211307526,1.518890619277954,-0.4772392809391022
6.95,1.7974056005477905,-1.9784468412399292,-0.7229107618331909,0.12280628085136414,1.849660038948059,-0.29066401720046997
6.975,0.7046002745628357,-0.37392809987068176,-1.3763433694839478,0.4621275067329407,2.0538909435272217,-0.16078822314739227
7.0,-0.38815367221832275,1.316335916519165,-1.3346118927001953,0.6351249814033508,2.1347949504852295,-0.14746680855751038
7.025,-0.6278536319732666,1.445497751235962,-0.9459751844406128,0.6140192151069641,2.321850538253784,-0.1869223415851593
7.05,0.24040362238883972,0.11787988245487213,-0.5972564816474915,0.5560885071754456,2.4429023265838623,-0.28179803490638733
7.075,1.0260807275772095,-0.48892128467559814,-0.6959068179130554,0.675338089466095,2.5082144737243652,-0.2807590365409851
7.1,0.5074228048324585,0.8662863969802856,-1.2226853370666504,0.9160412549972534,2.4915900230407715,-0.01792795956134796
7.125,-0.36766132712364197,2.2831461429595947,-1.4334924221038818,1.206084132194519,2.258603572845459,0.31349238753318787
7.15,-0.15990649163722992,2.214561700820923,-0.7640058994293213,1.3341411352157593,2.083721876144409,0.423602819442749
7.175,1.0634511709213257,1.514975666999817,0.5416107773780823,1.3118789196014404,1.8152387142181396,0.3162459433078766
7.2,2.151764154434204,0.8454035520553589,1.513666033744812,1.3998740911483765,1.819296956062317,0.24343372881412506
7.225,2.6948189735412598,0.08425970375537872,1.9773719310760498,1.4459285736083984,2.111605405807495,0.1999882608652115
7.25,2.5721278190612793,-0.9570841193199158,1.9459668397903442,1.2773123979568481,2.5131301879882812,0.2359902411699295
7.275,0.9628401398658752,-2.045769214630127,1.5294077396392822,1.1160794496536255,3.002197265625,0.33549216389656067
7.3,-0.8115551471710205,-2.8602993488311768,1.2816879749298096,1.0502686500549316,3.241034984588623,0.25959452986717224
7.325,-1.392763376235962,-3.3187923431396484,1.3693499565124512,0.9745233654975891,3.0482702255249023,0.14792850613594055
7.35,-0.8793494701385498,-3.2422542572021484,1.3974148035049438,0.9972386956214905,2.622305154800415,0.08001463860273361
7.375,0.5845213532447815,-2.1791117191314697,1.3725669384002686,1.1844853162765503,2.292786121368408,-0.1570557951927185
7.4,2.3017311096191406,-0.4484122693538666,2.259617805480957,1.2266649007797241,2.031189441680908,-0.41109710931777954
7.425,3.172855854034424,2.0506274700164795,3.854471445083618,1.2298988103866577,2.0667831897735596,-0.510972797870636
7.45,2.518131732940674,4.108880996704102,5.235350131988525,1.0804848670959473,2.3015530109405518,-0.47492918372154236
7.475,1.763330340385437,3.410627603530884,5.874002933502197,0.29564565420150757,2.0521883964538574,-0.02402365393936634
7.5,2.4780166149139404,3.306835174560547,5.437676429748535,-0.4961598515510559,1.598846673965454,0.3358895480632782
7.525,3.7524404525756836,4.685250282287598,2.9673452377319336,-1.3351243734359741,0.8083391189575195,0.8871622085571289
7.55,3.978510618209839,5.440347671508789,-0.7558975219726562,-1.925884485244751,-0.16997699439525604,1.7220007181167603
7.575,3.0765953063964844,4.860305309295654,-3.4892659187316895,-1.630672574043274,0.04359915480017662,2.3518059253692627
7.6,1.701560378074646,3.850578784942627,-4.131316661834717,-1.1760072708129883,0.750403881072998,2.55035138130188
7.625,0.04274684190750122,2.9618828296661377,-2.705873489379883,-0.9118252396583557,1.4247435331344604,2.446108818054199
7.65,-1.7617439031600952,2.6207337379455566,-0.64251708984375,-0.8362944722175598,2.0388827323913574,2.114755392074585
7.675,-3.47198748588562,2.2640833854675293,0.5318590998649597,-0.9533438682556152,1.9933362007141113,1.9074610471725464
7.7,-4.680370330810547,1.0099987983703613,0.6571997404098511,-1.2302664518356323,1.0735061168670654,1.72315514087677
7.725,-5.02057409286499,-0.48168912529945374,0.5235715508460999,-1.340120553970337,0.09837574511766434,1.584789514541626
7.75,-4.399704456329346,-2.006608247756958,0.2895764708518982,-1.2305796146392822,-0.7954987287521362,1.7288178205490112
7.775,-3.471498727798462,-3.4188897609710693,0.3338938355445862,-0.9240423440933228,-1.5157430171966553,1.9515082836151123
7.8,-2.538222074508667,-4.444445610046387,0.7471894025802612,-0.5842590928077698,-1.651800513267517,1.9916976690292358
7.825,-1.0446372032165527,-4.7443976402282715,0.7284499406814575,-0.39412254095077515,-1.3110073804855347,1.8191702365875244
7.85,0.901740550994873,-4.037116527557373,-0.020151827484369278,-0.29328101873397827,-0.9348413944244385,1.5047223567962646
7.875,1.7525641918182373,-2.8226113319396973,-0.4711974859237671,-0.14903488755226135,-0.917650580406189,1.1508514881134033
7.9,0.7707042694091797,-2.2160356044769287,0.4692210555076599,-0.28105220198631287,-0.8876189589500427,0.9317680597305298
7.925,-0.6857348680496216,-2.47930645942688,1.770385503768921,-0.7441428899765015,-0.8304174542427063,0.7574992775917053
7.95,-0.9595078229904175,-2.8085291385650635,1.2419474124908447,-0.923285722732544,-0.8431512117385864,0.4132915139198303
7.975,0.23205254971981049,-2.6929728984832764,-1.309241771697998,-0.6490553617477417,-0.6522234678268433,0.051699504256248474
8.0,1.0913540124893188,-2.4686439037323,-3.850393772125244,-0.23169666528701782,-0.3615110516548157,0.06456196308135986
8.025,-0.6136652231216431,-1.99644136428833,-4.411775588989258,0.2541653513908386,-0.11920523643493652,-0.10175447911024094
8.05,-2.625330924987793,0.3755468428134918,-3.4898362159729004,0.45485061407089233,0.9756766557693481,-1.77034330368042
8.075,-2.1804299354553223,4.348282814025879,-2.9805898666381836,0.019880831241607666,2.351689338684082,-2.729210138320923
8.1,-2.56727933883667,6.476547718048096,-3.077075719833374,0.014687001705169678,2.8450565338134766,-2.8384437561035156
8.125,-2.162848949432373,3.6534955501556396,-2.9269421100616455,0.6011976003646851,2.567275047302246,-2.5911717414855957
8.15,-1.4089542627334595,-0.5033015012741089,-2.5078697204589844,0.7299436330795288,1.3959007263183594,-1.4548076391220093
8.175,-2.295621871948242,-0.31261804699897766,-1.040926456451416,0.8305675983428955,0.6645071506500244,-1.1942476034164429
8.2,-2.671562433242798,1.9002708196640015,1.4498237371444702,0.9405907392501831,1.1984646320343018,-1.3307503461837769
8.225,-1.6839505434036255,2.0776960849761963,3.221625804901123,0.837867021560669,1.8318239450454712,-1.3598442077636719
8.25,-0.9520033597946167,0.8409615159034729,3.8376095294952393,0.5402910709381104,2.162578582763672,-1.4244239330291748
8.275,0.32692790031433105,0.3401287794113159,3.473968505859375,0.5308905839920044,1.704581379890442,-1.495833396911621
8.3,1.9954664707183838,-0.20467975735664368,2.0272984504699707,0.5856099128723145,0.9822143316268921,-1.2782180309295654
8.325,2.747657537460327,-1.018429160118103,0.9295800924301147,0.6644034385681152,1.1283912658691406,-0.9858481287956238
8.35,2.36474347114563,-0.9453386068344116,0.6631722450256348,0.7648767232894897,1.3916001319885254,-1.1028871536254883
8.375,1.6437493562698364,-1.0507194995880127,0.605418860912323,0.5617014169692993,1.218230128288269,-1.177252173423767
8.4,1.6927299499511719,-2.081134796142578,0.28366056084632874,0.34149491786956787,0.9894857406616211,-0.9332401752471924
8.425,2.385955572128296,-2.6266818046569824,-0.37228506803512573,0.36849239468574524,0.8381958603858948,-0.8359472751617432
8.45,2.541605234146118,-1.903581142425537,-0.5241913795471191,0.41960808634757996,0.8232802748680115,-0.9525365829467773
8.475,2.5200095176696777,-1.250541090965271,-0.19733095169067383,0.37979331612586975,1.0065370798110962,-1.0435633659362793
8.5,3.914832830429077,-1.0870890617370605,-0.48967787623405457,0.17792844772338867,0.856386125087738,-1.0486012697219849
8.525,6.422379016876221,-0.18839412927627563,-1.048105001449585,0.08658823370933533,0.7401669025421143,-1.0768108367919922
8.55,8.948641777038574,0.9557145833969116,-0.4707624018192291,0.1825375258922577,0.8702008128166199,-0.7201573252677917
8.575,9.970406532287598,1.3574211597442627,0.6352525949478149,0.22443333268165588,0.87199467420578,0.14518629014492035
8.6,8.574737548828125,1.1855510473251343,-0.03145970404148102,0.10273176431655884,0.37432658672332764,1.378054141998291
8.625,6.204663276672363,2.6653621196746826,-1.744264841079712,0.10393476486206055,-0.2911696135997772,2.3885581493377686
8.65,3.19757080078125,6.82868766784668,-1.0273834466934204,0.42769473791122437,-0.21862857043743134,2.9755539894104004
8.675,-0.525262713432312,9.514925003051758,1.0855158567428589,0.40820229053497314,-0.7048783898353577,3.3224639892578125
8.7,-2.960773229598999,8.854312896728516,2.2242228984832764,-0.11394202709197998,-1.3220219612121582,3.3244853019714355
8.725,-3.74090576171875,7.819149017333984,2.7906692028045654,-0.4546840190887451,-1.18146550655365,3.3172545433044434
8.75,-4.818793773651123,6.603781223297119,2.80618953704834,-0.2813650965690613,-1.186023235321045,3.561049699783325
8.775,-6.474508285522461,3.701791763305664,2.5370426177978516,-0.29659104347229004,-1.2887589931488037,3.4466147422790527
8.8,-7.453927040100098,-0.24814555048942566,2.5976767539978027,-0.39389675855636597,-1.6242355108261108,2.9501848220825195
8.825,-7.100732803344727,-4.421113014221191,2.0577147006988525,0.19786351919174194,-2.7488114833831787,2.539971113204956
8.85,-5.2968058586120605,-7.700055122375488,0.9112772941589355,0.9621220827102661,-3.307981252670288,1.9680603742599487
8.875,-3.3407092094421387,-9.225008964538574,-0.18452607095241547,1.5044094324111938,-3.34136700630188,1.1820367574691772
8.9,-2.02968168258667,-9.117568969726562,-1.1161810159683228,2.03491473197937,-3.225189447402954,0.4234088957309723
8.925,-0.8962321281433105,-8.071188926696777,-1.9420456886291504,2.655627727508545,-2.9864039421081543,-0.01795312575995922
8.95,0.06328141689300537,-5.9101972579956055,-2.612583637237549,3.1003057956695557,-2.789137840270996,-0.03374196216464043
8.975,1.0408403873443604,-1.902005910873413,-2.8109636306762695,3.363912582397461,-2.729306221008301,-0.20586037635803223
9.0,2.582813024520874,1.511628270149231,-1.4144067764282227,3.298293113708496,-3.028881072998047,-0.471722275018692
9.025,3.379330635070801,0.4053952693939209,0.6130030155181885,2.432417392730713,-3.3009848594665527,-0.39982277154922485
9.05,1.8107423782348633,-3.1312968730926514,-0.38352885842323303,1.1242517232894897,-2.5708796977996826,-0.43859103322029114
9.075,-0.9029786586761475,-1.9873563051223755,-2.665364980697632,0.3323895335197449,-1.3533307313919067,-0.9375320076942444
9.1,-5.085287094116211,3.7524585723876953,-1.9197853803634644,0.016103476285934448,0.09944943338632584,-1.167385220527649
9.125,-8.370645523071289,5.02219295501709,0.827080488204956,-0.4500373303890228,1.0424057245254517,-0.8314492702484131
9.15,-8.006936073303223,1.3702638149261475,1.541559100151062,-0.9185082912445068,-0.1570671796798706,-0.7152780294418335
9.175,-7.16121244430542,1.7295435667037964,-0.6446725726127625,-0.6561120748519897,-0.7559801936149597,-1.171988844871521
9.2,-5.337972640991211,4.209759712219238,-1.5116021633148193,-0.3995789885520935,-0.609713077545166,-1.2387218475341797
9.225,-3.9990055561065674,4.3605756759643555,-0.8841660022735596,-0.4567219018936157,-0.23874123394489288,-1.0840355157852173
9.25,-2.703444004058838,3.483825445175171,-0.6175941824913025,-0.39622145891189575,-0.24985194206237793,-0.9911750555038452
9.275,-0.7727088332176208,1.8331369161605835,-1.1017333269119263,-0.32338178157806396,-0.5520972609519958,-0.6337733268737793
9.3,-0.022647857666015625,-0.2414550632238388,-1.5451114177703857,-0.3331840932369232,-0.23928003013134003,-0.45624712109565735
9.325,-1.1528916358947754,-1.2095232009887695,-1.3507587909698486,-0.05642890930175781,0.5423739552497864,-0.503365695476532
9.35,-2.5938868522644043,-1.6414623260498047,-0.49196305871009827,0.2576661705970764,0.9191913604736328,-0.4470449388027191
9.375,-3.3249106407165527,-2.4322428703308105,0.45491066575050354,0.4783782958984375,0.6712939143180847,-0.2913797199726105
9.4,-3.0247461795806885,-2.0883870124816895,1.2516136169433594,0.6987062692642212,0.22406157851219177,-0.2559221684932709
9.425,-1.8172712326049805,-0.09786885231733322,2.1220054626464844,0.7503676414489746,-0.3375130295753479,-0.25974562764167786
9.45,-0.33394068479537964,1.2865056991577148,2.7482147216796875,0.4941738545894623,-0.8680588006973267,-0.20191863179206848
9.475,1.3398475646972656,0.8320950865745544,2.7265689373016357,0.1743575930595398,-1.0016580820083618,-0.15736359357833862
9.5,2.285682439804077,0.04107353463768959,2.4244699478149414,-0.0179385244846344,-0.5445743203163147,-0.1375555545091629
9.525,1.1302645206451416,-0.003740475745871663,2.186638832092285,-0.15554989874362946,0.34433799982070923,-0.0022765016183257103
9.55,-1.5872001647949219,0.20938119292259216,2.230494737625122,-0.19781626760959625,0.7734893560409546,0.10687483102083206
9.575,-4.1770853996276855,0.30593806505203247,2.4217381477355957,-0.2603563666343689,0.49388810992240906,0.13598276674747467
9.6,-5.004294395446777,0.7167419791221619,2.2463064193725586,-0.3340727388858795,-0.08973897993564606,0.14144457876682281
9.625,-3.5137553215026855,1.0397599935531616,1.924885630607605,-0.41911816596984863,-0.8800801038742065,0.17525503039360046
9.65,-1.4964523315429688,0.5973531007766724,1.3500276803970337,-0.5259376764297485,-1.5871875286102295,0.20056815445423126
9.675,-0.7347851395606995,-0.45061779022216797,0.3628491163253784,-0.550874650478363,-1.6665053367614746,0.24788972735404968
9.7,-0.7842426896095276,-1.2767562866210938,-0.1598391830921173,-0.4553651213645935,-1.3933308124542236,0.33674055337905884
9.725,-1.1608697175979614,-1.5607548952102661,-0.03130536153912544,-0.39239174127578735,-1.2238364219665527,0.38701140880584717
9.75,-1.4874638319015503,-1.5654736757278442,-0.19995705783367157,-0.4441973567008972,-1.0523481369018555,0.4066110849380493
9.775,-1.1343039274215698,-1.430668830871582,-0.5816669464111328,-0.42338067293167114,-0.9747213125228882,0.43317481875419617
9.8,-0.7818347215652466,-1.2761554718017578,-0.5393291115760803,-0.4006351828575134,-0.9922495484352112,0.4248223304748535
9.825,-1.0357104539871216,-0.35878080129623413,0.04610976204276085,-0.3466916084289551,-0.8609615564346313,0.35341909527778625
9.85,-1.9739928245544434,1.0573370456695557,0.6756983399391174,-0.33529865741729736,-0.7835785746574402,0.3465591371059418
9.875,-3.0007402896881104,1.2626374959945679,0.15874916315078735,-0.3202788829803467,-0.9077379703521729,0.4296802878379822
9.9,-3.298452377319336,0.37818944454193115,-1.1642130613327026,-0.10958954691886902,-1.0651590824127197,0.5639167428016663
9.925,-3.0554463863372803,-0.08180682361125946,-1.9582583904266357,0.18055467307567596,-1.0314935445785522,0.7019549608230591
9.95,-3.1964659690856934,0.2872737646102905,-2.1497135162353516,0.5098465085029602,-0.8636127710342407,0.7878562808036804
9.975,-3.789973258972168,1.4613442420959473,-2.0326881408691406,0.93366539478302,-0.650129497051239,0.7460567355155945
10.0,-3.5920517444610596,3.3161981105804443,-1.3864238262176514,1.3424545526504517,-0.6072534918785095,0.6688229441642761
10.025,-1.7958351373672485,5.537204265594482,-0.35654932260513306,1.7175074815750122,-0.8016839027404785,0.6763822436332703
10.05,1.5399582386016846,7.606925964355469,0.8616139888763428,2.054778814315796,-1.3190187215805054,0.8781574368476868
10.075,5.156092643737793,8.277806282043457,2.7304208278656006,2.0807652473449707,-1.9733672142028809,1.2696939706802368
10.1,5.7441182136535645,6.718898296356201,5.568528652191162,1.6812849044799805,-2.1108663082122803,1.5318176746368408
10.125,1.3190791606903076,3.351011276245117,8.019341468811035,0.9090015888214111,-1.3517874479293823,1.5085663795471191
10.15,-4.10860538482666,-0.042039766907691956,7.276063919067383,0.007380008697509766,-0.7207502722740173,1.2041031122207642
10.175,-3.7174792289733887,-1.3662031888961792,2.539477586746216,-0.6295783519744873,-0.8875671625137329,0.6836727261543274
10.2,1.7261295318603516,-1.3399841785430908,-1.8192625045776367,-0.8533037304878235,-1.0523650646209717,0.10896825045347214
10.225,4.595516681671143,-2.2398767471313477,-1.4131284952163696,-0.9194501638412476,-1.1368883848190308,-0.03509313985705376
10.25,1.141939401626587,-3.8136515617370605,0.3191651701927185,-1.1571252346038818,-0.8096686005592346,0.06151532009243965
10.275,-4.5207109451293945,-4.866105079650879,-0.7059451937675476,-1.2764873504638672,-0.4838750958442688,-0.21708975732326508
10.3,-6.242703437805176,-4.764734745025635,-3.0135867595672607,-0.8452280163764954,-1.0453362464904785,-0.36243653297424316
10.325,-3.9322457313537598,-3.9526424407958984,-3.946500539779663,-0.14917348325252533,-2.215571641921997,-0.03906702622771263
10.35,-1.421937108039856,-2.850667953491211,-3.3454198837280273,0.1585325300693512,-3.133939027786255,0.2050732672214508
10.375,-0.04605740308761597,-1.4703264236450195,-2.425808906555176,0.1821235865354538,-3.5007245540618896,0.10717359185218811
10.4,0.6016951203346252,-0.343235045671463,-1.9645439386367798,0.11641813814640045,-3.375497341156006,-0.03084578737616539
10.425,0.823137640953064,0.20400241017341614,-2.1889145374298096,-0.05609526485204697,-2.926548480987549,-0.2943914234638214
10.45,1.010115146636963,0.583677351474762,-2.498502731323242,-0.09513041377067566,-2.612447738647461,-0.5586194396018982
10.475,1.3489924669265747,0.8139715790748596,-2.1845529079437256,-0.0770062655210495,-2.638547897338867,-0.5933953523635864
10.5,1.2259422540664673,0.6324081420898438,-2.0360262393951416,-0.18740490078926086,-2.716132640838623,-0.7266412377357483
10.525,0.45928990840911865,0.4416161775588989,-3.2338156700134277,-0.15623608231544495,-2.5064797401428223,-1.01063072681427
10.55,-0.2702232599258423,0.3947737514972687,-5.349732398986816,0.09317323565483093,-2.485799789428711,-1.1236419677734375
10.575,-0.399120569229126,0.3321765065193176,-7.331494331359863,0.4768480062484741,-2.9695310592651367,-1.083754539489746
10.6,0.5417816638946533,0.6954739689826965,-8.061807632446289,0.8090013861656189,-3.9757120609283447,-0.9773770570755005
10.625,2.0615317821502686,1.5028107166290283,-6.60824728012085,0.9323717355728149,-5.212441444396973,-0.8942822813987732
10.65,2.693963050842285,1.7766772508621216,-3.77634859085083,0.9055342078208923,-5.704092979431152,-1.0283119678497314
10.675,2.3671417236328125,1.3484125137329102,-1.49185049533844,0.8960089087486267,-5.2195305824279785,-1.2150166034698486
10.7,2.371033191680908,0.8016929030418396,-0.4324253797531128,0.9294539093971252,-4.385704517364502,-1.3171027898788452
10.725,3.312685012817383,0.4768836796283722,-0.26450595259666443,0.9350218772888184,-3.9458813667297363,-1.344173550605774
10.75,4.559997081756592,0.15828001499176025,-0.3303729295730591,0.8927691578865051,-4.202027320861816,-1.4158297777175903
10.775,5.131703853607178,-0.48035287857055664,-0.20786671340465546,0.9813786745071411,-4.491136074066162,-1.6150449514389038
10.8,4.646618366241455,-1.2261786460876465,0.40988147258758545,1.3242230415344238,-4.085693836212158,-1.6048033237457275
10.825,3.4876794815063477,-1.9682151079177856,1.6416493654251099,1.595089316368103,-3.3871970176696777,-1.2668042182922363
10.85,1.6512459516525269,-2.726036548614502,2.3627336025238037,1.5614230632781982,-2.9278995990753174,-0.9930155277252197
10.875,-0.6693873405456543,-3.014080047607422,1.681924819946289,1.3854364156723022,-2.463292360305786,-0.8268702030181885
10.9,-1.844801425933838,-2.7258195877075195,0.4408372640609741,1.0885908603668213,-1.993552803993225,-0.44712862372398376
10.925,-1.4227327108383179,-2.7204065322875977,-0.44836968183517456,0.7372382879257202,-1.8654085397720337,0.09042215347290039
10.95,-0.6713038682937622,-2.9118802547454834,-0.6582839488983154,0.43828970193862915,-1.7678037881851196,0.45556312799453735
10.975,-0.48675841093063354,-0.6199197769165039,-0.11564144492149353,0.05470620095729828,-1.640229344367981,0.5335473418235779
11.0,-0.007164359092712402,5.914520740509033,0.7288644909858704,-0.2390439659357071,-1.7532199621200562,0.15032219886779785
11.025,2.3469908237457275,11.002193450927734,2.9934921264648438,-0.5474040508270264,-1.5952717065811157,0.07761795073747635
11.05,3.3421630859375,6.457507610321045,6.885427951812744,-0.7870199084281921,-1.3517237901687622,-0.1063084602355957
11.075,1.1791315078735352,-2.4119575023651123,8.463740348815918,-0.6911413669586182,-1.0994094610214233,-0.06740599125623703
11.1,1.6448373794555664,-5.150193214416504,7.302049160003662,-0.7340648174285889,0.05383839085698128,1.084485650062561
11.125,5.237020492553711,-1.4987647533416748,5.563682556152344,-0.7720140218734741,1.553289771080017,1.8842812776565552
11.15,7.2708306312561035,3.363743543624878,3.065155267715454,-0.9376019835472107,1.8241297006607056,2.1471121311187744
11.175,5.997793197631836,4.3008623123168945,1.1447571516036987,-1.130171775817871,0.7868038415908813,1.4128303527832031
11.2,2.2410366535186768,2.094355583190918,1.2910655736923218,-1.0828701257705688,-0.03381394222378731,0.5344140529632568
11.225,-1.2291536331176758,0.49003610014915466,1.9062399864196777,-0.9340171813964844,-0.3825961947441101,0.24722573161125183
11.25,-2.004314422607422,0.012687810696661472,1.2857999801635742,-0.976672887802124,-0.16072754561901093,0.1581050306558609
11.275,-0.8276476860046387,-0.34753701090812683,0.3374422788619995,-1.024915099143982,-0.01175304688513279,0.09953385591506958
11.3,-0.07065679877996445,-0.7645903825759888,0.19301669299602509,-0.9725471138954163,-0.06299719959497452,0.004602367058396339
11.325,-0.11367015540599823,-1.0134364366531372,0.38415178656578064,-0.8822458982467651,0.16397543251514435,-0.04714636504650116
11.35,0.09439027309417725,-1.3666125535964966,0.35064974427223206,-0.6910778284072876,0.594072699546814,-0.08456263691186905
11.375,0.30039268732070923,-1.6444313526153564,0.2364634871482849,-0.4514352083206177,0.8705295920372009,-0.08050679415464401
11.4,-0.029643043875694275,-1.604682207107544,0.47830668091773987,-0.2576167583465576,1.0303925275802612,-0.03221388906240463
11.425,-0.3296458125114441,-1.6715795993804932,1.1287249326705933,-0.07468730956315994,1.2245968580245972,-0.06959130614995956
11.45,0.1081579327583313,-1.5592129230499268,1.5222349166870117,0.021686099469661713,1.4992059469223022,-0.0829901322722435
11.475,1.129497766494751,-0.8876354694366455,1.3934284448623657,-0.012546533718705177,1.8247300386428833,-0.0018912622472271323
11.5,2.1490867137908936,-0.575725793838501,0.7855169177055359,-0.156971275806427,2.090872049331665,0.09079684317111969
11.525,2.9434995651245117,-1.0870765447616577,-0.515404999256134,-0.3189540505409241,2.2769479751586914,0.17641277611255646
11.55,3.207314968109131,-0.9959433674812317,-2.246961832046509,-0.4626026451587677,2.329864501953125,0.26398923993110657
11.575,2.5237345695495605,0.2458466738462448,-3.3290297985076904,-0.5198143720626831,1.8706765174865723,0.32453081011772156
11.6,1.3967093229293823,0.9903727769851685,-3.093325138092041,-0.4077894985675812,1.0189555883407593,0.2574104964733124
11.625,0.39862534403800964,0.6419326066970825,-2.1066999435424805,-0.26204076409339905,0.41593503952026367,0.11928044259548187
11.65,-0.3353225290775299,0.18470104038715363,-1.0251952409744263,-0.17735400795936584,0.3514675199985504,-0.02657087706029415
11.675,-0.7340061664581299,0.3320704400539398,-0.33896443247795105,-0.20130926370620728,0.8261221647262573,-0.1511838287115097
11.7,-0.747687041759491,0.49264827370643616,-0.4596104323863983,-0.3390135169029236,1.3774781227111816,-0.18060651421546936
11.725,-0.3389659523963928,-0.7359704971313477,-1.2411388158798218,-0.5238596796989441,1.7210689783096313,-0.221284419298172
11.75,0.6305078268051147,-2.2879960536956787,-2.2734339237213135,-0.7069586515426636,1.979321837425232,-0.2137085497379303
11.775,1.5615679025650024,-1.0724574327468872,-3.217355489730835,-0.7961097359657288,1.975554347038269,-0.09982557594776154
11.8,1.1175717115402222,2.05061936378479,-3.2679100036621094,-0.6549298763275146,1.367344856262207,-0.06574252247810364
11.825,-0.5356770157814026,3.1084952354431152,-1.676587700843811,-0.53630530834198,0.5126665830612183,-0.27544885873794556
11.85,-1.9126896858215332,2.4357094764709473,1.0538535118103027,-0.4830566942691803,0.1003497764468193,-0.5508160591125488
11.875,-1.4516491889953613,2.658374071121216,3.9876303672790527,-0.31884145736694336,0.241171732544899,-0.7991454601287842
11.9,1.1044281721115112,3.58134388923645,6.2997894287109375,-0.1897355020046234,1.0790095329284668,-1.090572714805603
11.925,3.6400630474090576,3.835921287536621,6.826747894287109,-0.14565414190292358,2.3931829929351807,-1.106358289718628
11.95,4.450408458709717,3.0929203033447266,4.850558757781982,-0.126426100730896,3.704500675201416,-1.0134477615356445
11.975,3.530564546585083,2.9648940563201904,2.0808660984039307,-0.04997551441192627,4.437829494476318,-0.8464142680168152
12.0,2.0360703468322754,3.519078493118286,0.9915788769721985,0.07716001570224762,4.290099143981934,-0.709746241569519
12.025,1.0358796119689941,2.839946746826172,1.2600113153457642,0.015116274356842041,3.6326475143432617,-1.1161394119262695
12.05,0.31297701597213745,0.7611504197120667,0.4641645550727844,-0.08450478315353394,3.261723756790161,-1.6137142181396484
12.075,-1.323140025138855,-2.010974884033203,-2.3131821155548096,0.2248731255531311,3.669999122619629,-1.6551003456115723
12.1,-3.450493335723877,-4.277612209320068,-4.1950249671936035,0.7297828793525696,3.9304447174072266,-1.4243659973144531
12.125,-3.485839605331421,-4.840283393859863,-3.0424342155456543,1.01044499874115,3.3726577758789062,-0.9327633380889893
12.15,-1.8622866868972778,-4.039048671722412,-0.6049600839614868,1.0385380983352661,2.644130229949951,-0.25186610221862793
12.175,-0.8697371482849121,-2.9572741985321045,0.7042871713638306,0.7828560471534729,2.1585288047790527,0.16390128433704376
12.2,-0.260955810546875,-2.1670682430267334,0.2811832129955292,0.588152289390564,1.6586649417877197,0.2947958707809448
12.225,0.625888466835022,-1.4170161485671997,-0.5527173280715942,0.8241061568260193,1.0970537662506104,0.4074462950229645
12.25,0.9678040742874146,-0.6958733797073364,-0.5270638465881348,1.0780750513076782,1.023943305015564,0.5309361815452576
12.275,0.4756850600242615,-0.6212588548660278,0.20612965524196625,1.0660805702209473,1.1296015977859497,0.7635331153869629
12.3,-0.21470320224761963,-1.0200215578079224,0.7800511121749878,0.9783743619918823,0.8611899614334106,0.9658003449440002
12.325,-0.9959064722061157,-0.7249126434326172,0.8186764121055603,1.0453169345855713,0.6133174300193787,0.9418327808380127
12.35,-2.0626471042633057,1.0339338779449463,1.0924142599105835,1.2181668281555176,0.9025543332099915,0.7844513058662415
12.375,-3.2415833473205566,3.0752475261688232,2.1571531295776367,1.117565631866455,1.1504335403442383,0.5709117650985718
12.4,-3.2430858612060547,3.130697011947632,3.5773327350616455,0.6242199540138245,0.3211047351360321,0.15147453546524048
12.425,-1.0045487880706787,0.996620237827301,5.230348110198975,0.21021591126918793,-0.8094236254692078,-0.34263432025909424
12.45,1.5022382736206055,-1.2369532585144043,6.207432746887207,0.08378487080335617,-0.8176354169845581,-0.5596625208854675
12.475,1.5829710960388184,-1.7140679359436035,4.860311508178711,0.05646216869354248,0.4719236493110657,-0.530919075012207
12.5,-0.9722166061401367,-0.5439786911010742,1.4572389125823975,0.042161181569099426,1.8839656114578247,-0.3653736710548401
12.525,-4.044425964355469,0.9421725869178772,-1.6674286127090454,0.0005000457167625427,2.1481781005859375,-0.2432776242494583
12.55,-4.793693542480469,1.9019324779510498,-2.4002878665924072,-0.08618468046188354,1.0756890773773193,-0.3834989070892334
12.575,-2.9982869625091553,2.1947665214538574,-1.7037619352340698,-0.22843419015407562,-0.08194112777709961,-0.6675498485565186
12.6,-1.0610194206237793,1.79682195186615,-1.6182059049606323,-0.17218008637428284,-0.40129587054252625,-0.7849465012550354
12.625,-0.7105649709701538,0.9413435459136963,-1.9985731840133667,0.08477462828159332,-0.15483154356479645,-0.7420408129692078
12.65,-1.6170099973678589,0.7173721790313721,-1.7816647291183472,0.22579307854175568,-0.12524043023586273,-0.6206731796264648
12.675,-2.2266111373901367,1.6962847709655762,-1.2640377283096313,0.14376042783260345,-0.6465973258018494,-0.3720167577266693
12.7,-1.4777522087097168,2.201608180999756,-0.9677218794822693,-0.024376675486564636,-1.0280368328094482,-0.1789698749780655
12.725,0.3940621018409729,1.223685383796692,-0.7080711722373962,-0.02540329098701477,-0.9651153683662415,-0.14369389414787292
12.75,1.7607815265655518,0.09962356835603714,-0.5191667675971985,0.08398199081420898,-0.760672926902771,-0.06147477775812149
12.775,1.618973731994629,-0.020643355324864388,-0.4976038336753845,0.14516480267047882,-0.4661901593208313,0.1730773001909256
12.8,0.9880242347717285,0.10135167092084885,-0.08158152550458908,0.10353919863700867,-0.32383280992507935,0.3948717415332794
12.825,0.961212158203125,-0.4233524203300476,1.2824180126190186,0.00677846372127533,-0.33676254749298096,0.4866614043712616
12.85,1.1123967170715332,-0.7463629245758057,2.7015397548675537,-0.0343606173992157,-0.09207107126712799,0.5350399613380432
12.875,0.5292863249778748,-0.21053996682167053,2.486362934112549,0.06748102605342865,0.5065372586250305,0.582837700843811
12.9,-0.49472498893737793,0.20518402755260468,0.7645900845527649,0.27275583148002625,1.112632393836975,0.5880005359649658
12.925,-1.053826928138733,-0.2617301046848297,-0.7311663627624512,0.3384150266647339,1.1535758972167969,0.5342622399330139
12.95,-0.7627078294754028,-0.8159561157226562,-1.139344334602356,0.2812633514404297,0.6985718607902527,0.49216723442077637
12.975,0.26801514625549316,-0.8408805131912231,-0.26240915060043335,0.23323670029640198,0.41553905606269836,0.47147467732429504
13.0,1.7493703365325928,-0.49500682950019836,1.7425546646118164,0.2002871036529541,0.6659762859344482,0.4993664026260376
13.025,3.2435173988342285,-0.013570203445851803,3.091310977935791,0.3948216140270233,1.9150067567825317,0.6929388046264648
13.05,3.669957399368286,0.7097650766372681,2.653663396835327,0.6553919911384583,2.871131181716919,0.6767216324806213
13.075,2.3222455978393555,1.6094999313354492,1.5513359308242798,0.7080602049827576,2.921548843383789,0.40855666995048523
13.1,0.7681156992912292,2.0244333744049072,0.5246538519859314,0.4932222068309784,3.341585159301758,0.23723450303077698
13.125,0.06299357116222382,1.9545938968658447,-0.18840917944908142,0.10577985644340515,3.7673304080963135,0.20360717177391052
13.15,-0.5031968951225281,1.8779537677764893,-0.47626909613609314,-0.18364638090133667,3.6637792587280273,0.1548498123884201
13.175,-1.1813957691192627,1.8469518423080444,-0.5460286140441895,-0.35837817192077637,3.402721405029297,0.1343277394771576
13.2,-1.3738527297973633,1.5576709508895874,-0.4465164542198181,-0.5470862984657288,2.9152791500091553,0.2253081351518631
13.225,-1.2385073900222778,0.7944614887237549,-0.6457688212394714,-0.6434326171875,2.273242473602295,0.353192538022995
13.25,-1.6266844272613525,0.08373754471540451,-0.9169758558273315,-0.41952526569366455,2.09322190284729,0.3589341640472412
13.275,-2.372570514678955,-0.014317299239337444,-0.533882737159729,-0.06511881947517395,2.3599300384521484,0.2565537989139557
13.3,-1.9874203205108643,0.0217239111661911,0.13463377952575684,0.08172129094600677,2.1580631732940674,0.18136146664619446
13.325,-0.3885338604450226,-0.1804513782262802,0.1594957858324051,0.0803389623761177,1.5732426643371582,0.15093082189559937
13.35,0.6173082590103149,-0.5005351305007935,-0.16307170689105988,0.1351296454668045,1.3187357187271118,0.12725208699703217
13.375,0.17738699913024902,-0.9546023607254028,-0.1069897711277008,0.25871118903160095,1.5666983127593994,0.09926636517047882
13.4,-0.835374116897583,-1.3841849565505981,0.42883116006851196,0.34486883878707886,1.8452560901641846,0.03432134538888931
13.425,-1.3046727180480957,-1.514206051826477,1.170615792274475,0.3353781998157501,1.7760112285614014,-0.053990039974451065
13.45,-1.4189115762710571,-1.502590298652649,1.7947406768798828,0.30803319811820984,1.5544813871383667,-0.06490159779787064
13.475,-1.7584071159362793,-1.7511473894119263,2.108306646347046,0.317392498254776,1.414957046508789,-0.02585972100496292
13.5,-1.7570035457611084,-2.015063524246216,2.004563570022583,0.26341891288757324,1.2038260698318481,-0.08311104029417038
13.525,-0.7004431486129761,-1.5479481220245361,1.4220865964889526,0.19940093159675598,0.8043461441993713,-0.21344886720180511
13.55,0.9538052082061768,-0.6196901202201843,0.686954915523529,0.13079550862312317,0.38529014587402344,-0.254210889339447
13.575,2.015014886856079,-0.219098299741745,0.33536145091056824,0.02405615523457527,0.2654695212841034,-0.1774452030658722
13.6,1.8394122123718262,-0.6207582950592041,0.5631482005119324,-0.042664386332035065,0.5693551898002625,-0.0834958627820015
13.625,0.711739182472229,-1.5379613637924194,1.0479507446289062,-0.056722499430179596,1.00437331199646,-0.044098272919654846
13.65,-0.28534960746765137,-2.7138283252716064,1.4969205856323242,-0.008401114493608475,1.2932610511779785,-0.18001314997673035
13.675,-0.4107202887535095,-3.4445133209228516,1.524178385734558,0.08179237693548203,1.3960649967193604,-0.4978172779083252
13.7,0.24135145545005798,-2.9538557529449463,1.0371812582015991,0.07949371635913849,1.365676999092102,-0.7245364189147949
13.725,1.2383532524108887,-1.124847650527954,0.4687322974205017,-0.1358693540096283,0.8923305869102478,-0.6943802237510681
13.75,1.7177234888076782,1.4493236541748047,0.13617785274982452,-0.1967802494764328,0.6221106648445129,-0.5691384077072144
13.775,2.1407713890075684,3.3502886295318604,0.6853744983673096,0.017637893557548523,0.7042021155357361,-0.315243661403656
13.8,2.7748453617095947,3.22826886177063,1.677911639213562,0.16950690746307373,0.3116481304168701,0.11262544244527817
13.825,1.7918850183486938,2.1306657791137695,2.0391762256622314,0.15547150373458862,-0.10028532147407532,0.26912403106689453
13.85,-0.024092376232147217,1.6717616319656372,1.9248710870742798,0.2092091143131256,0.16546836495399475,-0.051745206117630005
13.875,-0.4937089681625366,1.2008296251296997,1.4647517204284668,0.2563304305076599,0.3811508119106293,-0.24802978336811066
13.9,0.37816664576530457,0.637486457824707,0.4331287145614624,0.2991938591003418,0.34766721725463867,-0.4082774817943573
13.925,1.0317459106445312,0.7823639512062073,-0.022238273173570633,0.36151933670043945,0.4330306053161621,-0.604977548122406
13.95,0.9254204630851746,1.4711875915527344,0.6494652628898621,0.38957488536834717,0.4228770434856415,-0.7349116802215576
13.975,1.0489509105682373,1.6744414567947388,1.4488681554794312,0.29065537452697754,0.052547942847013474,-0.6052795052528381
14.0,1.664305567741394,1.4872082471847534,1.6362602710723877,0.17602749168872833,-0.36861321330070496,-0.47876837849617004
14.025,2.1599009037017822,1.4621695280075073,1.214157223701477,0.23265530169010162,-0.4259474277496338,-0.47637805342674255
14.05,2.7111918926239014,0.9876517057418823,0.3054670989513397,0.27775901556015015,-0.27773627638816833,-0.39928150177001953
14.075,3.6741888523101807,-0.03857450187206268,-0.8249077796936035,0.14722657203674316,-0.28422194719314575,-0.19996678829193115
14.1,4.765312194824219,-0.9709353446960449,-1.5757275819778442,0.10376331210136414,-0.04536910727620125,0.13915394246578217
14.125,5.080793380737305,-1.132194995880127,-1.1511520147323608,0.2885017395019531,0.6879885196685791,0.5820544362068176
14.15,4.156570911407471,-0.3330301344394684,0.5746608972549438,0.42768529057502747,1.5359582901000977,1.1168025732040405
14.175,2.3059792518615723,0.8768289685249329,2.911520481109619,0.2888011634349823,2.1022820472717285,1.545963168144226
14.2,0.41557633876800537,2.0364418029785156,4.620814800262451,-0.16440507769584656,1.6964656114578247,1.6487585306167603
14.225,-1.2487581968307495,2.9929373264312744,4.312777519226074,-0.7626573443412781,0.3900797367095947,1.6576862335205078
14.25,-1.7801201343536377,3.0798754692077637,1.5131845474243164,-1.1874951124191284,-1.038915991783142,1.7138334512710571
14.275,-0.9764244556427002,2.606715679168701,-1.3321336507797241,-1.1568809747695923,-1.7061065435409546,1.6741416454315186
14.3,-0.8614233732223511,2.264601230621338,-1.7217986583709717,-0.9803560972213745,-1.3254079818725586,1.6931918859481812
14.325,-1.3883305788040161,1.8476756811141968,-1.1474714279174805,-1.0186773538589478,-0.5219792127609253,1.6154916286468506
14.35,-2.170396566390991,0.8293307423591614,-0.6930960416793823,-1.233443260192871,0.07666315883398056,1.3801121711730957
14.375,-2.955087661743164,-0.4356372654438019,-0.2313445657491684,-1.3457398414611816,0.0850738063454628,1.1459367275238037
14.4,-2.9235384464263916,-1.3406494855880737,-0.3000921607017517,-1.2961198091506958,-0.3847346007823944,0.987865149974823
14.425,-2.241851806640625,-2.009927272796631,-0.9057179093360901,-1.161973476409912,-0.8916434645652771,0.9444251656532288
14.45,-1.5819560289382935,-2.605780601501465,-1.380218505859375,-1.000538945198059,-1.2011948823928833,0.9966647624969482
14.475,-0.9904856085777283,-2.9156527519226074,-1.378286361694336,-0.8279550075531006,-1.2323819398880005,1.0314418077468872
14.5,-0.4166981875896454,-2.9129135608673096,-1.026106357574463,-0.6219272613525391,-1.0233721733093262,0.9995875954627991
14.525,0.1488802134990692,-2.6734254360198975,-0.5178598165512085,-0.2909635901451111,-0.8545059561729431,0.9209763407707214
14.55,0.8528496623039246,-2.4765007495880127,0.029199587181210518,0.07735013961791992,-0.9495596885681152,0.9661224484443665
14.575,1.5895105600357056,-2.4992175102233887,0.2415034919977188,0.268177330493927,-0.9007793664932251,1.0229123830795288
14.6,2.2731993198394775,-2.063720703125,0.0935400053858757,0.3103281259536743,-0.6871533989906311,0.9577720761299133
14.625,2.7476186752319336,-0.8226026296615601,-0.26942747831344604,0.3309764266014099,-0.44130945205688477,0.8253248333930969
14.65,2.9853382110595703,0.8214844465255737,-0.6934282779693604,0.35828399658203125,-0.4611358046531677,0.8577736020088196
14.675,2.8911871910095215,1.7138051986694336,-0.6640315055847168,0.2604791224002838,-0.5020815134048462,1.0787822008132935
14.7,2.2131404876708984,1.4159973859786987,0.04082006961107254,-0.0038875341415405273,-0.35088276863098145,1.0602470636367798
14.725,1.0439203977584839,0.8336172103881836,0.6077793836593628,-0.09557951986789703,-0.18603557348251343,0.682179868221283
14.75,0.4085822105407715,0.6597604751586914,0.2318512350320816,-0.09496504813432693,-0.012563256546854973,0.24363462626934052
14.775,0.652669370174408,1.0730735063552856,-0.9226984977722168,-0.06977440416812897,0.19383758306503296,-0.21145451068878174
14.8,0.9807076454162598,1.598806619644165,-2.0569984912872314,-0.04739677906036377,0.41091492772102356,-0.789057195186615
14.825,0.8347028493881226,2.587531328201294,-2.5208218097686768,-0.010618627071380615,0.5738983154296875,-1.335543155670166
14.85,-0.6323344707489014,5.282702922821045,-1.1477205753326416,0.5681721568107605,0.9975988864898682,-1.8442859649658203
14.875,-2.5181100368499756,5.7314887046813965,2.7362663745880127,0.8490172028541565,0.5719009637832642,-1.3923578262329102
14.9,-2.14251708984375,1.183366060256958,3.429164171218872,0.6851666569709778,-0.7334927320480347,-0.5530304312705994
14.925,-0.046730875968933105,-3.861400604248047,-0.7964478731155396,0.6195619106292725,-0.6841378808021545,-0.5731732249259949
14.95,0.9185105562210083,-4.601724147796631,-3.8104658126831055,0.8850682377815247,0.3268948793411255,-0.9267492294311523
14.975,0.24504393339157104,-1.9935857057571411,-2.638607978820801,1.0636706352233887,0.7256053686141968,-1.1610441207885742
15.0,-0.48520493507385254,0.2695637345314026,0.6388204097747803,0.533572256565094,1.1926885843276978,-1.4283441305160522
15.025,-0.6312085390090942,1.4572087526321411,3.253615140914917,-0.17604368925094604,2.0044970512390137,-1.920042634010315
15.05,-0.772716760635376,2.493509531021118,3.5272138118743896,-0.44037431478500366,2.767958164215088,-1.9745553731918335
15.075,-0.8883671760559082,2.9348976612091064,1.697332739830017,-0.09647876024246216,2.120063066482544,-1.221933364868164
15.1,-0.1072809249162674,1.9770252704620361,-0.6245189905166626,0.18505162000656128,0.39213627576828003,-0.2905954420566559
15.125,1.3090846538543701,0.5407581329345703,-2.127105474472046,0.027459487318992615,-0.5458922982215881,0.24761278927326202
15.15,1.9654016494750977,-0.4916011393070221,-2.3236474990844727,-0.18966400623321533,-0.059184473007917404,0.3334396481513977
15.175,1.3488876819610596,-0.47613251209259033,-1.6097713708877563,-0.1396532505750656,0.5956675410270691,0.060748279094696045
15.2,-0.18932640552520752,0.15643030405044556,-0.8762444257736206,-0.08665171265602112,1.21869695186615,0.030873827636241913
15.225,-1.2420356273651123,-0.21008482575416565,-0.30256202816963196,-0.3942871689796448,1.9987621307373047,0.32943063974380493
15.25,-1.8573946952819824,-1.261631965637207,1.042964220046997,-0.48966100811958313,1.7949104309082031,0.48791131377220154
15.275,-2.6617634296417236,-1.6994839906692505,2.59352707862854,-0.3300623595714569,1.7875826358795166,0.13730131089687347
15.3,-2.7353663444519043,-1.834879994392395,3.2293431758880615,-0.23472115397453308,1.4001452922821045,0.08486651629209518
15.325,-1.9937092065811157,-2.263869047164917,2.8811099529266357,-0.10515142977237701,0.5397213101387024,0.2570834755897522
15.35,-1.4205495119094849,-2.5684092044830322,1.7480976581573486,0.02442445605993271,0.16480550169944763,0.11624789983034134
15.375,-0.5508506298065186,-1.9886090755462646,0.19839374721050262,0.07619289308786392,0.15837639570236206,-0.29001033306121826
15.4,0.850419819355011,-0.6493560075759888,-1.1520543098449707,0.061419010162353516,0.3578958213329315,-0.4615623354911804
15.425,1.2301965951919556,0.41936302185058594,-1.1643716096878052,0.08589564263820648,0.6336287260055542,-0.4317779242992401
15.45,0.5867998600006104,0.3712501525878906,-0.30035683512687683,0.24169568717479706,0.7179169654846191,-0.38347071409225464
15.475,0.28246912360191345,-0.23325161635875702,-0.07744698226451874,0.25484758615493774,0.7335464358329773,-0.5349607467651367
15.5,0.05437292903661728,-0.6848564743995667,0.28711795806884766,0.18064147233963013,1.0757036209106445,-0.6110051274299622
15.525,-0.11122190952301025,-0.10056213289499283,1.0074357986450195,0.2273813933134079,1.1693034172058105,-0.7440688014030457
15.55,0.14717721939086914,0.40061667561531067,0.6607443690299988,0.17751488089561462,0.9126783013343811,-0.6716293096542358
15.575,-0.04164624959230423,-0.3758602738380432,-0.2513219714164734,0.10268599539995193,0.6391642093658447,-0.536823034286499
15.6,-0.5515731573104858,-0.9490090012550354,-0.6386252045631409,0.1189749538898468,0.5733624696731567,-0.7099973559379578
15.625,-0.4475642740726471,-0.05854412168264389,-0.2566863000392914,0.24429623782634735,0.8736999034881592,-1.0383002758026123
15.65,0.3100723326206207,1.0825377702713013,0.3608127534389496,0.3629213571548462,0.9280502200126648,-1.281749963760376
15.675,1.3464912176132202,1.6279021501541138,0.547997236251831,0.3929009735584259,0.41256701946258545,-1.3778055906295776
15.7,2.7662813663482666,2.372653007507324,0.2874245345592499,0.42722466588020325,-0.07997370511293411,-1.4745819568634033
15.725,4.417974948883057,3.0997514724731445,-0.0484137162566185,0.5431448817253113,-0.19335304200649261,-1.6142282485961914
15.75,5.860607147216797,3.8263349533081055,0.18785642087459564,0.7166240215301514,-0.00590079091489315,-1.7150344848632812
15.775,6.276137351989746,4.939154624938965,1.2773715257644653,0.828917384147644,0.3028221130371094,-1.664792776107788
15.8,5.238007068634033,4.6813459396362305,2.0802807807922363,0.756909966468811,0.48524704575538635,-1.3564746379852295
15.825,3.7705931663513184,1.9402989149093628,1.3845367431640625,0.5149433612823486,0.4672069251537323,-0.865564227104187
15.85,3.4888393878936768,-0.6628402471542358,0.47707462310791016,0.29316264390945435,0.5055482983589172,-0.3545342683792114
15.875,4.449952602386475,-0.6954007148742676,0.9294183850288391,0.41767191886901855,0.5169188380241394,0.14751695096492767
15.9,3.7380547523498535,0.24119824171066284,0.34954580664634705,0.2863992750644684,-0.21158120036125183,0.9659203290939331
15.925,2.195366859436035,0.49276918172836304,-2.327702522277832,-0.23327714204788208,-1.145758032798767,1.4267454147338867
15.95,1.44197416305542,-0.1328001320362091,-3.1472973823547363,-0.11335641145706177,-0.9724992513656616,1.4598414897918701
15.975,0.5676747560501099,-0.43232354521751404,-0.22512327134609222,0.4925284683704376,0.8306798338890076,1.4861894845962524
16.0,0.06042367219924927,-0.4053870439529419,1.918778419494629,0.34317636489868164,1.2574491500854492,1.6773828268051147
16.025,0.15423929691314697,0.14283081889152527,1.2009209394454956,-0.15914064645767212,0.16536614298820496,1.9974794387817383
16.05,-0.0069239139556884766,0.9177418947219849,0.20566776394844055,-0.42796608805656433,-0.37166380882263184,2.2186620235443115
16.075,-0.7545064687728882,1.239991307258606,0.6266795992851257,-0.6179580092430115,-0.13810279965400696,2.244211196899414
16.1,-1.9281177520751953,1.223339319229126,1.3416563272476196,-0.7194887399673462,-0.07242686301469803,2.239881753921509
16.125,-2.997178316116333,0.6479084491729736,1.425981044769287,-0.740142822265625,-0.4385211765766144,2.1904001235961914
16.15,-3.4386467933654785,-0.40796640515327454,1.037354826927185,-0.6971745491027832,-0.795883059501648,2.1383607387542725
16.175,-3.373246908187866,-1.3477219343185425,0.466202974319458,-0.6430255770683289,-0.8791865110397339,2.0704054832458496
16.2,-3.27789568901062,-2.2792816162109375,-0.1490679681301117,-0.5410775542259216,-0.8122506141662598,2.0017168521881104
16.225,-3.3089475631713867,-3.174405336380005,-0.4594636559486389,-0.45276546478271484,-0.7121095061302185,1.8529614210128784
16.25,-3.0214505195617676,-3.7139384746551514,-0.4782011806964874,-0.3059048652648926,-0.8967515230178833,1.625336766242981
16.275,-2.1527366638183594,-3.6043193340301514,-0.5149502158164978,-0.021454215049743652,-1.161194920539856,1.3281426429748535
16.3,-1.0629379749298096,-2.847639799118042,-0.6564887166023254,0.3280380070209503,-1.225848913192749,0.76859450340271
16.325,-0.242030531167984,-1.7626869678497314,-0.7640105485916138,0.5949094891548157,-1.1745914220809937,0.16932253539562225
16.35,0.3569815456867218,-0.40531259775161743,-0.7610934972763062,0.7791751027107239,-1.2562111616134644,-0.2130344659090042
16.375,1.406783938407898,1.201380729675293,-0.6035283207893372,0.8884239196777344,-1.325576663017273,-0.26686111092567444
16.4,3.0320472717285156,3.174574136734009,0.029179856181144714,0.8597782254219055,-1.1472481489181519,-0.165489062666893
16.425,4.027149200439453,5.006084442138672,0.7623091340065002,0.7543497085571289,-0.9450743198394775,0.01809678040444851
16.45,3.5093400478363037,5.016900062561035,0.7158849239349365,0.5761597156524658,-1.043120265007019,0.2948946952819824
16.475,2.9231340885162354,3.198197603225708,0.25472474098205566,0.16687019169330597,-1.160890817642212,0.1577620953321457
16.5,2.5853567123413086,0.9064816832542419,-0.44023069739341736,-0.21898670494556427,-1.0092517137527466,-0.07875160872936249
16.525,1.3518331050872803,-0.8402864336967468,-1.1870763301849365,-0.44746851921081543,-0.44143104553222656,-0.5636956095695496
16.55,-0.6055518388748169,-0.6534451842308044,-1.9493685960769653,-0.5138211250305176,0.4135185778141022,-1.4071383476257324
16.575,-1.903959035873413,2.268698215484619,-2.7754220962524414,0.151405930519104,0.6362512111663818,-2.1101670265197754
16.6,-0.7192856669425964,4.5657477378845215,-1.9216207265853882,1.203920602798462,0.037280064076185226,-2.000305652618408
16.625,2.2063839435577393,1.964431881904602,-0.5048778653144836,1.0284370183944702,-0.8631693720817566,-1.0403224229812622
16.65,1.6343610286712646,-3.6673483848571777,-2.321458578109741,0.5770729780197144,-0.968172013759613,-0.6651313304901123
16.675,-2.8832106590270996,-5.964397430419922,-3.8117027282714844,0.36012139916419983,0.9207348823547363,-0.5745736360549927
16.7,-5.882759094238281,-3.4528422355651855,-1.011220932006836,0.5662868022918701,1.6736550331115723,-0.5400596857070923
16.725,-4.428670883178711,-0.22305083274841309,3.3168740272521973,0.4420071542263031,1.025489330291748,-0.8169006705284119
16.75,-1.6091388463974,0.3972387909889221,4.345159530639648,-0.3740035593509674,1.9218719005584717,-0.9185308814048767
16.775,-0.0637122392654419,-0.3024493455886841,2.837693691253662,-0.7483304738998413,3.056969404220581,-0.4590979516506195
16.8,-0.031276166439056396,-1.3985388278961182,2.3329358100891113,-0.4426243305206299,1.9552689790725708,-0.07131102681159973
16.825,-1.1941436529159546,-3.383206367492676,3.7926368713378906,-0.3187006413936615,0.4551319181919098,0.09973558783531189
16.85,-3.3289685249328613,-4.007950305938721,4.015497207641602,-0.40571266412734985,0.3063350021839142,-0.22353944182395935
16.875,-3.536376476287842,-0.45684316754341125,1.2414216995239258,-0.3106839954853058,0.25271210074424744,-0.7412906289100647
16.9,-0.8095561265945435,3.5480868816375732,-1.7193113565444946,0.2803833782672882,-0.8134734630584717,-0.6083099246025085
16.925,1.482093334197998,2.932624101638794,-1.9080268144607544,0.4565024673938751,-1.0005992650985718,0.14155873656272888
16.95,2.021430492401123,0.9113664627075195,-1.123444676399231,0.14670930802822113,-0.7932926416397095,-0.21486148238182068
16.975,2.0489661693573,0.18966755270957947,0.042286355048418045,0.08095939457416534,-0.048933546990156174,-0.7040900588035583
17.0,1.4998631477355957,0.16724953055381775,1.3429967164993286,0.08787171542644501,0.7129482626914978,-0.7023155689239502
17.025,0.6361923813819885,0.2881421446800232,1.4641703367233276,0.19878895580768585,0.6307166814804077,-0.720406174659729
17.05,0.21813824772834778,0.5409221649169922,0.8851059079170227,0.2395036816596985,0.148468479514122,-0.7266493439674377
17.075,0.4019021987915039,0.5689601898193359,0.7124907374382019,0.19026948511600494,-0.04592989385128021,-0.7655783295631409
17.1,0.904701292514801,0.3572444021701813,1.0104118585586548,0.16726216673851013,0.2461700439453125,-0.8799822330474854
17.125,1.2916572093963623,0.28317153453826904,1.4741737842559814,0.3413752019405365,0.6487428545951843,-0.9942203760147095
17.15,1.8456405401229858,0.6999987363815308,1.581373691558838,0.48940712213516235,0.4946577548980713,-1.0789525508880615
17.175,2.815260410308838,1.0865191221237183,0.5784866809844971,0.40686506032943726,-0.14870604872703552,-1.0343068838119507
17.2,4.206610202789307,0.8529298901557922,-0.8233633637428284,0.31072649359703064,-0.522344172000885,-0.8239156603813171
17.225,5.739149570465088,0.45587024092674255,-1.2601696252822876,0.32506224513053894,-0.3184482753276825,-0.6837152242660522
17.25,6.535122871398926,0.2987360656261444,-0.6293413639068604,0.29870903491973877,0.019410382956266403,-0.5815931558609009
17.275,5.667318344116211,0.33173802495002747,0.28996458649635315,0.37563103437423706,0.6655141711235046,-0.2616617977619171
17.3,3.6613218784332275,0.2815796732902527,0.950543999671936,0.4678618013858795,0.8700071573257446,0.453997939825058
17.325,1.48708176612854,1.1182163953781128,2.7742886543273926,0.5421338677406311,1.070013403892517,1.2193596363067627
17.35,-0.10998022556304932,2.063389778137207,5.8984270095825195,0.277138352394104,0.41700291633605957,1.670832872390747
17.375,-2.3314332962036133,2.4348957538604736,6.708238124847412,-0.23226982355117798,-1.4378446340560913,1.8318679332733154
17.4,-3.1929702758789062,2.540276050567627,3.2409989833831787,-0.655738353729248,-2.9326891899108887,1.728269338607788
17.425,-2.1491994857788086,2.3871312141418457,-0.18297192454338074,-0.5911884903907776,-3.456590414047241,1.6950210332870483
17.45,-1.9611411094665527,2.2717537879943848,-0.41878196597099304,-0.5316812992095947,-2.4302444458007812,1.777050495147705
17.475,-3.4121227264404297,1.8856234550476074,0.7214086651802063,-0.979824423789978,-1.1628466844558716,1.596472144126892
17.5,-5.152356147766113,1.4889845848083496,1.2859678268432617,-1.2560310363769531,-0.9418575763702393,1.252958059310913
17.525,-6.192041397094727,1.1420685052871704,0.9430787563323975,-1.185240387916565,-1.6161115169525146,0.9892797470092773
17.55,-7.039894104003906,0.36816850304603577,-0.08056113123893738,-1.01275634765625,-2.4810423851013184,0.8548133373260498
17.575,-7.230565071105957,-0.9817261099815369,-1.0579935312271118,-0.8172930479049683,-3.0176281929016113,0.777885913848877
17.6,-6.137722492218018,-2.57714581489563,-1.555389642715454,-0.5829951763153076,-3.3717334270477295,0.7303345203399658
17.625,-4.813816070556641,-3.6995291709899902,-1.4931519031524658,-0.2293022722005844,-3.3763587474823,0.682701826095581
17.65,-3.793541431427002,-3.7124781608581543,-1.3715988397598267,0.2798251211643219,-3.1802141666412354,0.5261574983596802
17.675,-3.490631341934204,-2.5108861923217773,-1.6090891361236572,0.9273075461387634,-3.3556854724884033,0.2890663146972656
17.7,-4.564949035644531,-0.5370574593544006,-2.604623794555664,1.6044254302978516,-3.9824743270874023,0.04381823539733887
17.725,-3.9074368476867676,1.001010537147522,-4.79620361328125,2.127206802368164,-5.304861068725586,0.22510790824890137
17.75,0.38093364238739014,0.6694519519805908,-6.002022743225098,1.6396673917770386,-6.684974193572998,0.6599295735359192
17.775,5.242504119873047,-0.30285200476646423,-4.695662021636963,0.7687169909477234,-6.334063529968262,0.6358122825622559
17.8,8.185895919799805,-0.420267790555954,-2.1218934059143066,0.5279672741889954,-4.937959671020508,0.348685085773468
17.825,7.89973258972168,0.004299461841583252,-0.08726000785827637,0.7799513936042786,-3.3541760444641113,0.17752930521965027
17.85,4.5568671226501465,0.47764745354652405,0.1382036656141281,0.8106659650802612,-1.3448219299316406,-0.09382560849189758
17.875,0.30299922823905945,1.2628079652786255,-0.7092589139938354,0.972896158695221,0.3561006486415863,-0.30426910519599915
17.9,-2.904439687728882,1.0974410772323608,-0.9759311676025391,0.950852632522583,1.143750786781311,-0.27772340178489685
17.925,-4.983726501464844,-0.19766956567764282,-0.7730202674865723,0.5943818688392639,0.7057305574417114,-0.17388655245304108
17.95,-6.044661521911621,-1.0956826210021973,-1.289378046989441,0.42399150133132935,-0.101155124604702,-0.1456938534975052
17.975,-4.956282615661621,-0.9411598443984985,-2.1492855548858643,0.5002559423446655,-1.2891935110092163,-0.11971988528966904
18.0,-1.898119568824768,-0.7278364300727844,-1.8082631826400757,0.4166085422039032,-2.76694917678833,-0.17122069001197815
18.025,0.7657380700111389,-0.918709933757782,-0.09041095525026321,0.3239480257034302,-3.624894142150879,-0.21256718039512634
18.05,1.3739936351776123,-1.193375825881958,1.2138527631759644,0.3776071071624756,-3.5728089809417725,-0.16229577362537384
18.075,0.553813099861145,-0.8984739184379578,1.1429673433303833,0.453574001789093,-2.6767213344573975,-0.07859684526920319
18.1,-0.8489128351211548,0.358832448720932,0.3572424352169037,0.4813573658466339,-1.6766704320907593,-0.051601871848106384
18.125,-1.9389673471450806,1.2341140508651733,-0.7175450325012207,0.15104860067367554,-1.4141407012939453,-0.15288333594799042
18.15,-2.062833309173584,1.4033054113388062,-2.132277727127075,0.006451204419136047,-1.77529776096344,-0.23434589803218842
18.175,-1.3115003108978271,1.5682215690612793,-3.11476731300354,0.09570716321468353,-2.055708646774292,-0.21737022697925568
18.2,-0.5941829085350037,1.3316786289215088,-2.801034688949585,0.08369351923465729,-2.5674338340759277,-0.2064620554447174
18.225,-0.049755096435546875,0.8564035296440125,-1.672319769859314,0.02545972168445587,-2.9945602416992188,-0.17324234545230865
18.25,0.3039613664150238,0.4891844093799591,-0.15905015170574188,0.015724416822195053,-2.842589855194092,-0.09899768233299255
18.275,0.211672842502594,0.5134458541870117,0.6377575993537903,0.05506937578320503,-2.20355224609375,0.03132119029760361
18.3,0.3627311885356903,0.6711215972900391,0.02177925407886505,0.23848332464694977,-1.4012421369552612,0.24230068922042847
18.325,0.4005194902420044,0.6373558640480042,-0.4336779713630676,0.30544814467430115,-1.7098256349563599,0.2577802538871765
18.35,-0.09381885826587677,0.44071680307388306,-0.08261777460575104,0.07038445770740509,-2.0010640621185303,0.1322973370552063
18.375,-0.718140184879303,0.5029479265213013,0.20987358689308167,-0.05794103443622589,-1.936748743057251,0.06973439455032349
18.4,-0.963114857673645,0.7421866655349731,0.573701798915863,0.005317628383636475,-1.6719274520874023,0.11202624440193176
18.425,-1.02336847782135,0.3750506639480591,1.1129025220870972,-0.14164267480373383,-1.4212822914123535,0.032040856778621674
18.45,-1.8079005479812622,0.1689836084842682,0.6406418085098267,-0.2252555936574936,-1.2996681928634644,-0.025266475975513458
18.475,-2.1676337718963623,0.48603564500808716,-1.427262306213379,-0.2404426634311676,-1.049246072769165,0.04733305051922798
18.5,-2.17033052444458,0.32633525133132935,-2.7779324054718018,-0.24645160138607025,-1.0388219356536865,-0.061804771423339844
18.525,-1.7478218078613281,-0.4230068325996399,-2.609283685684204,-0.2395358383655548,-1.6943552494049072,-0.40282002091407776
18.55,-0.7660725712776184,-0.6833085417747498,-1.8529775142669678,-0.19504164159297943,-2.541353702545166,-0.7121880650520325
18.575,-0.23640230298042297,-0.006794871762394905,-1.218529462814331,-0.19247189164161682,-3.1113393306732178,-0.769193172454834
18.6,-0.07000315189361572,0.6300021409988403,-1.0903016328811646,-0.2985715866088867,-2.8653950691223145,-0.8893446326255798
18.625,0.44460228085517883,1.0835667848587036,-0.9505445957183838,-0.2646338939666748,-2.5814454555511475,-0.9480240345001221
18.65,1.1591660976409912,1.4871635437011719,-0.5576276779174805,-0.1323181688785553,-2.5947508811950684,-0.9450665712356567
18.675,1.1207056045532227,1.7029896974563599,-0.10832297801971436,-0.012702077627182007,-2.747387170791626,-1.1161866188049316
18.7,0.7983779907226562,2.0947067737579346,0.025032350793480873,0.07544752955436707,-2.236985206604004,-1.2923076152801514
18.725,1.090265154838562,2.2944300174713135,0.0008984471205621958,0.23171278834342957,-1.4632679224014282,-1.3734828233718872
18.75,1.819022297859192,1.9799948930740356,-0.28888440132141113,0.4595777690410614,-0.9137177467346191,-1.339621901512146
18.775,2.4579319953918457,1.3934191465377808,-0.6978099346160889,0.6510432362556458,-0.7408799529075623,-1.2312862873077393
18.8,2.8337202072143555,0.45499882102012634,-0.6423591375350952,0.7685578465461731,-0.8781089186668396,-1.1272975206375122
18.825,2.8281404972076416,-0.7737678289413452,0.07214473932981491,0.7624406218528748,-1.2241121530532837,-1.0795561075210571
18.85,2.1656200885772705,-1.852792739868164,0.9784919619560242,0.6679239869117737,-1.3599916696548462,-0.9245800971984863
18.875,0.8455198407173157,-2.652071475982666,1.6786556243896484,0.5836158990859985,-1.1888991594314575,-0.7553040981292725
18.9,-0.4922787845134735,-3.0254640579223633,2.07515549659729,0.5051677227020264,-0.8530393838882446,-0.5885441899299622
18.925,-1.2922554016113281,-2.9951717853546143,1.923994779586792,0.4679332971572876,-0.409549742937088,-0.4632507860660553
18.95,-1.8348219394683838,-2.692129373550415,1.313657283782959,0.5722554326057434,-0.0011597622651606798,-0.40869271755218506
18.975,-2.1717283725738525,-2.065347671508789,-0.021162575110793114,0.9010837078094482,0.312051385641098,-0.3216898441314697
19.0,-1.6393728256225586,-0.874876856803894,-2.2927308082580566,1.2648799419403076,0.710668683052063,0.0547429658472538
19.025,-0.9605070352554321,0.3798668682575226,-3.7560174465179443,1.51813805103302,0.9141426682472229,0.424625426530838
19.05,-0.6297640800476074,0.8879731297492981,-3.9643595218658447,1.5283044576644897,0.9097530841827393,0.5491383075714111
19.075,-1.0033514499664307,0.3176433742046356,-3.1235623359680176,1.0823891162872314,0.6297538876533508,0.11720976233482361
19.1,-1.8960899114608765,-0.7569779753684998,-1.500759243965149,0.32510602474212646,-0.23668529093265533,-0.36868345737457275
19.125,-2.453720808029175,-1.388090968132019,-0.17102926969528198,-0.2781783938407898,-1.0631393194198608,-0.6346325874328613
19.15,-2.6194865703582764,-1.0324572324752808,-0.11256495118141174,-0.4876103699207306,-1.3080849647521973,-0.6854962110519409
19.175,-2.6021201610565186,1.37686288356781,-0.5933891534805298,-0.49630236625671387,-1.4291936159133911,-0.7276283502578735
19.2,-2.4093217849731445,5.401645183563232,-0.7599385976791382,-0.4123690128326416,-1.4988776445388794,-0.8040452003479004
19.225,-1.6300058364868164,6.33287239074707,-0.026966482400894165,-0.15124884247779846,-0.7183834910392761,-0.4209534823894501
19.25,1.2627508640289307,1.5992051362991333,2.1772637367248535,-0.13026338815689087,-0.19623667001724243,-0.6296846866607666
19.275,3.4015884399414062,-0.560488224029541,3.865201234817505,-0.8986473679542542,-0.9877292513847351,-0.0551304817199707
19.3,3.462876558303833,-0.46732184290885925,3.466127395629883,-0.5643616914749146,-0.27433985471725464,0.6150250434875488
19.325,3.42191743850708,-0.9760632514953613,2.1405599117279053,-0.4455443024635315,0.08649793267250061,0.962458074092865
19.35,3.0201940536499023,-1.133267879486084,1.707632303237915,-0.24364176392555237,0.8091810345649719,1.3015975952148438
19.375,2.2334389686584473,-0.20638491213321686,1.348894476890564,-0.006800413131713867,1.2615976333618164,1.366506576538086
19.4,2.1444544792175293,1.0884627103805542,1.0021313428878784,0.07889688014984131,1.2578421831130981,1.4494163990020752
19.425,1.9344617128372192,2.1022281646728516,1.055098295211792,-0.015421628952026367,1.462282419204712,1.652463436126709
19.45,1.091339111328125,1.6986008882522583,1.2998648881912231,-0.3140578269958496,1.023797631263733,1.3775609731674194
19.475,0.6952641010284424,0.42641541361808777,1.07272469997406,-0.46307170391082764,0.476880818605423,1.0355470180511475
19.5,0.9035231471061707,-0.020550809800624847,0.13091494143009186,-0.5158706307411194,0.35645338892936707,1.0598870515823364
19.525,0.9761137962341309,0.11621661484241486,-0.5959204435348511,-0.526790201663971,0.1050342544913292,0.8461008667945862
19.55,0.6477193832397461,0.29331398010253906,-0.44017788767814636,-0.4704524874687195,-0.16583207249641418,0.5899959802627563
19.575,0.18995574116706848,0.3536853790283203,0.15389367938041687,-0.3666872978210449,-0.17517875134944916,0.5115498304367065
19.6,-0.09685854613780975,-0.38711270689964294,0.9230684638023376,-0.2860496938228607,0.13511013984680176,0.46864259243011475
19.625,-0.426019549369812,-1.5192301273345947,1.6074751615524292,-0.22392581403255463,0.5429748296737671,0.491416871547699
19.65,-0.676274299621582,-1.9037210941314697,1.4784317016601562,-0.2959810793399811,0.7397129535675049,0.5833364725112915
19.675,-0.8047457337379456,-1.2115212678909302,0.5636866092681885,-0.4266349673271179,0.9739234447479248,0.6958507895469666
19.7,-0.9269251823425293,-0.3277987837791443,-0.5550274848937988,-0.41694003343582153,1.232248306274414,0.7669051289558411
19.725,-0.6197160482406616,-0.23241321742534637,-1.4357917308807373,-0.3275293707847595,1.4055238962173462,0.5670242309570312
19.75,-0.25565850734710693,-0.11241905391216278,-2.0079026222229004,-0.21709713339805603,1.380431056022644,0.3680795729160309
19.775,-0.23769789934158325,0.4414149820804596,-2.1018896102905273,-0.17164233326911926,1.1234561204910278,0.3521044850349426
19.8,-0.7058569192886353,0.6139823794364929,-1.588789701461792,-0.14017096161842346,0.7464836239814758,0.02415364980697632
19.825,-1.0007363557815552,0.6538259387016296,-0.43475577235221863,-0.168033167719841,0.36263373494148254,-0.09905540198087692
19.85,-0.8029581308364868,0.20450788736343384,1.0111150741577148,-0.2812545895576477,0.4601518213748932,-0.048045869916677475
19.875,-0.9189911484718323,0.06089690700173378,1.5176533460617065,-0.39047205448150635,0.8525199890136719,0.11894477158784866
19.9,-0.8907657861709595,0.5506154298782349,0.704315721988678,-0.5415909290313721,1.338890552520752,0.3303452134132385
19.925,-1.0856714248657227,0.23678888380527496,-0.3615007698535919,-0.5897843837738037,1.5508257150650024,0.32574620842933655
