Time [s],Acc_x [m/s^2],Acc_y [m/s^2],Acc_z [m/s^2],Gyro_x [1/s],Gyro_y [1/s],Gyro_z [1/s]
0.0,-1.4546394348144531,-0.5315664410591125,2.0453968048095703,-0.060653090476989746,1.599976658821106,-0.7767822742462158
0.05,-2.6453142166137695,-0.2869614064693451,-0.03006480447947979,0.167649507522583,1.009279489517212,-0.8118079304695129
0.1,-1.887913465499878,-0.8453043699264526,-0.42295652627944946,0.38931405544281006,0.9552432894706726,-0.28611263632774353
0.15,-2.2816343307495117,-0.18528738617897034,-0.7681023478507996,0.3284042179584503,0.21782514452934265,-0.2892276644706726
0.2,-1.1001343727111816,-1.4172656536102295,0.4222426116466522,0.2213442623615265,-0.18772004544734955,-0.37611475586891174
0.25,-2.072108745574951,-0.33808600902557373,0.01958896778523922,0.29541075229644775,-0.5081993341445923,-0.5934651494026184
0.3,-1.4112650156021118,-0.6850508451461792,0.13986770808696747,0.25212228298187256,-0.5078376531600952,-0.48430967330932617
0.35,0.5832208395004272,-0.5322284698486328,-0.17494691908359528,0.3617790937423706,-0.17745260894298553,-0.0701579675078392
0.4,-0.6107890009880066,-0.7780693769454956,1.1096802949905396,0.290802538394928,-0.5745083689689636,-0.3648744523525238
0.45,1.2158725261688232,-1.1557635068893433,0.7778170108795166,0.47303521633148193,0.094929039478302,0.3101113438606262
0.5,0.07060188055038452,0.12390802800655365,-0.16101782023906708,0.44768351316452026,-0.022882934659719467,0.14211389422416687
0.55,0.17293894290924072,-0.05891703441739082,0.3877684473991394,0.24916046857833862,-0.16662953794002533,0.17122310400009155
0.6,0.512545108795166,0.21000191569328308,0.23955467343330383,0.16395226120948792,-0.12987197935581207,0.27117881178855896
0.65,-0.2302962690591812,0.4893026351928711,0.31306201219558716,0.02923048660159111,-0.3317636549472809,0.015787869691848755
0.7,0.3104522228240967,0.19313524663448334,0.4708430767059326,-0.1100035011768341,-0.4798542559146881,-0.06540466099977493
0.75,-0.8665582537651062,-0.021408963948488235,0.7505962252616882,-0.16025975346565247,-0.34933409094810486,-0.10927616059780121
0.8,-0.4342355728149414,-0.041457127779722214,0.6299384832382202,-0.11666479706764221,0.017007628455758095,0.2483607977628708
0.85,-1.106783390045166,0.5311995148658752,1.0246912240982056,-0.07802703976631165,0.2371979057788849,0.4266367554664612
0.9,-0.389708936214447,0.33614635467529297,0.22370217740535736,-0.08470463752746582,0.4550299048423767,0.6846882104873657
0.95,0.8181874752044678,-0.07334041595458984,0.7710064053535461,-0.15216897428035736,0.3589910864830017,0.6175041198730469
1.0,-2.2025022506713867,0.29587188363075256,1.8552247285842896,-0.1959296017885208,-0.4007124602794647,-0.2854527235031128
1.05,-2.1502022743225098,-0.032053761184215546,2.1559383869171143,-0.08736570924520493,-0.3326828181743622,-0.18688607215881348
1.1,-1.7128961086273193,0.26362428069114685,0.9600932598114014,0.1457730084657669,-0.16013111174106598,0.03460533171892166
1.15,0.06616735458374023,0.1550436168909073,0.6381863355636597,0.23684103786945343,0.11678040027618408,0.45114511251449585
1.2,-0.19977182149887085,0.14568233489990234,0.07381849735975266,0.16727685928344727,0.23749536275863647,0.43569016456604004
1.25,-0.8556843400001526,-0.3742932081222534,0.9465855360031128,-0.010212026536464691,-0.0021496196277439594,0.15274296700954437
1.3,-0.204266756772995,-0.18942159414291382,0.8744389414787292,0.008248478174209595,0.5093003511428833,0.5884031057357788
1.35,-0.19631734490394592,0.6742505431175232,0.4467746317386627,-0.058831796050071716,0.30943572521209717,0.34045103192329407
1.4,1.0825673341751099,1.0184162855148315,0.05398625135421753,-0.21881452202796936,-0.18750734627246857,-0.09868961572647095
1.45,-0.6898988485336304,-0.33596503734588623,1.4245343208312988,-0.4242030084133148,-1.458634614944458,-1.2997268438339233
1.5,-2.264561176300049,-0.965111494064331,1.7453553676605225,-0.4159986972808838,-0.3561383783817291,-0.2891058623790741
1.55,0.06434836983680725,0.501428484916687,-0.7402202486991882,-0.26814109086990356,1.2936220169067383,1.2121531963348389
1.6,-1.339340090751648,-0.20795905590057373,1.0509014129638672,-0.45462766289711,0.1878925859928131,0.3746792674064636
1.65,1.8131635189056396,0.7941941022872925,-0.25511711835861206,-0.3280934691429138,0.3124692142009735,0.5659512877464294
1.7,-2.094999313354492,-0.860344648361206,2.179373025894165,-0.26499640941619873,-1.1576730012893677,-0.8274634480476379
1.75,-1.6350501775741577,-0.40223297476768494,0.899781346321106,-0.16752848029136658,0.5356553792953491,0.3910605013370514
1.8,1.816643238067627,2.228916645050049,-1.9544308185577393,-0.26861268281936646,1.9340417385101318,1.5313268899917603
1.85,-1.7999448776245117,-1.1171919107437134,2.9335687160491943,-0.35192951560020447,-0.5232664942741394,-0.37104299664497375
1.9,-1.1370490789413452,-0.08337300270795822,0.16275745630264282,-0.01311829686164856,-0.7365665435791016,-0.43025216460227966
1.95,-1.5340678691864014,-1.0495021343231201,0.7910959124565125,-0.11179676651954651,0.011168875731527805,-0.0692397803068161
2.0,-0.9250478744506836,-0.0989656001329422,-0.058073632419109344,-0.0971510112285614,1.1177557706832886,0.6919611096382141
2.05,-1.243194580078125,-0.9172199368476868,1.2503318786621094,-0.2005329132080078,1.224265456199646,0.9835488200187683
2.1,1.0945931673049927,-0.8420591354370117,0.18649987876415253,-0.28819113969802856,2.0998265743255615,1.4069007635116577
2.15,2.0576837062835693,-3.2955334186553955,2.9451920986175537,-0.13249880075454712,2.636812925338745,1.3811360597610474
2.2,3.6469526290893555,-2.8981845378875732,2.219374895095825,0.4970362186431885,4.186183929443359,2.0483291149139404
2.25,1.0683035850524902,-1.797560691833496,-0.3692692220211029,1.484788417816162,3.729030132293701,1.4473025798797607
2.3,-0.19229263067245483,-4.593756198883057,1.6216497421264648,2.3088924884796143,1.3372864723205566,-0.6060522198677063
2.35,-2.218020439147949,-2.03513240814209,0.8291699290275574,3.1094298362731934,0.8197149038314819,-1.3262324333190918
2.4,-2.3739397525787354,0.28179267048835754,-0.8192853331565857,3.62813663482666,0.9982141256332397,-1.182965874671936
2.45,-1.8195955753326416,2.0285556316375732,-0.6032432317733765,3.3151540756225586,0.12043441832065582,-1.719618797302246
2.5,-4.44570255279541,4.585398197174072,0.19413873553276062,2.7724661827087402,0.13410942256450653,-1.5616848468780518
2.55,-0.3338201940059662,8.648965835571289,0.8711303472518921,1.6329295635223389,-0.2148386836051941,-0.5433427095413208
2.6,1.2871358394622803,-1.961375117301941,1.821911096572876,-0.07114875316619873,-0.11099010705947876,-1.0187289714813232
2.65,-1.5486794710159302,0.31249818205833435,1.5271180868148804,0.30242884159088135,0.36351290345191956,-0.3922364413738251
2.7,-1.0314874649047852,-0.009199040941894054,1.3771756887435913,0.01656005159020424,0.07519853115081787,-0.056820306926965714
2.75,-1.0836372375488281,-0.3953923285007477,0.3758830428123474,-0.040753073990345,-0.06259067356586456,-0.1194547638297081
2.8,-1.509615421295166,0.20649534463882446,0.1869330257177353,0.3829258382320404,-0.1711873561143875,0.836545467376709
2.85,-1.7422668933868408,0.1625576615333557,0.1254359930753708,0.5243192911148071,-0.4353981912136078,1.2858737707138062
2.9,-2.1216702461242676,1.7730293273925781,0.13178898394107819,0.34046828746795654,-0.7488135695457458,1.0609359741210938
2.95,-2.56072735786438,0.6212912201881409,0.1501379907131195,0.005958914756774902,-1.0857326984405518,0.7429538369178772
3.0,-1.2400213479995728,0.21432119607925415,0.4429642856121063,-0.1684037744998932,-1.4090276956558228,1.0188944339752197
3.05,-0.07937166094779968,-0.676559329032898,0.84585040807724,-0.2482069730758667,-1.3247984647750854,1.4643396139144897
3.1,1.26889967918396,-0.933982789516449,1.2429490089416504,-0.17836809158325195,-0.9485629200935364,2.0084288120269775
3.15,0.1496131420135498,1.173395037651062,1.0450512170791626,-0.12775540351867676,-0.5505700707435608,1.8007848262786865
3.2,0.10278373956680298,-0.7157582640647888,0.7457878589630127,-0.20072892308235168,-0.5043841004371643,0.18596592545509338
3.25,-0.3292928636074066,-0.6726502180099487,0.5949816703796387,-0.15564829111099243,-0.365843802690506,0.19524700939655304
3.3,-0.5950225591659546,-0.1266908049583435,0.5225124359130859,-0.09287013113498688,-0.2748861610889435,0.271268755197525
3.35,-0.5425452589988708,-0.3567761480808258,0.5248613357543945,-0.08106919378042221,-0.2193487286567688,0.18217216432094574
3.4,-1.4158105850219727,1.236246109008789,0.19807909429073334,-0.13791730999946594,-0.12276937067508698,0.3741191625595093
3.45,-1.1018376350402832,-0.08269970864057541,0.35282567143440247,-0.18106664717197418,-0.307343453168869,-0.15559007227420807
3.5,-1.2778091430664062,0.1579943299293518,0.38693585991859436,-0.23763306438922882,-0.3436513841152191,0.053607236593961716
3.55,-2.398028612136841,1.7266778945922852,-0.4742414057254791,-0.1853354275226593,-0.31987735629081726,-0.2134711742401123
3.6,-0.7185233235359192,2.265166997909546,-0.4713226854801178,-0.050537824630737305,-0.911405622959137,-2.0100035667419434
3.65,1.920534372329712,-1.9643739461898804,0.6600720286369324,0.3459470272064209,-1.4175714254379272,-4.227283477783203
3.7,4.218670845031738,-3.851334810256958,2.200681447982788,0.9606366157531738,-0.9477753043174744,-4.40994930267334
3.75,6.95932674407959,2.274125576019287,1.0827518701553345,1.0000076293945312,0.7915843725204468,-3.1131722927093506
3.8,2.4818191528320312,1.9340063333511353,-2.815737247467041,0.40128397941589355,2.3035998344421387,-4.826289176940918
3.85,-13.798303604125977,-2.258136034011841,-1.0887373685836792,-0.9483475685119629,2.079887866973877,-6.205940246582031
3.9,-11.835741996765137,-0.33603984117507935,2.7587332725524902,-0.757848858833313,-0.212541863322258,-1.1300101280212402
3.95,0.792001485824585,4.9141621589660645,0.0335317887365818,-0.9420167207717896,-1.1859759092330933,3.3546602725982666
4.0,1.292905330657959,-1.504067301750183,1.4965659379959106,-2.489927291870117,-1.5159962177276611,0.9221330881118774
4.05,5.6839423179626465,-0.013106576167047024,0.40125465393066406,-2.2410662174224854,-0.7800889611244202,1.1858996152877808
4.1,-0.1711646020412445,-0.3518848121166229,0.059398725628852844,-1.4842522144317627,-0.3801332712173462,-0.626487135887146
4.15,-2.903380870819092,-2.5290513038635254,2.2113163471221924,-0.8916709423065186,-0.7879124283790588,-1.3849647045135498
4.2,-2.0526537895202637,0.8900785446166992,-1.013338565826416,-0.4665188789367676,0.23935438692569733,0.1843378245830536
4.25,-0.09312362223863602,0.7535218596458435,-0.046309083700180054,-0.5766361951828003,-0.012647858820855618,-0.0589633584022522
4.3,-1.4114303588867188,0.8866548538208008,-0.05650155991315842,-0.7642157077789307,0.17560504376888275,-0.23113317787647247
4.35,-0.7934725880622864,-0.3575963079929352,0.2816527783870697,-0.8656691312789917,0.2465936690568924,0.19375376403331757
4.4,-1.2263174057006836,-0.41801729798316956,0.027667487040162086,-0.8089333176612854,0.13239316642284393,0.13690178096294403
4.45,-0.8099170923233032,-0.840967059135437,0.3963565528392792,-0.7027755379676819,0.4182299077510834,0.3485773801803589
4.5,-0.5962262153625488,-0.08431051671504974,-0.4791293144226074,-0.4800146222114563,0.6212407946586609,0.3309328854084015
4.55,-1.2369694709777832,-0.6026171445846558,0.1195971742272377,-0.24397581815719604,0.1715477705001831,0.052202608436346054
4.6,-0.575910210609436,-0.03548046946525574,0.010211201384663582,-0.06325734406709671,0.28771477937698364,0.17378291487693787
4.65,-0.7927322387695312,0.3370676040649414,0.15581704676151276,0.005413558334112167,0.41166284680366516,0.11439060419797897
4.7,-0.6840400695800781,0.32804107666015625,0.10725311189889908,-0.03322145342826843,0.6502887010574341,0.3359394669532776
4.75,-0.03904363512992859,-0.05586335435509682,0.4648904800415039,-0.133892223238945,0.8878380656242371,0.5119647979736328
4.8,-0.7685856819152832,-0.17319580912590027,-0.273874968290329,-0.1450905203819275,1.337078332901001,0.5709936618804932
4.85,-0.35994064807891846,-0.0664500743150711,0.4682150185108185,-0.14502233266830444,1.6374218463897705,0.6650033593177795
4.9,-0.895250678062439,0.2359199821949005,-0.030993744730949402,-0.10545897483825684,1.6689822673797607,0.7076755166053772
4.95,-0.4433484673500061,-0.08357328176498413,0.7864571213722229,-0.11677691340446472,1.4529699087142944,0.626282274723053
5.0,-0.3783147931098938,0.4085893929004669,1.1300708055496216,0.021775007247924805,2.2762224674224854,1.061998963356018
5.05,-0.19449079036712646,-0.040440477430820465,1.7312989234924316,0.03742930293083191,2.6558663845062256,1.0367811918258667
5.1,-2.2829556465148926,0.5250378251075745,0.5161776542663574,0.09196743369102478,2.4985342025756836,0.7167743444442749
5.15,-1.334678292274475,0.12413125485181808,-0.05188602954149246,0.08039695024490356,2.3926289081573486,0.6874486804008484
5.2,-3.170095443725586,0.25382620096206665,-1.5260775089263916,0.3305951654911041,2.3372623920440674,0.7947884798049927
5.25,-1.152664065361023,0.5517625212669373,-0.8573396801948547,0.34137383103370667,2.1250765323638916,0.8821214437484741
5.3,-2.0231692790985107,-0.4413117468357086,-0.49158063530921936,0.06772850453853607,1.0146818161010742,0.3269750475883484
5.35,-2.6554622650146484,-0.8170918226242065,-0.9251707196235657,-0.18459558486938477,0.16658565402030945,0.08930344134569168
5.4,-1.8063453435897827,-1.2659366130828857,-0.17579840123653412,-0.2103244960308075,-0.1878492683172226,0.14898446202278137
5.45,-2.9531326293945312,-0.591659426689148,-1.0671851634979248,-0.1595875471830368,-0.5618341565132141,0.20858415961265564
5.5,-3.222565174102783,-2.061870813369751,-0.6545944213867188,-0.2410990297794342,-1.6734219789505005,-0.13189697265625
5.55,0.0830090343952179,-1.9348620176315308,-0.3196161389350891,0.06051740050315857,-2.471498489379883,-0.39152851700782776
5.6,2.7012221813201904,-1.2750959396362305,1.1076422929763794,0.5899080634117126,-3.3277804851531982,-1.2886950969696045
5.65,1.3352444171905518,-1.2322396039962769,0.038971856236457825,1.6116890907287598,-1.5647811889648438,-0.6585993766784668
5.7,-0.1916009783744812,-0.24135777354240417,-0.017804481089115143,1.867179036140442,-1.009568214416504,-0.6585928201675415
5.75,0.335662305355072,0.4150390326976776,0.5811334848403931,1.7915635108947754,-0.9684906005859375,-1.1688286066055298
5.8,0.8583629131317139,0.6192254424095154,0.5839540958404541,1.9047770500183105,0.1283339560031891,-0.6273455619812012
5.85,-1.139024019241333,0.019451240077614784,1.245518445968628,1.9006900787353516,0.40261149406433105,-0.5553748607635498
5.9,-1.5294432640075684,0.7659302353858948,0.8887796998023987,1.6373094320297241,0.4877540171146393,-0.07466825842857361
5.95,-0.06341326236724854,0.36145785450935364,1.489656925201416,1.2744977474212646,0.2314024567604065,-0.09722806513309479
6.0,-0.8637984991073608,2.2136781215667725,0.4749745726585388,1.1832904815673828,0.39131638407707214,-0.0473228320479393
6.05,0.5737468004226685,1.385125994682312,0.6531682014465332,0.547589898109436,0.05372634902596474,-1.2860183715820312
6.1,0.7504303455352783,2.145409345626831,0.41362664103507996,0.04037207365036011,0.1839573234319687,-1.8970621824264526
6.15,-0.2427951693534851,-0.28328225016593933,0.06541666388511658,-0.9049488306045532,0.016380850225687027,-3.764603614807129
6.2,-1.446661114692688,-0.32467925548553467,0.4010864794254303,-1.0990034341812134,0.10330671072006226,-3.2242465019226074
6.25,-2.756744623184204,-0.7127740383148193,0.9985893964767456,-0.6248579025268555,0.22624234855175018,-1.4762364625930786
6.3,-3.7745308876037598,0.31401553750038147,0.6878492832183838,-0.2573390007019043,-0.3008005917072296,-0.4847518503665924
6.35,-1.7775776386260986,-0.20300473272800446,0.28873032331466675,0.10039319097995758,-0.6668102145195007,0.6007474064826965
6.4,-1.4702277183532715,1.1433113813400269,-0.13230468332767487,0.3368023633956909,-0.723219096660614,1.0100984573364258
6.45,-1.4569008350372314,2.3007171154022217,-0.06644304096698761,-0.271675705909729,-1.1930832862854004,-0.3902585506439209
6.5,-0.43850696086883545,-0.9729832410812378,0.45351091027259827,-0.26139581203460693,-1.151937484741211,0.9843140840530396
6.55,2.8344812393188477,-2.0373966693878174,2.0405919551849365,0.0005486011505126953,-0.046865854412317276,4.560572624206543
6.6,5.024813175201416,0.46208176016807556,2.4670891761779785,-0.018190622329711914,0.9838440418243408,4.637265205383301
6.65,-1.1937624216079712,1.1803959608078003,-0.25451865792274475,-0.284576952457428,1.3523750305175781,1.7982150316238403
6.7,0.1373157650232315,0.025997133925557137,-0.4947633147239685,-0.4102165102958679,0.9797922968864441,0.9300612807273865
6.75,-2.2707419395446777,0.7498283386230469,-0.3149275481700897,-0.1082395613193512,0.7967218160629272,1.0369371175765991
6.8,-1.6538469791412354,-0.5767286419868469,0.8814069628715515,-0.32172954082489014,0.06095341220498085,-0.2792302668094635
6.85,-1.3952364921569824,-1.2796695232391357,0.5129485726356506,-0.3276303708553314,-0.07597163319587708,-0.7047224044799805
6.9,-0.8507214188575745,0.44580745697021484,0.1676725447177887,-0.12444696575403214,0.31793397665023804,0.17934896051883698
6.95,-0.40718287229537964,0.20940496027469635,0.17933423817157745,-0.03428081423044205,0.19686947762966156,0.18584956228733063
7.0,-0.5336253046989441,0.08597471565008163,0.20671476423740387,-0.043326884508132935,0.15066464245319366,0.25157850980758667
7.05,-0.7408726811408997,-0.4266509413719177,0.2151486873626709,0.0033913403749465942,0.18179668486118317,0.31211143732070923
7.1,-0.5828438997268677,-0.5599583387374878,0.7223334908485413,0.051602039486169815,0.005723420064896345,-0.1285422444343567
7.15,-0.4728391766548157,0.502650260925293,0.4157431721687317,0.17401686310768127,0.3006244897842407,0.37486502528190613
7.2,-0.41277655959129333,-0.4111737608909607,0.3425886929035187,0.09704937040805817,0.3668762445449829,0.39429938793182373
7.25,-0.582983136177063,-0.06972213089466095,0.3719673454761505,0.11825838685035706,0.5582481622695923,0.7674894332885742
7.3,-0.3514813780784607,-0.1287679225206375,0.31100958585739136,0.19318917393684387,0.6787756681442261,0.9942267537117004
7.35,-0.41886624693870544,-0.8601387739181519,0.5577654242515564,0.2540988624095917,0.8211113810539246,1.1209793090820312
7.4,-0.8724490404129028,0.5639944076538086,0.14992660284042358,0.4235193133354187,1.0057328939437866,1.5340379476547241
7.45,-1.6646394729614258,0.5317583084106445,0.24820777773857117,0.24903330206871033,0.7852303385734558,0.9742246270179749
7.5,-0.9707742929458618,-0.29336538910865784,0.5864675045013428,0.017662689089775085,0.32369887828826904,0.1644727885723114
7.55,-0.9619646072387695,-0.07100574672222137,0.5546662211418152,0.025250885635614395,0.2309962958097458,0.15180081129074097
7.6,-0.680159330368042,-0.25566282868385315,0.4092540144920349,0.06130189821124077,0.16099710762500763,0.19029144942760468
7.65,-0.38086965680122375,0.07684805244207382,0.34525951743125916,0.10294903814792633,0.18377670645713806,0.2579931318759918
7.7,0.03683482110500336,0.0212717168033123,0.3571884036064148,0.1166113018989563,0.3018205463886261,0.3592092990875244
7.75,-0.07822033762931824,-0.5233563780784607,0.10356214642524719,0.200022891163826,0.5497812628746033,0.683928906917572
7.8,-1.1014792919158936,0.32912543416023254,0.33941614627838135,0.2220550924539566,0.6240290999412537,0.6143551468849182
7.85,-1.3113341331481934,0.93902587890625,0.45803481340408325,0.0664224922657013,0.4646207392215729,0.3002464175224304
7.9,-0.783876359462738,-0.2938956320285797,0.7638209462165833,-0.4343830943107605,-0.0011556287063285708,-0.6225277185440063
7.95,-1.1707998514175415,-0.37746989727020264,0.6281580328941345,-0.38093191385269165,-0.009151171892881393,-0.5227731466293335
8.0,-0.7954179644584656,0.23093608021736145,0.1958736628293991,-0.171188622713089,0.1228640228509903,-0.101465605199337
8.05,-0.42098748683929443,-0.028231581673026085,0.47461432218551636,-0.28959012031555176,0.05932958424091339,-0.21318942308425903
8.1,-0.7460615038871765,-0.3281497061252594,0.4661778211593628,-0.2681993842124939,0.12012048065662384,-0.05131559818983078
8.15,-0.6135812997817993,0.07849791646003723,0.19292226433753967,-0.2884044945240021,0.009372474625706673,-0.22345870733261108
8.2,-0.523472249507904,-0.34978002309799194,0.35919180512428284,-0.23642408847808838,0.10860166698694229,0.03568810969591141
8.25,-0.8555114269256592,-0.05529969930648804,0.4696706533432007,-0.184742733836174,0.09846900403499603,0.0659954622387886
8.3,-0.34764665365219116,-0.09923645853996277,0.16336685419082642,-0.20784661173820496,-0.02543828636407852,-0.02314211241900921
8.35,-0.8875435590744019,-0.0134133817628026,0.19647535681724548,-0.13176444172859192,0.054122667759656906,0.14633901417255402
8.4,-0.030320145189762115,-0.15691658854484558,0.2700802683830261,-0.19350135326385498,0.013686033897101879,0.06529013812541962
8.45,-0.7728066444396973,-0.06242747604846954,0.1937132477760315,-0.07061455398797989,0.17481383681297302,0.21109819412231445
8.5,-0.5465736985206604,-0.11348626017570496,0.0344352200627327,-0.13053962588310242,0.09329292178153992,0.08815112709999084
8.55,-0.688839852809906,0.16008570790290833,0.5386049151420593,-0.09784412384033203,0.14483484625816345,0.1516617089509964
8.6,0.0024447739124298096,-0.0664500966668129,0.3774450719356537,-0.16950011253356934,0.08192937076091766,0.01367331575602293
8.65,-0.31287309527397156,0.17275428771972656,0.06333005428314209,-0.17345796525478363,0.2283698171377182,0.023107687011361122
8.7,-0.14741559326648712,0.29672908782958984,0.4514385163784027,-0.2826676070690155,0.1998194307088852,-0.1033891960978508
8.75,-0.7920125126838684,0.042093321681022644,0.3658641576766968,-0.3762032389640808,0.363629013299942,-0.048122115433216095
8.8,0.0106620192527771,-0.47760480642318726,0.922485888004303,-0.6160485744476318,0.14371095597743988,-0.4182899594306946
8.85,-0.5403092503547668,0.007438710890710354,0.6921812891960144,-0.33411869406700134,0.3499918282032013,-0.14477048814296722
8.9,-0.1119435578584671,0.3350972831249237,0.018639305606484413,-0.44040369987487793,0.2580532133579254,-0.27312734723091125
8.95,-0.37391209602355957,-0.1976880431175232,0.6512563228607178,-0.5168256163597107,0.33681535720825195,-0.27727851271629333
9.0,0.46456581354141235,-0.2976703643798828,-0.03648349270224571,-0.3467850983142853,0.4110105335712433,-0.18955504894256592
9.05,-1.6989790201187134,0.2410603016614914,-0.33271723985671997,-0.12637865543365479,0.656697690486908,-0.07446281611919403
9.1,-0.7871108651161194,-0.8313912749290466,-0.41295063495635986,-0.4258140027523041,0.14865200221538544,-0.3830774128437042
9.15,-1.614809274673462,-0.07864467799663544,-0.1546461582183838,-0.2434965968132019,0.1871526837348938,-0.25179553031921387
9.2,-0.8340818285942078,-0.38667765259742737,0.4772467315196991,-0.24645771086215973,-0.04141976311802864,-0.2485460489988327
9.25,-0.5693034529685974,0.8625154495239258,0.24205324053764343,-0.1247125118970871,-0.058159127831459045,-0.19196684658527374
9.3,-1.5668604373931885,0.499666303396225,1.24254310131073,-0.4989587664604187,-0.27898868918418884,-0.5910310745239258
9.35,-0.43983355164527893,0.1833953708410263,-0.42250317335128784,-0.5032094120979309,-0.338331937789917,-0.5400204062461853
9.4,-0.9165711402893066,0.16390995681285858,0.31369465589523315,-0.5840334296226501,-0.2611369490623474,-0.6337660551071167
9.45,0.01700855791568756,-1.0959042310714722,-0.2349443882703781,-0.6291360855102539,-0.3604602515697479,-0.6684693098068237
9.5,-0.6595445871353149,1.7993744611740112,-1.3123044967651367,-0.8142021894454956,-0.598045825958252,-0.9747322797775269
9.55,-2.6101431846618652,0.9958478212356567,1.3488798141479492,-2.6223626136779785,-2.054748773574829,-2.1655263900756836
9.6,-0.8375066518783569,2.1847970485687256,0.7667959928512573,-2.448662519454956,-2.720258951187134,-1.153633952140808
9.65,2.8110291957855225,-2.1588339805603027,-1.4473307132720947,-1.0449559688568115,-2.040043592453003,0.6133017539978027
9.7,5.5320258140563965,-1.105072021484375,2.004537582397461,0.23102641105651855,-0.014349476434290409,1.2939531803131104
9.75,4.503244876861572,-1.2225133180618286,-0.6408464312553406,0.8544053435325623,1.1024481058120728,0.5585722923278809
9.8,1.618093729019165,0.257493793964386,-1.9511886835098267,0.4198145568370819,1.302243947982788,-0.9477337002754211
9.85,-0.2043982744216919,1.351359248161316,-1.553223967552185,-0.7378082275390625,0.8648031949996948,-2.2482662200927734
9.9,-1.68415367603302,-2.420032024383545,1.4180283546447754,-1.6075961589813232,0.27794137597084045,-3.004492998123169
9.95,-3.219458818435669,0.8047171235084534,-0.012036848813295364,-0.5004639029502869,0.5465683341026306,-2.5315983295440674
10.0,-4.373720169067383,2.6508569717407227,-1.0382652282714844,-0.14750415086746216,0.528239369392395,-1.7539286613464355
10.05,-3.2825655937194824,1.519729733467102,1.176890254020691,-0.39143678545951843,0.33640044927597046,-0.7181960940361023
10.1,-1.0288037061691284,-0.14469702541828156,2.401078224182129,-0.04632715880870819,-0.03967577964067459,0.365642786026001
10.15,-0.22569656372070312,1.7055739164352417,-0.28393909335136414,0.2870241403579712,-0.3783319294452667,0.46345654129981995
10.2,-0.25864696502685547,0.22858430445194244,0.2907385528087616,-0.4717114567756653,-0.5788667798042297,-0.21428757905960083
10.25,-0.49617400765419006,0.6319836974143982,-0.7534942626953125,-0.6365504860877991,-0.47379860281944275,-0.5254964232444763
10.3,-1.1209449768066406,-0.24326886236667633,1.1624188423156738,-1.603156566619873,-0.8006077408790588,-0.8908619284629822
10.35,-1.0373222827911377,0.7955579161643982,-1.7014027833938599,-0.7190306186676025,-0.376138836145401,-0.347120076417923
10.4,0.06250268220901489,-1.0181912183761597,-1.349229097366333,-1.4685149192810059,-0.29998064041137695,-0.49368104338645935
10.45,0.15374773740768433,-0.988557755947113,0.09167033433914185,-2.816779136657715,-0.5905410647392273,-1.256730079650879
10.5,-1.1189854145050049,-1.7607780694961548,3.4678831100463867,-3.1698575019836426,-1.036260962486267,-1.6180857419967651
10.55,-0.5502446889877319,-1.216709017753601,-0.7953714728355408,-1.3588058948516846,-0.8885855674743652,-0.9565243124961853
10.6,-2.6556026935577393,-1.1363016366958618,2.6748979091644287,-1.6754800081253052,-1.1319422721862793,-1.2206135988235474
10.65,-0.9834833145141602,-1.6716021299362183,-0.6564147472381592,-0.26860952377319336,-0.9996361136436462,-0.547966718673706
10.7,-1.093612790107727,0.3654613792896271,0.5784843564033508,-0.366388201713562,-0.9289836883544922,-0.5123713612556458
10.75,0.14235764741897583,0.3858422338962555,-1.3848665952682495,0.14325478672981262,-0.7552855014801025,-0.06646761298179626
10.8,-0.0736798644065857,0.532770037651062,-1.0600779056549072,-0.19429288804531097,-0.8497471213340759,-0.2324281483888626
10.85,-0.26651227474212646,1.1630619764328003,-0.7749002575874329,-0.11220315098762512,-0.6480676531791687,-0.019505957141518593
10.9,-0.41248202323913574,-0.5800847411155701,0.23658409714698792,-0.08372975140810013,-0.45710161328315735,0.10547064244747162
10.95,-0.1519295573234558,-0.5070151686668396,-0.8369342088699341,0.07111155241727829,-0.41977986693382263,0.052573878318071365
11.0,-0.9395865201950073,-0.42406168580055237,0.16790947318077087,-0.1118202731013298,-0.35197022557258606,-0.09576178342103958
11.05,-0.6308261752128601,-0.37169262766838074,-0.5742712616920471,0.06184105575084686,-0.32911011576652527,-0.03602328896522522
11.1,-0.8124539852142334,0.380280464887619,-0.8055369853973389,0.06344757974147797,-0.23201416432857513,-0.1100718304514885
11.15,-0.1726316660642624,-0.14795301854610443,-0.15125639736652374,0.5048988461494446,0.10925225913524628,0.32787173986434937
11.2,0.9384821653366089,-1.3197468519210815,1.0556416511535645,2.617997407913208,0.5085223913192749,0.857958972454071
11.25,0.8263913989067078,1.0106734037399292,0.8460714817047119,0.7276592254638672,0.2253037542104721,0.4072774648666382
11.3,0.6622205972671509,1.5421360731124878,0.6294277906417847,0.8157919645309448,0.16398373246192932,0.6376461982727051
11.35,1.3858845233917236,0.9551495313644409,0.09885644912719727,1.1764905452728271,0.296223521232605,1.1633378267288208
11.4,0.8665273785591125,0.8604115843772888,0.9722505211830139,0.5554763078689575,0.36315545439720154,0.7724786996841431
11.45,0.534398078918457,-0.4588603675365448,0.91095370054245,0.4375382959842682,0.3850673735141754,0.6951849460601807
11.5,0.08729192614555359,0.3957996368408203,0.6669049859046936,0.2698962390422821,0.42679882049560547,0.528675377368927
11.55,0.4627498388290405,-0.6505088210105896,1.0184028148651123,0.005792409181594849,0.42880070209503174,0.3350774347782135
11.6,0.014229416847229004,-0.21846958994865417,0.34877368807792664,0.0014220550656318665,0.4509393870830536,0.16510319709777832
11.65,-0.8795784711837769,0.6127853393554688,0.5697374939918518,-0.11375213414430618,0.4027162194252014,-0.005383571609854698
11.7,-1.156627893447876,0.7733039259910583,-1.0661600828170776,-0.4799981117248535,0.38393422961235046,-0.13466431200504303
11.75,-4.680619239807129,-0.04044327884912491,-1.584446907043457,-1.000447392463684,0.5049194097518921,-0.0013715926324948668
11.8,-5.550445079803467,-3.1039185523986816,-2.819658041000366,-0.06820976734161377,1.1263723373413086,2.0085997581481934
11.85,-5.742551803588867,-5.0734333992004395,-3.3380191326141357,0.04511415958404541,1.8153784275054932,3.403316020965576
11.9,-3.099740982055664,-5.878803730010986,-0.3694816827774048,-0.2764521837234497,1.6848952770233154,3.7666516304016113
11.95,-0.043736815452575684,-0.4185837507247925,2.3715476989746094,0.2459094524383545,1.5859904289245605,3.150604248046875
12.0,0.7778563499450684,1.5932378768920898,4.920835494995117,0.11132919788360596,-0.38133761286735535,1.3984427452087402
12.05,-0.8622637391090393,2.3185718059539795,1.8507901430130005,1.3579142093658447,-1.2837246656417847,0.2184777408838272
12.1,-1.389885663986206,3.63559627532959,2.195685863494873,1.4129760265350342,-3.0842206478118896,-0.7545486092567444
12.15,4.026195526123047,4.154407024383545,-0.6817764043807983,1.2728524208068848,-4.3485517501831055,-0.9357906579971313
12.2,5.043434143066406,0.4483412206172943,2.678344964981079,0.2414712905883789,-5.222259998321533,-2.9400763511657715
12.25,2.8278934955596924,-2.991976499557495,2.6472411155700684,0.5162836313247681,-4.533289909362793,-3.803574562072754
12.3,0.13868725299835205,0.48931029438972473,1.2528554201126099,1.1035057306289673,-2.875464916229248,-3.015596628189087
12.35,1.3868565559387207,1.676874041557312,1.0009398460388184,1.3068543672561646,-1.548551321029663,-1.0947468280792236
12.4,4.141521453857422,2.2050652503967285,0.2019319385290146,1.162732720375061,-0.7654098868370056,0.41507869958877563
12.45,1.0439398288726807,1.7818888425827026,1.5994641780853271,0.6684430837631226,-0.2464183121919632,0.7305732369422913
12.5,-0.7328344583511353,-0.13551700115203857,1.6216310262680054,0.17795170843601227,-0.31844356656074524,0.3267122805118561
12.55,0.16497763991355896,-1.0556000471115112,0.9481822848320007,0.10295941680669785,-0.519985020160675,-0.08795641362667084
12.6,-1.2008774280548096,-0.711044192314148,0.7215935587882996,0.37298229336738586,-0.32502317428588867,-0.3914707899093628
12.65,0.7493718266487122,-0.7188443541526794,0.739406943321228,0.5486555099487305,-0.23190432786941528,0.330051064491272
12.7,-0.6767351627349854,-0.341214120388031,-0.012507030740380287,0.6563177108764648,-0.3091614544391632,0.35780712962150574
12.75,2.308959484100342,0.3484714925289154,-0.1392280012369156,0.7242295145988464,-0.30499887466430664,0.8662879467010498
12.8,-1.2527740001678467,-0.137354776263237,0.14177902042865753,0.7569878101348877,0.09016191959381104,-0.09934703260660172
12.85,0.12388471513986588,1.87376868724823,-0.2695543169975281,0.7481203079223633,-0.14478008449077606,0.07563010603189468
12.9,0.3982160687446594,1.6418379545211792,1.3860946893692017,0.4031539261341095,-0.13596995174884796,-0.06815411895513535
12.95,-2.8774843215942383,0.7304946184158325,0.9963681101799011,0.07353553175926208,0.03895051032304764,-0.3789292573928833
13.0,0.42113715410232544,0.04001522436738014,0.6253509521484375,-0.1573057323694229,-0.05809830501675606,0.4423105716705322
13.05,-0.9645313620567322,-0.4043187201023102,0.1548805832862854,-0.07459519058465958,0.11534689366817474,-0.2382051944732666
13.1,-0.44880110025405884,0.43020346760749817,0.6784425377845764,-0.04263683408498764,0.04802532494068146,-0.05708611011505127
13.15,-0.3312895596027374,0.21797659993171692,0.6995193958282471,-0.05780588090419769,0.040994029492139816,0.0928492322564125
13.2,-0.5485687255859375,0.1415891945362091,0.6890100240707397,-0.09987755864858627,0.09863721579313278,-0.09903612732887268
13.25,-0.8743469715118408,0.2169371396303177,1.0989573001861572,-0.18601912260055542,0.06078901141881943,-0.11904612183570862
13.3,-1.460919976234436,0.06587706506252289,1.1436249017715454,-0.329029381275177,0.053628213703632355,-0.055120427161455154
13.35,-1.1095603704452515,0.18344981968402863,1.1707863807678223,-0.354117214679718,0.027478286996483803,-0.10178980231285095
13.4,-0.2576850652694702,-1.5873526334762573,0.5859755277633667,-0.12044220417737961,0.08870485424995422,0.0194197129458189
13.45,0.4042576253414154,0.1336059421300888,0.44969627261161804,0.25583913922309875,0.39801204204559326,0.2969936728477478
13.5,-1.3749821186065674,0.44127947092056274,0.6351258754730225,0.5221372246742249,0.6193346381187439,0.2841252386569977
13.55,-0.7960399389266968,-0.3303946554660797,0.4244498312473297,0.5067745447158813,0.7770434021949768,1.0619434118270874
13.6,-4.003223419189453,-1.6995655298233032,0.8715720176696777,0.49462831020355225,0.7717021107673645,0.8734173774719238
13.65,0.42356300354003906,-1.259592890739441,0.8481947183609009,0.5053809881210327,0.2582732141017914,1.7278220653533936
13.7,0.7982039451599121,0.38757792115211487,-0.7853019833564758,0.6874223947525024,0.31926974654197693,1.0763702392578125
13.75,-2.3595588207244873,-0.6437251567840576,1.410605788230896,0.34739118814468384,0.48714497685432434,0.46463072299957275
13.8,0.7580066919326782,1.5760066509246826,-1.4701348543167114,0.185749351978302,0.21486783027648926,1.3443177938461304
13.85,0.19221293926239014,2.119170904159546,-1.5401926040649414,-0.6742081046104431,0.18582621216773987,0.26336774230003357
13.9,-1.2105387449264526,-1.2243144512176514,1.406639575958252,-0.5050365924835205,0.15099287033081055,-0.20593318343162537
13.95,-0.37728360295295715,0.2586183547973633,0.3350091278553009,0.007934109307825565,0.2218116819858551,-0.0291205532848835
14.0,-0.3343314528465271,0.38914012908935547,0.40851718187332153,-0.05970688536763191,0.3191777765750885,0.07810082286596298
14.05,0.21663224697113037,0.8246926665306091,0.11647852510213852,-0.11288930475711823,0.23136258125305176,0.13054677844047546
14.1,-0.0018918775022029877,0.4230041205883026,0.07162058353424072,-0.31219688057899475,0.112992063164711,-0.4376709461212158
14.15,-2.0200483798980713,-1.9630706310272217,1.9312727451324463,-0.40437883138656616,0.06049900874495506,-0.7977541089057922
14.2,-0.9052855968475342,0.4688272476196289,-0.28964370489120483,0.23677290976047516,-0.02792007103562355,0.10450512170791626
14.25,-0.8689857721328735,-0.2816704511642456,1.5650287866592407,0.39761900901794434,-0.14787258207798004,0.34780797362327576
14.3,1.9388482570648193,1.0157287120819092,0.4578481912612915,0.27784109115600586,-0.27729588747024536,0.17890478670597076
14.35,-1.1775639057159424,-0.19554126262664795,1.279971957206726,-0.09730562567710876,0.13998088240623474,-0.6438733339309692
14.4,0.2945142984390259,0.8905038237571716,0.07618086785078049,0.2426348775625229,0.28219130635261536,-0.08205481618642807
14.45,0.605446457862854,-0.03570271655917168,0.278192937374115,0.1280234307050705,0.4092858135700226,-0.4249708950519562
14.5,0.49681350588798523,0.3031300902366638,-0.48368731141090393,-0.042287975549697876,0.5963829755783081,-0.8462850451469421
14.55,-0.0015519969165325165,0.24878691136837006,0.016584865748882294,-0.17326763272285461,0.9213427901268005,-0.7156916856765747
14.6,1.146621584892273,-0.06996920704841614,0.22703692317008972,-0.06660445779561996,1.2384334802627563,-0.19390727579593658
14.65,0.5808190107345581,-0.31006523966789246,0.6766210794448853,-0.03738456964492798,1.6020973920822144,-0.3657779097557068
14.7,-0.09202255308628082,0.23215484619140625,0.24623189866542816,0.021160051226615906,1.7895790338516235,-0.34794121980667114
14.75,-1.4151477813720703,-0.016162775456905365,0.8298473358154297,0.12078021466732025,1.7999000549316406,0.012187057174742222
14.8,-0.4632660150527954,0.4592647850513458,0.7743451595306396,0.6488794684410095,1.6765637397766113,0.6786342263221741
14.85,-0.7448951005935669,-0.29531946778297424,0.6354137063026428,0.4986639618873596,1.6677501201629639,0.3319569230079651
14.9,-1.9627423286437988,-0.9320991635322571,0.3490838408470154,0.2618757486343384,1.6160231828689575,0.10695214569568634
14.95,-2.25056791305542,0.02159982919692993,-0.908380925655365,0.8456180095672607,1.3332597017288208,0.42814019322395325
15.0,-1.048258900642395,1.5782593488693237,-1.6431015729904175,0.5877796411514282,0.8593928217887878,0.20263777673244476
15.05,-1.1301496028900146,-0.3775423765182495,1.2751617431640625,-0.5803303718566895,0.6519185900688171,-0.4301028549671173
15.1,-0.690438985824585,-0.4053257703781128,1.4809231758117676,-0.7271713018417358,0.38897427916526794,-0.5010018348693848
15.15,-0.7706822156906128,-0.2284974455833435,0.45007970929145813,-0.25965145230293274,0.2101929485797882,-0.388470321893692
15.2,0.08011843264102936,0.8838109374046326,-0.3999708294868469,0.24058544635772705,0.17044734954833984,-0.23369014263153076
15.25,-0.5538687705993652,0.31479838490486145,0.7268215417861938,-0.28884395956993103,0.27367421984672546,-0.3314421772956848
15.3,-0.6874335408210754,-0.020235948264598846,0.8659592866897583,0.01465403102338314,0.2106228917837143,-0.07521195709705353
15.35,-0.10533216595649719,0.5192832946777344,0.8223879337310791,0.11733894050121307,0.14517579972743988,-0.018735403195023537
15.4,-0.5097991228103638,0.07373911142349243,1.0263354778289795,-0.06389389932155609,0.1194770485162735,-0.04424116387963295
15.45,-0.5464633703231812,0.18773938715457916,0.12495574355125427,0.3210447430610657,0.015294629149138927,0.1646157205104828
15.5,-0.21656213700771332,-0.004765491932630539,0.21150824427604675,0.25497564673423767,0.025952665135264397,0.16751649975776672
15.55,-0.32199060916900635,-0.020914984866976738,0.7503021359443665,0.17002615332603455,0.07691148668527603,0.10909503698348999
15.6,-0.038751259446144104,0.1890401691198349,-0.0683915764093399,0.3329768180847168,0.10173755884170532,0.1718006134033203
15.65,-0.5824671983718872,-0.4433383047580719,1.0972535610198975,-0.05524025112390518,0.1263623684644699,-0.03312373161315918
15.7,-0.26945438981056213,0.2321491241455078,0.11520891636610031,0.29114264249801636,0.01866702362895012,-0.021882371976971626
15.75,-0.1900726705789566,0.4026927649974823,-0.0808219239115715,0.3300572633743286,0.0959443673491478,0.02865234948694706
15.8,-0.3748616874217987,-0.1450023204088211,0.5087515115737915,0.05277698487043381,0.23270581662654877,-0.002054165117442608
15.85,-0.6193543672561646,0.2053385227918625,0.8760457634925842,0.026716843247413635,0.177790567278862,-0.0648694559931755
15.9,-0.5827395915985107,0.24444489181041718,0.7838667631149292,-0.08735623210668564,0.05170716345310211,-0.0914202630519867
15.95,-0.42072412371635437,0.2204771190881729,0.3200910687446594,-0.02419101633131504,-0.051271241158246994,-0.027887899428606033
16.0,-0.21340617537498474,-0.04086586833000183,0.4204707741737366,0.025676820427179337,0.0020572140347212553,0.018395427614450455
16.05,-0.2759878635406494,0.1406412273645401,0.42508456110954285,0.03406047075986862,0.012857239693403244,0.0023249865043908358
16.1,-0.41254061460494995,0.11762908101081848,0.47636908292770386,0.0005416069179773331,-0.01568417251110077,-0.03520151600241661
16.15,-0.23365429043769836,0.3656768500804901,0.060324527323246,0.0273086279630661,0.0013222823617979884,-0.0012934488477185369
16.2,-0.42185598611831665,0.01833251863718033,0.5317865014076233,-0.19999292492866516,0.13148942589759827,-0.02818536013364792
16.25,-0.3374827802181244,-0.031019162386655807,0.7958992719650269,-0.11768783628940582,0.05527803301811218,-0.03432633355259895
16.3,-0.25238239765167236,0.0064096599817276,0.10642041265964508,-0.04562488570809364,-0.0312469694763422,-0.06330913305282593
16.35,-0.43725600838661194,-0.17110629379749298,0.44695714116096497,-0.2132265865802765,0.08663321286439896,-0.14773336052894592
16.4,-0.3534814417362213,0.1938648372888565,0.41381746530532837,-0.06946439296007156,0.07499124109745026,-0.1236705407500267
16.45,-0.2629721760749817,0.0670175775885582,0.4554246664047241,-0.07844985276460648,0.023189401254057884,-0.05735267326235771
16.5,-0.3937113881111145,-0.06273169070482254,0.6218465566635132,-0.20938333868980408,0.05897875875234604,-0.10078336298465729
16.55,-0.16646401584148407,0.4097938537597656,0.19719694554805756,-0.059831321239471436,0.019765028730034828,-0.0661390870809555
16.6,-0.2831931710243225,0.16677570343017578,0.1137765571475029,-0.09920977056026459,0.07154184579849243,-0.02420009672641754
16.65,-0.431946724653244,-0.07618994265794754,0.7259640097618103,-0.23115885257720947,0.09637218713760376,-0.07346926629543304
16.7,-0.20338353514671326,0.2371664196252823,0.4171912968158722,0.007851982489228249,0.07698944211006165,-0.022006800398230553
16.75,-0.3465180993080139,-0.029339751228690147,0.5242809653282166,-0.08640637993812561,0.07670895010232925,-0.0386219285428524
16.8,-0.3463308811187744,0.20738698542118073,0.3301325738430023,-0.0764831006526947,0.046738628298044205,-0.05468778684735298
16.85,-0.34954017400741577,-0.08764930069446564,0.5116573572158813,-0.13756069540977478,0.05545395240187645,-0.07460170984268188
16.9,-0.20310498774051666,0.14171411097049713,0.44906920194625854,-0.10663604736328125,0.021472854539752007,-0.09560215473175049
16.95,-0.39723050594329834,0.05651858448982239,0.4361978769302368,-0.1497410535812378,0.014726162888109684,-0.11403289437294006
17.0,-0.36362677812576294,0.18526364862918854,0.4817160964012146,-0.17406529188156128,0.004691700451076031,-0.1106158047914505
17.05,-0.3730565309524536,0.19223788380622864,0.5375432968139648,0.08550651371479034,-0.05165538936853409,-0.00853815395385027
17.1,-0.2583795189857483,-0.025641413405537605,0.3700653314590454,0.15217342972755432,-0.09829599410295486,0.04713723063468933
17.15,-0.43092262744903564,0.26276588439941406,0.295779287815094,0.05833211541175842,-0.07729801535606384,-0.011940197087824345
17.2,-0.5645462274551392,0.26342105865478516,0.4552818238735199,0.06597910821437836,-0.1166224554181099,0.00642596697434783
17.25,-0.16041682660579681,0.4098653495311737,0.0930028036236763,0.000308183953166008,-0.14333176612854004,0.046371910721063614
17.3,-0.3520643711090088,-0.08679481595754623,0.37707552313804626,-0.2301495522260666,-0.04150516539812088,0.032283034175634384
17.35,-0.43959301710128784,-0.18825429677963257,0.5073167085647583,-0.11744128167629242,-0.08195169270038605,0.0339382030069828
17.4,-0.3254319727420807,0.19489766657352448,0.2469317466020584,-0.04228823632001877,-0.1417633444070816,-0.015403686091303825
17.45,-0.36321699619293213,0.15703871846199036,0.5708684921264648,-0.12956172227859497,-0.1064249575138092,-0.037418100982904434
17.5,-0.28890520334243774,0.17175008356571198,0.31246915459632874,-0.02768370881676674,-0.1404617875814438,0.02977641485631466
17.55,-0.3378315567970276,0.04504873603582382,0.28527024388313293,-0.09311096370220184,-0.1141902506351471,0.018751520663499832
17.6,-0.3885668218135834,0.14702798426151276,0.28696689009666443,-0.21251855790615082,-0.11557118594646454,-0.05099082738161087
17.65,-0.30462753772735596,-0.06902118772268295,0.49576085805892944,-0.2659040689468384,-0.0864456370472908,-0.0760323777794838
17.7,-0.2773226797580719,0.059436820447444916,0.3513577878475189,-0.09878961741924286,-0.12580682337284088,-0.00942506268620491
17.75,-0.3054206669330597,0.11659909784793854,0.14705127477645874,-0.040262870490550995,-0.13275231420993805,-0.0050012595020234585
17.8,-0.20385956764221191,0.16743755340576172,0.28548166155815125,-0.15303252637386322,-0.0779930055141449,-0.06236770749092102
17.85,-0.46158188581466675,0.1828470379114151,0.3330308496952057,-0.1600111424922943,-0.0712025985121727,-0.080176942050457
17.9,-0.33732175827026367,0.10146143287420273,0.3856423497200012,-0.10014495998620987,-0.0654708743095398,-0.021443162113428116
17.95,-0.2773934006690979,-0.05298229679465294,0.3942345380783081,-0.0215456523001194,-0.08057203143835068,0.028925763443112373
18.0,-0.24974536895751953,0.22394466400146484,0.09194207191467285,-0.05562356859445572,-0.04791398346424103,-0.009938823990523815
18.05,-0.4146046042442322,0.05254271999001503,0.471034973859787,-0.1430329978466034,0.0037138559855520725,-0.04472007974982262
18.1,-0.25260066986083984,0.11302663385868073,0.28977519273757935,0.013159040361642838,-0.04382332041859627,0.022331753745675087
18.15,-0.29885852336883545,0.11320306360721588,0.23650997877120972,0.03144306689500809,-0.02575715444982052,0.03573468327522278
18.2,-0.5155789256095886,0.27019405364990234,0.4132307767868042,-0.018316708505153656,0.005918621551245451,0.024524124339222908
18.25,-1.2764697074890137,0.4922371506690979,0.694233775138855,0.020600125193595886,-0.06484652310609818,0.13697627186775208
18.3,-0.5071053504943848,0.7008532881736755,0.05409473553299904,-0.05293566733598709,-0.30894753336906433,0.2973819673061371
18.35,0.5829566717147827,-0.7604016065597534,1.6459120512008667,-0.6137773394584656,-0.2678702175617218,0.07679848372936249
18.4,0.5270407795906067,-0.8513326048851013,0.15540876984596252,-0.338250994682312,-0.3645975589752197,-0.06305669993162155
18.45,-1.8159713745117188,0.8163556456565857,-1.3050769567489624,-0.2739028036594391,-0.2059798240661621,-0.2943147122859955
18.5,-1.5224558115005493,0.5183230042457581,0.8998942375183105,-0.43793970346450806,-0.20292556285858154,-0.14455389976501465
18.55,0.9169405698776245,-0.788113534450531,1.4113960266113281,0.167099267244339,-0.39394691586494446,0.4021691381931305
18.6,1.0457686185836792,-0.26941877603530884,-0.8368110060691833,0.3150160014629364,-0.30827128887176514,0.30235105752944946
18.65,-0.5333578586578369,0.015403775498270988,0.13478559255599976,-0.2644793391227722,-0.026902202516794205,-0.24436718225479126
18.7,-0.8176573514938354,0.15213018655776978,0.9634394645690918,-0.022638320922851562,0.05152289569377899,-0.13033053278923035
18.75,0.02212473750114441,0.6525449156761169,-0.2748960256576538,0.4487913250923157,0.012971367686986923,0.23542086780071259
18.8,-0.5222083330154419,-0.018772099167108536,0.014958829618990421,0.18267591297626495,0.18233592808246613,0.22880437970161438
18.85,-0.43371063470840454,-0.07388779520988464,0.033559951931238174,0.3006986677646637,0.14651146531105042,0.29311835765838623
18.9,0.015903666615486145,-0.017476072534918785,0.19501450657844543,0.448422372341156,0.09971108287572861,0.3195565640926361
18.95,-0.2507210075855255,-0.3644551634788513,0.796662449836731,0.0937550812959671,0.2444082498550415,0.08572804927825928
19.0,-0.5541821718215942,0.1321878731250763,0.6236836910247803,0.3391771912574768,0.2883185148239136,0.14554975926876068
19.05,-0.7619821429252625,0.3935556709766388,0.5075846910476685,0.41819673776626587,0.2166326493024826,0.19146472215652466
19.1,-0.32871294021606445,0.5855397582054138,0.360781729221344,0.3287528157234192,0.10316377133131027,0.18727374076843262
19.15,-0.5268610715866089,0.18642430007457733,0.7896703481674194,0.1489683836698532,0.13916537165641785,0.18144908547401428
19.2,-0.08980667591094971,0.3449888527393341,1.0957072973251343,0.22584468126296997,-0.01624554768204689,0.2768004834651947
19.25,0.19083911180496216,-0.7969940900802612,1.0605217218399048,0.17561498284339905,-0.011050308123230934,0.2900211811065674
19.3,2.219186305999756,0.4010351896286011,0.25418636202812195,0.5532770752906799,0.11291752755641937,0.31011560559272766
19.35,0.49654239416122437,0.45250314474105835,-0.22054080665111542,0.3679075837135315,0.2039291113615036,-0.07224009931087494
19.4,-2.6338648796081543,-0.8884170651435852,0.42180079221725464,0.13595466315746307,0.2942293584346771,-0.18084508180618286
19.45,-2.9658594131469727,-0.8086908459663391,-0.9658884406089783,1.0936691761016846,-0.08688551932573318,0.20916664600372314
19.5,-1.7565568685531616,1.138448715209961,0.4881940484046936,0.718757688999176,-0.1177634745836258,-0.15526807308197021
19.55,-0.2587610185146332,0.5495195388793945,1.027553677558899,-0.08887046575546265,-0.12834301590919495,-0.3428322970867157
19.6,0.5118727684020996,0.5559901595115662,0.39136654138565063,0.30519047379493713,-0.3516335189342499,0.0692736953496933
19.65,0.04029048979282379,1.08665931224823,-0.34008437395095825,0.17862537503242493,-0.36362704634666443,0.16503357887268066
19.7,-0.6518403887748718,-0.9282969236373901,0.6065385341644287,-0.4104953110218048,-0.12520945072174072,-0.026871435344219208
19.75,0.21073907613754272,0.07474230974912643,0.26934343576431274,0.05421624332666397,-0.09560690820217133,0.05175397917628288
19.8,-0.6204774379730225,0.3176279067993164,0.1482863873243332,0.012772953137755394,0.0369192510843277,-0.030077720060944557
19.85,-0.5109186768531799,-0.378075510263443,1.095733404159546,0.5420897006988525,0.048118893057107925,0.4015429615974426
