Time [s],Acc_x [m/s^2],Acc_y [m/s^2],Acc_z [m/s^2],Gyro_x [1/s],Gyro_y [1/s],Gyro_z [1/s]
0.0,0.00919332541525364,0.1835327297449112,-0.060489848256111145,-0.11694347858428955,-0.11692871898412704,-0.017411552369594574
0.05,0.0177132748067379,0.18305017054080963,-0.11437242478132248,-0.11694037914276123,-0.11692880094051361,-0.017431877553462982
0.1,0.023173995316028595,0.17851735651493073,-0.1755899041891098,-0.11694477498531342,-0.11692050844430923,-0.017458058893680573
0.15,-0.05055515468120575,0.0867156982421875,-0.3867412507534027,-0.08166701346635818,-0.0037376645486801863,-0.02956383489072323
0.2,-0.033988118171691895,-0.03345395624637604,-0.5115436911582947,-0.00608022790402174,0.0024693976156413555,-0.006892440840601921
0.25,-0.09093540906906128,0.06421755999326706,-0.7614680528640747,0.04927179217338562,0.018568826839327812,0.00839392002671957
0.3,-0.08182142674922943,0.09044169634580612,-0.689386785030365,0.06003206968307495,-0.04001851752400398,0.013515313155949116
0.35,-0.14834675192832947,0.13953208923339844,-0.5916587114334106,0.06487483531236649,-0.0794610008597374,0.02615191787481308
0.4,0.009381867945194244,0.2686348259449005,-0.28025755286216736,0.07371731102466583,-0.1258580982685089,0.028828049078583717
0.45,0.03916070610284805,0.23946286737918854,-0.31240397691726685,0.08439271152019501,-0.10080867260694504,0.01783335581421852
0.5,-0.0828184112906456,0.12365914136171341,-0.3036786913871765,0.09208953380584717,-0.044145651161670685,0.008877293206751347
0.55,0.0004406645894050598,0.12907695770263672,-0.29174137115478516,0.08165052533149719,-0.05682424455881119,0.009631745517253876
0.6,0.02721405029296875,0.061279296875,-0.21077410876750946,0.06416847556829453,-0.033161092549562454,0.012813398614525795
0.65,-0.05305744707584381,0.22971251606941223,-0.20025184750556946,0.045513637363910675,0.021127866581082344,0.020634209737181664
0.7,0.024804502725601196,0.27268412709236145,-0.378865510225296,0.024188173934817314,0.043978553265333176,0.030804885551333427
0.75,-0.08360999822616577,0.21930791437625885,-0.4519702196121216,-0.0007341140881180763,0.05374551936984062,0.025545140728354454
0.8,-4.851818084716797e-05,0.19927503168582916,-0.33118900656700134,-0.02010991796851158,-0.009183206595480442,0.033547766506671906
0.85,-0.02701781690120697,0.200656920671463,-0.28833940625190735,-0.01169640850275755,0.04731766879558563,0.011657618917524815
0.9,-0.0796184092760086,0.22510245442390442,-0.3302823007106781,-0.0053291902877390385,0.08851662278175354,-0.0031948231626302004
0.95,-0.06989993900060654,0.22263243794441223,-0.3777466118335724,-0.0166904516518116,0.05715204030275345,-0.00662992661818862
1.0,0.0010875314474105835,0.17875385284423828,-0.3087216317653656,-0.012886302545666695,0.028884680941700935,-0.019741445779800415
1.05,0.005635306239128113,0.14420413970947266,-0.2902264893054962,0.007312263362109661,0.04647372290492058,-0.0309330802410841
1.1,0.04063244163990021,0.14023399353027344,-0.4146835207939148,0.009076732210814953,0.05342191457748413,-0.02720695361495018
1.15,0.1195073202252388,0.15079402923583984,-0.34434157609939575,0.008657772094011307,0.023789452388882637,-0.02176702208817005
1.2,-0.04770295321941376,0.20513251423835754,-0.3168630301952362,0.014354106970131397,0.0419863797724247,-0.017140276730060577
1.25,-0.07625813037157059,0.20229151844978333,-0.35230693221092224,-0.0028813451062887907,0.023932434618473053,-0.012216740287840366
1.3,0.0018525198101997375,0.11443424969911575,-0.26468679308891296,-0.016065742820501328,-0.006033152807503939,-0.01099204272031784
1.35,0.04981594532728195,0.07871627807617188,-0.2190222591161728,-0.018577784299850464,0.0037273603957146406,-0.012802466750144958
1.4,-0.06301574409008026,0.24225810170173645,-0.2431677281856537,-0.018426697701215744,0.02026042900979519,-0.01960671693086624
1.45,-0.02720550075173378,0.17170526087284088,-0.19259557127952576,-0.01798384264111519,0.014219466596841812,-0.022962676361203194
1.5,0.0035846158862113953,0.1251211315393448,-0.25841525197029114,-0.0021901996806263924,0.04479175806045532,-0.032466743141412735
1.55,-0.005977146327495575,0.19816972315311432,-0.29831939935684204,-0.0007118536159396172,0.035639531910419464,-0.02952396683394909
1.6,0.033885300159454346,0.1719198226928711,-0.2470627874135971,-0.004620900843292475,0.021696798503398895,-0.02347678132355213
1.65,0.03528705984354019,0.10747338086366653,-0.30056631565093994,-0.0009501837193965912,0.01362549141049385,-0.023369569331407547
1.7,-0.004821367561817169,0.05227375030517578,-0.2779112160205841,-0.00400652177631855,0.009078901261091232,-0.01695379801094532
1.75,0.031565748155117035,0.12777329981327057,-0.18519417941570282,-0.0025110063143074512,-0.0009887400083243847,-0.010060010477900505
1.8,0.0488865002989769,0.1508626937866211,-0.25176769495010376,-7.647648453712463e-05,-0.0015624064253643155,-0.005343961529433727
1.85,0.005736425518989563,0.06687450408935547,-0.30140572786331177,-0.0024119620211422443,0.0013831222895532846,-1.2236448128533084e-05
1.9,-0.014914393424987793,0.20576098561286926,-0.2769324481487274,-0.01133537944406271,-0.05502296984195709,0.016724320128560066
1.95,0.12059526890516281,0.19956018030643463,-0.15112802386283875,-0.003945003263652325,-0.07568873465061188,0.017970796674489975
2.0,0.05140114948153496,0.2392435371875763,-0.13775157928466797,0.025029383599758148,-0.01989443227648735,0.008794611319899559
2.05,0.03869648277759552,0.20537187159061432,-0.2837298512458801,0.03719775378704071,0.005915396846830845,-0.0026963776908814907
2.1,-0.0353584811091423,0.2429991066455841,-0.2716732323169708,0.019459232687950134,-0.020188653841614723,-0.002289115684106946
2.15,-0.05789601430296898,0.10602857172489166,-0.14236238598823547,0.009114854037761688,-0.02210386097431183,-0.006642513442784548
2.2,0.08396909385919571,0.13428211212158203,-0.2164255529642105,-0.00134296715259552,-0.009462784044444561,-0.012650640681385994
2.25,0.02173253893852234,0.18011952936649323,-0.18931944668293,-0.01806493103504181,-0.013278999365866184,-0.0008580939611420035
2.3,0.07464546710252762,0.1451444774866104,-0.0860624834895134,-0.028649458661675453,-0.031056122854351997,0.007455918937921524
2.35,0.11031493544578552,0.09098339080810547,-0.098931685090065,-0.019286083057522774,-0.023947572335600853,0.018553460016846657
2.4,0.09614194184541702,0.14290809631347656,-0.09074779599905014,-0.004505605436861515,-0.008007746189832687,0.028616707772016525
2.45,0.10077112913131714,0.09539032727479935,-0.17904095351696014,-0.004829244688153267,-0.00926846731454134,0.04180257022380829
2.5,0.0773208737373352,0.17359542846679688,-0.19161497056484222,-0.0014200340956449509,-0.009875372052192688,0.04536915570497513
2.55,0.007380802184343338,0.1915912926197052,-0.1206367239356041,-0.0030219200998544693,-0.018016664311289787,0.04364020749926567
2.6,-0.010435950942337513,0.2777424156665802,-0.05118774622678757,-0.007495854049921036,-0.02310742251574993,0.043909888714551926
2.65,-0.028516672551631927,0.192447692155838,-0.1429109126329422,-0.005987165495753288,-0.01465568970888853,0.043062228709459305
2.7,-0.06137903407216072,0.27303794026374817,-0.12352496385574341,-0.009137053042650223,0.0034562950022518635,0.02819473296403885
2.75,-0.07030971348285675,0.1665048748254776,-0.19285711646080017,-0.0279165580868721,-0.011551395058631897,0.022064946591854095
2.8,-0.009493347257375717,0.10925580561161041,-0.10161923617124557,-0.019401703029870987,-0.015074917115271091,0.006586969830095768
2.85,0.07340268790721893,0.2391538918018341,-0.0467580147087574,-0.0037192096933722496,0.0032148007303476334,-0.0002620162267703563
2.9,-0.011709552258253098,0.19251731038093567,-0.154453843832016,-0.0011841518571600318,0.032445091754198074,-0.0013708280166611075
2.95,0.08924911171197891,0.17389297485351562,-0.16794103384017944,-0.01238300185650587,-0.002779906615614891,-0.008556073531508446
3.0,0.03771834075450897,0.12072945386171341,-0.24044552445411682,-0.026937343180179596,-0.006714327726513147,-0.006446626503020525
3.05,0.08188517391681671,0.10424519330263138,-0.1286083459854126,-0.03581656515598297,-0.024267766624689102,-0.01322915218770504
3.1,0.06290601193904877,0.10396862775087357,-0.17790576815605164,-0.024580851197242737,-0.028429798781871796,-0.011488329619169235
3.15,0.040727756917476654,0.07230091840028763,0.028240585699677467,0.0010342542082071304,-0.03845203295350075,-0.004863619804382324
3.2,0.09490273892879486,0.11695385724306107,0.023848947137594223,0.033901579678058624,-0.04162609204649925,0.00522030470892787
3.25,0.028269432485103607,0.12495041638612747,-0.10691159963607788,0.060494501143693924,-0.013696904294192791,0.015369453467428684
3.3,0.09188421815633774,0.15443231165409088,-0.03412662446498871,0.07676109671592712,-0.023765508085489273,0.01762145757675171
3.35,0.05327825993299484,0.21856310963630676,0.04826142638921738,0.0840013325214386,-0.01194312795996666,0.009149386547505856
3.4,0.07225623726844788,0.3031149208545685,0.05779643356800079,0.07927040755748749,0.015052189119160175,0.003280513919889927
3.45,0.018882883712649345,0.28101733326911926,-0.025922659784555435,0.059469182044267654,0.050118912011384964,-0.0049226852133870125
3.5,0.0017098262906074524,0.2031727135181427,-0.17982222139835358,0.028699437156319618,0.06234755739569664,-0.010267842561006546
3.55,0.10082034021615982,0.17810823023319244,-0.014366582967340946,0.0006589796394109726,0.0409100279211998,-0.02054775506258011
3.6,0.09429324418306351,0.13953019678592682,0.0015667685074731708,-0.020732736214995384,0.05620608106255531,-0.01984650082886219
3.65,0.1203061193227768,0.120026595890522,-0.05297451466321945,-0.03116009011864662,0.07212307304143906,-0.017436416819691658
3.7,0.042157746851444244,0.13523484766483307,-0.07951845973730087,-0.027924925088882446,0.0844658613204956,-0.014462837018072605
3.75,0.022016622126102448,0.14657403528690338,-0.13428162038326263,-0.02479127235710621,0.058507900685071945,-0.010768615640699863
3.8,0.025399278849363327,0.1305380016565323,-0.13778498768806458,-0.012788103893399239,0.01651007868349552,-0.014847018755972385
3.85,0.1062152162194252,0.1491537094116211,-0.08147170394659042,0.01014968752861023,-0.007899347692728043,-0.023758046329021454
3.9,0.36602383852005005,0.12069892883300781,0.12189170718193054,0.03212112933397293,-0.02253989316523075,-0.04389345645904541
3.95,0.3892364501953125,0.06923960894346237,0.09605693072080612,0.021096335723996162,0.0281529501080513,-0.026396771892905235
4.0,0.17468516528606415,0.10900402814149857,-0.04265487939119339,0.010987343266606331,0.03205935284495354,-0.011792248114943504
4.05,0.09890025854110718,-0.11421015858650208,-0.45088332891464233,0.004553306847810745,-0.04377206787467003,-0.07055312395095825
4.1,0.0034184977412223816,-0.11460687965154648,-0.17282184958457947,-0.0001662224531173706,-0.19430193305015564,-0.13188135623931885
4.15,0.039917752146720886,0.381503164768219,0.24975304305553436,-0.07357129454612732,-0.2739678621292114,-0.19224309921264648
4.2,-0.49708160758018494,0.6701450943946838,0.0445425771176815,-0.19072335958480835,-0.20482835173606873,-0.2620486319065094
4.25,-0.8141911029815674,0.5650330781936646,0.13436533510684967,-0.24864637851715088,-0.386152446269989,-0.16358186304569244
4.3,-1.2481011152267456,0.43379318714141846,0.29145288467407227,-0.160099059343338,-0.16731981933116913,-0.11678329110145569
4.35,-1.3693058490753174,0.02927788719534874,0.37718507647514343,0.002002425491809845,-0.016520939767360687,-0.19117750227451324
4.4,-0.9675981402397156,-0.6241493225097656,0.4784344434738159,0.1416991651058197,-0.1909533590078354,-0.22904787957668304
4.45,-0.8507571816444397,-0.6105108261108398,0.8010172247886658,0.22835232317447662,-0.37017500400543213,-0.16010043025016785
4.5,-0.6536514163017273,-0.17805857956409454,0.7463297247886658,0.22268524765968323,-0.5073831677436829,-0.0016791005618870258
4.55,-0.6490651369094849,0.4313260316848755,1.18532133102417,0.2645149230957031,-0.19237887859344482,0.11600708216428757
4.6,-1.2929940223693848,0.5915080904960632,1.2753547430038452,-0.005173847079277039,0.18336383998394012,0.1541985273361206
4.65,-0.1941697895526886,0.6275759935379028,0.9535699486732483,-0.3764909505844116,0.5975042581558228,-0.0013076455798000097
4.7,0.3170495927333832,1.6652185916900635,-0.39823925495147705,-0.5415449142456055,1.2694453001022339,-0.094879150390625
4.75,-0.5025444626808167,0.8295546770095825,-1.8686978816986084,-0.6358025074005127,1.5821540355682373,-0.09086193889379501
4.8,-0.06651806831359863,-0.46997368335723877,-2.0593178272247314,-0.5955392122268677,1.0710011720657349,0.003419522661715746
4.85,0.8232473134994507,-1.1932127475738525,-1.4719916582107544,-0.3676823675632477,0.6404758095741272,0.2160572111606598
4.9,1.483651041984558,-0.5016300082206726,-0.9399465918540955,-0.11086821556091309,0.40894046425819397,0.3663174510002136
4.95,1.7079817056655884,0.03749359771609306,-0.7593462467193604,0.021947994828224182,0.36363857984542847,0.3658682107925415
5.0,1.1454107761383057,0.45666787028312683,-1.0356686115264893,0.11388397961854935,0.30597037076950073,0.34769347310066223
5.05,1.697982668876648,0.2360934466123581,-0.7319115996360779,0.1330898553133011,0.4011383056640625,0.17459969222545624
5.1,1.0962527990341187,0.8289442658424377,-0.08046121150255203,0.2383613884449005,0.2551685869693756,0.2560970187187195
5.15,0.6455605030059814,-0.2336321771144867,-0.7187148332595825,-0.019001588225364685,0.05299018323421478,0.41866791248321533
5.2,1.2812228202819824,-0.060530755668878555,-0.6266889572143555,-0.08507592976093292,-0.16437599062919617,0.5003646612167358
5.25,2.191392660140991,0.11394395679235458,0.11351043730974197,-0.12757010757923126,0.38451629877090454,0.4771393835544586
5.3,-1.1602896451950073,-0.20087720453739166,-1.8504462242126465,0.06756922602653503,0.7604789733886719,0.7498254776000977
5.35,-5.274444580078125,0.008523143827915192,-4.438177108764648,0.7505893707275391,0.30448687076568604,0.03975199535489082
5.4,-4.082237243652344,2.6701531410217285,-2.4757587909698486,1.61611008644104,-0.5503543615341187,-1.3082125186920166
5.45,2.9833180904388428,2.544856071472168,0.5764613747596741,1.6255160570144653,-0.9962959289550781,-2.1397624015808105
5.5,4.166601181030273,0.3847454786300659,1.280456781387329,1.4384866952896118,-0.3753133714199066,-1.711477518081665
5.55,3.039198398590088,-0.7863171100616455,2.1782326698303223,0.9639939069747925,-0.39601370692253113,-0.9749628305435181
5.6,2.9319047927856445,-1.4289085865020752,2.476313591003418,0.2550380825996399,-0.7991741895675659,-0.6412343978881836
5.65,2.146674394607544,-1.0224573612213135,1.7270281314849854,-0.0950377956032753,-0.22651340067386627,-0.29691100120544434
5.7,1.4864643812179565,0.21976660192012787,1.1191325187683105,-0.13413278758525848,0.6553346514701843,-0.03278682753443718
5.75,1.7469170093536377,0.7227993011474609,1.1165738105773926,-0.08753176778554916,1.407654047012329,0.0016617645742371678
5.8,2.162283420562744,0.7177600860595703,1.2588443756103516,-0.1671891063451767,1.9295363426208496,0.0834631398320198
5.85,1.760699987411499,0.8656244874000549,1.273059606552124,-0.3412301540374756,2.2333104610443115,0.2623831629753113
5.9,1.3429408073425293,1.3082448244094849,1.1603182554244995,-0.5263374447822571,2.419538974761963,0.4363241493701935
5.95,0.4872514605522156,0.8860570192337036,0.5611097812652588,-0.44642046093940735,2.8283212184906006,0.4798545837402344
6.0,0.46130192279815674,0.853117048740387,-0.7339336276054382,-0.48366641998291016,3.4922666549682617,0.053326696157455444
6.05,-1.3401110172271729,1.0140305757522583,-0.7135973572731018,-0.636275053024292,3.533327102661133,-0.17442023754119873
6.1,-2.413562774658203,-0.03056609258055687,-0.04248172044754028,-0.8137617707252502,2.3894312381744385,0.05560340732336044
6.15,-1.1699610948562622,-0.8312836289405823,-0.10985498875379562,-0.9095573425292969,1.0605796575546265,0.19986437261104584
6.2,0.7733685374259949,-0.5860892534255981,-0.3153148591518402,-0.6894254684448242,0.8449816703796387,-0.10568589717149734
6.25,0.5090162754058838,-0.779831051826477,0.2734808921813965,-0.3957298994064331,1.6387758255004883,-0.6071181893348694
6.3,0.3663279712200165,-0.7275295853614807,0.8542613387107849,-0.1706792265176773,1.7090498208999634,-0.9055378437042236
6.35,1.5712584257125854,-0.9277737140655518,-0.24578699469566345,-0.22219273447990417,1.044143557548523,-0.747446596622467
6.4,1.8326261043548584,-1.701696753501892,-0.8757792711257935,-0.10092464089393616,0.9118455648422241,-0.5539124011993408
6.45,1.3525315523147583,-1.6261810064315796,-0.8042711019515991,0.2165822833776474,1.2654178142547607,-0.6690241098403931
6.5,0.7115851640701294,-0.1799336075782776,-0.31796514987945557,0.4623279571533203,1.4063770771026611,-0.7291777729988098
6.55,-0.2145858108997345,0.8949005007743835,1.1405199766159058,0.6242363452911377,1.169508457183838,-0.6261047720909119
6.6,0.11015090346336365,1.1112834215164185,1.3409910202026367,0.5012260675430298,0.9166224598884583,-0.5753095746040344
6.65,0.4814291000366211,2.168945550918579,1.1827242374420166,0.42996153235435486,0.7278644442558289,-0.3274208605289459
6.7,0.7120463252067566,3.2615437507629395,1.2234880924224854,0.4515058994293213,-0.1592313051223755,0.38807550072669983
6.75,1.416635513305664,1.8948918581008911,-0.2638651132583618,0.5348329544067383,-0.6508469581604004,0.841437578201294
6.8,-0.04920147359371185,-1.0399600267410278,0.38401466608047485,0.5009105205535889,0.23713670670986176,0.7374999523162842
6.85,-0.7284598350524902,-1.269684910774231,-0.2635892331600189,0.055463820695877075,0.959953248500824,0.5042227506637573
6.9,-1.1990928649902344,0.4647713601589203,-1.1739598512649536,-0.3120488226413727,1.2019522190093994,0.7736649513244629
6.95,-1.7522356510162354,1.8826431035995483,-0.36312657594680786,0.05919736623764038,0.9892684817314148,1.1967278718948364
7.0,-1.7852530479431152,1.0753700733184814,0.5758518576622009,0.6894407272338867,0.2388623058795929,1.4684414863586426
7.05,-1.7969553470611572,-0.05692567676305771,0.40790843963623047,1.0065416097640991,-0.004769902676343918,1.5377929210662842
7.1,-2.216184139251709,-1.159271240234375,1.0518602132797241,0.8383543491363525,0.2400725930929184,1.3016844987869263
7.15,-1.9431662559509277,-1.7947560548782349,1.092839241027832,0.5507779121398926,0.08935084939002991,0.8620983958244324
7.2,-1.7993922233581543,-1.593110203742981,0.5579278469085693,0.26168128848075867,-0.3392803966999054,0.44745755195617676
7.25,-1.7112486362457275,-1.3271875381469727,0.500357985496521,0.03531884774565697,-0.8254890441894531,0.0013791687088087201
7.3,-1.161794662475586,-0.5332212448120117,0.4937768876552582,-0.062223851680755615,-1.7904971837997437,-0.42961201071739197
7.35,-0.838866651058197,0.25931650400161743,-0.10399235785007477,0.1303578019142151,-3.228848934173584,-0.775175154209137
7.4,0.781491756439209,1.347433090209961,-2.4858059883117676,0.12077045440673828,-4.475701808929443,-1.0547538995742798
7.45,5.078969478607178,4.190952301025391,-3.877943277359009,-0.05948299169540405,-4.529047012329102,-1.7142254114151
7.5,5.725252151489258,2.657963752746582,0.1648799628019333,0.5720722079277039,-3.7624778747558594,-1.4863367080688477
7.55,4.847720146179199,-1.084484338760376,3.0822348594665527,0.6326135396957397,-2.918731927871704,-0.4880388379096985
7.6,-3.319657802581787,1.181641936302185,1.6260154247283936,0.24997451901435852,-0.5032797455787659,-0.15222981572151184
7.65,-9.352500915527344,3.9238815307617188,0.2665696144104004,0.056421518325805664,0.5351433753967285,-1.1419932842254639
7.7,-0.18450170755386353,-0.053435370326042175,-1.7590066194534302,-0.3812861144542694,-1.4174799919128418,-1.8300676345825195
7.75,2.7984156608581543,-3.024709939956665,-2.0942397117614746,-0.6629213094711304,-1.7551418542861938,-1.334486722946167
7.8,3.648881435394287,-3.6147115230560303,-1.1370534896850586,-0.4506673812866211,-1.7732391357421875,-0.7369588017463684
7.85,2.45503830909729,-2.498060464859009,0.6799803972244263,-0.3862234950065613,-2.537567138671875,0.14549480378627777
7.9,3.0344624519348145,-1.326397180557251,3.544769287109375,-0.3761981725692749,-3.2869064807891846,0.6488235592842102
7.95,1.7315340042114258,-0.4969024360179901,6.07067346572876,0.1720481514930725,-2.5296099185943604,0.965202808380127
8.0,-0.4421234130859375,0.7256080508232117,4.288536071777344,0.8956596851348877,-0.438803493976593,0.9533781409263611
8.05,-0.4234614372253418,1.9878190755844116,2.7403903007507324,0.7512600421905518,0.3577617108821869,0.5755655765533447
8.1,-0.4338400363922119,2.9415924549102783,3.085982084274292,0.48641151189804077,0.43599551916122437,0.40594181418418884
8.15,2.8752875328063965,2.399916887283325,3.666114330291748,0.3919903039932251,0.7387424111366272,0.2309916764497757
8.2,1.6831645965576172,-0.45904362201690674,1.2927255630493164,0.5691949129104614,1.9817041158676147,0.25068944692611694
8.25,1.216691255569458,-0.7052479982376099,0.0348159559071064,0.5210913419723511,3.076972007751465,0.04633285477757454
8.3,0.9787157773971558,1.9492655992507935,-2.3776817321777344,-0.4152368903160095,3.6276073455810547,-0.021276570856571198
8.35,-2.995635986328125,2.914996385574341,-2.95300030708313,-1.3423619270324707,3.3558547496795654,0.3826291263103485
8.4,-3.6736249923706055,1.5232785940170288,-1.8535186052322388,-1.9413061141967773,0.7249826788902283,0.8431677222251892
8.45,-0.26543140411376953,-1.0058280229568481,-2.040931224822998,-1.9719023704528809,-1.336025357246399,1.0710781812667847
8.5,0.901555061340332,-1.8927825689315796,-1.2376288175582886,-1.4066847562789917,-0.4456872344017029,0.6403520107269287
8.55,0.21676227450370789,-1.483810544013977,-1.318565011024475,-0.9362850785255432,0.7614297866821289,0.08654086291790009
8.6,-0.7438804507255554,-0.7638322114944458,-1.499194860458374,-0.7507627606391907,1.1409591436386108,-0.12102436274290085
8.65,-1.2988873720169067,-0.6216927170753479,-1.5606029033660889,-0.6124909520149231,0.46981993317604065,0.09891191124916077
8.7,-0.4340960681438446,-0.6663580536842346,-1.6928497552871704,-0.2506396472454071,-0.44030019640922546,0.18738915026187897
8.75,1.0645090341567993,0.578523576259613,-1.524259328842163,0.37736523151397705,-0.7380495071411133,-0.1546059250831604
8.8,0.9382464289665222,2.402005434036255,-0.7372491359710693,0.9830901622772217,-0.5586302280426025,-0.41412392258644104
8.85,-0.06536249816417694,3.4064230918884277,0.544196605682373,1.2690417766571045,-0.8610191941261292,-0.14788822829723358
8.9,-0.5961901545524597,-0.28732770681381226,1.9575226306915283,1.0578947067260742,-2.2684719562530518,0.38475528359413147
8.95,0.7684671878814697,-1.2336989641189575,1.2927992343902588,0.7427040338516235,-1.362999677658081,-0.0768488273024559
9.0,-3.4940185546875,0.7191107273101807,-1.1427322626113892,0.8186506032943726,0.7189221382141113,-0.5098230242729187
9.05,-2.817847728729248,1.1744892597198486,-1.1848199367523193,0.6834021210670471,0.010135551914572716,-0.6954888105392456
9.1,2.0123789310455322,-0.1897498518228531,0.32281845808029175,0.0891866683959961,-1.8645498752593994,-0.7755724191665649
9.15,3.408060312271118,-1.5604861974716187,2.008664846420288,0.02181762456893921,-1.5757508277893066,-0.7464524507522583
9.2,1.9859967231750488,-1.6771013736724854,1.9954627752304077,0.3371158242225647,-0.3303976058959961,-0.42641356587409973
9.25,1.1600730419158936,-1.0383702516555786,2.024632692337036,0.1793392449617386,-0.09382069855928421,-0.07619943469762802
9.3,1.8962080478668213,-1.244111180305481,1.9597241878509521,-0.2657032012939453,-0.37125593423843384,0.13314907252788544
9.35,2.4352846145629883,-0.383768230676651,1.6372098922729492,-0.11250647157430649,0.11943922191858292,0.32543259859085083
9.4,0.9409290552139282,1.573059320449829,0.9347034096717834,0.26648440957069397,1.0490609407424927,0.5541579723358154
9.45,0.4644790291786194,1.9852135181427002,0.9061377644538879,0.03658008575439453,1.0670469999313354,0.8192908763885498
9.5,2.462792158126831,2.2265102863311768,1.001905083656311,-0.3551322817802429,0.4582935571670532,1.1530897617340088
9.55,2.218858242034912,-0.5525590777397156,0.7000524401664734,-0.3087886869907379,0.41567009687423706,1.2835580110549927
9.6,3.1947247982025146,0.641036868095398,-0.07907577604055405,-0.1365312933921814,1.6505327224731445,0.8912360668182373
9.65,0.9425007700920105,2.3939695358276367,-2.6011977195739746,-0.5039957761764526,3.371490955352783,0.6140668988227844
9.7,-2.2275028228759766,1.4790079593658447,-1.6065044403076172,-0.5938905477523804,3.9296743869781494,0.5598398447036743
9.75,-1.4759749174118042,0.06007293984293938,-1.6142467260360718,-0.5880009531974792,2.350651502609253,0.5478121638298035
9.8,-0.376384437084198,-1.097586750984192,-2.0720396041870117,-0.6151054501533508,1.3562382459640503,0.3078356385231018
9.85,-0.47666752338409424,-1.2514325380325317,-2.027390956878662,-0.5094561576843262,1.3858847618103027,0.007306032348424196
9.9,-0.8980769515037537,-0.9015761613845825,-1.4751259088516235,-0.4037344455718994,1.4466538429260254,-0.05203189328312874
9.95,-2.0419273376464844,-0.9139003753662109,-0.33103305101394653,-0.221359983086586,1.1510266065597534,0.0592319518327713
10.0,-2.016594409942627,-0.4522847533226013,0.15004488825798035,-0.08908826857805252,0.15171624720096588,0.05949079617857933
10.05,-0.7252167463302612,0.7462969422340393,-0.5126622915267944,0.03783725947141647,-0.7796981930732727,-0.2315690666437149
10.1,0.21665352582931519,1.6947424411773682,-0.7925617694854736,0.10344314575195312,-1.039419174194336,-0.6663344502449036
10.15,0.5906276106834412,2.5633442401885986,-0.08181949704885483,0.37097200751304626,-0.8820077180862427,-1.1540104150772095
10.2,-0.3864627182483673,0.652039647102356,1.0969526767730713,0.5507653951644897,-0.9026166200637817,-1.1997102499008179
10.25,-0.7238314747810364,-0.4378395080566406,0.48760706186294556,0.419907808303833,-0.8373623490333557,-1.0074431896209717
10.3,-2.0859720706939697,0.10611642897129059,0.4335234761238098,0.497639000415802,-0.31377938389778137,-0.7538125514984131
10.35,-0.9413880109786987,0.4309645891189575,0.43609878420829773,0.48699837923049927,-0.7103719115257263,-0.5522680878639221
10.4,1.2505854368209839,-0.9597217440605164,1.281175136566162,-0.06034135818481445,-1.4169358015060425,-0.4356001913547516
10.45,3.271599769592285,-2.3136305809020996,-0.3580029308795929,-0.2747887670993805,-1.0540605783462524,-0.6163649559020996
10.5,1.9165256023406982,-1.019441843032837,0.8133452534675598,0.4083324074745178,0.15908417105674744,-0.7950854897499084
10.55,1.722313642501831,-0.4119197130203247,1.5799013376235962,0.48991382122039795,-0.025183461606502533,-0.5716110467910767
10.6,2.425243377685547,-0.5622102618217468,1.180556058883667,0.31245219707489014,-0.37710973620414734,-0.2599663734436035
10.65,1.86091947555542,0.17008204758167267,1.5544956922531128,0.49661341309547424,0.15940025448799133,-0.15679657459259033
10.7,1.0699256658554077,0.7032700181007385,1.6395118236541748,0.41400691866874695,0.48676928877830505,-0.046253472566604614
10.75,1.923152208328247,2.0701115131378174,0.5321250557899475,0.15437756478786469,0.35771703720092773,0.2559233009815216
10.8,0.4221208691596985,0.8279887437820435,0.6815077662467957,0.10066799819469452,0.5106053948402405,0.6783764958381653
10.85,0.008475825190544128,-0.5892468094825745,0.5675131678581238,-0.10762390494346619,0.8707295060157776,0.7671616077423096
10.9,-1.6832168102264404,0.9817506670951843,-0.4163494110107422,-0.5506390929222107,1.176232933998108,0.9630969762802124
10.95,-2.395120620727539,2.391512393951416,0.9011882543563843,-0.9510973691940308,0.5997424125671387,1.3214645385742188
11.0,-2.841041088104248,0.6976540088653564,0.5968828797340393,-1.212630271911621,-0.6265571713447571,1.5212595462799072
11.05,-0.6694168448448181,-0.48055174946784973,-0.13616538047790527,-1.0852794647216797,-0.9387515187263489,1.2942211627960205
11.1,-0.601966142654419,-0.6936054825782776,-0.4622887670993805,-1.0855581760406494,-0.19341614842414856,0.9714179039001465
11.15,-0.5963505506515503,-0.6899672150611877,-0.7253499627113342,-0.9331314563751221,-0.12160687893629074,0.7041464447975159
11.2,-0.14621371030807495,-1.0491610765457153,-1.064683198928833,-0.6058416962623596,-0.5089595317840576,0.5322960019111633
11.25,-0.37090206146240234,-1.1268779039382935,-0.8617074489593506,-0.22953519225120544,-0.49751460552215576,0.10391482710838318
11.3,-0.9675596952438354,-1.0247470140457153,-0.3072609305381775,0.09324126690626144,-0.46155017614364624,-0.24105647206306458
11.35,-0.6975998282432556,1.4249106645584106,-1.191225528717041,0.261027455329895,-1.0294302701950073,-0.329770565032959
11.4,-0.03447668254375458,3.1866507530212402,-0.537794828414917,0.3322509229183197,-1.6487321853637695,-0.09303733706474304
11.45,-1.6384724378585815,2.248701572418213,1.5932921171188354,0.7367062568664551,-2.2556192874908447,0.41993632912635803
11.5,-2.5163609981536865,0.9930384755134583,1.1156097650527954,0.5614399909973145,-1.2350244522094727,0.3815147876739502
11.55,-3.6237518787384033,-1.2455357313156128,-0.31575268507003784,0.30260857939720154,-0.7201730012893677,-0.0028705131262540817
11.6,-2.1036746501922607,-1.5707236528396606,-0.5123558044433594,-0.009612098336219788,-1.7470102310180664,-0.2533336877822876
11.65,0.7580020427703857,-0.09751707315444946,-0.1765039712190628,-0.29545706510543823,-2.509351968765259,-0.35238412022590637
11.7,1.6771525144577026,-0.19459830224514008,0.4752236008644104,-0.29260003566741943,-2.4288413524627686,-0.37567654252052307
11.75,1.4484026432037354,-0.49027833342552185,1.5313489437103271,0.11645679175853729,-2.0186080932617188,-0.38967055082321167
11.8,1.1252145767211914,-0.877874493598938,2.095407485961914,0.45701754093170166,-1.7090879678726196,-0.4164530336856842
11.85,1.0984553098678589,-0.5657854676246643,2.5351874828338623,0.6621841788291931,-1.3109830617904663,-0.4514681100845337
11.9,0.5265287160873413,0.3697253167629242,3.134155750274658,0.7467549443244934,-1.0192160606384277,-0.321221262216568
11.95,0.03330349922180176,1.0984938144683838,4.220878601074219,0.9165291786193848,-0.6856927871704102,-0.16551271080970764
12.0,0.7559192180633545,1.1448814868927002,4.484011650085449,1.0991957187652588,-0.07584736496210098,-0.11301330476999283
12.05,0.7013533115386963,2.4506466388702393,3.5780856609344482,1.3337383270263672,0.7688100337982178,0.0416589230298996
12.1,0.8033655881881714,2.25771164894104,1.7602096796035767,0.8195018768310547,0.9499407410621643,0.2095283567905426
12.15,-0.028083935379981995,-0.3416796028614044,-0.30030015110969543,0.1399988830089569,1.003914475440979,0.40701088309288025
12.2,0.5004088878631592,-0.8889686465263367,-0.29003074765205383,-0.4026753902435303,0.9679545760154724,0.43372640013694763
12.25,3.4670827388763428,0.22561056911945343,-0.5634889602661133,-1.196204423904419,1.0344676971435547,0.28145191073417664
12.3,1.9090124368667603,0.7167519927024841,-1.0013095140457153,-1.5088913440704346,1.67953360080719,0.632932186126709
12.35,-0.5197109580039978,0.39101701974868774,-1.3962786197662354,-1.7394572496414185,1.7156034708023071,0.9773824214935303
12.4,-1.207327961921692,0.3284025490283966,-1.8209432363510132,-1.8991369009017944,1.074581503868103,0.9624021053314209
12.45,-0.6833756566047668,-0.5412359833717346,-2.1983282566070557,-1.693574070930481,0.4545426666736603,0.80608731508255
12.5,0.9333494305610657,-0.9200279712677002,-2.0114998817443848,-1.1457453966140747,0.22601349651813507,0.6693623065948486
12.55,0.33907896280288696,-1.19191575050354,-1.6100977659225464,-0.6680636405944824,0.7704702019691467,0.3217267692089081
12.6,-0.7865830659866333,-1.1508742570877075,-1.0054503679275513,-0.14376965165138245,0.6706869602203369,0.25425979495048523
12.65,-0.5827047824859619,-0.18943309783935547,-0.279821515083313,0.22863948345184326,-0.14196978509426117,0.38125133514404297
12.7,0.18820694088935852,0.0732717514038086,0.025909673422574997,0.462137371301651,-0.8114391565322876,0.21438319981098175
12.75,1.1522718667984009,0.7644892334938049,0.11000438034534454,0.5859582424163818,-0.8493686318397522,-0.2771546542644501
12.8,1.3182604312896729,3.6799120903015137,-0.05299397185444832,0.5830779671669006,-0.3815508782863617,-0.8375391960144043
12.85,-0.9362190961837769,0.7948037981987,-0.06026230379939079,0.6703346371650696,-0.3994215130805969,-0.36486223340034485
12.9,-0.5424177646636963,-0.09824466705322266,-0.5723312497138977,0.7315176129341125,-0.5278615951538086,-0.26856788992881775
12.95,-2.292168378829956,0.7136126756668091,-1.4754772186279297,0.7786023616790771,0.1785087138414383,-0.4474615752696991
13.0,-2.7065300941467285,0.09463512152433395,-1.6684596538543701,0.800926923751831,0.13212130963802338,-0.6117243766784668
13.05,-1.0404373407363892,-0.3952474892139435,-0.48145484924316406,0.6899336576461792,-0.7432233095169067,-0.7202619314193726
13.1,1.1195464134216309,-1.079703450202942,0.5700754523277283,0.46391817927360535,-1.34787917137146,-0.7573601007461548
13.15,1.5433484315872192,-1.4555350542068481,1.5192614793777466,0.4143564701080322,-1.274138331413269,-0.5316405296325684
13.2,1.4322361946105957,-0.8637725114822388,2.526646852493286,0.3840153217315674,-1.109215259552002,-0.26756489276885986
13.25,1.055310845375061,0.08703329414129257,2.522832155227661,0.346208393573761,-0.7908194065093994,-0.11945821344852448
13.3,-0.3298267126083374,0.531159520149231,1.4723995923995972,0.34795239567756653,-0.09953255951404572,-0.13588979840278625
13.35,0.08423125743865967,0.44351014494895935,1.5468008518218994,0.36508458852767944,0.4525568187236786,-0.28823322057724
13.4,1.5057964324951172,1.2528029680252075,2.093579053878784,0.26004558801651,0.6265369653701782,-0.3372364342212677
13.45,2.870666027069092,2.2742607593536377,1.8689833879470825,0.02207181788980961,0.6917763352394104,0.023229319602251053
13.5,2.511341094970703,0.5577687621116638,0.4089833199977875,-0.2234574407339096,0.8114397525787354,0.6002357006072998
13.55,-0.10636529326438904,-0.1463785469532013,-0.7157363891601562,-0.04163771867752075,1.7029244899749756,0.5223464965820312
13.6,-1.297239065170288,1.217117428779602,-2.796302556991577,-0.31584593653678894,2.4413044452667236,-0.03358910605311394
13.65,-2.6439027786254883,1.9951965808868408,-2.9033327102661133,-0.5747158527374268,2.4643430709838867,-0.2768476903438568
13.7,-1.5377811193466187,0.9783364534378052,-2.5218522548675537,-0.8451887369155884,1.0307668447494507,-0.0927344262599945
13.75,0.016926109790802002,-0.6408501863479614,-1.9136590957641602,-1.0260875225067139,0.02010350488126278,0.01247501466423273
13.8,0.8732093572616577,-0.6815587878227234,-1.5738530158996582,-0.9019298553466797,0.07089061290025711,-0.11819236725568771
13.85,0.7954442501068115,-0.3376961946487427,-1.4160528182983398,-0.736470103263855,0.31575050950050354,-0.28079143166542053
13.9,0.6107486486434937,-0.1642676293849945,-1.4623942375183105,-0.6559149622917175,0.319318950176239,-0.357027143239975
13.95,0.07993310689926147,-0.20929153263568878,-1.3396239280700684,-0.5293329954147339,0.1471502184867859,-0.2680732011795044
14.0,0.19666442275047302,-0.4457646310329437,-1.2338459491729736,-0.35649436712265015,-0.22328154742717743,-0.20567773282527924
14.05,0.2940499484539032,-0.1717100739479065,-0.9586106538772583,-0.1457667201757431,-0.3489217758178711,-0.32127708196640015
14.1,-0.6375000476837158,0.6341391205787659,-0.46793025732040405,0.15087521076202393,-0.3078521490097046,-0.33266863226890564
14.15,-1.8471006155014038,0.2591172456741333,-0.041405901312828064,0.32713282108306885,-0.4827295243740082,-0.04956962168216705
14.2,-2.025272846221924,-0.07278527319431305,0.04251008853316307,0.37015727162361145,-0.7871940732002258,-0.04669749364256859
14.25,-1.3215134143829346,0.4082452356815338,0.33471405506134033,0.40507519245147705,-0.8166376352310181,-0.30417221784591675
14.3,-0.1719653308391571,0.06087019667029381,0.3652604818344116,0.4005417227745056,-0.7943122982978821,-0.4209158420562744
14.35,0.06285244226455688,-0.30755138397216797,0.6725236177444458,0.3923158645629883,-0.7453585863113403,-0.39956560730934143
14.4,0.04820907115936279,-0.1465730518102646,1.1639288663864136,0.25552502274513245,-0.7843068838119507,-0.21913467347621918
14.45,0.2730139493942261,0.026335742324590683,1.3407409191131592,0.07626670598983765,-0.7523945569992065,-0.076168492436409
14.5,0.14074593782424927,0.3382425904273987,1.5410076379776,0.1253572255373001,-0.4360462725162506,-0.053624991327524185
14.55,-0.4071093499660492,0.3968716859817505,1.1126272678375244,0.2593674063682556,0.04724636301398277,-0.11865649372339249
14.6,-0.5181599855422974,0.1772022843360901,0.6208007335662842,0.2390711009502411,0.3215838372707367,-0.1871717870235443
14.65,-0.19387803971767426,-0.15434549748897552,0.6668055653572083,0.11338727176189423,0.26350098848342896,-0.1807379275560379
14.7,0.29171255230903625,-0.17941761016845703,0.8819870948791504,0.0076896026730537415,0.15351031720638275,-0.09666048735380173
14.75,0.4565304219722748,0.018476493656635284,1.080485463142395,-0.014421628788113594,0.19913609325885773,0.0021735646296292543
14.8,0.3579881191253662,0.15312770009040833,1.0633994340896606,0.030460961163043976,0.37900927662849426,0.06976184993982315
14.85,0.19651572406291962,0.29043105244636536,0.8233010768890381,0.058675020933151245,0.5615612864494324,0.08971750736236572
14.9,0.23991096019744873,0.21273043751716614,0.47329476475715637,0.07774653285741806,0.6755175590515137,0.059639763087034225
14.95,0.03797152638435364,0.24859146773815155,0.36727750301361084,0.1224827766418457,0.7931933403015137,0.025909313932061195
15.0,-0.199649840593338,0.48008450865745544,0.2942480146884918,0.09941690415143967,0.7928684949874878,0.0702456682920456
15.05,-0.3292784094810486,0.4425898492336273,0.3032410442829132,0.008641209453344345,0.6682817935943604,0.14870603382587433
15.1,-0.4475175440311432,0.30222421884536743,0.19594429433345795,-0.016567900776863098,0.6402773857116699,0.15367773175239563
15.15,-0.6810468435287476,0.2947617173194885,0.2161625176668167,-7.924064993858337e-05,0.6669052243232727,0.11564770340919495
15.2,-0.6573238372802734,0.25532060861587524,-0.019161149859428406,-0.02559703215956688,0.5702730417251587,0.11429227143526077
15.25,-0.5430333614349365,0.049061812460422516,0.004872622899711132,-0.04436580464243889,0.4041740894317627,0.1300661861896515
15.3,-0.47874388098716736,0.08123306185007095,0.13445425033569336,-0.021074187010526657,0.25217005610466003,0.15780054032802582
15.35,-0.5184606909751892,0.09331993758678436,0.2660849690437317,0.023025747388601303,0.1383337676525116,0.1893710047006607
15.4,-0.4405291974544525,0.11803822219371796,0.3617997169494629,0.05325956270098686,0.023109594359993935,0.21469229459762573
15.45,-0.39546409249305725,0.19088083505630493,0.4030888080596924,0.08929458260536194,-0.07586698979139328,0.2158239185810089
15.5,-0.5576385259628296,0.3345089554786682,0.4605100452899933,0.12709656357765198,-0.136942520737648,0.17840881645679474
15.55,-0.6668745875358582,0.3634997308254242,0.38670358061790466,0.13090255856513977,-0.2642669379711151,0.13163836300373077
15.6,-0.684112012386322,0.21896369755268097,0.46737098693847656,0.11293258517980576,-0.40484505891799927,0.041165318340063095
15.65,-0.28317299485206604,0.15621094405651093,0.5676887631416321,0.12168050557374954,-0.5013375878334045,-0.03933085501194
15.7,0.016594111919403076,-0.05352114886045456,0.6096904277801514,0.09797002375125885,-0.5562713742256165,-0.05950504541397095
15.75,0.36591583490371704,0.029574397951364517,0.7161536812782288,0.0839279517531395,-0.5166965126991272,-0.04357237368822098
15.8,0.4690578877925873,0.15826226770877838,0.7308840155601501,0.08194677531719208,-0.41237691044807434,0.024364816024899483
15.85,0.23694679141044617,0.27138999104499817,0.6122556328773499,0.08558283746242523,-0.33608928322792053,0.10579158365726471
15.9,-0.22527176141738892,0.23957735300064087,0.47101813554763794,0.07090993970632553,-0.28230932354927063,0.15629872679710388
15.95,-0.48389846086502075,0.36258798837661743,0.38900336623191833,0.09137987345457077,-0.2427065670490265,0.14632044732570648
16.0,-0.39821141958236694,0.5538245439529419,0.3317968249320984,0.08582095801830292,-0.2758665978908539,0.0981857031583786
16.05,-0.3601192831993103,0.5337792038917542,0.34516194462776184,0.08158805966377258,-0.34196341037750244,0.07904812693595886
16.1,-0.3359576165676117,0.08386234194040298,0.37814295291900635,0.043557364493608475,-0.4362495243549347,0.10371161252260208
16.15,0.15638527274131775,-0.4187813401222229,0.5167824029922485,0.026562899351119995,-0.5095977783203125,0.11519007384777069
16.2,0.7755897641181946,-0.09584811329841614,0.9928761124610901,0.10438358038663864,-0.4678613543510437,0.09946375340223312
16.25,0.43773019313812256,0.15624240040779114,1.1874531507492065,0.1479203701019287,-0.29820430278778076,0.1731448471546173
16.3,-0.05874353647232056,0.4487524926662445,1.2082009315490723,0.16330605745315552,-0.12384727597236633,0.25795260071754456
16.35,-0.42179691791534424,0.6280614137649536,0.7114145159721375,0.1301671415567398,0.07412844151258469,0.2229119837284088
16.4,-0.8113834857940674,0.6160985231399536,0.2851461172103882,0.13347434997558594,0.2715020775794983,0.12462259829044342
16.45,-0.7566566467285156,0.7262250185012817,0.17142438888549805,0.08786626160144806,0.13463056087493896,0.04984072223305702
16.5,-0.4973485469818115,0.5896083116531372,0.33110934495925903,-0.03405783697962761,-0.21158605813980103,-0.0053353277035057545
16.55,-0.00867655873298645,0.2554646134376526,0.8255571126937866,-0.054160065948963165,-0.3888125717639923,-0.08631204068660736
16.6,0.21549904346466064,0.1919432133436203,1.1676545143127441,-0.0026034414768218994,-0.19612474739551544,-0.1985786408185959
16.65,0.013482213020324707,0.3193665146827698,0.8789725303649902,0.04655412584543228,0.08708436787128448,-0.22296825051307678
16.7,-0.2582193911075592,0.2257404923439026,0.6438407897949219,0.023249097168445587,0.13504348695278168,-0.1792413741350174
16.75,-0.25817909836769104,-0.154355987906456,0.5524833798408508,0.015412040054798126,0.08080847561359406,-0.15579283237457275
16.8,-0.37842729687690735,-0.14660927653312683,0.6326873302459717,0.06273574382066727,0.18828406929969788,-0.15355315804481506
16.85,-0.27793753147125244,-0.1253652423620224,0.6228293776512146,0.06810973584651947,0.2279130071401596,-0.09894829243421555
16.9,-0.1570122390985489,-0.22089576721191406,0.5366106629371643,0.018627068027853966,0.23134511709213257,-0.017451371997594833
16.95,-0.18105463683605194,-0.25890350341796875,0.4424744248390198,-0.0008555054664611816,0.27586138248443604,0.05966327711939812
17.0,-0.009502917528152466,-0.22149468958377838,0.4937971234321594,0.017614005133509636,0.31052759289741516,0.09774118661880493
17.05,-0.005027011036872864,0.04641058295965195,0.5991378426551819,0.03597249463200569,0.37430891394615173,0.158347487449646
17.1,-0.1267429143190384,0.18798737227916718,0.4887191951274872,0.03268348425626755,0.42446139454841614,0.2468986064195633
17.15,-0.29529091715812683,0.29331880807876587,0.3435613512992859,0.034434184432029724,0.4599778652191162,0.32267752289772034
17.2,-0.12130779027938843,0.3710680305957794,0.06868092715740204,0.014822050929069519,0.47910818457603455,0.3159908354282379
17.25,-0.618151843547821,0.5358210802078247,0.020228924229741096,0.009762592613697052,0.541400671005249,0.31361833214759827
17.3,-0.785218358039856,0.4164372384548187,0.03200104460120201,-0.05151057243347168,0.396291583776474,0.31614041328430176
17.35,-0.5473902821540833,0.32312971353530884,0.13495245575904846,-0.07242695242166519,0.24625466763973236,0.23305942118167877
17.4,-0.4259471893310547,0.5557671189308167,0.17963051795959473,-0.06076604127883911,0.24543558061122894,0.14600111544132233
17.45,-0.6096926927566528,0.5299578905105591,0.20568710565567017,-0.05592203140258789,0.23902903497219086,0.10919027030467987
17.5,-0.6249776482582092,0.2936440110206604,0.2899598777294159,-0.06722645461559296,0.124202661216259,0.0603027418255806
17.55,-0.47979843616485596,0.13043884932994843,0.2126511186361313,-0.0439884290099144,0.05260969698429108,-0.01943260058760643
17.6,-0.4959535598754883,0.24769121408462524,0.33514007925987244,-0.0100218765437603,0.02032201550900936,-0.0804486945271492
17.65,-0.5182883143424988,0.2168150544166565,0.3453916311264038,-0.026560097932815552,-0.06456197053194046,-0.06192085146903992
17.7,-0.17771580815315247,0.03452112525701523,0.39288002252578735,-0.028933368623256683,-0.16851386427879333,-0.031395066529512405
17.75,-0.02069537341594696,-0.18271636962890625,0.43985456228256226,-0.0071724653244018555,-0.05190647020936012,-0.04802178591489792
17.8,0.08632242679595947,-0.16172029078006744,0.4043474793434143,0.05198201537132263,0.12298496812582016,-0.03730466216802597
17.85,0.6268628239631653,0.09438323229551315,0.4497908353805542,0.0633549913764,0.17918957769870758,-0.039830420166254044
17.9,0.6154813766479492,0.14806555211544037,0.2951694428920746,0.05161327123641968,0.32408785820007324,0.038554925471544266
17.95,0.17128916084766388,0.21020415425300598,0.350202739238739,0.08290627598762512,0.4855678677558899,0.14359357953071594
18.0,0.1383083313703537,0.27755168080329895,0.23687034845352173,0.0841764286160469,0.5239118337631226,0.17002102732658386
18.05,-0.14036023616790771,0.5495997071266174,0.21535910665988922,0.11515892297029495,0.6791163682937622,0.1575218141078949
18.1,-0.393737256526947,0.5552406907081604,0.13763980567455292,0.11503535509109497,0.6975326538085938,0.15897120535373688
18.15,-0.3454434871673584,0.6116352677345276,0.1137058362364769,0.05909347906708717,0.6765666007995605,0.14207108318805695
18.2,-0.20755134522914886,0.4459315240383148,0.313983291387558,-0.0004579499363899231,0.6320363879203796,0.11325445026159286
18.25,-0.12905427813529968,0.4540587067604065,0.24267268180847168,-0.06992226839065552,0.61960768699646,0.07861898094415665
18.3,-2.295570135116577,0.18661895394325256,0.5061503052711487,-0.34628263115882874,0.4671059250831604,-0.025979386642575264
18.35,-1.7519001960754395,0.4331723749637604,-0.4523615539073944,-0.3612711727619171,0.028750257566571236,-0.1889895349740982
18.4,-0.8075540065765381,0.28063493967056274,-0.4468063414096832,-0.2467699944972992,-0.21103739738464355,-0.23603801429271698
18.45,1.1164158582687378,-0.31751832365989685,-0.020820636302232742,-0.19097647070884705,-0.42937955260276794,0.046618930995464325
18.5,2.2436442375183105,-0.9347527027130127,0.15957599878311157,-0.1518668383359909,0.002024943009018898,0.5747299194335938
18.55,1.5802396535873413,0.058834973722696304,0.6859613060951233,-0.06031745672225952,0.5097345113754272,1.0537632703781128
18.6,0.31965261697769165,0.5719967484474182,0.238932266831398,-0.17723166942596436,0.7749056816101074,1.3602137565612793
18.65,-1.4812421798706055,0.8316356539726257,0.2672628164291382,-0.2810412049293518,1.1408566236495972,1.289763331413269
18.7,-2.1321074962615967,0.6560079455375671,0.10010603815317154,-0.3775307834148407,1.3141729831695557,0.9474415183067322
18.75,-2.079069137573242,0.010297886095941067,0.014423073269426823,-0.3467246890068054,1.087364912033081,0.5964619517326355
18.8,-2.349149703979492,-0.3436936140060425,0.43980172276496887,-0.22847552597522736,0.6081289052963257,0.2920131981372833
18.85,-2.7859129905700684,-0.6505889296531677,-0.11821547895669937,-0.1094280257821083,0.02124769799411297,0.06863810122013092
18.9,-0.4164552688598633,-0.08348750323057175,-0.1512182652950287,0.04173881560564041,-0.4851193428039551,-0.1607322245836258
18.95,0.7801453471183777,-0.3707524240016937,-0.19997873902320862,0.028631798923015594,-0.5107830762863159,-0.15246403217315674
19.0,0.7508249282836914,-0.4329911172389984,-0.0018265803810209036,-0.007862653583288193,-0.04104594886302948,-0.1584789752960205
19.05,0.36138272285461426,0.19596482813358307,0.41106849908828735,0.0493062287569046,0.17614534497261047,-0.05263688042759895
19.1,-0.2067106068134308,0.3933335244655609,0.6269097924232483,0.05378617346286774,0.023878345265984535,0.16884593665599823
19.15,-0.1754562258720398,0.3049479126930237,0.4485448896884918,-0.014723159372806549,-0.03392032906413078,0.2100936621427536
19.2,-0.33639270067214966,0.1636534184217453,0.3899970054626465,-0.11017853766679764,0.09126093983650208,0.10696689039468765
19.25,-0.36167991161346436,-0.044787388294935226,0.07847309112548828,-0.09113329648971558,0.00479091564193368,0.06525063514709473
19.3,-0.22789441049098969,0.08318998664617538,0.22067123651504517,-0.008716421201825142,-0.09184186905622482,0.06893499940633774
19.35,0.02372148633003235,0.3120575249195099,0.40153050422668457,0.05155777558684349,-0.16457222402095795,0.10297136753797531
19.4,0.2485920637845993,0.5450335144996643,0.7983867526054382,-0.013777479529380798,-0.1268080323934555,0.1496218740940094
19.45,0.23526416718959808,0.7964574098587036,0.9754809141159058,-0.13449692726135254,-0.2510561943054199,0.3052733540534973
19.5,0.4017285704612732,0.5637274384498596,0.6756722927093506,-0.3473700284957886,-0.39797309041023254,0.5012426376342773
19.55,0.17521072924137115,0.29509833455085754,0.09582245349884033,-0.563329815864563,-0.3009788990020752,0.6431348323822021
19.6,-0.184686541557312,0.03213978186249733,-0.29288244247436523,-0.581467866897583,-0.1516493856906891,0.6638202667236328
19.65,0.026917144656181335,-0.07961942255496979,-0.3477907180786133,-0.44808146357536316,0.018915709108114243,0.57302325963974
19.7,0.36166954040527344,-0.38985928893089294,-0.6231338977813721,-0.2950735092163086,0.33742260932922363,0.36823800206184387
19.75,0.04919804632663727,-0.5484848618507385,-0.44712740182876587,-0.19031965732574463,0.737292468547821,0.21260085701942444
19.8,-0.5923860669136047,-0.36688709259033203,0.012532972730696201,0.047149259597063065,0.7860323190689087,0.19714626669883728
19.85,-1.261130452156067,0.21508324146270752,0.9133972525596619,0.407319039106369,0.37348565459251404,0.3260279595851898
19.9,-0.7183912992477417,0.840798556804657,1.2581868171691895,0.3995361924171448,0.0365586020052433,0.2128101885318756
19.95,0.01849915087223053,0.6798296570777893,0.6219647526741028,0.12190040946006775,0.0840461254119873,0.05395375192165375
20.0,-0.4352601170539856,-0.05537125840783119,0.327953040599823,-0.06820745766162872,0.2240104079246521,-0.008531574159860611
20.05,-0.5476247072219849,-0.06942079216241837,-0.031723711639642715,-0.04047835245728493,0.09511703997850418,0.009250967763364315
20.1,-0.3065981864929199,0.13906005024909973,-0.00134710140991956,0.06437192857265472,-0.03566579893231392,0.04607491195201874
20.15,-0.4246416687965393,0.10444168746471405,0.24774323403835297,0.06527362018823624,-0.016673950478434563,0.01001873891800642
20.2,-0.2945418953895569,0.23698334395885468,0.21125967800617218,0.04519374668598175,-0.0009698031353764236,-0.03428923338651657
20.25,-0.3810194432735443,0.12047294527292252,0.14559228718280792,0.00603431835770607,0.047606319189071655,-0.0725456178188324
20.3,-0.2106451541185379,0.08135797828435898,0.11131872981786728,0.007651384919881821,0.06703271716833115,-0.09105688333511353
20.35,-0.19943015277385712,0.09245873987674713,-0.022258618846535683,0.01738380268216133,0.08221570402383804,-0.12593746185302734
20.4,-0.6266393661499023,0.0486174076795578,0.15408094227313995,0.030259575694799423,0.09824038296937943,-0.14337050914764404
20.45,-1.2215529680252075,-0.282619446516037,0.12402211129665375,0.05644301325082779,0.03519118204712868,-0.1897018849849701
20.5,-1.403943419456482,-0.5829095840454102,0.16486987471580505,0.1714693009853363,-0.1743210107088089,-0.3150695562362671
20.55,-2.870879650115967,-1.6800185441970825,-1.1839405298233032,0.5198338031768799,-0.6515935063362122,-0.5839756727218628
20.6,-0.8766641616821289,0.22991473972797394,-0.10743822157382965,1.3815829753875732,-1.5269559621810913,-0.7050419449806213
20.65,2.0169260501861572,1.3160247802734375,-0.2819698750972748,1.2175441980361938,-1.9105536937713623,-0.5299999713897705
20.7,1.383491039276123,1.6658565998077393,1.8423867225646973,0.8785710334777832,-1.3631106615066528,-0.16111868619918823
20.75,1.3627753257751465,1.3489495515823364,1.2343229055404663,0.0016163932159543037,-0.7680301666259766,-0.0337541326880455
20.8,0.12982439994812012,0.6597824692726135,0.46422651410102844,-0.6559114456176758,-0.23578190803527832,-0.15250208973884583
20.85,-1.0438815355300903,0.6537305116653442,0.08252877742052078,-1.0557610988616943,-0.107309490442276,-0.41752612590789795
20.9,-2.3760392665863037,0.5239431262016296,0.501030683517456,-1.047741413116455,-0.330588698387146,-0.5093780755996704
20.95,-2.3140206336975098,0.04636300355195999,-0.03661828860640526,-0.9135756492614746,-0.8749949336051941,-0.6521876454353333
21.0,0.3444235920906067,-0.3229161202907562,-1.1102395057678223,-0.7249197363853455,-0.8654859662055969,-0.963593602180481
21.05,1.3348723649978638,-1.332862138748169,-1.2893649339675903,-0.24645006656646729,0.13806544244289398,-1.2955553531646729
21.1,1.235090970993042,-1.2853758335113525,-1.3339954614639282,0.5637698769569397,1.0091722011566162,-1.5424394607543945
21.15,-0.47132059931755066,-0.09102439880371094,-0.6096094250679016,1.1978759765625,1.0081762075424194,-1.395592451095581
21.2,-1.1897697448730469,0.6218138933181763,-0.0163189098238945,1.2851300239562988,-0.06149638071656227,-0.7030121088027954
21.25,0.2329731285572052,1.2202197313308716,-0.29339027404785156,0.9982182383537292,-1.1825921535491943,-0.13831965625286102
21.3,-0.09813486039638519,1.2451735734939575,0.5863515734672546,1.0031191110610962,-1.2061824798583984,-0.13368697464466095
21.35,-0.5295531153678894,1.443946123123169,1.9748269319534302,0.9506173133850098,-0.790553092956543,-0.4479449689388275
21.4,0.44420570135116577,1.121968388557434,1.8197447061538696,0.3138285279273987,-0.7571232318878174,-0.6226876378059387
21.45,1.5565791130065918,0.5348587036132812,1.163500428199768,-0.2272411584854126,-0.5235423445701599,-0.6550846099853516
21.5,1.172020435333252,0.5214204788208008,0.6710557341575623,-0.3229948580265045,-0.10533658415079117,-0.5809631943702698
21.55,0.24043551087379456,0.6057339310646057,0.3919981122016907,-0.27570709586143494,0.20525705814361572,-0.5272037982940674
21.6,-0.05091055855154991,0.3209743797779083,0.012571390718221664,-0.32702136039733887,0.21905452013015747,-0.475338339805603
21.65,-0.3513313829898834,-0.13718414306640625,-0.2581077516078949,-0.35439440608024597,0.2018551379442215,-0.3999454975128174
21.7,-0.2941521406173706,-0.5359631180763245,-0.09156189113855362,-0.30238091945648193,0.08403322100639343,-0.3352634608745575
21.75,-0.16857755184173584,-0.9124003648757935,0.2645389437675476,-0.22215192019939423,-0.027746547013521194,-0.27619874477386475
21.8,0.2728281617164612,-1.0928860902786255,0.7218316197395325,-0.10238126665353775,-0.07936852425336838,-0.22515635192394257
21.85,-0.16625139117240906,-1.0978652238845825,1.0094258785247803,0.04904504865407944,0.07675482332706451,-0.09737423807382584
21.9,-0.3475031554698944,-0.313721626996994,1.0255231857299805,0.15718695521354675,0.23315206170082092,0.13402095437049866
21.95,-0.6671127080917358,0.010056558065116405,0.9619433879852295,0.13756689429283142,0.20450323820114136,0.3835008442401886
22.0,-0.8073126077651978,-0.14522260427474976,1.1526038646697998,0.22089798748493195,0.139088973402977,0.4692968726158142
22.05,-0.4853817820549011,-0.2652225196361542,1.490987777709961,0.32367581129074097,0.14935065805912018,0.3917902708053589
22.1,0.328105092048645,-0.39449217915534973,1.7555826902389526,0.38493430614471436,0.17763236165046692,0.3028659224510193
22.15,0.9209272861480713,-0.14398767054080963,1.6288398504257202,0.4470539689064026,0.4081021845340729,0.28247231245040894
22.2,1.0050537586212158,0.5503092408180237,1.00351083278656,0.46287667751312256,0.8477506637573242,0.3302209675312042
22.25,0.17235442996025085,0.7765227556228638,0.23637604713439941,0.47347843647003174,1.1839622259140015,0.4491329789161682
22.3,-0.5502564907073975,0.4631873071193695,-0.37013235688209534,0.45978623628616333,1.244055151939392,0.5098275542259216
22.35,-0.8117557764053345,0.5013437867164612,-0.5647738575935364,0.34738457202911377,1.0710123777389526,0.506013035774231
22.4,-0.39589065313339233,0.6268158555030823,-0.5964207053184509,0.23396077752113342,0.7969380617141724,0.5027340650558472
22.45,-0.3907965123653412,0.9315978288650513,-0.6094943881034851,0.22191587090492249,0.6340500712394714,0.43696457147598267
22.5,-0.9898269176483154,0.6841059923171997,-0.44110986590385437,0.21435773372650146,0.6621781587600708,0.40156590938568115
22.55,-1.2797191143035889,0.4132004976272583,-0.2748691141605377,0.14558014273643494,0.5202760100364685,0.33829551935195923
22.6,-0.8539766073226929,0.279609739780426,-0.2832629978656769,0.03405054658651352,0.1682843118906021,0.2191663235425949
22.65,-0.34572580456733704,0.20645146071910858,-0.08135448396205902,0.04183776676654816,-0.052418217062950134,0.061412256211042404
22.7,-0.05242665484547615,0.37803369760513306,0.02217358723282814,0.01680002361536026,-0.04697504639625549,-0.0459490530192852
22.75,-0.43863606452941895,0.16283230483531952,0.22399015724658966,-0.0023299269378185272,0.03468343988060951,-0.0644085556268692
22.8,0.006938859820365906,0.060073863714933395,0.08357985317707062,-0.04281335324048996,-0.12088048458099365,-0.12373018264770508
22.85,0.3419441878795624,0.1360177993774414,-0.0551338866353035,-0.08077707141637802,-0.13532565534114838,-0.15052679181098938
22.9,-0.09387215226888657,0.052095431834459305,0.22874373197555542,-0.03373856469988823,-0.027170201763510704,-0.1375764012336731
22.95,-0.07935667037963867,0.09834864735603333,0.32173144817352295,0.003410402685403824,-0.0770832747220993,-0.13695551455020905
23.0,0.010215550661087036,0.1227874904870987,0.1405908316373825,-0.012338198721408844,-0.08201444894075394,-0.13106180727481842
23.05,0.08351179212331772,0.0015783333219587803,0.23338621854782104,0.03926657885313034,0.014912989921867847,-0.13363052904605865
23.1,0.283655047416687,0.1302633285522461,0.213067427277565,0.058938026428222656,0.04027623310685158,-0.09706497192382812
23.15,-0.03982783854007721,0.24537663161754608,0.32375410199165344,0.06891398131847382,0.08924416452646255,0.012265115976333618
23.2,-0.16391126811504364,0.40333184599876404,0.422534704208374,0.08496777713298798,0.006982015911489725,0.10554952174425125
23.25,-0.2844451665878296,0.37295442819595337,0.38260260224342346,0.07016646862030029,-0.040887363255023956,0.15404260158538818
23.3,-0.3607005476951599,0.2854014039039612,0.6567307710647583,0.08847347646951675,0.010638628154993057,0.16415736079216003
23.35,-0.11347617208957672,0.41898831725120544,0.5523450970649719,0.06465748697519302,-0.05809488147497177,0.15168920159339905
23.4,-0.1261288970708847,0.08558085560798645,0.4800265431404114,0.011922888457775116,-0.0413307286798954,0.17184610664844513
23.45,0.23912814259529114,-0.0009622608195059001,0.3351247310638428,-0.05033406242728233,-0.04742880165576935,0.15790638327598572
23.5,0.5957546234130859,0.03602120652794838,0.0812637060880661,-0.14556477963924408,-0.0511823445558548,0.14694243669509888
23.55,0.4341786205768585,0.30391407012939453,0.12517563998699188,-0.18425658345222473,0.07180041819810867,0.23008520901203156
23.6,-0.11219583451747894,0.6399880051612854,0.19181771576404572,-0.15771552920341492,0.20183898508548737,0.37444403767585754
23.65,-0.7074387669563293,0.16755300760269165,0.38016948103904724,-0.10552984476089478,0.23223046958446503,0.49540358781814575
23.7,-0.9666007161140442,0.008706155233085155,0.3730963170528412,-0.08009552955627441,0.13236433267593384,0.5036523938179016
23.75,-0.7379673719406128,-0.07094379514455795,0.07903625816106796,-0.12373656034469604,-0.004282583948224783,0.40439075231552124
23.8,-0.3970845937728882,-0.07315824925899506,-0.013752971775829792,-0.1889764964580536,-0.10974477976560593,0.2724079489707947
23.85,-0.36962756514549255,-0.28406715393066406,0.21870818734169006,-0.18815195560455322,-0.3523160219192505,0.18617841601371765
23.9,0.10719539225101471,-0.2794504463672638,0.32528409361839294,-0.13259124755859375,-0.7681403756141663,0.11605900526046753
23.95,0.7766326665878296,0.04662701115012169,0.19974976778030396,-0.08668375015258789,-0.9950482249259949,0.03163197636604309
24.0,0.9524952173233032,0.1850127875804901,0.22180114686489105,0.01847604289650917,-0.7338988184928894,-0.057718999683856964
24.05,0.714993417263031,0.2426624298095703,0.03587876260280609,0.08997052907943726,-0.3128766715526581,-0.08959951996803284
24.1,-0.3267156779766083,0.4043675363063812,0.03706790506839752,0.12344520539045334,0.062499333173036575,-0.03865307942032814
24.15,-1.186324954032898,0.524276852607727,0.22698292136192322,0.13040637969970703,-0.06301558762788773,0.06337754428386688
24.2,-0.954749345779419,0.7426987886428833,-0.017663702368736267,0.0669211894273758,-0.5807058215141296,0.10649888217449188
24.25,-0.6540967226028442,0.9885360598564148,0.03699009120464325,-0.011830054223537445,-0.9448705911636353,0.04955973103642464
24.3,-0.3409300148487091,1.3203173875808716,0.23763948678970337,-0.06927292048931122,-1.2974920272827148,-0.08137626945972443
24.35,0.15321996808052063,0.9196645021438599,0.5625665783882141,-0.13585589826107025,-1.6213701963424683,-0.24775461852550507
24.4,0.931127667427063,0.9010154008865356,1.0691227912902832,-0.1457241028547287,-1.7186968326568604,-0.4527595043182373
24.45,2.3548710346221924,0.33418554067611694,1.4879212379455566,-0.07062196731567383,-1.6128871440887451,-0.7289830446243286
24.5,2.9337477684020996,-0.36311736702919006,1.75724458694458,0.06351020932197571,-0.8893390893936157,-0.9538728594779968
24.55,1.0349115133285522,-1.0842467546463013,0.8762134909629822,0.24269437789916992,0.4411180019378662,-0.9888262748718262
24.6,-1.669529676437378,-0.7313404083251953,-0.9562867283821106,0.27031099796295166,1.141290307044983,-0.8585686087608337
24.65,-1.7428374290466309,-0.23222920298576355,-0.9512163996696472,0.040217623114585876,0.510313868522644,-0.5699121356010437
24.7,-1.8219529390335083,0.28692924976348877,-0.24092356860637665,-0.22421804070472717,-0.30032098293304443,-0.1658460646867752
24.75,-1.4080320596694946,0.2520657479763031,-0.048818811774253845,-0.33574700355529785,-0.3843417763710022,0.017598941922187805
24.8,-0.7388169169425964,-0.6286916732788086,0.20252491533756256,-0.32580310106277466,-0.3153383731842041,-0.013667512685060501
24.85,0.23883111774921417,-0.9934912919998169,0.8166477084159851,-0.23843681812286377,-0.3165194094181061,-0.08494649082422256
24.9,0.5060462951660156,-0.7943211793899536,1.0009108781814575,-0.07847529649734497,-0.021200506016612053,-0.03883367031812668
24.95,-0.11923682689666748,-0.06987950950860977,0.8322359323501587,0.09365475177764893,0.47587940096855164,0.07804833352565765
25.0,-0.9238192439079285,-0.04142468795180321,0.6223729848861694,0.12729305028915405,0.5216197967529297,0.20499402284622192
25.05,-0.8754921555519104,-0.25935837626457214,0.5298300385475159,0.1754302978515625,0.41160616278648376,0.16535481810569763
25.1,-0.6992021799087524,-0.15864939987659454,0.8192312717437744,0.26783519983291626,0.32005545496940613,0.08566151559352875
25.15,0.055057018995285034,-0.179868683218956,1.2529029846191406,0.2524634003639221,0.09638611972332001,0.12200216948986053
25.2,1.2237908840179443,-0.01716233789920807,1.890753149986267,0.23734217882156372,-0.04850142449140549,0.2149757444858551
25.25,2.077996253967285,0.6232051849365234,2.304865837097168,0.17574524879455566,0.14118321239948273,0.24354887008666992
25.3,3.7259409427642822,1.155207633972168,1.2463802099227905,0.16691885888576508,0.9328203201293945,0.23861631751060486
25.35,2.6704087257385254,0.5220917463302612,-0.6241903901100159,0.28310298919677734,2.3270347118377686,0.19144891202449799
25.4,0.4423503279685974,0.5286369323730469,-1.7174439430236816,0.37723273038864136,3.362600564956665,0.042899973690509796
25.45,-0.703338623046875,0.848875105381012,-2.425736904144287,0.07545256614685059,3.5989630222320557,0.034568384289741516
25.5,-2.0649471282958984,0.950880229473114,-1.2289319038391113,-0.1331203728914261,3.0288870334625244,0.3786504566669464
25.55,-1.4872639179229736,0.6966954469680786,-1.3235695362091064,-0.41954174637794495,1.371138334274292,0.8648895621299744
25.6,-0.23605871200561523,0.6863241195678711,-2.3900372982025146,-0.5609421730041504,0.32045844197273254,1.2006547451019287
25.65,0.9486122131347656,0.2894352972507477,-2.964282512664795,-0.3006165623664856,0.4106355607509613,1.2983720302581787
25.7,0.8204132318496704,-0.18783487379550934,-2.3866796493530273,0.012555420398712158,0.917173445224762,1.1550648212432861
25.75,0.7979132533073425,-0.19987310469150543,-2.488553762435913,0.1986018419265747,1.3308569192886353,1.0218466520309448
25.8,0.2769085764884949,0.10712426900863647,-2.123401641845703,0.3166835904121399,1.552311658859253,0.9751684665679932
25.85,-0.12025362253189087,0.9074392914772034,-1.6048930883407593,0.4831903278827667,1.5765447616577148,1.0420814752578735
25.9,-0.31156766414642334,1.0833197832107544,-1.0803074836730957,0.6725649833679199,1.575456976890564,1.0589518547058105
25.95,-0.4254171550273895,0.8132058382034302,-0.06713228672742844,0.6491262316703796,1.8465760946273804,0.931209146976471
26.0,-0.7413401007652283,0.2473660409450531,0.8175152540206909,0.24292033910751343,2.140225410461426,0.8839156627655029
26.05,-1.164358139038086,-0.04966823011636734,1.0007445812225342,-0.002262026071548462,1.8200753927230835,0.8690937757492065
26.1,-1.2601454257965088,0.7730666995048523,0.727857232093811,0.16878563165664673,1.0290799140930176,0.825309157371521
26.15,-1.1759343147277832,-0.0773724690079689,0.8590164184570312,0.31023356318473816,0.7034621834754944,0.6637058258056641
26.2,-1.071871042251587,-1.2479324340820312,1.1957799196243286,-0.03169454634189606,0.8353605270385742,0.5026622414588928
26.25,-0.8877469301223755,-1.5275098085403442,1.2414270639419556,-0.40080758929252625,0.8570337891578674,0.26072895526885986
26.3,-0.2698076367378235,-0.6346874237060547,1.7222354412078857,-0.3229159116744995,0.45705145597457886,-0.12861177325248718
26.35,0.004633218050003052,-0.45838072896003723,1.1578736305236816,-0.12538105249404907,-0.16078950464725494,-0.5035639405250549
26.4,0.41216185688972473,-0.47923949360847473,1.698565125465393,-0.3906913995742798,-0.3144393861293793,-0.6436024904251099
26.45,0.14897406101226807,0.2562409043312073,1.3052747249603271,-0.6433027982711792,-0.45233088731765747,-0.7028734087944031
26.5,0.7743929624557495,0.20773984491825104,0.9827523827552795,-0.6915261149406433,-0.4521496891975403,-0.8024622797966003
26.55,1.3776917457580566,0.4154367446899414,0.18951371312141418,-0.6103134155273438,-0.5150225162506104,-0.8661432266235352
26.6,1.2866225242614746,0.47133827209472656,-0.22778019309043884,-0.6624863147735596,-0.17911893129348755,-0.7159401774406433
26.65,1.0308620929718018,0.8707685470581055,-1.4404833316802979,-0.636420488357544,0.5660707950592041,-0.39104917645454407
26.7,1.3706390857696533,0.6128634810447693,-1.3607721328735352,-0.3539324998855591,1.2451785802841187,-0.23555390536785126
26.75,0.6011916399002075,-0.5322372317314148,-3.8442959785461426,-0.09572211652994156,1.7337000370025635,0.013423281721770763
26.8,-0.9319562911987305,-0.8628360033035278,-2.712637424468994,-0.0014827072154730558,2.9201550483703613,0.006963682360947132
26.85,-1.066550374031067,0.1132717877626419,0.18879985809326172,-0.07190202921628952,3.586308717727661,-0.11532605439424515
26.9,-0.15604805946350098,0.40050041675567627,1.6657789945602417,0.1129491999745369,2.884080171585083,-0.25558415055274963
26.95,0.4804582893848419,0.4354163110256195,1.7905998229980469,0.13260065019130707,1.9216289520263672,-0.41781866550445557
27.0,0.28835034370422363,0.38397127389907837,0.7183196544647217,0.1004372239112854,1.1320381164550781,-0.4282197952270508
27.05,0.6896804571151733,0.7367878556251526,0.47345298528671265,-0.00444340705871582,0.6581439971923828,-0.33183592557907104
27.1,0.21435236930847168,0.5011397004127502,-0.3303222358226776,-0.07725558429956436,0.26942166686058044,-0.1814245730638504
27.15,0.2263047993183136,0.09880829602479935,0.16655534505844116,-0.16265061497688293,0.13109822571277618,-0.028240252286195755
27.2,0.11904172599315643,0.23654751479625702,0.778510570526123,-0.25226640701293945,-0.375150203704834,0.013609126210212708
27.25,0.011888302862644196,0.5982266068458557,0.18050873279571533,-0.26769715547561646,-1.1881400346755981,-0.19392837584018707
27.3,0.4377514719963074,0.43730929493904114,-0.6638121008872986,-0.12431852519512177,-1.7090624570846558,-0.35339516401290894
27.35,0.1285664439201355,0.4167490005493164,-1.975762963294983,0.02563490718603134,-1.7027758359909058,-0.2818591892719269
27.4,0.7670300006866455,0.6435174942016602,-1.7615153789520264,0.17980098724365234,-1.0125614404678345,-0.08160968124866486
27.45,1.2338082790374756,0.3570336699485779,-0.5562553405761719,0.3066237270832062,-0.4084739089012146,0.1946466565132141
27.5,0.8356443047523499,0.13631434738636017,-0.3741210103034973,0.2504577338695526,-0.21541814506053925,0.35062548518180847
27.55,0.5233188271522522,-0.7825815081596375,-0.14311011135578156,0.17691101133823395,-0.1332429200410843,0.3059963285923004
27.6,0.22539180517196655,-1.1014682054519653,0.6682578325271606,-0.11824674904346466,-0.16032883524894714,0.2523990869522095
27.65,-0.23297369480133057,-0.6733418107032776,0.14594294130802155,-0.5743715167045593,-0.17362667620182037,0.09011370688676834
27.7,0.21737052500247955,-0.21209721267223358,-0.07933934032917023,-0.8662485480308533,-0.2568202018737793,-0.1224980503320694
27.75,0.7397095561027527,1.061513066291809,-0.6845952272415161,-1.0931264162063599,-0.5744928121566772,-0.21034669876098633
27.8,0.9877411723136902,2.0252392292022705,-1.8434125185012817,-1.2056684494018555,-0.4416235089302063,-0.08589386940002441
27.85,0.8453747034072876,1.8222323656082153,-2.8806731700897217,-1.1937839984893799,0.3278695046901703,0.2147381454706192
27.9,0.015210270881652832,0.9544554352760315,-3.0766499042510986,-1.0594394207000732,1.558634638786316,0.5044453144073486
27.95,-1.952262043952942,-0.26485633850097656,-3.1684911251068115,-0.7212634086608887,2.8345112800598145,0.6194611191749573
28.0,-3.325730800628662,-0.7731466293334961,-1.3686296939849854,-0.49883514642715454,3.8433876037597656,0.3759956359863281
28.05,-2.059401035308838,-0.7988548278808594,0.9642860293388367,-0.28502142429351807,3.739931583404541,-0.043509215116500854
28.1,-0.8566817045211792,-0.07864847779273987,1.8394758701324463,-0.18036361038684845,2.7224514484405518,-0.3327721953392029
28.15,0.3279188275337219,-0.5341644883155823,1.475782871246338,-0.20248030126094818,1.802252173423767,-0.49493739008903503
28.2,0.40648162364959717,0.3969298005104065,0.317093163728714,-0.2990386188030243,1.0602121353149414,-0.4937244653701782
28.25,-0.12283030152320862,0.4046364426612854,-0.7124980092048645,-0.3349260687828064,0.6306911706924438,-0.3344239890575409
28.3,-0.07354414463043213,0.527931272983551,-1.1019054651260376,-0.2739882469177246,0.5859293341636658,-0.2439485341310501
28.35,0.6047970652580261,1.244691014289856,-0.7892938852310181,-0.08197682350873947,1.0990222692489624,-0.15765298902988434
28.4,1.5533957481384277,0.8292036652565002,-0.2526830732822418,0.19911549985408783,1.4530612230300903,-0.069423146545887
28.45,1.4136323928833008,0.30904385447502136,0.3744502365589142,0.35446929931640625,1.4412457942962646,0.053805094212293625
28.5,1.4014534950256348,0.35638901591300964,0.16023458540439606,0.41661280393600464,1.3224470615386963,0.17982612550258636
28.55,0.8686665892601013,0.12093444913625717,-0.19224460422992706,0.5495285987854004,0.8729314208030701,0.12528640031814575
28.6,0.23873049020767212,-0.07759193331003189,-0.5692179203033447,0.4984123110771179,0.5022404193878174,-0.0035067645367234945
28.65,0.242703378200531,0.18633553385734558,-1.085520625114441,0.2576765716075897,0.5376256704330444,-0.09406153857707977
28.7,-0.1375727653503418,0.16793154180049896,-1.5228554010391235,0.10316169261932373,0.6939442753791809,-0.14790567755699158
28.75,-0.7427569031715393,-0.28114035725593567,-1.498435378074646,0.09696446359157562,0.8668647408485413,-0.20272459089756012
28.8,-0.7000073790550232,-0.5379610657691956,-1.258109211921692,0.06131404638290405,0.9255157709121704,-0.4380732774734497
28.85,-0.8458623886108398,-0.8687639832496643,-0.4341449737548828,0.03808778524398804,1.4181803464889526,-0.5562354326248169
28.9,0.1928258240222931,-0.7918330430984497,0.023168375715613365,-0.02930690348148346,2.068892478942871,-0.533577561378479
28.95,1.373980164527893,-0.17993173003196716,-0.11067313700914383,-0.10817844420671463,2.419257402420044,-0.484586626291275
29.0,2.2223312854766846,0.3982142508029938,-1.1437288522720337,-0.17193181812763214,2.1784439086914062,-0.5299346446990967
29.05,1.4369268417358398,0.48833268880844116,-1.2662276029586792,-0.2943117618560791,1.3401660919189453,-0.7756478190422058
29.1,0.738542377948761,0.47276875376701355,-1.9109697341918945,-0.48373961448669434,0.6321243047714233,-1.1219733953475952
29.15,0.618081271648407,-0.2749377489089966,-2.2865827083587646,-0.43704336881637573,0.2325195074081421,-1.2212797403335571
29.2,0.5670480132102966,-0.6614762544631958,-1.8966331481933594,-0.2613305449485779,0.14359721541404724,-0.9722874760627747
29.25,0.6544284224510193,-0.7182761430740356,-1.3454841375350952,-0.19012068212032318,0.04853770136833191,-0.6532562375068665
29.3,0.728033185005188,-0.8203288912773132,-0.15011925995349884,-0.3603646457195282,-0.11642948538064957,-0.31945765018463135
29.35,0.8235722780227661,-0.561081051826477,0.38279959559440613,-0.49501878023147583,0.005761105101555586,-0.027637988328933716
29.4,0.8941890001296997,-0.42532166838645935,0.6145880222320557,-0.6047378778457642,0.19106104969978333,0.2740734815597534
29.45,0.9969680309295654,-0.00021173707500565797,1.1279152631759644,-0.6734453439712524,0.27938878536224365,0.5332540273666382
29.5,1.4313509464263916,-0.09239489585161209,0.5849422216415405,-0.6138260960578918,0.42844265699386597,0.7908049821853638
29.55,-0.045693814754486084,0.5596362352371216,1.3796316385269165,-0.4329901933670044,0.38219016790390015,1.0296399593353271
29.6,-0.6039590835571289,1.0978596210479736,2.520662307739258,-0.1986301839351654,0.7321704626083374,0.9339788556098938
29.65,0.624867856502533,1.1686183214187622,1.3586992025375366,-0.3805732727050781,1.1296017169952393,0.7137173414230347
29.7,-0.24325375258922577,1.374045491218567,0.33610212802886963,-0.7256280779838562,0.8841681480407715,0.7386820912361145
29.75,0.01135435700416565,1.031027913093567,0.5637742280960083,-0.6361189484596252,0.5423806309700012,0.5217475295066833
29.8,-0.25630685687065125,0.9574452638626099,-0.14351844787597656,-0.5582350492477417,0.7558844089508057,0.37470200657844543
29.85,-0.7174622416496277,0.4388952851295471,-0.9003168344497681,-0.42424464225769043,0.9411143064498901,0.1735219657421112
29.9,-0.3040367364883423,-0.06364918500185013,-0.6482762694358826,-0.1610378921031952,0.5132046341896057,-0.11486752331256866
29.95,0.18458443880081177,-0.1643667370080948,0.26447102427482605,0.11051982641220093,0.19008249044418335,-0.2333633452653885
30.0,0.7094797492027283,-0.16300968825817108,0.052662868052721024,0.340547114610672,0.2108839899301529,-0.16453292965888977
30.05,0.30440789461135864,0.8472033739089966,-0.004609936848282814,0.588701605796814,0.26708459854125977,-0.01575414650142193
30.1,-0.27938395738601685,0.7902213335037231,-0.20744408667087555,0.598985493183136,0.038905832916498184,-0.06586916744709015
30.15,-0.8949148058891296,0.4670478105545044,-0.047238562256097794,0.4247158169746399,-0.3602232336997986,-0.14280959963798523
30.2,-1.1394274234771729,0.2650319039821625,-0.000958397111389786,0.1829329878091812,-0.3358508050441742,-0.14069132506847382
30.25,-0.7240945100784302,0.047468215227127075,-0.5086337327957153,0.06887698918581009,0.18751610815525055,-0.2743326723575592
30.3,0.3553886115550995,0.12141034007072449,-0.8412520885467529,-0.020616456866264343,0.4319276213645935,-0.48932895064353943
30.35,1.0345529317855835,0.24547572433948517,-0.6937980055809021,-0.11931633949279785,0.08631665259599686,-0.6689112186431885
30.4,1.1378545761108398,0.06607527285814285,-0.013569798320531845,-0.12478144466876984,-0.8211830258369446,-0.7705017328262329
30.45,0.6326369643211365,0.6615104675292969,-0.1807032972574234,-0.05180145800113678,-1.6932071447372437,-0.6018233895301819
30.5,0.8535904884338379,0.5642633438110352,-0.8604463934898376,0.3067988455295563,-1.8010640144348145,-0.40785354375839233
30.55,0.31904929876327515,1.2972041368484497,-0.5277845859527588,0.8401872515678406,-1.7269281148910522,-0.18839265406131744
30.6,-0.29678261280059814,1.6200544834136963,0.4463559687137604,1.486321210861206,-1.79226815700531,-0.0164331067353487
30.65,-1.503400206565857,1.1519110202789307,1.4547569751739502,1.8256162405014038,-1.9938557147979736,0.38071584701538086
30.7,-4.4457221031188965,0.06036410480737686,3.4126968383789062,1.8204989433288574,-1.8184808492660522,0.9603842496871948
30.75,-5.29022216796875,-2.640486478805542,3.708721160888672,1.6692030429840088,0.10524169355630875,1.7828631401062012
30.8,-1.345475435256958,-2.154489040374756,2.950399398803711,1.0284173488616943,2.5143473148345947,2.6500630378723145
30.85,-0.7697272896766663,-0.16003601253032684,1.628725290298462,0.47600293159484863,3.1429553031921387,2.382704496383667
30.9,-0.08804142475128174,0.20544345676898956,1.5557432174682617,0.2832411527633667,2.0173399448394775,0.5553718209266663
30.95,-0.0016942620277404785,-1.8148787021636963,1.7610479593276978,-0.3016994297504425,1.049088954925537,-0.443173885345459
31.0,-0.16193896532058716,-1.1722813844680786,-0.8161268830299377,-0.8102965354919434,1.6119965314865112,0.19102464616298676
31.05,-0.05077385902404785,1.1069517135620117,-2.593188524246216,-0.6858717799186707,2.3103389739990234,0.6533032655715942
31.1,-0.19303619861602783,2.151003122329712,-1.8672157526016235,-0.5278308987617493,1.7050299644470215,0.08204366266727448
31.15,-0.5011999607086182,0.7665387392044067,-1.7915117740631104,-0.5510416626930237,0.9949431419372559,-0.3338310718536377
31.2,-1.2018409967422485,-0.09929560869932175,-1.4471216201782227,-0.3344223201274872,1.0066914558410645,-0.08569180965423584
31.25,-1.7320538759231567,0.34226712584495544,-0.8006017804145813,0.12997737526893616,1.0929901599884033,0.035717640072107315
31.3,-1.457898497581482,0.18374836444854736,0.7550651431083679,0.4520210921764374,0.8911905288696289,-0.15942275524139404
31.35,-1.0477731227874756,-0.18854039907455444,1.1974279880523682,0.49376633763313293,1.1148725748062134,-0.09230195730924606
31.4,-0.6569002866744995,-0.06398769468069077,0.4916829764842987,0.45241475105285645,1.6217319965362549,0.0428786501288414
31.45,9.728968143463135e-05,-0.4647255539894104,0.30839383602142334,0.36958572268486023,1.6961114406585693,-0.035731811076402664
31.5,0.4242628812789917,-0.6697693467140198,0.41597211360931396,0.322639137506485,1.5716267824172974,-0.0861358791589737
31.55,0.6979199051856995,-0.5934849977493286,0.23160651326179504,0.24957799911499023,1.4873535633087158,-0.04345210641622543
31.6,0.6539078950881958,-0.549627423286438,0.10219927132129669,-0.0026249950751662254,1.4316893815994263,0.02805919758975506
31.65,0.32787248492240906,-0.431002676486969,0.5810784101486206,-0.3946629762649536,1.2692406177520752,0.1334238499403
31.7,-0.026819035410881042,0.13750651478767395,0.37058350443840027,-0.721644937992096,1.1699215173721313,0.25995784997940063
31.75,-0.28150513768196106,0.7001762986183167,-0.46242329478263855,-0.9289484024047852,1.009820818901062,0.40389853715896606
31.8,-0.006838470697402954,0.964335560798645,-0.998124361038208,-0.9803282618522644,0.7367386221885681,0.5781168937683105
31.85,0.12188035249710083,0.47626498341560364,-1.3392300605773926,-0.7616932988166809,0.5650088787078857,0.7020365595817566
31.9,-0.31573760509490967,-0.2544708847999573,-1.616219401359558,-0.436663419008255,0.5754819512367249,0.6974095702171326
31.95,0.0656348466873169,0.5251436233520508,-1.5067261457443237,-0.22446730732917786,0.4141567349433899,0.5713584423065186
32.0,0.4620353579521179,1.4258298873901367,-1.6485651731491089,-0.12490828335285187,0.3169042468070984,0.4151970446109772
32.05,0.18150442838668823,1.1728830337524414,-2.4328277111053467,-0.08024813234806061,0.44865599274635315,0.3214333951473236
32.1,-0.12186664342880249,0.2828340232372284,-2.549478769302368,0.04967857152223587,0.29605722427368164,0.1702975034713745
32.15,-0.015629053115844727,0.062357861548662186,-1.768296241760254,0.11575256288051605,-0.2545803487300873,0.05586938187479973
32.2,0.6243436336517334,-0.0071087428368628025,-0.7487586140632629,0.07843485474586487,-0.6450085043907166,-0.08506926894187927
32.25,1.1183713674545288,0.29019826650619507,-0.5609232187271118,0.006036512553691864,-0.5998841524124146,-0.25445812940597534
32.3,1.4605317115783691,0.24007217586040497,-0.8720858693122864,-0.009246453642845154,-0.5997858643531799,-0.38405367732048035
32.35,1.3780407905578613,0.5356817245483398,-0.43371495604515076,0.007344692945480347,-0.9268848299980164,-0.5136937499046326
32.4,1.3634192943572998,0.4536104202270508,0.4894285500049591,-0.08752624690532684,-1.4390711784362793,-0.5874677300453186
32.45,1.6232051849365234,-0.3818102777004242,1.703094244003296,-0.2133764624595642,-1.721384882926941,-0.5167074799537659
32.5,1.2519090175628662,-0.5175905823707581,1.693725824356079,-0.2833612263202667,-1.3542898893356323,-0.46435418725013733
32.55,0.8609386086463928,0.4195432960987091,1.0226507186889648,-0.44126999378204346,-1.180066704750061,-0.5326716899871826
32.6,0.2682863175868988,0.27255919575691223,0.7733039855957031,-0.672702968120575,-1.3519753217697144,-0.49447736144065857
32.65,-0.39349186420440674,0.43830597400665283,1.0909732580184937,-0.7679886817932129,-1.4176257848739624,-0.3608303964138031
32.7,-1.0543426275253296,1.3434698581695557,1.3458706140518188,-0.5276888608932495,-0.9320011734962463,-0.29601961374282837
32.75,-1.916820764541626,0.7907125949859619,0.06700734794139862,-0.1617966592311859,-0.11685089766979218,-0.1611994355916977
32.8,-2.185486078262329,0.6049929857254028,-1.0127983093261719,0.1342252790927887,0.4000948965549469,-0.26935097575187683
32.85,-2.0705575942993164,1.7144979238510132,-0.6527097821235657,0.34512609243392944,0.4316290616989136,-0.6319579482078552
32.9,-0.8736822009086609,0.9750282168388367,0.3697953224182129,0.16921323537826538,0.15733171999454498,-1.1747407913208008
32.95,-0.6892201900482178,0.45080384612083435,0.11100393533706665,-0.2656678855419159,-0.026040805503726006,-1.2202452421188354
33.0,-0.3641364574432373,-0.5150280594825745,-0.05017547309398651,-0.026546329259872437,0.4196452498435974,-1.0519145727157593
33.05,-0.8022584915161133,-0.4178743362426758,0.12931501865386963,0.3532937467098236,0.7250397205352783,-0.8162882924079895
33.1,-0.4213850200176239,-0.03175443783402443,1.3000988960266113,0.5061612725257874,0.7891222834587097,-0.7046971917152405
33.15,-0.5078376531600952,-0.4808988869190216,0.10654835402965546,0.3599432110786438,0.8000731468200684,-0.5713630318641663
33.2,0.0558750182390213,-1.1255866289138794,-0.4608776271343231,0.6812388896942139,0.7345114946365356,-0.3711627125740051
33.25,0.36532077193260193,-1.4743033647537231,-0.6385024189949036,1.002669334411621,0.534572958946228,-0.17234942317008972
33.3,0.15129032731056213,-0.8919898867607117,-0.8875545859336853,1.2115486860275269,0.4828694462776184,-0.04771202802658081
33.35,0.1496950089931488,0.007532091345638037,-0.7753375768661499,1.1368303298950195,0.24868622422218323,-0.02243177592754364
33.4,0.25263363122940063,0.0010289708152413368,-1.1018543243408203,0.9911539554595947,-0.09707445651292801,-0.023516153916716576
33.45,0.2961157560348511,-0.6053286790847778,-1.5499491691589355,1.118477463722229,-0.2898479700088501,0.033937226980924606
33.5,0.19393694400787354,-0.6087533235549927,-1.3844801187515259,1.4131083488464355,-0.5230838656425476,0.14366796612739563
33.55,0.03868791460990906,0.24857047200202942,0.33930423855781555,1.7300183773040771,-0.714107871055603,0.16389532387256622
33.6,-0.10192447900772095,1.2121220827102661,1.5645027160644531,1.888711929321289,-0.4417605996131897,0.16778066754341125
33.65,-0.3907204866409302,1.3964558839797974,0.8903355598449707,1.5782978534698486,-0.018611125648021698,0.13795918226242065
33.7,0.20124012231826782,0.6461353898048401,-0.1687823385000229,0.9226479530334473,-0.03232268616557121,-0.19023381173610687
33.75,0.7753332853317261,0.0746421366930008,-0.28015637397766113,0.5048410892486572,-0.1906535029411316,-0.3432585299015045
33.8,0.4769545793533325,0.5455008149147034,-0.013758239336311817,0.5116861462593079,-0.14928384125232697,-0.06920523196458817
33.85,-0.03635150194168091,0.9907494783401489,0.23566566407680511,0.5008195638656616,-0.07835705578327179,0.13482749462127686
33.9,-0.21769125759601593,1.0730458498001099,0.3474165201187134,0.3548825979232788,-0.05341744422912598,0.11200761795043945
33.95,0.02863401174545288,0.6215229630470276,0.2234896719455719,0.12875813245773315,-0.0845666378736496,-0.019685296341776848
34.0,0.1307765543460846,0.2039346992969513,0.15999983251094818,0.029344158247113228,-0.09916051477193832,-0.021330131217837334
34.05,0.0489872470498085,0.07586861401796341,0.09396171569824219,0.026888592168688774,-0.06553448736667633,0.0543648861348629
34.1,0.045019909739494324,0.062391288578510284,0.15109330415725708,0.008768627420067787,-0.034820955246686935,0.05588282644748688
34.15,0.06565741449594498,0.089723601937294,0.3146565854549408,-0.02750694565474987,-0.03855549544095993,0.05733726918697357
34.2,0.09214659780263901,0.1621551662683487,0.34023940563201904,-0.05926235765218735,-0.08250217884778976,0.08451875299215317
34.25,0.020861908793449402,0.32671454548835754,0.3218635618686676,-0.04766714572906494,-0.09536745399236679,0.14558425545692444
34.3,-0.1722954511642456,0.22200779616832733,0.005454970523715019,0.021057218313217163,-0.01990431547164917,0.22300565242767334
34.35,-0.4909916818141937,0.032561346888542175,0.5941587686538696,0.205275297164917,0.11005890369415283,0.26342469453811646
34.4,-0.330364853143692,1.0678693056106567,1.1967417001724243,0.7586602568626404,0.6680402159690857,0.7994351983070374
34.45,-1.0384846925735474,0.675054669380188,0.9407574534416199,0.4013420343399048,0.5349011421203613,0.18921470642089844
34.5,0.8501496315002441,-1.366836667060852,0.7720978856086731,-0.14020124077796936,0.1315198838710785,-0.5644423961639404
34.55,0.751379668712616,-1.1875792741775513,-0.051485609263181686,0.16330599784851074,0.3756374418735504,-0.1789032518863678
34.6,0.6558636426925659,0.023755043745040894,0.057182371616363525,0.5138447284698486,0.2112431675195694,-0.015550689771771431
34.65,0.8114449381828308,-0.003951083403080702,1.1707701683044434,0.9504139423370361,-0.10811014473438263,-0.24624328315258026
34.7,0.6523032188415527,0.07157041132450104,1.5706844329833984,1.4827723503112793,-0.10581757128238678,-0.3470339775085449
34.75,0.5248995423316956,0.37337687611579895,1.5032187700271606,1.8056246042251587,0.04005196690559387,-0.503097414970398
34.8,0.5455206632614136,0.29355719685554504,1.0923560857772827,1.6527327299118042,0.07964222133159637,-0.8567925691604614
34.85,0.2107994258403778,1.0652343034744263,1.604321837425232,1.2175536155700684,0.08741704374551773,-1.3619987964630127
34.9,1.162612795829773,-0.06466488540172577,0.9163678288459778,0.7901972532272339,0.2785657048225403,-1.9077296257019043
34.95,0.35300177335739136,-0.18512630462646484,1.0941530466079712,0.7686101198196411,0.32345065474510193,-1.70623779296875
35.0,-0.21854761242866516,0.13190272450447083,0.329001784324646,1.0707892179489136,0.39713776111602783,-1.2224173545837402
35.05,-0.596574604511261,0.12029459327459335,-0.8643662333488464,0.8680787086486816,0.45011869072914124,-1.0714223384857178
35.1,-0.34010687470436096,0.539945662021637,-0.8790100812911987,0.4594053626060486,0.3737121820449829,-0.807506799697876
35.15,0.20464548468589783,1.249747395515442,-0.030417829751968384,0.05228745937347412,0.16543720662593842,-0.4368852972984314
35.2,-0.3459393382072449,1.539872407913208,0.5299117565155029,-0.22421669960021973,0.0016474268632009625,-0.27964070439338684
35.25,-0.665733277797699,2.1807358264923096,0.4511319100856781,-0.040746305137872696,-0.03335773944854736,0.008856020867824554
35.3,0.205753892660141,2.3294479846954346,0.12913580238819122,0.07503937929868698,-0.0436708964407444,0.3480893671512604
35.35,0.48985975980758667,1.6638643741607666,0.1874472051858902,-0.07719849050045013,-0.1430010050535202,0.5482579469680786
35.4,0.22762706875801086,0.8292094469070435,0.7000526785850525,-0.23988720774650574,-0.20265303552150726,0.7670937776565552
35.45,0.3616798222064972,-0.6852408051490784,1.3144512176513672,-0.3040488362312317,-0.051276884973049164,1.0726046562194824
35.5,0.8111750483512878,-0.9300442934036255,0.8946163058280945,-0.3088727593421936,0.236915722489357,1.6382722854614258
35.55,1.31327486038208,0.4823131561279297,0.7173222303390503,-0.5937007665634155,0.40353554487228394,1.9625946283340454
35.6,1.2223963737487793,1.216531753540039,-0.18171949684619904,-1.051274299621582,0.4141261875629425,1.7162537574768066
35.65,0.09977120161056519,1.180893063545227,0.7165305018424988,-1.2571475505828857,0.22521714866161346,1.3493621349334717
35.7,-0.16867926716804504,0.3968096673488617,0.47562500834465027,-1.436830759048462,0.4929712116718292,0.9618097543716431
35.75,0.10050295293331146,-0.06602194905281067,-0.49551668763160706,-1.6100869178771973,0.5216652750968933,0.6180856227874756
35.8,-0.11967375874519348,0.32684043049812317,-0.6667882800102234,-1.6968761682510376,0.4023125469684601,0.4066733717918396
35.85,-0.4252620339393616,0.45119577646255493,-1.174740195274353,-2.010180711746216,0.29631274938583374,0.19869913160800934
35.9,-0.5338587760925293,-0.015336038544774055,-1.0258945226669312,-2.4441113471984863,-0.03601149842143059,-0.06648069620132446
35.95,0.2701840400695801,-0.4906664788722992,-0.9379488825798035,-2.1761186122894287,-0.11956711113452911,0.07701873034238815
36.0,-1.428605556488037,0.5726595520973206,-1.6537352800369263,-1.2348023653030396,0.17943690717220306,0.4142216444015503
36.05,-1.665063500404358,-0.6590023040771484,-1.2894294261932373,-1.217993140220642,-0.4648323357105255,0.17733234167099
36.1,-1.4638125896453857,-1.8964906930923462,0.15112078189849854,-1.552029013633728,-1.1655054092407227,-0.19451351463794708
36.15,-1.2965370416641235,-1.599960446357727,0.44719764590263367,-1.466976523399353,-1.1336772441864014,-0.2578966021537781
36.2,-0.8615065813064575,-1.0866185426712036,0.28610503673553467,-1.0382966995239258,-0.949544370174408,-0.15634608268737793
36.25,-0.7053169012069702,-0.8064385056495667,0.24549999833106995,-0.6371778249740601,-0.8804407119750977,0.055559150874614716
36.3,-0.737652599811554,-0.6781835556030273,0.021286744624376297,-0.5214288830757141,-0.8049934506416321,0.2092237025499344
36.35,-0.5115540027618408,-0.23831655085086823,-0.46207162737846375,-0.6091170907020569,-0.8040367364883423,0.2416820377111435
36.4,-0.03324483335018158,0.25081923604011536,-0.3525286614894867,-0.7263646125793457,-1.0032416582107544,0.21234600245952606
36.45,0.5003512501716614,0.6841955780982971,0.21711204946041107,-0.689610481262207,-1.134369134902954,0.1805734783411026
36.5,0.8289636969566345,0.4539366066455841,0.09341102838516235,-0.3946118950843811,-0.9214664697647095,0.2065059244632721
36.55,0.8368945121765137,0.30779457092285156,0.22099445760250092,0.008760303258895874,-0.4487561881542206,0.2019607573747635
36.6,0.6751274466514587,0.7752028107643127,-0.663974404335022,0.03381473571062088,-0.22988182306289673,0.2716088891029358
36.65,0.9653638601303101,0.7251977920532227,-0.7409951090812683,-0.25267481803894043,-0.314556360244751,0.09909089654684067
36.7,1.6882827281951904,0.9245805740356445,-1.0444598197937012,-0.3965025842189789,-0.3384840488433838,-0.07175698131322861
36.75,2.244428873062134,0.6814965009689331,-1.3165981769561768,-0.5535244345664978,-0.5639361143112183,-0.19284562766551971
36.8,2.154759645462036,-0.09909454733133316,-0.9097068905830383,-0.7835568189620972,-0.9814484119415283,-0.35035598278045654
36.85,1.7410228252410889,0.14435474574565887,-0.01390706654638052,-0.633419394493103,-1.355708122253418,-0.3471866846084595
36.9,-0.10904631018638611,0.6521397233009338,0.29293763637542725,-0.18352946639060974,-1.406715750694275,-0.051143210381269455
36.95,-1.3749977350234985,1.2240040302276611,0.6847410202026367,0.23047663271427155,-1.3406480550765991,0.2946433126926422
37.0,-1.0871013402938843,1.115480661392212,1.5846306085586548,0.32283642888069153,-1.2190862894058228,0.22783222794532776
37.05,0.23442286252975464,-0.03198334947228432,1.4990012645721436,0.32499921321868896,-1.0239473581314087,0.2241348922252655
37.1,0.7569099068641663,-0.9070712327957153,1.4949177503585815,0.32584792375564575,-0.8038702011108398,0.4374684989452362
37.15,0.9530584812164307,-1.0811043977737427,1.4619632959365845,0.29998892545700073,-0.20031294226646423,0.7119835019111633
37.2,0.8568121790885925,-0.5977421402931213,0.868419885635376,0.09581339359283447,0.2266913205385208,0.8187195062637329
37.25,0.48778682947158813,-0.379280149936676,0.6549754738807678,-0.18788379430770874,0.2784057557582855,0.8065791130065918
37.3,-0.5889214277267456,1.5320608615875244,0.8598219156265259,-0.35699349641799927,0.30299943685531616,0.8983564376831055
37.35,-3.3558461666107178,0.7353899478912354,0.7992076277732849,-0.3858150541782379,0.21929416060447693,1.2474807500839233
37.4,-4.439583778381348,1.0360912084579468,-0.55170077085495,-0.11353707313537598,1.0147987604141235,1.719751238822937
37.45,-3.6052284240722656,0.7964194416999817,-1.210260272026062,-0.0555458664894104,1.772397518157959,1.2693161964416504
37.5,-2.106428623199463,0.5454322099685669,-1.042128086090088,-0.18648725748062134,1.9551972150802612,0.38814398646354675
37.55,-0.4575231671333313,0.3318786919116974,-1.321223258972168,-0.21917137503623962,1.9912502765655518,-0.027465686202049255
37.6,-0.3229912519454956,0.4262666702270508,-2.4701290130615234,-0.1404881775379181,1.719817876815796,-0.02684781141579151
37.65,-0.8898665904998779,0.20427417755126953,-2.5572316646575928,-0.08461391180753708,0.8902413249015808,-0.09024292975664139
37.7,-1.2382886409759521,-0.23528479039669037,-0.7708604335784912,-0.01123914122581482,-0.05284141004085541,-0.25922638177871704
37.75,-1.6529101133346558,0.2819806635379791,0.9270638227462769,0.16268257796764374,-0.2926994562149048,-0.2440846711397171
37.8,-1.5148504972457886,0.1835719496011734,1.3297829627990723,0.2810836434364319,0.0951189249753952,-0.1768924742937088
37.85,-1.0866961479187012,-0.15433591604232788,0.54515141248703,0.31661128997802734,0.5872592926025391,-0.16950105130672455
37.9,-0.6960748434066772,-0.07964322715997696,-0.3780571222305298,0.17737643420696259,0.6718487739562988,-0.22690312564373016
37.95,-0.9276443123817444,-0.027237864211201668,-0.5962738990783691,-0.04250507801771164,0.3842737674713135,-0.31232479214668274
38.0,-1.2532899379730225,0.11521442234516144,-0.21480533480644226,-0.20834320783615112,0.12666736543178558,-0.41709545254707336
38.05,-1.8032197952270508,0.6708967089653015,-0.1498999148607254,-0.43907085061073303,-4.175043432042003e-05,-0.6069574952125549
38.1,-1.7051453590393066,0.7671997547149658,0.055641934275627136,-0.7584916353225708,-0.17115244269371033,-0.9258017539978027
38.15,-1.2429759502410889,0.05229577049612999,0.506995677947998,-0.8832706809043884,-0.22309868037700653,-1.116114854812622
38.2,-1.0292381048202515,-0.33488747477531433,0.3510424792766571,-0.7230019569396973,0.05318881943821907,-1.0362905263900757
38.25,-0.6414350271224976,0.04402162879705429,-0.5294654369354248,-0.7807568311691284,0.10308653116226196,-0.9018267393112183
38.3,0.32904207706451416,0.4924211800098419,-0.05484612286090851,-1.2594361305236816,-0.19535721838474274,-0.7167404890060425
38.35,-0.057435475289821625,0.6619940400123596,-0.0561511293053627,-1.5963941812515259,-0.2950444519519806,-0.49208077788352966
38.4,0.5085771083831787,0.6180276870727539,-0.1631452739238739,-1.4377042055130005,0.13888265192508698,-0.4730139970779419
38.45,0.5956491231918335,1.2581119537353516,-2.3068974018096924,-1.1113876104354858,0.7221147418022156,-0.5715627074241638
38.5,1.3073766231536865,0.9204196929931641,-2.3915834426879883,-1.1711699962615967,0.34034648537635803,-0.6546328067779541
38.55,1.5445094108581543,0.42387664318084717,-3.310201644897461,-1.072687029838562,0.17627385258674622,-0.6708400249481201
38.6,2.359273910522461,-1.8806638717651367,-3.6756577491760254,-0.4930228888988495,0.09732457995414734,-0.5040563941001892
38.65,2.435074806213379,-1.7212738990783691,-2.885612964630127,0.48167434334754944,-0.030274419113993645,0.02538411132991314
38.7,0.7975819110870361,-0.3622342646121979,-2.893663167953491,1.235116720199585,-0.12317885458469391,0.334763765335083
38.75,0.73788982629776,-0.3649817705154419,-1.6812889575958252,0.6808547973632812,-1.0000560283660889,0.5658071637153625
38.8,1.5183607339859009,-0.5232497453689575,-0.13212743401527405,-0.0021638870239257812,-1.973172664642334,0.7059229612350464
38.85,1.842367172241211,-1.1936514377593994,0.2799336910247803,0.0024690628051757812,-2.068372964859009,0.9610857963562012
38.9,0.7157773375511169,0.17981432378292084,0.12332800775766373,0.21452483534812927,-1.5935426950454712,1.272711992263794
38.95,0.48562002182006836,0.14107225835323334,-0.038979582488536835,0.13474345207214355,-1.4335051774978638,1.537179946899414
39.0,0.01826167106628418,0.5182276368141174,0.5985420346260071,-0.012992143630981445,-1.4208564758300781,1.6996313333511353
39.05,-0.7449444532394409,0.6835604906082153,0.5816523432731628,-0.19531089067459106,-1.2054394483566284,1.6206598281860352
39.1,-1.3330854177474976,0.9619266390800476,0.49732154607772827,-0.28313589096069336,-0.7749494910240173,1.4741657972335815
39.15,-1.8433769941329956,1.1370432376861572,0.3671298325061798,-0.4129999279975891,-0.3776620328426361,1.1841483116149902
39.2,-1.587435245513916,0.8249142169952393,0.6473856568336487,-0.494148313999176,-0.13422977924346924,0.5566909313201904
39.25,-0.7941052317619324,0.4633122682571411,0.582888662815094,-0.5275949835777283,-0.018200725317001343,0.11175660789012909
39.3,-0.5441548228263855,0.04133514314889908,0.18098701536655426,-0.5072125792503357,0.05462431162595749,0.11265484988689423
39.35,-0.513206422328949,0.4159766137599945,0.4220944046974182,-0.5418798923492432,-0.0930255725979805,0.16617007553577423
39.4,-0.4028633236885071,0.5258637070655823,-0.32480406761169434,-0.5747964978218079,0.025459060445427895,0.06690412759780884
39.45,0.07208706438541412,0.22954751551151276,-0.5703527927398682,-0.540138840675354,-0.24852608144283295,0.006652668118476868
39.5,-0.11794174462556839,0.42747026681900024,-0.1178380474448204,-0.40565454959869385,-0.535584568977356,0.0665229931473732
39.55,-0.1512119323015213,0.40453535318374634,0.018708722665905952,-0.2503129541873932,-0.46434155106544495,0.1451118439435959
39.6,-0.31074583530426025,0.40653330087661743,-0.06748279929161072,-0.1408483386039734,-0.3435676097869873,0.17139916121959686
39.65,-0.41305994987487793,0.13659003376960754,-0.12174966186285019,-0.09575331211090088,-0.398206889629364,0.1973729431629181
39.7,-0.4299764633178711,-0.03577134758234024,0.05863199755549431,-0.07428210973739624,-0.36619871854782104,0.21341972053050995
39.75,-0.671920657157898,0.2353411316871643,-0.07088945806026459,-0.07076457142829895,-0.1173410713672638,0.18860074877738953
39.8,-0.6658777594566345,0.3984614312648773,-0.4466307461261749,-0.06058787927031517,-0.04998553544282913,0.13485834002494812
39.85,-1.0530834197998047,0.36668309569358826,-0.035188741981983185,-0.032334133982658386,-0.07871396839618683,0.11791252344846725
39.9,-1.2223690748214722,0.3158169686794281,-0.05042428895831108,0.0030191102996468544,0.12156534940004349,0.02974981814622879
39.95,-1.2728016376495361,0.30658063292503357,-0.01809583231806755,0.043448060750961304,0.2791655957698822,-0.14570669829845428
40.0,-1.2449067831039429,0.5595790147781372,0.09116402268409729,0.04563505947589874,0.3191691040992737,-0.4013146460056305
40.05,-0.9015991687774658,0.6286698579788208,-0.09665697067975998,0.005934774875640869,0.29620468616485596,-0.7708160281181335
40.1,-0.4441830813884735,0.48244962096214294,-0.11708052456378937,-0.03698292374610901,0.25627124309539795,-1.0970778465270996
40.15,0.2208249270915985,0.2797127068042755,0.08081557601690292,-0.06272560358047485,0.3079337477684021,-1.1701492071151733
40.2,0.7045606970787048,0.09050175547599792,0.03844982758164406,-0.015684694051742554,0.612570583820343,-1.0447494983673096
40.25,0.9546578526496887,-0.4285327196121216,-0.10227092355489731,-0.08134055137634277,0.7496671080589294,-0.8678739666938782
40.3,0.9174904823303223,-0.6319056749343872,-0.26909270882606506,-0.26289111375808716,0.645718514919281,-0.6551788449287415
40.35,1.157372236251831,-0.9810964465141296,-0.6221837997436523,-0.37972211837768555,0.3991941213607788,-0.4115428626537323
40.4,1.2676399946212769,-0.49161162972450256,-0.7608622908592224,-0.339844286441803,0.16585275530815125,-0.10828118771314621
40.45,1.3762822151184082,-0.13194477558135986,-1.2142452001571655,-0.23395352065563202,0.05681870877742767,0.15655551850795746
40.5,0.7729125022888184,0.33261582255363464,-1.0983052253723145,-0.0964430570602417,0.026244807988405228,0.39518558979034424
40.55,-0.25017470121383667,0.18773940205574036,-0.3716638386249542,-0.08988647162914276,-0.05943338945508003,0.5272124409675598
40.6,-0.40723153948783875,0.047925014048814774,-0.34459370374679565,-0.07698218524456024,-0.03362403064966202,0.5385048389434814
40.65,-0.5294263362884521,0.15506939589977264,-0.11323373764753342,-0.06284491717815399,-0.03537498414516449,0.5662107467651367
40.7,-0.5366777777671814,0.16752056777477264,0.32011833786964417,-0.12663637101650238,0.01871873252093792,0.48008406162261963
40.75,-0.2666417956352234,0.09671977162361145,0.1597202569246292,-0.2246350646018982,0.2239721119403839,0.24835234880447388
40.8,-0.22851857542991638,0.09352590143680573,-0.17220216989517212,-0.3295343220233917,0.1943177878856659,0.0655362606048584
40.85,-0.0560278445482254,0.1499032974243164,-0.3942914605140686,-0.3340286612510681,0.08848055452108383,-0.018206918612122536
40.9,0.004865556955337524,0.5444965958595276,-0.5992966890335083,-0.23167987167835236,-0.0411553680896759,-0.044502485543489456
40.95,0.32455873489379883,0.6772757172584534,-0.2857271134853363,-0.19391191005706787,-0.2006906270980835,-0.10507805645465851
41.0,0.356956422328949,0.9985114336013794,0.15793278813362122,-0.11561179161071777,-0.16311600804328918,-0.2359323799610138
41.05,0.4088406264781952,0.6842804551124573,-0.02736463025212288,-0.059813231229782104,-0.14091840386390686,-0.4436647891998291
41.1,-0.01631052792072296,0.07248403131961823,0.16730596125125885,-0.15914881229400635,-0.34594812989234924,-0.4639829099178314
41.15,-0.3733923137187958,-0.08945748955011368,0.33339089155197144,-0.26835763454437256,-0.41912031173706055,-0.34211504459381104
41.2,-0.5297515392303467,-0.47142699360847473,0.22825324535369873,-0.2702423632144928,-0.17323683202266693,-0.2633403539657593
41.25,-0.5381802320480347,-0.5190773606300354,0.020337222144007683,-0.18015477061271667,0.014737862162292004,-0.17784728109836578
41.3,-0.17668694257736206,0.33314424753189087,0.2317987084388733,-0.03608768433332443,0.028652865439653397,-0.07123856246471405
41.35,0.39668595790863037,0.5841551423072815,0.21693840622901917,0.055766522884368896,0.15798591077327728,-0.11338702589273453
41.4,0.48501211404800415,0.5221242904663086,-0.4330240786075592,-0.02920709177851677,0.1767580509185791,-0.14549092948436737
41.45,0.11615325510501862,0.5181513428688049,-0.6194015145301819,-0.09232749789953232,0.037554167211055756,-0.12166840583086014
41.5,-0.263301819562912,0.6741142868995667,-0.3920430541038513,-0.03240694850683212,-0.059896305203437805,-0.11136426031589508
41.55,-0.4016273617744446,0.060973189771175385,-0.1774454265832901,0.07001391053199768,0.036462053656578064,-0.14643721282482147
41.6,-0.27353739738464355,-0.6279650330543518,0.19810263812541962,0.21364179253578186,0.14660029113292694,-0.20129801332950592
41.65,-0.02796882390975952,-0.4662618935108185,0.6284725069999695,0.2467966377735138,0.1197911724448204,-0.16589513421058655
41.7,0.229911208152771,0.23417285084724426,0.502712070941925,0.14343194663524628,0.09146697074174881,-0.12421832233667374
41.75,0.566758394241333,0.21529673039913177,-0.4800582528114319,0.013163246214389801,0.16199137270450592,-0.09911904484033585
41.8,0.29684871435165405,0.38622191548347473,-0.7498427629470825,0.04655449464917183,0.060152921825647354,-0.01709260791540146
41.85,-0.16075393557548523,0.4477253556251526,-0.2158045917749405,0.09411637485027313,-0.10299186408519745,0.06116896867752075
41.9,-0.29092058539390564,0.07179835438728333,0.280607670545578,0.135077103972435,-0.09313000738620758,0.057696789503097534
41.95,-0.3900516927242279,-0.19457721710205078,0.2695489227771759,0.16246454417705536,0.011543174274265766,0.0560760498046875
42.0,-0.23455636203289032,-0.3688211441040039,0.1505347639322281,0.14009281992912292,0.01558541040867567,0.02667415514588356
42.05,0.1142885833978653,-0.10363104194402695,-0.13373011350631714,0.16738483309745789,0.034257516264915466,-0.031607694923877716
42.1,0.38734179735183716,0.08320806175470352,-0.2914339303970337,0.21924036741256714,0.024971025064587593,-0.03394407778978348
42.15,0.27327942848205566,0.09803485870361328,0.007462619338184595,0.20588001608848572,-0.13465167582035065,0.0057752723805606365
42.2,0.1171754002571106,0.22745612263679504,0.26899394392967224,0.11198735237121582,-0.2489306479692459,0.02117655798792839
42.25,0.23050451278686523,0.03138254955410957,-0.0769897997379303,-0.030432935804128647,-0.35417619347572327,0.0014242477482184768
42.3,-0.021718867123126984,0.2523079216480255,-0.010536405257880688,-0.05566222965717316,-0.40198004245758057,0.07083552330732346
42.35,0.09679440408945084,-0.045766834169626236,0.2115662693977356,-0.0615772008895874,-0.3684219419956207,0.04068582132458687
42.4,0.1810818910598755,-0.03606226295232773,-0.28086793422698975,0.011437797918915749,-0.1442909985780716,-0.013387509621679783
42.45,0.43511563539505005,-0.19720560312271118,-0.4648395776748657,-0.032667454332113266,-0.23344159126281738,0.002840820699930191
42.5,0.4405238628387451,0.13833044469356537,-0.10110651701688766,-0.04852033033967018,-0.34474992752075195,0.12488099187612534
42.55,0.117585189640522,0.18416881561279297,-0.12108232825994492,0.011151723563671112,-0.18477794528007507,0.220990851521492
42.6,-0.20631326735019684,-0.0814971923828125,-0.2180781215429306,0.021908730268478394,-0.07957318425178528,0.2626669108867645
42.65,-0.3080223500728607,-0.04943274334073067,0.03400852903723717,0.020406387746334076,-0.13471177220344543,0.27048808336257935
42.7,-0.2791401147842407,0.2585507035255432,0.42111659049987793,0.013574451208114624,-0.13610069453716278,0.2702190577983856
42.75,-0.8845129609107971,0.7555696368217468,0.8431079983711243,0.036447301506996155,0.13541443645954132,0.26934343576431274
42.8,-1.7711976766586304,1.1549265384674072,0.4991835355758667,0.06170760095119476,0.5934677124023438,0.07009376585483551
42.85,-2.2892489433288574,1.4852650165557861,1.0667365789413452,0.11113479733467102,0.9469492435455322,-0.40081942081451416
42.9,-1.7185730934143066,1.2493164539337158,1.7712894678115845,0.13827627897262573,1.26237952709198,-1.0075088739395142
42.95,-0.012158572673797607,0.894687831401825,1.6762096881866455,-0.04924958944320679,1.3506207466125488,-1.559985637664795
43.0,1.411234736442566,-0.30125343799591064,-0.036813218146562576,-0.5360859632492065,1.0345968008041382,-1.7009004354476929
43.05,1.9104729890823364,-1.2184746265411377,-1.082722544670105,-0.785618782043457,0.6254026889801025,-1.3040423393249512
43.1,1.5468486547470093,-0.5420867800712585,-1.2891161441802979,-0.6123316287994385,0.4286308288574219,-0.7295567989349365
43.15,0.8448972702026367,-0.09139738231897354,-1.5804866552352905,-0.19607672095298767,0.46619200706481934,-0.458140105009079
43.2,0.6774890422821045,-0.9803153872489929,-1.3568718433380127,-0.10517249256372452,0.2526247501373291,-0.2706684470176697
43.25,0.7261579632759094,-0.9924528002738953,-1.354673147201538,-0.029672935605049133,-0.10428114235401154,-0.06722621619701385
43.3,0.18744225800037384,-0.2717304527759552,0.4936813414096832,-0.0392630472779274,-0.4323396682739258,0.2785724997520447
43.35,0.08209744095802307,-0.15691661834716797,0.6953554153442383,0.15184693038463593,-0.14688003063201904,0.26592370867729187
43.4,0.22663874924182892,-0.3075762093067169,0.02388400211930275,0.22263136506080627,0.10807438939809799,0.17772039771080017
43.45,0.7186819314956665,-0.5037585496902466,-1.193608283996582,0.06312800198793411,0.0536092147231102,0.1391843557357788
43.5,0.5543256998062134,-0.17429931461811066,-1.0106515884399414,-0.01713850349187851,-0.255938857793808,0.2989863455295563
43.55,0.5002281069755554,0.12035081535577774,-0.4326728582382202,0.20411361753940582,-0.32036176323890686,0.4270634353160858
43.6,0.4500015079975128,0.3112936019897461,-0.03152283653616905,0.437214732170105,-0.19782857596874237,0.4852055609226227
43.65,0.23857155442237854,0.3321361839771271,-0.07522059977054596,0.38545694947242737,-0.3250802755355835,0.5024970769882202
43.7,-0.24662218987941742,0.21767430007457733,-0.09528925269842148,0.12972155213356018,-0.6880744099617004,0.6033268570899963
43.75,-0.9599348306655884,1.0255709886550903,0.15931308269500732,0.022406280040740967,-0.9490927457809448,0.628837525844574
43.8,-0.8583850264549255,0.9097978472709656,0.37454333901405334,0.15692201256752014,-0.838922917842865,0.39952799677848816
43.85,-0.24436433613300323,0.37147432565689087,0.5186241269111633,0.35600459575653076,-0.5284228324890137,0.16385114192962646
43.9,0.3587535619735718,-0.15976430475711823,0.5427947640419006,0.2939249873161316,-0.46021491289138794,0.09299802035093307
43.95,0.15788958966732025,-0.08941363543272018,0.890360414981842,0.05873018130660057,-0.6008855104446411,0.17762994766235352
44.0,-0.08189770579338074,-0.06632709503173828,0.18078316748142242,-0.0363292396068573,-0.5280641913414001,0.1804971843957901
44.05,-0.08780039846897125,0.023827558383345604,-0.09956210851669312,0.016809217631816864,-0.4496775269508362,0.2080868035554886
44.1,-0.151638925075531,0.035379428416490555,0.29100853204727173,0.11111312359571457,-0.34929871559143066,0.27888375520706177
44.15,-0.19111306965351105,0.03556348755955696,0.165585458278656,0.16120122373104095,-0.16995899379253387,0.31644466519355774
44.2,-0.238046795129776,0.06493571400642395,0.3904266357421875,0.13177751004695892,-0.09932063519954681,0.3648958206176758
44.25,-0.09382614493370056,0.05921843275427818,0.458246111869812,0.09701401740312576,-0.0100863603875041,0.39405345916748047
44.3,-0.08321191370487213,0.020002389326691628,0.6360552310943604,0.01958109438419342,0.07184980809688568,0.4158431887626648
44.35,-0.29720669984817505,0.09038928896188736,0.45831388235092163,-0.11512868106365204,0.12592485547065735,0.4403397738933563
44.4,-0.34039291739463806,0.15863993763923645,-0.23598428070545197,-0.18904593586921692,0.15743377804756165,0.42588385939598083
44.45,-0.3084280788898468,0.2624645531177521,-0.44903722405433655,-0.1250680387020111,0.15314258635044098,0.38087230920791626
44.5,-0.2687828540802002,0.33703044056892395,-0.7622246742248535,-0.03994394838809967,0.028630875051021576,0.2975677251815796
44.55,-0.3483467102050781,0.5445118546485901,-0.3092406094074249,0.06520459055900574,-0.14980146288871765,0.26382938027381897
44.6,-0.33742910623550415,0.572695791721344,0.1048259288072586,0.17582905292510986,-0.07665344327688217,0.24415762722492218
44.65,-0.17182374000549316,0.21813681721687317,-0.10349032282829285,0.21746806800365448,0.06607706844806671,0.1670878678560257
44.7,-0.20582276582717896,0.09469225257635117,-0.13341033458709717,0.18400397896766663,0.00316262966953218,0.060206204652786255
44.75,-0.3332066535949707,0.07270625978708267,0.3345462381839752,0.18764333426952362,0.002462087431922555,-0.04819956049323082
44.8,-0.04706031084060669,-0.08369158208370209,0.7574557662010193,0.21906313300132751,0.25954365730285645,-0.1348334699869156
44.85,0.313637912273407,-0.1621417999267578,0.8932461738586426,0.10431032627820969,0.3850075304508209,-0.06693628430366516
44.9,0.4423964023590088,-0.23912912607192993,-0.37188124656677246,-0.11839227378368378,0.22472044825553894,0.012507950887084007
44.95,0.35229188203811646,0.03864476457238197,-0.43378013372421265,-0.09688186645507812,-0.00943536963313818,0.11521351337432861
45.0,-0.11529950797557831,0.532508909702301,0.11584992706775665,-0.009965956211090088,-0.07690675556659698,0.25951001048088074
45.05,-0.7620418071746826,0.7014590501785278,0.39007651805877686,-0.047083429992198944,-0.05385856702923775,0.2747543752193451
45.1,-1.0698113441467285,0.544474720954895,0.7415525317192078,-0.10363753139972687,0.03377639129757881,0.11564960330724716
45.15,-1.0226575136184692,0.4683419466018677,0.5566281080245972,-0.138838529586792,0.3397568464279175,-0.17113755643367767
45.2,-0.5207803249359131,0.4904509484767914,0.35241347551345825,-0.20499585568904877,0.5247275829315186,-0.491639643907547
45.25,0.022505417466163635,0.5550146698951721,0.2762938141822815,-0.31440266966819763,0.5529014468193054,-0.7023598551750183
45.3,0.09229756891727448,0.5018463730812073,-0.24950215220451355,-0.4033887982368469,0.6354293823242188,-0.8199949860572815
45.35,0.28503113985061646,0.06906505674123764,-0.9772492051124573,-0.4235938787460327,0.49663984775543213,-0.8874301910400391
45.4,0.6120529174804688,-0.3382588028907776,-0.39245086908340454,-0.3125006854534149,0.23012593388557434,-0.7519152164459229
45.45,0.9173725843429565,-0.6143389940261841,-0.005693919491022825,-0.0801355242729187,0.2717755436897278,-0.4767061471939087
45.5,0.8928896188735962,-0.4632178544998169,-0.17209407687187195,0.09872494637966156,0.3889191150665283,-0.16547077894210815
45.55,0.5441121459007263,-0.2845202386379242,-0.8211133480072021,0.0626852810382843,0.17596769332885742,0.06390073150396347
45.6,-0.15039750933647156,0.2025032341480255,-0.2179180383682251,-0.06151510775089264,-0.21531936526298523,0.2052784264087677
45.65,-0.20496368408203125,0.18372252583503723,0.07127710431814194,0.009728722274303436,-0.17346562445163727,0.11835573613643646
45.7,-0.03533283993601799,-0.018904687836766243,-0.0817086398601532,0.11746875941753387,-0.019979093223810196,0.08806157857179642
45.75,-0.18580949306488037,-0.2997637093067169,0.04199188947677612,0.13648730516433716,-0.03228160738945007,0.15703749656677246
45.8,-0.4010148048400879,0.037438422441482544,0.16745047271251678,0.2042262703180313,-0.030460815876722336,0.22226907312870026
45.85,-0.45998507738113403,0.49502572417259216,0.47929301857948303,0.23639000952243805,0.027481643483042717,0.22003768384456635
45.9,-0.09662295877933502,0.46970754861831665,0.15311560034751892,0.20122037827968597,0.16590234637260437,0.07903315871953964
45.95,0.11142360419034958,0.30902960896492004,0.13914160430431366,0.04817754030227661,0.06600295007228851,0.0027941393200308084
46.0,0.09216120839118958,0.11188127100467682,0.13942906260490417,-0.05836816132068634,-0.015863848850131035,-0.009221880696713924
46.05,0.22665999829769135,0.026426302269101143,-0.15310415625572205,-0.06821538507938385,0.003166945418342948,-0.01847761869430542
46.1,0.21769173443317413,0.0009383920696564019,-0.436876118183136,-0.04663742333650589,-0.003826454747468233,-0.02448727935552597
46.15,0.3011660575866699,0.003458955092355609,-0.2225215882062912,-0.021633360534906387,-0.08507055789232254,-0.018742261454463005
46.2,0.28067293763160706,-0.016085641458630562,-0.014491015113890171,-0.006847769021987915,-0.1330382376909256,0.0898522362112999
46.25,-0.01394456997513771,0.09542180597782135,-0.1484788954257965,-0.011841163039207458,-0.12046796828508377,0.2055138647556305
46.3,-0.16071747243404388,0.2371979057788849,-0.07681702822446823,-0.029885895550251007,-0.14487656950950623,0.24720042943954468
46.35,-0.054898425936698914,0.19710829854011536,0.0923202708363533,-0.03220509737730026,-0.11378379166126251,0.22553640604019165
46.4,0.18258970975875854,0.21727851033210754,0.1345089226961136,-0.04285433888435364,-0.08890073746442795,0.21864968538284302
46.45,-0.30703186988830566,0.21735481917858124,0.0011337081668898463,-0.14238354563713074,-0.11320850253105164,0.24883857369422913
46.5,-0.8896540999412537,0.3589373230934143,-0.16993995010852814,-0.1811988353729248,-0.15286196768283844,0.16989724338054657
46.55,-0.29142963886260986,0.2385159134864807,0.28748783469200134,0.06158306077122688,-0.003824884071946144,-0.15558844804763794
46.6,0.5383990406990051,-0.2989655137062073,0.2347034513950348,0.19355742633342743,0.13252930343151093,-0.3456296920776367
46.65,0.7663102149963379,-0.11361221969127655,0.31693241000175476,0.11681422591209412,0.042081527411937714,-0.15452754497528076
46.7,0.3994041085243225,0.07638072222471237,0.15510109066963196,-7.746927440166473e-05,-0.005067735444754362,0.06710149347782135
46.75,0.10805337131023407,0.12327385693788528,0.014928370714187622,0.001946721225976944,0.10546053200960159,0.12740977108478546
46.8,0.08093488216400146,-0.0171365849673748,-0.21239978075027466,0.023749321699142456,0.1373244822025299,0.13025330007076263
46.85,0.029646076261997223,0.08588314056396484,-0.27940964698791504,0.01861475221812725,0.012834170833230019,0.10615246742963791
46.9,-0.4350124001502991,0.5535498261451721,-0.15823215246200562,0.043162692338228226,-0.06717895716428757,0.07235869020223618
46.95,-0.6320749521255493,0.5631295442581177,-0.0034806691110134125,0.11334338784217834,0.006222038064152002,-0.06335648149251938
47.0,-0.30165597796440125,0.3374233841896057,0.43545129895210266,0.1619986891746521,0.14429427683353424,-0.24392683804035187
47.05,-0.15508247911930084,0.2210712879896164,0.012136036530137062,0.14699041843414307,0.2933410108089447,-0.36908355355262756
47.1,-0.1507776379585266,0.2575531303882599,-0.24571065604686737,0.11898000538349152,0.23328682780265808,-0.39849889278411865
47.15,0.18203981220722198,0.13276293873786926,0.6451020240783691,0.10402405261993408,0.16022218763828278,-0.40483492612838745
47.2,0.4441024661064148,-0.3094187378883362,0.06765963137149811,0.10077597200870514,0.34662583470344543,-0.3886820673942566
47.25,1.018800973892212,-0.9184381365776062,-0.7893152832984924,0.04433382302522659,0.14335930347442627,-0.21615305542945862
47.3,1.0610897541046143,-0.5412551164627075,-0.39845773577690125,0.06976505368947983,-0.22196514904499054,0.16545386612415314
47.35,0.3733181357383728,0.15280340611934662,-0.17388205230236053,0.17945128679275513,-0.27358880639076233,0.4316118657588959
47.4,-0.22042308747768402,0.45132356882095337,-0.2887994945049286,0.18802738189697266,-0.3126128613948822,0.4839298129081726
47.45,-0.4200671911239624,0.464632123708725,0.2471221387386322,0.17230696976184845,-0.47824281454086304,0.4584980010986328
47.5,-0.45164644718170166,0.49948033690452576,0.24283112585544586,0.26156675815582275,-0.3314957618713379,0.38350245356559753
47.55,-0.30377188324928284,0.2965593934059143,0.7293025255203247,0.30433300137519836,-0.1254875361919403,0.27849438786506653
47.6,-0.4345594346523285,0.3169155716896057,0.14775054156780243,0.1924540400505066,0.006437879055738449,0.2024436593055725
47.65,-0.20053628087043762,0.41561228036880493,-0.7193782329559326,0.01792638748884201,-0.2903122305870056,0.14193236827850342
47.7,0.002072960138320923,0.1676025688648224,0.5758731365203857,0.05124266445636749,-0.4568253457546234,0.12163617461919785
47.75,-0.043075114488601685,-0.049107540398836136,0.6511108875274658,0.0954611673951149,-0.018255725502967834,0.17512713372707367
47.8,0.085727259516716,-0.205112487077713,0.2651466727256775,0.04937133565545082,0.19443225860595703,0.2143903374671936
47.85,-0.3195054233074188,-0.007259360048919916,-0.26282060146331787,-0.07084561139345169,-0.037088919430971146,0.18458469212055206
47.9,-0.5118896961212158,0.3732500672340393,-0.14174863696098328,-0.05970367044210434,-0.15878444910049438,0.08212409168481827
47.95,-0.3700169026851654,0.5013094544410706,0.15239876508712769,0.016820402815937996,-0.05832909047603607,-0.015398567542433739
