Time [s],Acc_x [m/s^2],Acc_y [m/s^2],Acc_z [m/s^2],Gyro_x [1/s],Gyro_y [1/s],Gyro_z [1/s]
0.0,0.41729405522346497,0.10166072100400925,0.5804640054702759,-0.4160493016242981,-0.26933029294013977,0.1017683669924736
0.05,0.37932032346725464,0.10556506365537643,0.41673892736434937,-0.41642168164253235,-0.26898193359375,0.10116525739431381
0.1,0.3873312175273895,-0.041791919618844986,0.31577184796333313,-0.4302944839000702,-0.25282731652259827,0.09852399677038193
0.15,0.408263236284256,-0.45751094818115234,0.3918190896511078,-0.4494323432445526,-0.18211349844932556,0.07530022412538528
0.2,0.09281650185585022,-0.45445728302001953,0.37198173999786377,-0.35011357069015503,-0.10452253371477127,0.014435258693993092
0.25,-0.17727729678153992,-0.2669057846069336,0.35796892642974854,-0.20784984529018402,-0.09669439494609833,-0.03084108605980873
0.3,-0.019295312464237213,-0.17492009699344635,0.2683746814727783,-0.07567256689071655,-0.1293400675058365,-0.01758739724755287
0.35,0.035713277757167816,0.02605247125029564,0.15540821850299835,0.053280048072338104,-0.10824747383594513,0.010551312938332558
0.4,-0.07847665995359421,0.43683528900146484,-0.03489392250776291,0.09938059002161026,-0.09850511699914932,0.018683766946196556
0.45,0.025324728339910507,0.7335071563720703,-0.10113877058029175,-0.012692335993051529,-0.130223348736763,0.030806519091129303
0.5,-0.01877545937895775,0.7522640228271484,-0.14852124452590942,-0.20918011665344238,-0.16633306443691254,0.04825497046113014
0.55,-0.30409130454063416,0.5889463424682617,-0.2567730247974396,-0.403956800699234,-0.24282163381576538,0.060396261513233185
0.6,-0.3437162935733795,0.3102560043334961,0.018030205741524696,-0.6499254107475281,-0.37831583619117737,0.06786975264549255
0.65,-0.20741769671440125,-0.19020463526248932,0.4267584979534149,-0.8175133466720581,-0.5206747055053711,0.07350493967533112
0.7,-0.012203559279441833,-0.32329654693603516,0.5175696611404419,-0.7291407585144043,-0.6273887753486633,0.08365628868341446
0.75,0.22536376118659973,-0.24524211883544922,0.3572472333908081,-0.5095890760421753,-0.6474614143371582,0.06995091587305069
0.8,0.2798979580402374,-0.19880962371826172,0.1638217270374298,-0.3125728666782379,-0.5949907302856445,0.06973347067832947
0.85,0.39632558822631836,-0.12867164611816406,0.03982963040471077,-0.1928550750017166,-0.5056129693984985,0.030331626534461975
0.9,0.40715843439102173,0.0909566879272461,0.07369793951511383,-0.12505897879600525,-0.3532598614692688,-0.022293325513601303
0.95,0.3950155973434448,0.08447456359863281,0.1377829760313034,-0.12971502542495728,-0.20573078095912933,-0.035983964800834656
1.0,0.1769258826971054,-0.017821308225393295,-0.06808781623840332,-0.09111990034580231,-0.048210687935352325,-0.08017417788505554
1.05,-0.2904021441936493,-0.028656961396336555,-0.051201798021793365,-0.036624182015657425,0.10009229183197021,-0.11857538670301437
1.1,-0.5200968980789185,-0.32564544677734375,-0.03241848573088646,-0.01689930073916912,0.11610303074121475,-0.07737952470779419
1.15,-0.5546233057975769,-0.04073334112763405,-0.06668390333652496,0.05723506212234497,0.05894505977630615,-0.06341926753520966
1.2,-0.6473957300186157,-0.02377796545624733,-0.13183431327342987,0.10308942198753357,-0.017491774633526802,-0.057493921369314194
1.25,-0.39263004064559937,-0.0052909813821315765,-0.3067588806152344,0.15193518996238708,-0.11581413447856903,-0.040101416409015656
1.3,-0.10358928143978119,0.15108586847782135,-0.4139977991580963,0.22713741660118103,-0.13340196013450623,-0.01081262156367302
1.35,-0.06005461513996124,0.28705787658691406,-0.44525206089019775,0.29039496183395386,-0.08502865582704544,0.014831331558525562
1.4,-0.14314478635787964,0.012592324055731297,-0.36287346482276917,0.2664605677127838,-0.025221286341547966,0.03726927936077118
1.45,-0.25664058327674866,-0.0719604417681694,-0.33547112345695496,0.236508309841156,0.033608317375183105,0.045180317014455795
1.5,-0.1048661321401596,0.03545093908905983,-0.2043411135673523,0.2080688774585724,0.04149908199906349,0.07139116525650024
1.55,-0.09608770906925201,0.3153963088989258,-0.14301855862140656,0.18362343311309814,0.07810364663600922,0.12280642986297607
1.6,-0.15811656415462494,0.21123218536376953,-0.16279040277004242,0.13033628463745117,0.14107263088226318,0.19744282960891724
1.65,-0.07268143445253372,0.08594895154237747,-0.21382807195186615,0.10424276441335678,0.17664624750614166,0.2553253769874573
1.7,0.07574054598808289,0.08742237836122513,-0.13521331548690796,0.05882786214351654,0.2015574425458908,0.3163607120513916
1.75,0.11419443041086197,-0.00596713786944747,-0.02660880610346794,0.009134329855442047,0.20804530382156372,0.3250250220298767
1.8,-0.0012673921883106232,0.08662986755371094,0.054518409073352814,0.0030937567353248596,0.18312004208564758,0.2531775236129761
1.85,-0.08018972724676132,0.1619873046875,-0.007936692796647549,-0.014385052025318146,0.1193099245429039,0.17491933703422546
1.9,-0.003123881760984659,0.09136772155761719,0.027657970786094666,-0.04634653776884079,0.07401788234710693,0.10806912928819656
1.95,-0.04269483685493469,0.007636068854480982,0.03048361837863922,-0.028957504779100418,0.06743138283491135,0.01776375062763691
2.0,-0.11987146735191345,0.2642555236816406,-0.10850217938423157,0.006179347634315491,0.06907761842012405,-0.06218499690294266
2.05,-0.33064717054367065,0.16402339935302734,-0.12914972007274628,-0.05201685428619385,0.08387197554111481,-0.08699106425046921
2.1,-0.3758467137813568,0.04076099023222923,-0.06922365725040436,-0.10300900042057037,0.07785902172327042,-0.07014962285757065
2.15,-0.26279667019844055,-0.0246658343821764,-0.03371546417474747,-0.08093167841434479,0.05026824772357941,-0.017681732773780823
2.2,-0.18029874563217163,0.2050619125366211,-0.06958373636007309,-0.027182839810848236,0.018778327852487564,0.020185299217700958
2.25,-0.10125920176506042,0.1300029754638672,-0.12258707731962204,-0.011479771696031094,-0.002687292406335473,0.03368952125310898
2.3,-0.08282390236854553,-0.00288390857167542,-0.12715761363506317,0.0290475282818079,-0.015276222489774227,0.01957174390554428
2.35,-0.09042174369096756,0.06321525573730469,-0.11148294061422348,0.052462492138147354,-0.029111601412296295,-0.002476775087416172
2.4,-0.025097530335187912,-0.022632595151662827,-0.1346561312675476,0.04231162369251251,-0.017742406576871872,0.004082069266587496
2.45,-0.08963869512081146,-0.005959507077932358,-0.17445428669452667,0.0728854387998581,0.019385918974876404,0.026078011840581894
2.5,-0.07926423847675323,-0.030293460935354233,-0.14069131016731262,0.10590284317731857,0.029067257419228554,0.04799117147922516
2.55,0.043359484523534775,0.13242053985595703,-0.16475684940814972,0.11801169067621231,0.006417674478143454,0.05309920758008957
2.6,0.1479025036096573,0.35391712188720703,-0.2609560787677765,0.0892774760723114,-0.01090569980442524,0.022423995658755302
2.65,0.07640869915485382,0.2883148193359375,-0.10051628202199936,0.00855254102498293,-0.005263104103505611,-0.012807697989046574
2.7,0.023860521614551544,-0.00437069172039628,0.09443583339452744,-0.06188714876770973,0.0030695691239088774,-0.03437952697277069
2.75,-0.08124081045389175,-0.23989295959472656,0.11040513217449188,-0.042007118463516235,0.011122590862214565,-0.069845050573349
2.8,-0.16918811202049255,-0.3432435989379883,0.09993160516023636,0.048902153968811035,0.007742474786937237,-0.1293402910232544
2.85,-0.13348133862018585,-0.17324542999267578,0.042918309569358826,0.2076147496700287,0.004703835118561983,-0.1419728398323059
2.9,-0.07531676441431046,0.15338134765625,-0.017946552485227585,0.3372383713722229,0.020588699728250504,-0.11859610676765442
2.95,-0.12334558367729187,0.3627357482910156,-0.1726173311471939,0.30908188223838806,0.04633932188153267,-0.09366682916879654
3.0,-0.12796327471733093,0.30817604064941406,-0.22165097296237946,0.1963459998369217,0.03976704552769661,-0.05882474035024643
3.05,-0.06856103241443634,0.0782318115234375,-0.11663137376308441,0.09451371431350708,0.027297908440232277,-0.031779371201992035
3.1,-0.026974519714713097,-0.005541801918298006,-0.0010749438079074025,0.06420453637838364,0.025524836033582687,-0.02307150885462761
3.15,0.04668314382433891,0.1361103057861328,-0.05948837101459503,0.07571126520633698,0.023952390998601913,-0.014584795571863651
3.2,-0.011130191385746002,0.39732837677001953,-0.2907954752445221,0.03318054974079132,0.057270295917987823,0.01080313790589571
3.25,-0.1162855476140976,0.5106925964355469,-0.3944218158721924,-0.10363619029521942,0.10528440773487091,0.07149582356214523
3.3,-0.26417291164398193,0.3126029968261719,-0.2847234308719635,-0.23833385109901428,0.1669897586107254,0.15606412291526794
3.35,-0.4933725595474243,0.05481433868408203,-0.1556556522846222,-0.2755845785140991,0.20814429223537445,0.2319779098033905
3.4,-0.7192445993423462,-0.0037040787283331156,-0.04016199707984924,-0.2628105580806732,0.1469908356666565,0.30499422550201416
3.45,-1.2073626518249512,0.25174617767333984,0.0034346356987953186,-0.29346734285354614,-0.10677855461835861,0.3168533742427826
3.5,-1.2536264657974243,0.24850653111934662,-0.16620054841041565,-0.41354238986968994,-0.6885755062103271,0.208033487200737
3.55,-0.009283497929573059,-0.15005016326904297,-0.25522491335868835,-0.4919425845146179,-1.3276855945587158,0.02694587968289852
3.6,1.0517113208770752,-0.23147200047969818,-0.06105125695466995,-0.38849982619285583,-1.3988174200057983,-0.06866317987442017
3.65,1.0540934801101685,-0.21445272862911224,0.16198375821113586,-0.21458978950977325,-0.8685192465782166,-0.016078125685453415
3.7,0.7502032518386841,-0.308349609375,0.309683620929718,-0.08316970616579056,-0.16716589033603668,0.16211393475532532
3.75,0.07815471291542053,-0.3347587585449219,0.3348886966705322,0.037377625703811646,0.45519474148750305,0.3715336322784424
3.8,-0.5369388461112976,-0.20363427698612213,0.26456350088119507,0.1457979828119278,0.7815240621566772,0.5720576047897339
3.85,-0.5762298107147217,-0.037002574652433395,0.14498606324195862,0.18976064026355743,0.718193769454956,0.7285264730453491
3.9,-0.30452632904052734,0.07711505144834518,0.03915552422404289,0.1949835866689682,0.4330841898918152,0.719204843044281
3.95,0.10924943536520004,0.16566181182861328,0.019296856597065926,0.17825216054916382,0.17284752428531647,0.5868853330612183
4.0,0.3905128538608551,0.25624942779541016,-0.025911696255207062,0.15722276270389557,0.07511164247989655,0.4602667987346649
4.05,0.369840145111084,0.2489919662475586,-0.07229714840650558,0.13119232654571533,0.10703664273023605,0.35039347410202026
4.1,0.2622153162956238,0.17941094934940338,-0.15942838788032532,0.09360457956790924,0.1662440150976181,0.2754826545715332
4.15,0.061742693185806274,0.1001443937420845,-0.16500897705554962,0.06688486039638519,0.18070708215236664,0.23733240365982056
4.2,0.05506905913352966,0.1532268524169922,-0.1731245219707489,0.0927620679140091,0.08641182631254196,0.1568550020456314
4.25,0.19721874594688416,0.18563079833984375,-0.13767078518867493,0.09182655066251755,-0.016370825469493866,0.023249294608831406
4.3,0.1767583042383194,0.10793400555849075,-0.0676756501197815,0.07074577361345291,-0.04066506773233414,-0.07632388174533844
4.35,0.17818036675453186,-0.1326141357421875,-0.008402232080698013,0.08446884155273438,-0.01897331327199936,-0.1386672705411911
4.4,0.17797189950942993,-0.4190807342529297,0.20023198425769806,0.19454500079154968,0.013141091912984848,-0.17982079088687897
4.45,0.25386303663253784,-0.5223245620727539,0.41954100131988525,0.4146130084991455,0.024766642600297928,-0.2663537263870239
4.5,0.46079495549201965,-0.3878517150878906,0.3588317036628723,0.640003502368927,0.06203160807490349,-0.3794020712375641
4.55,0.4913153052330017,0.1648721694946289,0.05931553617119789,0.7517525553703308,0.18446668982505798,-0.4504605233669281
4.6,0.13529205322265625,0.5970630645751953,-0.04895564168691635,0.6444381475448608,0.3212757706642151,-0.42800191044807434
4.65,-0.15744586288928986,0.2994728088378906,-0.012414751574397087,0.4431042969226837,0.3531552255153656,-0.35961049795150757
4.7,-0.2881373167037964,-0.08340644836425781,-0.005107524339109659,0.3632392883300781,0.3084540367126465,-0.37643468379974365
4.75,-0.384844034910202,-0.4994373321533203,-0.04555574804544449,0.4007311463356018,0.24782012403011322,-0.43734657764434814
4.8,-0.4151357114315033,-0.3963127136230469,-0.11411773413419724,0.5982367396354675,0.1562088578939438,-0.46727654337882996
4.85,-0.21697136759757996,0.4902372360229492,-0.12304588407278061,0.7472493648529053,0.027963556349277496,-0.48602139949798584
4.9,-0.010778932832181454,0.9379796981811523,-0.04684491455554962,0.5755873918533325,-0.04317120090126991,-0.4816220700740814
4.95,0.0877315104007721,0.677001953125,-0.013724938035011292,0.3015015125274658,-0.04975217580795288,-0.42052796483039856
5.0,0.14942893385887146,0.2911033630371094,0.026613695546984673,0.1293279081583023,-0.04344632104039192,-0.33784788846969604
5.05,0.13207420706748962,0.062896728515625,0.019776323810219765,0.04780346900224686,-0.03166598081588745,-0.2918209135532379
5.1,0.10482728481292725,0.09012413024902344,0.02904784120619297,0.03003108501434326,-0.010765387676656246,-0.29397547245025635
5.15,0.11128740757703781,0.06741905212402344,0.07231549918651581,0.007711984217166901,0.012478955090045929,-0.2635965943336487
5.2,0.15742966532707214,-0.006711005233228207,0.036452554166316986,-0.011326014995574951,0.03989892452955246,-0.1987575888633728
5.25,0.12933914363384247,0.11101150512695312,-0.0034726527519524097,-0.011543076485395432,0.07661549746990204,-0.15342237055301666
5.3,0.1723584681749344,0.16753005981445312,0.015087866224348545,-0.03767472878098488,0.09369941055774689,-0.12410637736320496
5.35,0.2754441797733307,0.10023975372314453,0.05028476566076279,-0.06975127011537552,0.11380049586296082,-0.1019517034292221
5.4,0.27964895963668823,0.03303051367402077,-0.015453523956239223,-0.06994472444057465,0.1458955854177475,-0.08477068692445755
5.45,0.19951751828193665,0.0007314722752198577,-0.06137455999851227,-0.0411074198782444,0.1814974844455719,-0.07877818495035172
5.5,0.09583503007888794,0.06379318237304688,-0.019531777128577232,-0.022954272106289864,0.1968488246202469,-0.06336861848831177
5.55,0.03348313271999359,0.07729721069335938,0.07006974518299103,-0.04414937272667885,0.15286466479301453,-0.03582286834716797
5.6,0.07329375296831131,-0.054841041564941406,0.07592741400003433,-0.07200396060943604,0.0855167955160141,-0.04774792119860649
5.65,0.10183778405189514,-0.09764862060546875,-0.07505395263433456,-0.060103438794612885,0.05810978636145592,-0.10484579205513
5.7,0.10297621786594391,0.10199261456727982,-0.1237996369600296,-0.02663034200668335,0.04325653612613678,-0.12941503524780273
5.75,0.0764639675617218,0.17710399627685547,-0.12325561791658401,-0.038113147020339966,0.028622057288885117,-0.09736955165863037
5.8,-0.019515547901391983,0.13803672790527344,-0.15542595088481903,-0.0591416209936142,0.03022884763777256,-0.07979996502399445
5.85,-0.04446655139327049,0.21909713745117188,-0.16428351402282715,-0.05999947339296341,0.0289671141654253,-0.07610366493463516
5.9,-0.055058542639017105,0.16847515106201172,-0.1381155550479889,-0.0862276703119278,0.0283788051456213,-0.04287290945649147
5.95,-0.03820163756608963,0.005824090912938118,-0.0908316895365715,-0.12377274036407471,0.0202497486025095,0.0008689096430316567
6.0,-0.0068631358444690704,-0.025008201599121094,-0.005251074209809303,-0.11448900401592255,0.00012141736078774557,0.012448512017726898
6.05,-0.05790608003735542,0.17638397216796875,-0.10511033982038498,-0.08165371417999268,-0.018244734033942223,0.017058324068784714
6.1,-0.1003897488117218,0.3783731460571289,-0.30635932087898254,-0.11881009489297867,-0.040608376264572144,0.049080971628427505
6.15,-0.09930813312530518,0.45084667205810547,-0.4048771262168884,-0.2326531708240509,-0.06424612551927567,0.07864931970834732
6.2,-0.034470334649086,0.7279644012451172,-0.42481186985969543,-0.4268329441547394,-0.09967990964651108,0.07417701184749603
6.25,0.02346266806125641,0.8362369537353516,-0.43510857224464417,-0.7245606184005737,-0.12974242866039276,0.06414603441953659
6.3,0.009462259709835052,0.10283280164003372,-0.2699739634990692,-1.0025074481964111,-0.11568652093410492,0.11229732632637024
6.35,0.14534354209899902,-0.5080881118774414,-0.016510330140590668,-1.0470967292785645,-0.0741216167807579,0.2187458574771881
6.4,0.16688819229602814,-0.570216178894043,-0.013619998469948769,-0.8820134997367859,0.0024320012889802456,0.2927936017513275
6.45,0.15853658318519592,-0.44234466552734375,-0.0197357926517725,-0.6718865633010864,0.03662063926458359,0.27517178654670715
6.5,0.06518670916557312,-0.1195211410522461,-0.025771843269467354,-0.4959297180175781,0.0067313965409994125,0.20619584619998932
6.55,0.053753823041915894,-0.07191944122314453,0.007512216921895742,-0.3960304856300354,-0.08593739569187164,0.14030194282531738
6.6,0.2350376546382904,-0.12164783477783203,0.010386746376752853,-0.32282668352127075,-0.15234677493572235,0.07279855012893677
6.65,0.22298389673233032,-0.13877105712890625,-0.0572199709713459,-0.24516692757606506,-0.06725869327783585,0.051359351724386215
6.7,0.16616439819335938,0.010497098788619041,-0.12656177580356598,-0.14068087935447693,0.09131544828414917,0.12348613142967224
6.75,0.18641416728496552,0.1974925994873047,-0.12010111659765244,-0.07505745440721512,0.20499804615974426,0.21099989116191864
6.8,0.27700376510620117,0.039800647646188736,0.03959733247756958,-0.1034262478351593,0.23737478256225586,0.23746301233768463
6.85,0.26654887199401855,-0.029648782685399055,0.1850264072418213,-0.1382356882095337,0.24654436111450195,0.21398557722568512
6.9,0.07530690729618073,0.05033588409423828,0.041027095168828964,-0.14096347987651825,0.23938509821891785,0.18169039487838745
6.95,-0.0705648735165596,-0.05636310577392578,-0.09207087755203247,-0.16898038983345032,0.18356762826442719,0.1231139674782753
7.0,-0.0404307022690773,-0.09705543518066406,-0.10031758248806,-0.16099263727664948,0.09298676997423172,0.02445756085216999
7.05,0.05002529174089432,-0.007551191374659538,-0.054255448281764984,-0.039975106716156006,0.007720687426626682,-0.0783294066786766
7.1,0.012609373778104782,0.028514865785837173,-0.10645128786563873,0.07256519049406052,-0.04284820333123207,-0.15197385847568512
7.15,-0.021350856870412827,0.06675148755311966,-0.17598727345466614,0.09744390100240707,-0.08188425749540329,-0.17146313190460205
7.2,0.06451497226953506,0.09455681592226028,-0.15534400939941406,0.07858815789222717,-0.10938980430364609,-0.1768813580274582
7.25,0.05181137099862099,0.1340169906616211,-0.08874281495809555,0.045884765684604645,-0.09119457751512527,-0.18888510763645172
7.3,-0.02128353714942932,0.06945133209228516,-0.031481366604566574,0.022117089480161667,-0.06206093356013298,-0.16913259029388428
7.35,-0.012545682489871979,0.04635334387421608,-0.09771410375833511,0.050237201154232025,-0.051067203283309937,-0.1027645394206047
7.4,0.021641049534082413,0.06867408752441406,-0.12142600119113922,0.1100652664899826,-0.038180410861968994,-0.0463317334651947
7.45,0.03848070651292801,-0.12146568298339844,0.027836523950099945,0.1505538523197174,-0.025470122694969177,-0.027038156986236572
7.5,0.07729388028383255,-0.5174522399902344,0.28489866852760315,0.26435327529907227,-0.04530603811144829,-0.04976421594619751
7.55,0.09048731625080109,-0.7062740325927734,0.3335812985897064,0.49398237466812134,-0.08583053946495056,-0.11040227115154266
7.6,0.09847085922956467,-0.182373046875,0.0174565389752388,0.7011308670043945,-0.11668355762958527,-0.16920238733291626
7.65,0.0920688807964325,0.3833637237548828,-0.18626441061496735,0.7035437226295471,-0.1020299419760704,-0.1892111450433731
7.7,0.06286613643169403,0.4295787811279297,-0.09443735331296921,0.5511425733566284,-0.059470001608133316,-0.17278334498405457
7.75,0.011049894616007805,0.2666473388671875,0.024567103013396263,0.42546141147613525,-0.038982924073934555,-0.15059733390808105
7.8,-0.044481802731752396,0.09373283386230469,0.10213924199342728,0.38652291893959045,-0.06032813340425491,-0.1351185441017151
7.85,0.10626140981912613,0.20344066619873047,0.034478913992643356,0.3802054822444916,-0.0972614735364914,-0.1119193285703659
7.9,0.20585274696350098,0.25751590728759766,-0.04614745080471039,0.3054933547973633,-0.08748620748519897,-0.07199953496456146
7.95,0.14890357851982117,0.20753002166748047,-0.09866561740636826,0.22985172271728516,-0.04697784408926964,-0.04808449000120163
8.0,0.09475047886371613,0.17534446716308594,-0.07796517014503479,0.184495210647583,-0.023095672950148582,-0.05909227207303047
8.05,0.04269528016448021,0.19269466400146484,-0.0042737266048789024,0.13871976733207703,-0.006364068016409874,-0.07478539645671844
8.1,0.00015246495604515076,0.9913148880004883,-0.04947202280163765,0.08894181251525879,0.0026575541123747826,-0.06344910711050034
8.15,-0.5901890993118286,2.7872772216796875,-0.6130832433700562,-0.24991172552108765,-0.04912249743938446,0.0013488888507708907
8.2,-1.311644434928894,2.6421422958374023,-1.5982877016067505,-1.1630916595458984,-0.2809389531612396,0.0899873599410057
8.25,-1.1113183498382568,-0.08636757731437683,-1.4880955219268799,-1.9789516925811768,-0.7319592833518982,0.173113152384758
8.3,-0.030406296253204346,-2.135622501373291,-0.3614906370639801,-1.950514316558838,-1.164947271347046,0.28249892592430115
8.35,0.9840701222419739,-1.9193072319030762,0.582013726234436,-1.430206537246704,-1.2031612396240234,0.4005420207977295
8.4,1.1261873245239258,-1.0085945129394531,0.7956364154815674,-0.9899733066558838,-0.8336808085441589,0.44056448340415955
8.45,0.8714752197265625,-0.3478984832763672,0.6541661620140076,-0.6412955522537231,-0.3703949749469757,0.4062733054161072
8.5,0.4796002507209778,-0.20430278778076172,0.46778953075408936,-0.35862112045288086,-0.034910935908555984,0.3158940374851227
8.55,0.19759301841259003,-0.2194395214319229,0.36212068796157837,-0.15100276470184326,0.10003848373889923,0.23515276610851288
8.6,0.15510913729667664,-0.2577495574951172,0.34609776735305786,0.026889853179454803,0.11529631167650223,0.19493530690670013
8.65,0.06632433086633682,-0.3353395462036133,0.2632303237915039,0.1736910194158554,0.09225033223628998,0.1712932288646698
8.7,0.20318365097045898,-0.11698627471923828,0.1876804530620575,0.30336615443229675,0.03470674902200699,0.1535874605178833
8.75,0.2708408236503601,-0.016626358032226562,0.102684885263443,0.4277033805847168,0.059198614209890366,0.0786719024181366
8.8,0.10482054203748703,0.007755280006676912,0.02149617113173008,0.5555709004402161,0.11946402490139008,-0.01298769935965538
8.85,0.017282331362366676,0.16734981536865234,-0.043659064918756485,0.6269187927246094,0.1502876728773117,-0.05877840146422386
8.9,0.08143528550863266,0.24321651458740234,-0.018696488812565804,0.61639004945755,0.19087624549865723,-0.09758888930082321
8.95,-0.02975020371377468,0.18619251251220703,-0.04668285697698593,0.5866515636444092,0.2359485775232315,-0.13053959608078003
9.0,-0.13957686722278595,0.0750894546508789,-0.12392818927764893,0.5261113047599792,0.2224147766828537,-0.13871826231479645
9.05,-0.045991312712430954,0.1313009262084961,-0.09676747769117355,0.4541417956352234,0.20887653529644012,-0.14447979629039764
9.1,-0.07941404730081558,0.22777271270751953,0.005697762127965689,0.34860140085220337,0.2471383810043335,-0.1392202377319336
9.15,-0.06016412377357483,-0.07876396924257278,0.256689190864563,0.2875399887561798,0.27405932545661926,-0.11506187170743942
9.2,0.30356544256210327,-0.5522565841674805,0.330199271440506,0.40677356719970703,0.32378625869750977,-0.08006291836500168
9.25,0.471706748008728,-0.2577371597290039,0.056700967252254486,0.680277407169342,0.49521464109420776,-0.046790823340415955
9.3,0.28144359588623047,0.2940521240234375,-0.11776804178953171,0.7312765121459961,0.677429735660553,-0.046817224472761154
9.35,-0.08584444969892502,0.43264007568359375,-0.06757929176092148,0.5550144910812378,0.6841604709625244,-0.104969821870327
9.4,-0.23855608701705933,0.20928001403808594,0.09643522650003433,0.38875612616539,0.5129874348640442,-0.1458754986524582
9.45,-0.1711527705192566,0.0420980378985405,0.14778560400009155,0.35056138038635254,0.3162781298160553,-0.1692766398191452
9.5,-0.10240010917186737,0.15710924565792084,0.2675843834877014,0.4076566696166992,0.20582790672779083,-0.2440173178911209
9.55,-0.019535347819328308,0.12157630920410156,0.05516871437430382,0.37773212790489197,0.13598275184631348,-0.2518432140350342
9.6,0.06907273083925247,0.2069683074951172,-0.01557705644518137,0.3009241819381714,0.09846198558807373,-0.17417488992214203
9.65,0.13794542849063873,0.3869600296020508,0.13933664560317993,0.20345601439476013,0.0957411602139473,-0.1023130863904953
9.7,0.14849382638931274,0.4588289260864258,0.323960542678833,0.12981566786766052,0.062468837946653366,-0.05855993181467056
9.75,0.17052239179611206,-0.09288597106933594,0.16221129894256592,0.06628184020519257,0.026499314233660698,-0.059353675693273544
9.8,0.01276688277721405,-0.13817214965820312,-0.040568575263023376,0.09413357079029083,0.05468537285923958,-0.0758952796459198
9.85,-0.19200454652309418,-0.014076231978833675,-0.1294119507074356,0.13292518258094788,0.08422259986400604,-0.07082004845142365
9.9,-0.153849259018898,0.25217342376708984,-0.03838718682527542,0.18160144984722137,0.03141377121210098,-0.055075958371162415
9.95,0.08846692740917206,0.1818695068359375,0.03036285750567913,0.13418689370155334,-0.07336308062076569,-0.04140578955411911
10.0,0.10563794523477554,0.010991102084517479,-0.14280062913894653,0.00023801997303962708,-0.06919094920158386,-0.06948957592248917
10.05,0.07443626970052719,0.1867227554321289,-0.09520092606544495,-0.03115857206285,-0.0372827872633934,-0.07363136112689972
10.1,0.18965619802474976,0.28252220153808594,0.022167837247252464,-0.06274764239788055,-0.04303496330976486,-0.027386782690882683
10.15,0.1687675416469574,0.06584072858095169,-0.0997447744011879,-0.12200991809368134,-0.021858742460608482,0.014323684386909008
10.2,0.03419710695743561,0.38851261138916016,-0.24317346513271332,-0.12365499138832092,0.00021024704619776458,0.02270655333995819
10.25,0.012060843408107758,0.7632169723510742,-0.36319270730018616,-0.2298344373703003,-0.04243388772010803,0.03185076266527176
10.3,0.14159727096557617,1.0901079177856445,-0.41530492901802063,-0.4932243525981903,-0.05645452067255974,0.0731438547372818
10.35,0.12969975173473358,0.45955657958984375,-0.39019086956977844,-0.7872127890586853,0.025014236569404602,0.17847469449043274
10.4,-0.19879870116710663,0.11627484112977982,-0.24026067554950714,-0.8876199722290039,0.08101232349872589,0.2643410563468933
10.45,-0.14000944793224335,-0.41344451904296875,0.043346937745809555,-0.892647922039032,-0.0203861016780138,0.3649100065231323
10.5,0.14756575226783752,-0.7124843597412109,0.16626739501953125,-0.7112369537353516,-0.08895405381917953,0.3753104507923126
10.55,0.2860320806503296,-0.036977771669626236,0.3085932731628418,-0.46667420864105225,-0.11141330003738403,0.28880947828292847
10.6,0.21003691852092743,0.08592414855957031,0.16289368271827698,-0.3972136080265045,-0.09689974784851074,0.2303873598575592
10.65,-0.04659485071897507,-0.01131439208984375,-0.011741171590983868,-0.36884719133377075,-0.0302460677921772,0.21252289414405823
10.7,-0.2042916715145111,0.01493358239531517,0.05709739029407501,-0.3258110284805298,0.004158101510256529,0.2512812316417694
10.75,-0.09750991314649582,0.1412820816040039,-0.044706545770168304,-0.24648892879486084,-0.04583803936839104,0.2831490635871887
10.8,-0.26359596848487854,0.2522125244140625,-0.17149676382541656,-0.19853802025318146,-0.1243942454457283,0.2858482599258423
10.85,-0.15458473563194275,-0.02719878777861595,-0.22459647059440613,-0.18785376846790314,-0.3182520270347595,0.2320583164691925
10.9,0.13038766384124756,-0.15857504308223724,-0.22288097441196442,-0.1359155774116516,-0.4870893657207489,0.16619406640529633
10.95,0.2112531214952469,-0.26276302337646484,-0.15372894704341888,-0.060122862458229065,-0.4991355538368225,0.1269168108701706
11.0,0.28455299139022827,-0.10303688049316406,0.06093578785657883,0.00448743999004364,-0.4672550857067108,0.09939822554588318
11.05,0.17493511736392975,-0.03049754910171032,0.0002571931399870664,0.02973870374262333,-0.436897337436676,0.05717240646481514
11.1,0.10725488513708115,0.11305142194032669,-0.1181100532412529,0.08716272562742233,-0.41242343187332153,-0.01000386942178011
11.15,0.057499002665281296,0.20027446746826172,-0.24280580878257751,0.1166326254606247,-0.36534807085990906,-0.05771747604012489
11.2,0.0031693950295448303,0.27251529693603516,-0.2253342568874359,0.09364093840122223,-0.3168850243091583,-0.06947055459022522
11.25,0.14998039603233337,0.18627452850341797,-0.10256823152303696,0.01729469746351242,-0.2890676259994507,-0.05279771238565445
11.3,0.11269800364971161,0.2836904525756836,-0.11323625594377518,-0.030563076958060265,-0.2207474708557129,-0.0557166263461113
11.35,0.19399559497833252,0.3967618942260742,-0.08325910568237305,-0.08724118769168854,-0.1893029659986496,-0.060524653643369675
11.4,0.1739465296268463,0.5266685485839844,-0.1620894819498062,-0.16938699781894684,-0.13966931402683258,-0.10134973376989365
11.45,0.14112767577171326,0.4399223327636719,-0.1605628877878189,-0.3144370913505554,-0.08002488315105438,-0.1356363743543625
11.5,0.48891642689704895,0.3649587631225586,-0.14411750435829163,-0.4257856011390686,0.026721859350800514,-0.13458503782749176
11.55,0.4279990792274475,0.1709461361169815,-0.46612831950187683,-0.46103525161743164,0.297186940908432,-0.11752086132764816
11.6,0.12508441507816315,0.26601219177246094,-0.26844972372055054,-0.5225831270217896,0.5261004567146301,-0.03674870729446411
11.65,-0.058688852936029434,-0.22480297088623047,0.008261320181190968,-0.5716750025749207,0.5799033045768738,-0.013435867615044117
11.7,-0.12952403724193573,-0.3695831298828125,0.13763678073883057,-0.46941637992858887,0.5239234566688538,-0.040459513664245605
11.75,-0.07401206344366074,0.026287082582712173,-0.1367940902709961,-0.3260388970375061,0.46545419096946716,-0.026292556896805763
11.8,0.1709604114294052,0.07601834833621979,-0.4561583399772644,-0.3712395429611206,0.45678555965423584,-0.05277300626039505
11.85,0.05351734161376953,0.42948630452156067,-0.7635571360588074,-0.5509990453720093,0.531419575214386,-0.10997210443019867
11.9,0.06431335210800171,-0.17885302007198334,-0.49066483974456787,-0.826410710811615,0.5701910853385925,-0.10942381620407104
11.95,0.1589055210351944,0.11169338971376419,-0.2972143292427063,-0.893587589263916,0.5565263628959656,-0.17986992001533508
12.0,-0.2679175138473511,-1.0516672134399414,0.6672344207763672,-1.1095126867294312,0.5298979878425598,-0.3302938640117645
12.05,-0.6556041836738586,-1.1480398178100586,1.807734727859497,-0.6490396857261658,0.353333443403244,-0.3397264778614044
12.1,-0.4869883060455322,-0.12693406641483307,0.38764387369155884,0.45641931891441345,0.09280547499656677,-0.305987685918808
12.15,-0.03880584239959717,1.7237281799316406,-1.726263165473938,0.7456949353218079,0.049115464091300964,-0.2587404251098633
12.2,-0.08777368068695068,0.9874811768531799,-1.4183794260025024,-0.05502853915095329,0.16732653975486755,-0.17487166821956635
12.25,-0.204453706741333,-0.26056766510009766,0.011101789772510529,-0.49769848585128784,0.12532301247119904,-0.17809613049030304
12.3,-0.0054759979248046875,-0.47089672088623047,0.5286087989807129,-0.22801503539085388,0.001201803795993328,-0.20317387580871582
12.35,-0.0658894032239914,0.10885141789913177,0.49591538310050964,0.028841231018304825,-0.03350237384438515,-0.18228305876255035
12.4,-0.1400744765996933,0.24708841741085052,0.4436790645122528,-0.017704658210277557,-0.07379716634750366,-0.21701467037200928
12.45,-0.24478541314601898,-0.5214634537696838,1.0430587530136108,-0.06050664186477661,-0.15408934652805328,-0.22307729721069336
12.5,-0.2495250701904297,-0.9044685363769531,0.7981131076812744,0.2940903902053833,-0.1618417501449585,-0.13488443195819855
12.55,0.8587938547134399,0.29279330372810364,-0.6948043704032898,0.8090747594833374,-0.09526034444570541,-0.03298071399331093
12.6,1.910521149635315,0.49902158975601196,-1.3380544185638428,0.7903165221214294,0.25904953479766846,-0.0288940891623497
12.65,1.5018508434295654,0.3154659867286682,-1.496376395225525,0.4626798629760742,1.0762584209442139,-0.19580160081386566
12.7,-0.03817436099052429,0.2822895348072052,-0.8922955393791199,0.2030487358570099,1.8014557361602783,-0.09551378339529037
12.75,-0.6561448574066162,0.20074748992919922,-0.20586514472961426,0.004950713366270065,1.7366162538528442,-0.06346040219068527
12.8,-0.8693245053291321,-0.00515749491751194,0.5084819793701172,-0.08189038187265396,1.2725412845611572,-0.09015440195798874
12.85,-0.5179328918457031,0.07761381566524506,0.4292704463005066,-0.028285831212997437,0.7244707345962524,-0.14195159077644348
12.9,-0.4866497814655304,0.20277689397335052,0.14473876357078552,0.10499870777130127,0.40576037764549255,-0.15233567357063293
12.95,-0.4723995327949524,0.272705078125,0.24695803225040436,0.14744628965854645,0.1856156438589096,-0.07434473186731339
13.0,-0.6320866346359253,0.3500308692455292,0.4100136160850525,0.18420493602752686,-0.06890915334224701,-0.0035895800683647394
13.05,-0.5000319480895996,0.34412097930908203,-0.052834946662187576,0.27177199721336365,-0.44034042954444885,0.06287731975317001
13.1,-0.054972320795059204,0.9755048751831055,-0.7111883163452148,0.13853298127651215,-0.8107815980911255,0.1528516411781311
13.15,0.5784018039703369,0.46799758076667786,-0.5210467576980591,-0.30861902236938477,-0.916739821434021,0.23084411025047302
13.2,0.7404014468193054,-0.43125152587890625,0.21023638546466827,-0.5167731642723083,-0.8108512163162231,0.14664815366268158
13.25,0.3801039755344391,-0.4483366012573242,0.35421091318130493,-0.19560657441616058,-0.6760176420211792,-0.04886110499501228
13.3,0.12942735850811005,0.17154216766357422,-0.07230488210916519,0.1407727301120758,-0.5963380932807922,-0.18516166508197784
13.35,-0.008264057338237762,0.6985530853271484,0.17735417187213898,0.08456636220216751,-0.4860602021217346,-0.16605567932128906
13.4,-1.5974044799804688e-05,0.29747676849365234,0.4183211326599121,-0.17039422690868378,-0.4485721290111542,-0.02805187739431858
13.45,0.21347206830978394,-0.2807646095752716,0.7150231003761292,-0.25130540132522583,-0.43639320135116577,0.1055298000574112
13.5,0.5140265226364136,-0.22183705866336823,0.7397979497909546,-0.14372092485427856,-0.42473143339157104,0.14191396534442902
13.55,0.3486728370189667,0.9343042373657227,0.5721749067306519,-0.04681754857301712,-0.3530310094356537,0.05939717963337898
13.6,-0.022606223821640015,-0.9094858765602112,1.1736695766448975,-0.39788395166397095,-0.22927404940128326,0.18298934400081635
13.65,-1.159461259841919,-0.8753109574317932,0.9795506000518799,-0.04779404029250145,-0.42334794998168945,0.2302212417125702
13.7,-0.04193346947431564,0.026892665773630142,-0.13250352442264557,0.6756945252418518,-0.9621562957763672,0.31347131729125977
13.75,-0.36039698123931885,0.7632560729980469,-0.6058459281921387,0.6624135971069336,-1.1070256233215332,0.3177882432937622
13.8,-0.45235148072242737,0.3506746292114258,-0.5567739009857178,0.3658891022205353,-1.3908910751342773,0.28125661611557007
13.85,0.761272132396698,0.23868753015995026,-0.1926790475845337,0.12998740375041962,-1.5453367233276367,0.23477572202682495
13.9,0.6220213770866394,0.15977859497070312,0.2091672122478485,-0.02197325974702835,-1.1580828428268433,0.1917397677898407
13.95,0.4103723168373108,-0.11778450757265091,0.5040879845619202,-0.05518370121717453,-0.750050961971283,0.1874580830335617
14.0,0.15299338102340698,-0.16317559778690338,0.5111751556396484,0.09395933151245117,-0.4735432267189026,0.2055806666612625
14.05,0.13815873861312866,-0.21778011322021484,0.2606237828731537,0.2852109372615814,-0.3544776439666748,0.2062968611717224
14.1,-0.1809878796339035,0.21260738372802734,-0.191057488322258,0.414793998003006,-0.29831719398498535,0.1738801747560501
14.15,-0.10478821396827698,0.19417190551757812,-0.1718447506427765,0.2944108843803406,-0.3297390341758728,0.15726880729198456
14.2,-0.03351131081581116,-0.06950854510068893,-0.22256724536418915,0.16000524163246155,-0.31526416540145874,0.12491875141859055
14.25,0.38067692518234253,0.09695911407470703,0.08750361949205399,0.08844190835952759,-0.25301817059516907,0.13649111986160278
14.3,0.454487681388855,-0.03241443261504173,0.009860320948064327,0.09928421676158905,-0.10553313791751862,0.07996980845928192
14.35,0.5374799966812134,0.3708000183105469,-0.20209068059921265,0.1726883351802826,0.02369832620024681,0.02377254143357277
14.4,0.4111185073852539,0.43132686614990234,-0.35252416133880615,0.08870033919811249,0.17110642790794373,-0.09003094583749771
14.45,-0.02577194571495056,-0.08136270940303802,-0.4650779366493225,-0.005965970456600189,0.2540070414543152,-0.15515977144241333
14.5,-0.06670430302619934,0.01954842545092106,-0.38980984687805176,0.049654021859169006,0.18439717590808868,-0.1173560619354248
14.55,0.10683993995189667,0.04969120770692825,-0.2247924655675888,0.05928804725408554,0.1525624543428421,-0.12133590131998062
14.6,-0.01680292934179306,-0.008300775662064552,-0.2199242115020752,0.04755673557519913,0.19048194587230682,-0.08898206055164337
14.65,-0.03306637704372406,-0.05342387780547142,-0.19716177880764008,0.09290076792240143,0.20778286457061768,-0.04646975174546242
14.7,0.09617067873477936,0.02315235324203968,-0.023360736668109894,0.12132017314434052,0.21690110862255096,-0.0414246991276741
14.75,0.03797782212495804,-0.008867266587913036,0.10722881555557251,0.15468695759773254,0.22636468708515167,-0.04234575852751732
14.8,0.41927027702331543,-0.25140380859375,0.42017388343811035,0.17570218443870544,0.2446347326040268,-0.06338991969823837
14.85,1.1940895318984985,-1.1006898880004883,1.0720946788787842,0.3344370126724243,0.4487929940223694,-0.04540056735277176
14.9,1.7644469738006592,-2.16348934173584,1.4448341131210327,0.878524124622345,1.03524649143219,-0.0007041980279609561
14.95,0.6399719715118408,-1.240178108215332,-0.14740891754627228,1.7769675254821777,1.8330879211425781,0.06703072041273117
15.0,-0.4232528805732727,-0.003305424703285098,-0.5694060921669006,2.1680796146392822,2.029114007949829,0.06365698575973511
15.05,-1.6771889925003052,2.1416311264038086,-0.34454017877578735,2.009032726287842,1.7016923427581787,-0.012401649728417397
15.1,-1.151242733001709,1.3207740783691406,-0.021927108988165855,1.250643253326416,1.0428969860076904,-0.04697588086128235
15.15,-0.303936630487442,0.7743902206420898,0.1299857795238495,0.7626761198043823,0.6326087117195129,-0.07438743859529495
15.2,-0.10138534009456635,0.2321462631225586,0.10110476613044739,0.5782603621482849,0.4675459563732147,0.0030519207939505577
15.25,0.2804211974143982,0.23074722290039062,0.22027304768562317,0.5005905628204346,0.3328686058521271,-0.008937721140682697
15.3,0.35948213934898376,-0.10483264178037643,0.0056653437204658985,0.4135805368423462,0.2826935946941376,-0.07746811956167221
15.35,0.3296114504337311,0.13924312591552734,-0.07630284130573273,0.3856285810470581,0.28101974725723267,-0.20419098436832428
15.4,0.28013455867767334,0.4181489944458008,0.04225895181298256,0.3355664014816284,0.27278584241867065,-0.25295624136924744
15.45,0.08855736255645752,0.24474048614501953,-0.10894780606031418,0.23352721333503723,0.257017582654953,-0.2508260905742645
15.5,0.06930245459079742,0.11553001403808594,-0.07053063809871674,0.19915986061096191,0.143606498837471,-0.2797231376171112
15.55,0.1298266053199768,0.2671957015991211,-0.14123977720737457,0.1760210394859314,0.04220358654856682,-0.2767423391342163
15.6,-0.017604511231184006,0.19670867919921875,-0.1570018231868744,0.13219885528087616,0.039790451526641846,-0.23422348499298096
15.65,-0.16526737809181213,0.013792995363473892,-0.2031814455986023,0.04623393714427948,0.06920384615659714,-0.18432718515396118
15.7,-0.09665964543819427,0.2998952865600586,-0.27970391511917114,0.03116740845143795,0.01314038410782814,-0.13514132797718048
15.75,-0.24464406073093414,0.16037940979003906,-0.16413608193397522,-0.007043631747364998,-0.051736291497945786,-0.06564401835203171
15.8,0.01777840033173561,0.0908041000366211,-0.11202909052371979,-0.06103383004665375,-0.16978412866592407,-0.06149544194340706
15.85,0.36365771293640137,-0.005041119176894426,0.039727434515953064,-0.08414924144744873,-0.23050116002559662,-0.10555241256952286
15.9,0.5683307647705078,0.107819564640522,0.0552874393761158,-0.07597337663173676,-0.19304758310317993,-0.09642711281776428
15.95,0.202405646443367,0.07685375958681107,-0.07148394733667374,-0.04816516488790512,-0.01680946908891201,-0.10548228025436401
16.0,0.05646546930074692,0.07846546173095703,0.11750942468643188,-0.0360713005065918,0.06594348698854446,-0.09343408048152924
16.05,0.0041102152317762375,-0.006814958993345499,0.08288830518722534,-0.06742526590824127,0.014412356540560722,-0.11184792965650558
16.1,0.18786533176898956,-0.1382579803466797,0.056770529597997665,-0.09988591074943542,0.02013358473777771,-0.15745314955711365
16.15,0.304192453622818,0.04493999853730202,0.007100061979144812,-0.06930437684059143,0.03732342645525932,-0.1487768292427063
16.2,0.16184967756271362,0.09670449048280716,-0.08178757131099701,-0.06252391636371613,0.1138705164194107,-0.1289958953857422
16.25,0.10329221189022064,0.05199909582734108,-0.12257852405309677,-0.06155076622962952,0.160363107919693,-0.07671698927879333
16.3,0.09199687093496323,-0.03151416406035423,-0.07790190726518631,-0.0427674874663353,0.1959300935268402,-0.052276939153671265
16.35,-0.02323944866657257,-0.030435556545853615,-0.2160436064004898,-0.033971935510635376,0.212108314037323,-0.058904677629470825
16.4,-0.003636889159679413,-0.04234695062041283,-0.19697755575180054,-0.023137995973229408,0.18666693568229675,-0.07577333599328995
16.45,0.056462034583091736,-0.120207779109478,-0.1368279606103897,-0.028959961608052254,0.1452421247959137,-0.07083547115325928
16.5,0.14832472801208496,-0.07847403734922409,-0.11093027889728546,0.0016452949494123459,0.12346825748682022,-0.0800241157412529
16.55,0.2685032784938812,-0.010078425519168377,-0.05074410140514374,0.05448324233293533,0.0892159640789032,-0.058896783739328384
16.6,0.21066966652870178,0.10353756695985794,-0.1265171617269516,0.06935732066631317,0.09158080071210861,-0.038621608167886734
16.65,0.18332067131996155,0.2302265167236328,-0.18240728974342346,0.05870955437421799,0.09639519453048706,-0.026113595813512802
16.7,0.22902172803878784,0.20282460749149323,-0.18557070195674896,0.009363429620862007,0.04457666724920273,0.042486511170864105
16.75,0.2597759962081909,-0.04621981829404831,-0.17374733090400696,-0.02562710829079151,0.022945664823055267,0.05911721661686897
16.8,0.3032929301261902,-0.00912188645452261,-0.1898259073495865,-0.03807419165968895,0.011325616389513016,0.045493967831134796
16.85,0.033585093915462494,-0.04957961291074753,-0.3068939745426178,-0.057183101773262024,0.03304658085107803,0.014546356163918972
16.9,-0.09058373421430588,-0.019813528284430504,-0.36073750257492065,-0.05686037987470627,0.010397269390523434,-0.02627132274210453
16.95,-0.017575502395629883,0.1352834850549698,-0.383380651473999,-0.053613658994436264,-0.06233460456132889,-0.03742150217294693
17.0,0.29170727729797363,0.2917356491088867,-0.2652508318424225,-0.06944923102855682,-0.12174993753433228,0.0028177257627248764
17.05,0.2614838480949402,0.010785111226141453,-0.18978610634803772,-0.13071146607398987,-0.07875227928161621,0.0563228577375412
17.1,0.08010141551494598,0.1857461929321289,-0.2052823156118393,-0.12428515404462814,-0.01571131870150566,0.05178293213248253
17.15,-0.17012320458889008,0.3347282409667969,-0.11802927404642105,-0.17249593138694763,0.007830818183720112,0.05116608738899231
17.2,-0.21545599400997162,0.15038204193115234,-0.1710810661315918,-0.24169358611106873,-0.012376971542835236,0.025141358375549316
17.25,-0.14289364218711853,-0.20630931854248047,-0.18559446930885315,-0.24848058819770813,-0.06347709149122238,0.010840607807040215
17.3,0.151988685131073,-0.09963702410459518,-0.19401711225509644,-0.18250718712806702,-0.11510521173477173,0.01253657415509224
17.35,0.0832112729549408,-0.1504220962524414,-0.10034865885972977,-0.21499477326869965,-0.04601223021745682,0.019310494884848595
17.4,-0.08353127539157867,-0.3839273452758789,-0.14885948598384857,-0.20432503521442413,0.047478608787059784,-0.040586866438388824
17.45,-0.2715112268924713,0.2456064224243164,-0.3636072278022766,-0.07216660678386688,0.04743460938334465,-0.12320910394191742
17.5,0.28894972801208496,0.46964359283447266,-0.09455256164073944,-0.03598744049668312,-0.12070833891630173,-0.035507895052433014
17.55,0.7384083271026611,-0.2591094970703125,-0.19964545965194702,-0.1750577688217163,-0.1822557896375656,0.11340563744306564
17.6,0.38192272186279297,-0.5539798736572266,-0.28627029061317444,-0.1713057905435562,-0.05961443856358528,0.07313299179077148
17.65,0.008139856159687042,-0.03517722338438034,-0.2867300808429718,-0.043418847024440765,0.025450292974710464,-0.021927617490291595
17.7,-0.01797446608543396,0.5009250640869141,-0.22867973148822784,-0.00625228974968195,-0.04922794923186302,-0.02646736614406109
17.75,0.09761139750480652,0.5769414901733398,-0.3563534617424011,-0.1369645744562149,-0.15028637647628784,0.013793922029435635
17.8,0.20163455605506897,0.957240104675293,-0.437029629945755,-0.3252745270729065,-0.19663895666599274,0.04483853280544281
17.85,-0.14384020864963531,1.5778684616088867,-0.6217074990272522,-0.6403377652168274,-0.14755240082740784,0.0957891121506691
17.9,-0.832374095916748,1.6423606872558594,-0.7713039517402649,-1.0415115356445312,-0.08467783033847809,0.251490980386734
17.95,-0.628976047039032,0.6604747772216797,-0.6171456575393677,-1.4510688781738281,-0.25075823068618774,0.45486319065093994
18.0,0.1283402144908905,-0.5351591110229492,-0.16169731318950653,-1.6259121894836426,-0.40478071570396423,0.5129171013832092
18.05,0.4198053777217865,-0.7782564163208008,0.26853814721107483,-1.509917974472046,-0.31872594356536865,0.44372475147247314
18.1,0.012630671262741089,-0.8003501892089844,0.5412514209747314,-1.364974021911621,-0.12411844730377197,0.3326033353805542
18.15,-0.15460576117038727,-0.7583847045898438,0.6034647822380066,-1.20609712600708,-0.006966931279748678,0.24210655689239502
18.2,-0.33323416113853455,-0.7878761291503906,0.5996115803718567,-0.9774230718612671,0.14506879448890686,0.166066974401474
18.25,-0.5595623850822449,-0.5229196548461914,0.5314877033233643,-0.6477866172790527,0.18753032386302948,0.17997869849205017
18.3,-0.4908045828342438,-0.2738466262817383,0.21449120342731476,-0.3531099259853363,0.04822935536503792,0.243531733751297
18.35,-0.4298403859138489,-0.05796432867646217,-0.049036793410778046,-0.1675523817539215,-0.13325241208076477,0.33304256200790405
18.4,-0.18289311230182648,-0.11186981201171875,-0.12827707827091217,-0.13131245970726013,-0.3170275092124939,0.3724125027656555
18.45,0.14298498630523682,-0.2679100036621094,-0.24130530655384064,-0.031762413680553436,-0.43795695900917053,0.3821975886821747
18.5,0.3227735757827759,-0.30942344665527344,-0.23528964817523956,0.024237364530563354,-0.4346461892127991,0.3836252689361572
18.55,0.2601432800292969,-0.05948447063565254,-0.2858632504940033,0.031098321080207825,-0.411691814661026,0.30763962864875793
18.6,0.05097809433937073,0.21758462488651276,-0.4681681990623474,0.08073984086513519,-0.4324147701263428,0.27023735642433167
18.65,0.037671029567718506,0.22986699640750885,-0.5045624375343323,0.11369165033102036,-0.4979678988456726,0.28179922699928284
18.7,0.4586687684059143,0.08351518958806992,-0.5190836191177368,0.12940165400505066,-0.5171493291854858,0.2395738661289215
18.75,0.6645839810371399,0.0410013385117054,-0.3346443772315979,0.11820285022258759,-0.37016791105270386,0.1410398632287979
18.8,0.7642108201980591,0.04659654200077057,-0.20082902908325195,0.1272609382867813,-0.10614077001810074,0.05993138626217842
18.85,0.6375866532325745,0.043489471077919006,-0.2804849147796631,0.17989397048950195,0.24426421523094177,0.023484855890274048
18.9,0.03215162456035614,0.046119701117277145,-0.36087000370025635,0.22499778866767883,0.5600139498710632,0.014271410182118416
18.95,-0.244874507188797,0.13479232788085938,-0.28733718395233154,0.24442608654499054,0.6092500686645508,0.044782526791095734
19.0,-0.036076441407203674,0.12321377545595169,-0.18444044888019562,0.2226666361093521,0.4821254014968872,0.061911068856716156
19.05,-0.025986328721046448,0.19308948516845703,-0.1838732361793518,0.1616126149892807,0.3831758499145508,0.0455889031291008
19.1,-0.01616567373275757,0.20774364471435547,-0.06733545660972595,0.1108585074543953,0.3005802631378174,0.013860078528523445
19.15,0.06805995106697083,0.16705036163330078,-0.035010065883398056,0.09540102630853653,0.22995765507221222,-0.0023919239174574614
19.2,0.22980864346027374,0.09070587158203125,0.05797753855586052,0.05851975828409195,0.19556181132793427,-0.006755567621439695
19.25,0.29609712958335876,0.4119911193847656,0.23578308522701263,-0.004499508999288082,0.2220393568277359,-0.02569667063653469
19.3,0.14926543831825256,0.415679931640625,0.5275001525878906,-0.2168353945016861,0.2692153751850128,-0.038919027894735336
19.35,0.11640481650829315,0.2724303901195526,0.6145359873771667,-0.4246707558631897,0.2855354845523834,0.020348751917481422
19.4,0.14402295649051666,0.3179130256175995,0.6962780952453613,-0.559208333492279,0.3193245530128479,0.07907376438379288
19.45,0.22521407902240753,-0.0913858562707901,0.6512600183486938,-0.5817147493362427,0.3919150233268738,0.10127797722816467
19.5,-0.16023701429367065,-0.22335340082645416,0.5879356861114502,-0.5085209608078003,0.49588343501091003,0.07743372023105621
19.55,-0.3460831642150879,-0.4678974151611328,0.392860472202301,-0.36911359429359436,0.5005035996437073,0.0601765513420105
19.6,-0.31270456314086914,-0.3496580123901367,-0.016282599419355392,-0.15199653804302216,0.4521118402481079,0.08377458155155182
19.65,-0.17588138580322266,-0.2805976867675781,-0.24735921621322632,0.009775333106517792,0.38457608222961426,0.05165174603462219
19.7,-0.1740090250968933,-0.17955397069454193,-0.47564175724983215,0.12405626475811005,0.30570900440216064,0.012068303301930428
19.75,-0.16518476605415344,-0.13148020207881927,-0.5760012269020081,0.20647791028022766,0.20091840624809265,-0.04828369617462158
19.8,-0.20448897778987885,0.0785999447107315,-0.6095930337905884,0.2785152196884155,0.10640917718410492,-0.1224227324128151
