Time [s],Acc_x [m/s^2],Acc_y [m/s^2],Acc_z [m/s^2],Gyro_x [1/s],Gyro_y [1/s],Gyro_z [1/s]
0.0,-0.044999584555625916,0.2470426708459854,0.08062007278203964,0.08242875337600708,0.10223118960857391,-0.09389986097812653
0.05,-0.06881808489561081,0.23448850214481354,0.10562930256128311,0.03509019687771797,0.06444065272808075,-0.08777496963739395
0.1,-0.0027898550033569336,0.20142653584480286,0.0555209144949913,-0.01949685998260975,-0.005780531093478203,-0.047000426799058914
0.15,0.10622471570968628,0.10282041877508163,0.0047414060682058334,-0.042374879121780396,-0.042864155024290085,-0.023017238825559616
0.2,0.0752408355474472,0.08962537348270416,-0.08223902434110641,-0.04734877869486809,-0.05458391457796097,-0.011583629064261913
0.25,0.12124932557344437,0.0879383310675621,-0.14141236245632172,-0.05446797236800194,-0.05455099418759346,0.004035980440676212
0.3,0.020398907363414764,0.09946349263191223,-0.15373997390270233,-0.059732042253017426,-0.06206280365586281,0.01670658029615879
0.35,0.0084982980042696,0.16148091852664948,-0.07193894684314728,-0.04127129167318344,-0.07338839024305344,0.02361217886209488
0.4,-0.012495175004005432,0.23201850056648254,-0.01730833202600479,-0.036510881036520004,-0.07547301054000854,0.026742875576019287
0.45,-0.05768952891230583,0.17976190149784088,-0.041383400559425354,-0.03684036806225777,-0.0886942520737648,0.01369019877165556
0.5,-0.058437421917915344,0.1806945949792862,-0.03359811380505562,-0.01979760453104973,-0.09370911121368408,0.006373480428010225
0.55,-0.11826729774475098,0.15725232660770416,0.014519336633384228,-0.005114684347063303,-0.08710505813360214,-0.0034546705428510904
0.6,-0.06592646986246109,0.1757068783044815,4.288821219233796e-05,0.011624675244092941,-0.07359729707241058,-0.010943526402115822
0.65,0.07030819356441498,0.17704106867313385,0.016536949202418327,0.0209758710116148,-0.07671111077070236,-0.015287699177861214
0.7,0.18565984070301056,0.20670321583747864,0.13636885583400726,0.025582196190953255,-0.07239487022161484,-0.003756369464099407
0.75,0.18965435028076172,0.2980175316333771,0.18639233708381653,0.033939115703105927,-0.053028784692287445,0.0040099117904901505
0.8,0.11994072794914246,0.23331454396247864,0.14431317150592804,0.0354074202477932,-0.027611710131168365,0.015643585473299026
0.85,0.045594241470098495,0.1905851513147354,0.13273997604846954,0.027436712756752968,-0.005665209610015154,0.026284564286470413
0.9,-0.010788625106215477,0.22047141194343567,0.07428764551877975,0.021232549101114273,0.00841969158500433,0.034787699580192566
0.95,-0.09486531466245651,0.20673373341560364,-0.004468955099582672,0.026916909962892532,0.02438948303461075,0.029845621436834335
1.0,-0.12160351872444153,0.3301897346973419,0.051445621997117996,0.025700485333800316,0.043007735162973404,0.022845469415187836
1.05,-0.07368495315313339,0.2438192516565323,0.1156267449259758,0.01430716086179018,0.03216422721743584,0.012188923545181751
1.1,0.07349793612957001,0.25177672505378723,0.16183917224407196,0.0030051828362047672,0.022295909002423286,-0.01339811272919178
1.15,0.08895652741193771,0.49180227518081665,0.15606392920017242,-0.004473231267184019,0.02349279075860977,-0.013707994483411312
1.2,0.0927334874868393,0.214020773768425,-0.21735917031764984,-0.012095506303012371,0.03266024962067604,-0.015357029624283314
1.25,0.07550816982984543,0.257689505815506,0.10941771417856216,-0.021918246522545815,0.02565520443022251,-0.01733398251235485
1.3,-0.06905260682106018,-0.0416087880730629,-0.37483087182044983,-0.02182711847126484,0.01716301590204239,-0.00528658926486969
1.35,0.016944102942943573,0.2907600402832031,0.2498956024646759,-0.017133940011262894,0.0003905276826117188,-0.002029133029282093
1.4,-0.23057198524475098,0.35184669494628906,0.1616957038640976,-0.02218802087008953,-0.017609355971217155,0.013710308820009232
1.45,-0.40351417660713196,0.527827262878418,0.3727933168411255,-0.07424890995025635,-0.07128672301769257,0.017955631017684937
1.5,-0.1453821063041687,0.3764095604419708,0.340202271938324,-0.18094272911548615,-0.17156226933002472,-0.012058533728122711
1.55,-0.0316830575466156,0.45365050435066223,0.35823556780815125,-0.2382872849702835,-0.2573922574520111,0.00839740689843893
1.6,-0.06732499599456787,0.8048153519630432,0.5562184453010559,-0.30041733384132385,-0.3277120292186737,0.053920723497867584
1.65,0.06888377666473389,0.8043394684791565,0.5300389528274536,-0.40193361043930054,-0.4572056829929352,0.12399447709321976
1.7,0.010514169931411743,0.7815123796463013,0.34456002712249756,-0.5723370313644409,-0.5617790222167969,0.20312868058681488
1.75,0.008242450654506683,0.7155237793922424,0.2528083324432373,-0.7839978337287903,-0.6735488772392273,0.2690531313419342
1.8,0.2842998802661896,0.5609102845191956,0.13628679513931274,-0.996700644493103,-0.8796959519386292,0.3870092034339905
1.85,0.3749454617500305,-0.24860475957393646,-0.28751763701438904,-1.0046312808990479,-0.6752621531486511,0.27252551913261414
1.9,0.34213128685951233,-0.7546387314796448,-0.811941921710968,-0.8448702096939087,-0.36365950107574463,0.11341637372970581
1.95,0.5113453269004822,-0.861119270324707,-1.0139418840408325,-0.6294661164283752,-0.2787300944328308,0.13995692133903503
2.0,0.8071034550666809,-0.7713689804077148,-0.9763463139533997,-0.38603144884109497,-0.13380034267902374,0.14563176035881042
2.05,0.874961793422699,-0.8394899368286133,-0.9823892116546631,-0.13226957619190216,0.232383131980896,0.012025678530335426
2.1,0.5703602433204651,-0.6608142852783203,-0.8205584287643433,0.13421374559402466,0.5940922498703003,-0.046337906271219254
2.15,-0.28364503383636475,0.12525466084480286,-0.4255707859992981,0.3319689631462097,0.8102085590362549,-0.03840157762169838
2.2,-1.1195141077041626,0.7151250839233398,0.076988585293293,0.28001996874809265,0.7366802096366882,-0.0659501776099205
2.25,-1.3456904888153076,1.0171308517456055,0.5516234636306763,0.07186136394739151,0.27236121892929077,0.04897145554423332
2.3,-1.2402859926223755,1.4563369750976562,1.1126350164413452,-0.13764804601669312,-0.1470702737569809,0.18248121440410614
2.35,-1.1755605936050415,1.4794559478759766,0.98806232213974,-0.38723069429397583,-0.2373700886964798,0.04927626997232437
2.4,-0.8819003105163574,1.5687514543533325,0.5896350741386414,-0.6501641273498535,-0.43306392431259155,-0.0011077612871304154
2.45,-0.5363498330116272,1.7924377918243408,0.2709730863571167,-0.952232837677002,-0.7322038412094116,0.07032906264066696
2.5,-0.061392974108457565,1.5255672931671143,-0.07058142870664597,-1.3127609491348267,-0.9406194090843201,0.053070519119501114
2.55,0.37622228264808655,0.853646457195282,-0.6003841757774353,-1.551863431930542,-0.9784232378005981,-0.013457981869578362
2.6,0.7872762084007263,0.2686692476272583,-0.7717831134796143,-1.6325287818908691,-0.9301322102546692,0.01282582338899374
2.65,1.0680772066116333,-0.38377660512924194,-1.1047909259796143,-1.572388768196106,-0.7254422903060913,-0.02832764945924282
2.7,1.1091762781143188,-1.1607073545455933,-1.7013025283813477,-1.3886826038360596,-0.5092062950134277,-0.08407621085643768
2.75,1.2268776893615723,-1.5122891664505005,-0.7100632190704346,-1.0963540077209473,-0.29683345556259155,-0.06281912326812744
2.8,1.2347769737243652,-0.8537130951881409,-0.3836594223976135,-0.7423323392868042,0.07410971075296402,-0.06265544146299362
2.85,0.6435717344284058,1.2773343324661255,-0.21765577793121338,-0.3697526752948761,0.5597874522209167,-0.28855228424072266
2.9,-0.34108254313468933,3.373854160308838,-0.9080448746681213,-0.3076915740966797,0.9907199740409851,-0.9831682443618774
2.95,-1.4811348915100098,3.595000743865967,-1.5501829385757446,-0.8107954263687134,0.8260482549667358,-1.749684453010559
3.0,-1.8724281787872314,3.2989726066589355,-2.0408570766448975,-1.5715429782867432,0.16040226817131042,-1.822434425354004
3.05,-1.0738234519958496,2.606428623199463,-2.4621245861053467,-2.0253255367279053,-0.5159626007080078,-1.989790439605713
3.1,0.6656011343002319,1.1575473546981812,-3.105666160583496,-2.1692845821380615,-0.963171124458313,-2.5327494144439697
3.15,0.6173980832099915,-1.4650458097457886,-2.3084635734558105,-2.2650158405303955,-1.5055519342422485,-2.9457268714904785
3.2,4.009382247924805,-2.119574785232544,-2.3453171253204346,-2.1249778270721436,-1.157943606376648,-1.6117304563522339
3.25,6.312938690185547,-3.148373603820801,-2.1770732402801514,-1.7312935590744019,-0.26815399527549744,-0.8557894229888916
3.3,-6.425515651702881,-3.4743335247039795,0.6465196013450623,-1.1641697883605957,-1.653950572013855,-2.9610989093780518
3.35,-0.3554367423057556,-1.5605051517486572,0.31699293851852417,-1.3157410621643066,-0.23501892387866974,0.27389630675315857
3.4,0.8458883762359619,-2.0944693088531494,-0.010559775866568089,-0.7024680376052856,-0.6402969360351562,0.3567379117012024
3.45,-0.40328875184059143,-1.867233157157898,0.6360233426094055,-0.6276471614837646,-1.3135393857955933,-0.6795451045036316
3.5,-0.24021613597869873,-0.3824807107448578,0.31704825162887573,-0.5166335105895996,-1.3510156869888306,-0.8667183518409729
3.55,0.6416338682174683,1.1831084489822388,0.03696569800376892,-0.5684020519256592,-1.3232200145721436,-0.9338244795799255
3.6,0.9947599768638611,1.145716905593872,-0.3806672692298889,-0.7095925211906433,-1.424972414970398,-1.1844489574432373
3.65,0.035375770181417465,-0.1369657665491104,-0.07357128709554672,-0.9086888432502747,-1.5481632947921753,-1.2911319732666016
3.7,0.5509823560714722,-1.5264075994491577,1.2885128259658813,-0.8889118432998657,-1.1819556951522827,-1.0540226697921753
3.75,0.5333880186080933,-1.9410666227340698,1.717065691947937,-0.48279911279678345,-1.0820530652999878,-0.7709287405014038
3.8,0.9869084358215332,-1.2852067947387695,-0.6121235489845276,-0.030988752841949463,-1.4079999923706055,-0.815353512763977
3.85,-0.25340867042541504,-0.661586582660675,-3.374366521835327,-0.26347994804382324,-2.1775577068328857,-1.350422739982605
3.9,-1.3415623903274536,-0.27796658873558044,-0.14071619510650635,-1.1875300407409668,-1.8684042692184448,-1.2739981412887573
3.95,-2.2169370651245117,-1.1899135112762451,7.058276176452637,-0.887822151184082,-0.9695963263511658,-0.35911861062049866
4.0,-2.3387975692749023,-3.703171968460083,7.195977687835693,1.5823324918746948,-1.2643247842788696,0.1056937649846077
4.05,-1.805067539215088,-5.215378761291504,1.8567790985107422,3.461122989654541,-1.2488106489181519,0.6881164908409119
4.1,0.29605627059936523,-3.4578115940093994,-2.43540620803833,3.380779266357422,-0.675173819065094,1.7673063278198242
4.15,1.4349853992462158,3.9906158447265625,-6.231431007385254,2.9666242599487305,-1.2094331979751587,0.957375705242157
4.2,-1.4620630741119385,8.034003257751465,-7.877808570861816,1.358842372894287,-1.3758525848388672,-0.5381230115890503
4.25,0.975166380405426,2.579982042312622,-0.8355668783187866,-1.7124195098876953,-0.09161984175443649,0.39475780725479126
4.3,1.6140058040618896,1.078635334968567,1.4812849760055542,-1.3682687282562256,-0.454704612493515,-0.3516591787338257
4.35,0.36173292994499207,3.030165195465088,-1.3008370399475098,-0.16909074783325195,-0.637730598449707,-1.3632344007492065
4.4,0.8333083391189575,2.615065097808838,-1.4073882102966309,-0.5758538246154785,0.15671370923519135,-1.2884477376937866
4.45,0.2839147448539734,1.5788071155548096,0.1609109342098236,-1.0072790384292603,0.5053456425666809,-1.1742302179336548
4.5,-0.018487369641661644,-0.21262267231941223,-0.02299600839614868,-0.9223992228507996,-0.12644536793231964,-0.8239343166351318
4.55,-0.733937680721283,-1.2933236360549927,-0.49245092272758484,-0.8972699642181396,-0.6488870978355408,-0.4350890815258026
4.6,0.05354893207550049,-1.2944947481155396,0.7062353491783142,-0.9144346714019775,-0.33508020639419556,0.11194345355033875
4.65,0.1809174120426178,-0.8535433411598206,-0.4960474669933319,-0.6200072169303894,-0.3554960787296295,0.11649581789970398
4.7,0.4179001748561859,-0.286247193813324,-0.8331505656242371,-0.49906373023986816,-0.15946243703365326,-0.027323469519615173
4.75,0.056568071246147156,-0.0062760827131569386,-0.5993049740791321,-0.5389358401298523,-0.17107371985912323,-0.03569287061691284
4.8,-0.6541072726249695,-0.27928847074508667,1.37530517578125,-0.1624317765235901,0.026397721841931343,0.023929858580231667
4.85,-0.09394204616546631,-0.20047591626644135,2.37595534324646,0.7523300647735596,-0.003337635425850749,0.11944104731082916
4.9,1.0236691236495972,1.1486390829086304,-2.021606683731079,1.0014909505844116,-0.6092076301574707,0.010382866486907005
4.95,0.7526228427886963,0.6121819019317627,-2.114867687225342,0.06292170286178589,-0.2607479393482208,0.00888130348175764
5.0,-0.32099610567092896,-0.10672558844089508,-1.7164698839187622,-0.44507792592048645,-0.2356543093919754,-0.11964481323957443
5.05,0.3490222692489624,-0.5389374494552612,-2.299955368041992,-0.5747572779655457,-0.3902183175086975,-0.3227787911891937
5.1,0.1351027488708496,-1.7822399139404297,-2.5202651023864746,-0.9274531006813049,-0.26118773221969604,-0.18611690402030945
5.15,0.11774468421936035,-1.7997370958328247,-1.549486517906189,-1.2310503721237183,-0.12089091539382935,-0.09675318747758865
5.2,0.3839668333530426,-0.9455272555351257,0.8862321972846985,-1.1674561500549316,-0.06260041147470474,-0.054806508123874664
5.25,-0.16068673133850098,-1.1945384740829468,3.089320659637451,-0.6355016231536865,0.04120517894625664,0.11837460100650787
5.3,-0.13522207736968994,-0.7817100882530212,3.670745372772217,0.1881396323442459,0.010233910754323006,0.2601034641265869
5.35,0.09216445684432983,-0.11565982550382614,1.259110689163208,0.6622275114059448,-0.19322748482227325,0.2680041491985321
5.4,0.9781107902526855,-0.2482890784740448,-0.1286182552576065,0.4117746949195862,0.057484693825244904,0.29037564992904663
5.45,0.5327572822570801,-0.34232136607170105,-0.28013965487480164,-0.01473306119441986,0.06737875938415527,0.2022446244955063
5.5,0.11618542671203613,-0.9560510516166687,1.0471235513687134,-0.14996494352817535,-0.1572219729423523,0.04973889887332916
5.55,-0.3411768972873688,-1.3707420825958252,0.8292520642280579,0.11402025818824768,-0.11848775297403336,0.05198213830590248
5.6,0.33945924043655396,-1.9835635423660278,-0.776881217956543,0.20191171765327454,0.005983738694339991,0.0026489649899303913
5.65,-0.06291645765304565,-1.8572804927825928,-0.788892388343811,-0.15575626492500305,0.19768449664115906,-0.39001765847206116
5.7,0.9198765754699707,-1.7516623735427856,-0.9139297604560852,-0.39732450246810913,0.10584448277950287,-0.3740345537662506
5.75,3.2470483779907227,-2.7173819541931152,-1.9061853885650635,-0.2855120003223419,-0.14908482134342194,0.09193765372037888
5.8,-0.1344553828239441,-0.3243674337863922,-1.7780704498291016,-0.0588400736451149,-0.08552982658147812,-0.26204824447631836
5.85,-1.261028528213501,-1.5339385271072388,-1.7589894533157349,0.34735357761383057,0.48832887411117554,0.016288993880152702
5.9,0.5294358134269714,-2.06704044342041,-2.4965860843658447,0.8777155876159668,0.456303209066391,0.23156730830669403
5.95,3.3635363578796387,-3.2247090339660645,-4.197478771209717,0.8738001585006714,0.16526302695274353,0.25068289041519165
6.0,-1.5668668746948242,-3.0020833015441895,-0.5810995697975159,0.22499936819076538,0.1433417797088623,-0.11635975539684296
6.05,-1.477687120437622,-0.8180946707725525,2.7432491779327393,0.8553059101104736,-0.6499536037445068,-0.26940399408340454
6.1,0.183946430683136,1.8283225297927856,1.1362630128860474,2.420844554901123,-0.4544776380062103,0.02506442740559578
6.15,-0.4514448642730713,4.932087421417236,-2.710153579711914,2.781836748123169,0.34260016679763794,0.26305875182151794
6.2,3.607257127761841,4.361726760864258,-2.910330057144165,1.4882018566131592,1.2735787630081177,0.7401658296585083
6.25,3.7011613845825195,4.230806350708008,-3.4844017028808594,-0.020074643194675446,1.4511638879776,-0.27172398567199707
6.3,-0.8956586122512817,5.047170639038086,-4.0756144523620605,-1.366575837135315,0.595615565776825,-1.3138641119003296
6.35,-1.0069859027862549,2.4227070808410645,-2.242368698120117,-2.4434592723846436,-0.04783637076616287,-0.2173277735710144
6.4,0.29452311992645264,-1.3025799989700317,0.5051186084747314,-2.515829086303711,-0.7205310463905334,0.4815388321876526
6.45,-1.3271607160568237,-2.3258204460144043,2.9992568492889404,-1.8149813413619995,-1.2348461151123047,0.3566631078720093
6.5,-0.9490593671798706,-4.2516961097717285,4.654741287231445,-0.8750300407409668,-0.8283747434616089,1.2155749797821045
6.55,0.0352480411529541,-5.295706748962402,5.145074844360352,-0.026804864406585693,-0.10569101572036743,1.5523321628570557
6.6,0.17722100019454956,-5.294008731842041,1.4261717796325684,0.7530144453048706,0.07981859892606735,0.9392110109329224
6.65,1.6653245687484741,-7.491346836090088,-2.7067160606384277,1.2079895734786987,0.18098817765712738,0.6626512408256531
6.7,-0.6371270418167114,-6.23334264755249,-4.0549798011779785,1.2462170124053955,-0.39734071493148804,0.024805450811982155
6.75,-1.7398977279663086,-2.8800253868103027,-3.0597238540649414,1.6010937690734863,-0.5008749961853027,-0.23341618478298187
6.8,0.06342312693595886,0.18089306354522705,-1.2115230560302734,1.8819365501403809,-0.0869915783405304,-0.17840589582920074
6.85,0.9324902296066284,2.918691873550415,-0.6256178617477417,2.038360595703125,0.1729297637939453,-0.27932074666023254
6.9,-0.03211778402328491,4.7818379402160645,-0.566593587398529,1.9692355394363403,0.47166675329208374,0.24942348897457123
6.95,0.29232123494148254,6.906284332275391,-0.5599074363708496,1.5808298587799072,0.5014733076095581,0.14194785058498383
7.0,1.840727686882019,4.305383205413818,-0.5436925292015076,1.1631152629852295,0.6740217208862305,0.107828289270401
7.05,4.043956756591797,4.690985679626465,-2.790536880493164,0.8786666393280029,0.6831445097923279,-0.04898795485496521
7.1,2.841942071914673,6.879637241363525,-4.543184757232666,-0.4674387574195862,0.6242750287055969,-0.6427443623542786
7.15,0.41548407077789307,4.792482376098633,-4.918835163116455,-1.8333990573883057,0.8299447298049927,-0.6688066124916077
7.2,-0.945305585861206,2.9492392539978027,-4.779652118682861,-2.6428658962249756,0.4968905448913574,-0.9269421696662903
7.25,-0.07434338331222534,-2.744093179702759,-1.5081183910369873,-3.1953625679016113,-0.11709695309400558,-0.9034297466278076
7.3,2.422116279602051,-7.906327247619629,2.6219146251678467,-2.789031982421875,-0.06387580186128616,-0.8050500154495239
7.35,0.9602369666099548,-5.264794826507568,1.8839786052703857,-1.6970994472503662,0.15518465638160706,-1.2496659755706787
7.4,-1.5493288040161133,-2.2070538997650146,-0.5418412089347839,-1.3227256536483765,0.17910847067832947,-0.5975796580314636
7.45,-1.6475117206573486,-1.5827878713607788,0.8312583565711975,-1.3273282051086426,0.14851637184619904,0.3248060643672943
7.5,-1.9051430225372314,-1.9875462055206299,4.537535190582275,-0.6717891693115234,0.21756063401699066,0.9157623052597046
7.55,0.06180977821350098,-3.4426417350769043,4.992208480834961,0.6422970294952393,-0.04464150220155716,1.0895237922668457
7.6,1.5935771465301514,-3.7809817790985107,2.783658504486084,1.875401258468628,-0.5473941564559937,0.3367078900337219
7.65,0.4407532513141632,-2.9938578605651855,-1.4689818620681763,2.567601203918457,-0.7423808574676514,0.14010262489318848
7.7,0.3388265371322632,-0.40147557854652405,-4.823184967041016,2.3735780715942383,-0.6598013043403625,0.1787095069885254
7.75,0.5075564980506897,-1.4625223875045776,-2.1520028114318848,1.3423887491226196,-0.24627766013145447,0.2856823205947876
7.8,0.6211206912994385,-2.4182283878326416,0.6486189365386963,0.8719688057899475,-0.13928475975990295,0.41951555013656616
7.85,1.3865625858306885,1.459803581237793,1.62531578540802,0.8923307657241821,-0.04368278756737709,0.6761912703514099
7.9,2.8517980575561523,6.902870178222656,0.4233270585536957,0.8872634768486023,0.5837914347648621,1.2042888402938843
7.95,1.7493896484375,11.337888717651367,-1.9254709482192993,0.6241075396537781,1.2124255895614624,0.0908483937382698
8.0,-3.4775638580322266,10.457658767700195,-1.1883018016815186,-0.7198991775512695,1.2123626470565796,-1.45945143699646
8.05,-4.061166763305664,0.6762836575508118,0.4296141266822815,-1.7295455932617188,0.037449318915605545,-0.22366780042648315
8.1,0.07621492445468903,-7.066861152648926,0.4358694553375244,-0.9654158353805542,-1.1362093687057495,0.8311564326286316
8.15,3.0684714317321777,-6.1636834144592285,-0.8623492121696472,0.19628097116947174,-1.4150819778442383,0.44414979219436646
8.2,2.198563575744629,-3.8652760982513428,-1.9382809400558472,0.39290863275527954,-1.2059342861175537,0.1232844665646553
8.25,0.9527146220207214,-4.588459014892578,-1.3471159934997559,0.03372616320848465,-0.5574359893798828,0.2000359147787094
8.3,0.030260443687438965,-5.190871715545654,-1.0024268627166748,0.009575959295034409,-0.1776389628648758,0.13413584232330322
8.35,-0.25740668177604675,-4.873322010040283,1.2806060314178467,0.05833269655704498,-0.10765281319618225,0.4657219648361206
8.4,-0.6541240215301514,-2.1770379543304443,4.242300033569336,0.21678796410560608,-0.04551725089550018,0.8006464242935181
8.45,-0.7339553833007812,2.901531219482422,4.172691822052002,0.855486273765564,0.009639500640332699,0.8923468589782715
8.5,0.9174438714981079,8.753419876098633,1.20041024684906,1.3337403535842896,0.2643144726753235,0.8341225385665894
8.55,1.802121639251709,10.468368530273438,-1.7871489524841309,0.5746380686759949,0.6915023922920227,0.1161983460187912
8.6,-0.5226337313652039,7.010866165161133,-2.088801145553589,-0.8989951610565186,0.9332773089408875,-0.8322548866271973
8.65,-0.9881080389022827,1.1895668506622314,-1.888377070426941,-1.779876470565796,0.3945886492729187,-0.8760840892791748
8.7,-0.24576342105865479,-5.0925679206848145,-0.9369651079177856,-1.7961022853851318,-0.19606931507587433,-0.5305410623550415
8.75,-0.02917124330997467,-7.832341194152832,0.4318532645702362,-0.9583266377449036,-0.48900920152664185,-0.23369437456130981
8.8,1.4885132312774658,-7.067538261413574,-1.2830795049667358,0.3247876763343811,-0.5658102631568909,0.08991630375385284
8.85,1.8664371967315674,-4.707630157470703,-3.2312095165252686,1.0075879096984863,-0.231411874294281,0.1803426593542099
8.9,1.2756798267364502,-3.110158681869507,-2.9707231521606445,0.9371311068534851,-0.05958972126245499,0.41261613368988037
8.95,1.8817505836486816,-2.3141183853149414,-1.5733346939086914,0.9304919242858887,-0.2827521562576294,0.449729859828949
9.0,1.7650343179702759,-0.9201250076293945,-0.5702340006828308,0.8812142014503479,-0.4508625566959381,0.39325806498527527
9.05,0.40259790420532227,1.478298306465149,0.7161530256271362,0.5989693403244019,-0.335889995098114,0.47693756222724915
9.1,0.47225940227508545,5.249523639678955,1.397275447845459,0.32263806462287903,-0.04565325751900673,0.7976148128509521
9.15,2.6653943061828613,8.97667121887207,-0.2381589710712433,0.1016567200422287,1.387177586555481,0.5457262992858887
9.2,1.0443792343139648,8.857378005981445,-2.211336135864258,-0.8605606555938721,2.3986711502075195,-0.9736403226852417
9.25,-3.6219687461853027,4.354071140289307,-1.784603238105774,-2.208982467651367,1.1637204885482788,-1.4529014825820923
9.3,-2.90397047996521,-1.2159072160720825,-1.5643439292907715,-2.4327712059020996,-0.5591758489608765,-0.36311954259872437
9.35,1.7421305179595947,-4.662355899810791,-2.482578992843628,-1.8758339881896973,-1.3476948738098145,0.16099369525909424
9.4,4.569181442260742,-5.459547996520996,-1.08942449092865,-1.3810914754867554,-1.1007288694381714,-0.34716612100601196
9.45,1.9805101156234741,-3.9482007026672363,0.5951104164123535,-0.9411581754684448,-0.8470752835273743,-1.0936635732650757
9.5,-1.6084914207458496,-0.6454679369926453,0.7404913306236267,-0.4441835284233093,-0.627886950969696,-1.136457920074463
9.55,-2.0403077602386475,1.4562482833862305,0.4641915559768677,-0.2642672061920166,-0.12973617017269135,-0.1879129558801651
9.6,-0.4130455553531647,1.0113410949707031,1.876132607460022,-0.14861387014389038,0.22008387744426727,0.46874910593032837
9.65,0.10255587100982666,1.133437156677246,2.2377607822418213,0.4694390892982483,0.09873741120100021,-0.01831415854394436
9.7,-0.26708418130874634,1.2619123458862305,0.9460386037826538,0.6763600707054138,-0.07533062249422073,-0.03952697664499283
9.75,-0.7706791162490845,-1.4772015810012817,0.30931663513183594,0.05687856674194336,-0.35152649879455566,1.1384226083755493
9.8,-1.2008824348449707,-4.021421909332275,0.9294331073760986,0.11462193727493286,0.11178392171859741,1.4253721237182617
9.85,0.4301930367946625,-5.813698768615723,0.9497239589691162,1.1619694232940674,0.6742170453071594,1.1924622058868408
9.9,1.9971355199813843,-5.127659797668457,-2.354982614517212,2.01705002784729,-0.010585479438304901,1.2279095649719238
9.95,0.48450636863708496,-0.9974402189254761,-2.4590916633605957,1.8546189069747925,-0.4890140891075134,1.330575704574585
10.0,0.9816449880599976,3.6342434883117676,-0.2887721061706543,1.3183815479278564,-0.693551778793335,1.7466638088226318
10.05,3.3839173316955566,8.38064193725586,-0.6430423855781555,0.8820686340332031,-0.44469740986824036,1.5504523515701294
10.1,1.911515235900879,8.553522109985352,-2.434993028640747,-0.00040615350008010864,0.6410263776779175,-0.12663398683071136
10.15,-2.1268820762634277,4.444809436798096,-2.6838736534118652,-1.143418788909912,1.2609421014785767,-2.4279136657714844
10.2,-4.4203996658325195,0.4323185384273529,0.08562663942575455,-2.040804624557495,0.48041120171546936,-2.920743942260742
10.25,-2.3089725971221924,-4.108994960784912,3.2497353553771973,-1.6215592622756958,-0.1289958953857422,-1.4049400091171265
10.3,1.1522126197814941,-6.03603458404541,2.0155372619628906,-0.4432002007961273,-0.7274540066719055,-0.23187078535556793
10.35,2.694009304046631,-5.412078380584717,-5.459549427032471,-0.14684000611305237,-1.4930098056793213,0.19835127890110016
10.4,2.6836822032928467,-4.593137264251709,-5.097196102142334,-0.17848268151283264,-0.8887444734573364,0.012985753826797009
10.45,0.5269274711608887,-4.361457824707031,0.9368722438812256,-0.05905626714229584,-0.19813396036624908,0.010263520292937756
10.5,-1.5463734865188599,-3.3998286724090576,2.3771510124206543,0.25334644317626953,-0.08172185719013214,0.5090949535369873
10.55,-0.7190525531768799,-0.6188424229621887,2.496786594390869,0.8935231566429138,0.2638292908668518,0.6479737758636475
10.6,1.6554497480392456,1.3478596210479736,-0.6864542365074158,1.3427519798278809,0.42088523507118225,0.6316421031951904
10.65,2.193873882293701,1.8680206537246704,-3.283557415008545,0.8020930290222168,0.20990002155303955,0.7397183775901794
10.7,0.5876739621162415,2.467026948928833,-0.4967619478702545,-0.09618279337882996,-0.004711735527962446,0.9373843669891357
10.75,2.1698477268218994,3.742096424102783,0.10040948539972305,0.05579274892807007,0.08552134037017822,1.2564557790756226
10.8,4.134880065917969,3.8761661052703857,0.3381664752960205,0.37354469299316406,0.6040443778038025,0.6213355660438538
10.85,0.4817012548446655,3.8593392372131348,-0.4517842233181,0.378383606672287,1.1929501295089722,-0.6489057540893555
10.9,-3.9385499954223633,6.698753356933594,-3.7176427841186523,0.2151135504245758,1.0650315284729004,-1.5320028066635132
10.95,-3.6744160652160645,6.34783935546875,-3.7003889083862305,-0.7538679838180542,-0.11602245271205902,-1.3984482288360596
11.0,-0.8896182179450989,1.1994011402130127,-1.7280170917510986,-1.5869852304458618,-1.249293327331543,-0.7720398902893066
11.05,1.3882017135620117,-2.237870216369629,-1.279256820678711,-1.4709025621414185,-1.525538444519043,-0.982018232345581
11.1,1.6784031391143799,-3.203320026397705,-0.38372987508773804,-1.1481337547302246,-0.7144278287887573,-1.441555142402649
11.15,1.3768868446350098,-4.339234828948975,2.566821813583374,-0.8915317058563232,0.7266080975532532,-1.2779446840286255
11.2,1.1109800338745117,-2.6286509037017822,2.0765531063079834,-0.6090956926345825,1.041417121887207,-0.9632482528686523
11.25,0.5488312840461731,-1.2569953203201294,-0.08975381404161453,-0.9050043821334839,0.9328122138977051,-0.018414026126265526
11.3,0.4754292368888855,-1.2944777011871338,1.379577398300171,-1.0647706985473633,1.1870707273483276,0.5395805239677429
11.35,-0.0923805832862854,-0.8257143497467041,1.7725136280059814,-0.21780988574028015,0.42846041917800903,0.2500848174095154
11.4,-0.3826298117637634,-1.6920198202133179,0.8994729518890381,0.2957572937011719,-0.20434240996837616,0.5998328924179077
11.45,2.6335535049438477,-4.826301097869873,-1.6443490982055664,0.33266404271125793,-0.2921552062034607,0.8878621459007263
11.5,1.7153432369232178,-5.809561729431152,-3.0536787509918213,-0.17597053945064545,-0.8698092103004456,0.03383668139576912
11.55,-1.1941123008728027,-5.311152935028076,0.23745590448379517,-0.7525595426559448,-1.0922878980636597,-0.21642127633094788
11.6,-0.5754889249801636,-3.6581804752349854,4.1130266189575195,-0.21439902484416962,-0.20213764905929565,0.5745711922645569
11.65,1.5019010305404663,0.7908260226249695,0.13971324265003204,0.7849413752555847,0.5755826234817505,1.2284468412399292
11.7,1.9557733535766602,3.95989990234375,-4.808742523193359,0.5208906531333923,0.4760573208332062,0.32116177678108215
11.75,-3.2252423763275146,3.284210681915283,-1.2818843126296997,-0.6859350204467773,0.00951070711016655,-0.694584846496582
11.8,-0.4867517352104187,-1.7045788764953613,3.1394622325897217,-0.8357736468315125,-0.005602675955742598,1.524369478225708
11.85,4.100484371185303,-2.1754915714263916,0.8212875723838806,0.2072817087173462,-0.014571104198694229,1.801795244216919
11.9,1.1900807619094849,-0.17574498057365417,0.16429339349269867,0.37525010108947754,0.18774089217185974,1.0035457611083984
11.95,-1.3630129098892212,2.3312129974365234,0.7768340706825256,0.01982969045639038,-0.1903684139251709,1.73294997215271
12.0,-0.2770812511444092,5.330158710479736,0.5427425503730774,-0.12964630126953125,-0.074967160820961,2.1669018268585205
12.05,1.0578845739364624,5.330143451690674,0.22145071625709534,-0.1432110071182251,0.5754526257514954,0.98594069480896
12.1,-0.5278006792068481,2.8421359062194824,-1.8596134185791016,0.02794671058654785,0.6221529245376587,-1.2206594944000244
12.15,-1.372321367263794,1.824032187461853,-2.5484139919281006,-0.24020874500274658,0.6443057656288147,-3.127164125442505
12.2,-0.24822726845741272,1.7748777866363525,-0.10543765127658844,-0.5480600595474243,0.385873943567276,-3.3959062099456787
12.25,0.7262450456619263,0.4863557815551758,1.099791407585144,-0.5380071401596069,-0.13893593847751617,-1.918851375579834
12.3,0.7237420678138733,-0.5996704697608948,0.501953661441803,-0.3532601594924927,-0.3019815981388092,-0.6550025343894958
12.35,0.9638730883598328,-1.7271358966827393,0.4267999231815338,-0.22134792804718018,-0.2899031341075897,-0.02427203580737114
12.4,1.4022668600082397,-2.303015947341919,-0.05770858749747276,0.029054876416921616,-0.2927165627479553,-0.07620814442634583
12.45,1.9321811199188232,-3.1094372272491455,-0.9865196943283081,0.16547171771526337,-0.23732498288154602,-0.22573339939117432
12.5,1.6451621055603027,-5.1397247314453125,-0.81199049949646,-0.23090589046478271,-0.19598950445652008,0.12378091365098953
12.55,-0.030566900968551636,-6.492546081542969,-0.7678319215774536,-0.6649640798568726,-0.3486771285533905,0.1506820023059845
12.6,-0.20846667885780334,-5.029516696929932,1.1216682195663452,-0.938450276851654,-0.35234132409095764,0.28580614924430847
12.65,0.9602867364883423,-0.17377784848213196,3.8882932662963867,-1.0243995189666748,-0.06889735162258148,0.8847234845161438
12.7,1.0238227844238281,6.172420501708984,2.7147154808044434,-0.8347400426864624,0.29991790652275085,1.4306716918945312
12.75,0.021411269903182983,7.909324645996094,0.5119317173957825,-0.3396538197994232,0.7938085198402405,1.0214773416519165
12.8,-2.4089407920837402,7.161018371582031,-1.1837527751922607,0.330717533826828,0.7649512887001038,-0.600091814994812
12.85,-4.1761579513549805,5.3472771644592285,-1.3965318202972412,0.673886775970459,0.7759735584259033,-0.9967878460884094
12.9,-1.6800360679626465,-1.081131935119629,-2.1219661235809326,0.8732568621635437,0.5303713083267212,0.0192157793790102
12.95,4.2596940994262695,-7.794160842895508,-0.04388866946101189,1.2769265174865723,0.18486425280570984,0.12268121540546417
13.0,5.550063133239746,-11.343733787536621,0.20615404844284058,1.4232507944107056,0.034000661224126816,0.045590344816446304
13.05,1.9145108461380005,-8.842552185058594,-1.624457597732544,1.1990249156951904,0.23217558860778809,0.5570042729377747
13.1,0.7789547443389893,-3.4378502368927,-2.521824359893799,1.0803625583648682,0.31319403648376465,1.186760425567627
13.15,2.888576030731201,2.5790181159973145,-1.6285698413848877,0.9344391822814941,0.28768134117126465,1.5732877254486084
13.2,2.0145459175109863,7.9008636474609375,-1.4401146173477173,0.5165791511535645,-0.11489982903003693,1.197866439819336
13.25,1.6822943687438965,7.942592620849609,-1.0460766553878784,-0.1680583655834198,-0.5814752578735352,0.18201151490211487
13.3,0.9010933637619019,3.9328417778015137,-0.044617392122745514,-0.7333812117576599,-0.5480093359947205,-1.1588963270187378
13.35,0.10196076333522797,0.024963371455669403,0.19260349869728088,-0.994708776473999,-0.2200467884540558,-1.6617063283920288
13.4,0.2904803156852722,-3.1883294582366943,-2.0936760902404785,-1.0377354621887207,-0.707184910774231,-1.5664596557617188
13.45,-0.28011631965637207,-4.431341171264648,-2.893721580505371,-1.742588996887207,-1.1998271942138672,-1.585638165473938
13.5,-0.979584813117981,-3.325155735015869,0.8000743985176086,-2.7433528900146484,-0.8533968925476074,-1.3105213642120361
13.55,-1.8193261623382568,-1.1223235130310059,3.6205625534057617,-2.599052906036377,-0.6577678322792053,-0.582114577293396
13.6,-0.8917497396469116,1.072009801864624,4.607369899749756,-1.541477918624878,-0.18011298775672913,0.34904173016548157
13.65,1.6058646440505981,-1.0853749513626099,1.0085444450378418,-0.4369862675666809,0.32437238097190857,0.8792703747749329
13.7,2.077096462249756,-6.6959147453308105,-4.649847507476807,-1.0379325151443481,0.7312897443771362,0.14639025926589966
13.75,1.514378309249878,-11.342144012451172,-3.0974535942077637,-4.373464107513428,1.3882622718811035,-1.0065432786941528
13.8,0.9916110038757324,-9.736993789672852,2.013122081756592,-7.341473579406738,1.1507965326309204,-1.9498685598373413
13.85,-1.6835627555847168,-7.09909200668335,4.322376251220703,-8.863640785217285,0.22373653948307037,-1.8283123970031738
13.9,-1.0314388275146484,4.5397233963012695,5.535566329956055,-10.417547225952148,1.1582696437835693,-1.4774850606918335
13.95,0.02333921194076538,13.122458457946777,-0.4853005111217499,-7.64674711227417,2.0999770164489746,0.16045422852039337
14.0,-3.723191976547241,7.806575775146484,-0.49520400166511536,-2.8537063598632812,2.039456367492676,1.5886424779891968
14.05,-3.341346502304077,3.4011435508728027,-1.626474380493164,-1.6557188034057617,0.568181037902832,0.13306497037410736
14.1,-0.17833328247070312,3.3588855266571045,-3.6974780559539795,-1.4725282192230225,-0.6852228045463562,-0.7779433131217957
14.15,0.01726973056793213,4.230811595916748,-2.3374714851379395,-0.3072225749492645,-0.9331158399581909,-0.25771257281303406
14.2,0.3016446828842163,3.6391637325286865,-1.800484538078308,0.009978339076042175,-0.8090711236000061,-0.4654158353805542
14.25,1.3730084896087646,1.9886707067489624,-0.5351947546005249,0.001377493143081665,-0.45160216093063354,-0.5315924286842346
14.3,0.8326632380485535,1.490925908088684,-0.0252465158700943,-0.10917017608880997,-0.537989616394043,-0.26988351345062256
14.35,2.4489927291870117,2.950087070465088,-0.8120095729827881,-0.0853075310587883,-0.45490431785583496,-0.29824361205101013
14.4,2.6908297538757324,4.517102241516113,-1.6435093879699707,0.7915743589401245,-0.2293144315481186,0.22110135853290558
14.45,1.2441966533660889,5.145387172698975,-0.578782320022583,2.0014421939849854,-0.3583018183708191,0.5776349902153015
14.5,0.6495745182037354,4.665862560272217,0.6980282068252563,2.5071401596069336,-0.57535719871521,0.3065280318260193
14.55,0.9732502102851868,4.307809352874756,1.6825546026229858,2.7521376609802246,-0.5473869442939758,0.2341817170381546
14.6,0.6471638679504395,3.737065553665161,3.1936514377593994,3.2049503326416016,-0.6483533978462219,0.3948591351509094
14.65,-0.9430620670318604,2.3921706676483154,4.667107582092285,3.6331775188446045,-0.6090682148933411,0.6097633242607117
14.7,-1.9806296825408936,0.4837212860584259,5.312490940093994,3.8733584880828857,-0.31062808632850647,0.84827721118927
14.75,-1.9341373443603516,-2.1476523876190186,4.874968528747559,3.8373615741729736,-0.01578107848763466,1.053451657295227
14.8,-2.0371904373168945,-4.058745861053467,3.130458354949951,3.508181571960449,0.13285143673419952,1.2723716497421265
14.85,-0.9645116925239563,-5.500268459320068,1.8272429704666138,3.2132034301757812,0.30794757604599,1.3658981323242188
14.9,2.7114500999450684,-9.399482727050781,-1.6762741804122925,2.796421527862549,0.33210840821266174,1.2324055433273315
14.95,6.418353080749512,-15.323295593261719,-5.479267597198486,1.1572188138961792,-0.025522995740175247,0.07611033320426941
15.0,3.249514102935791,-18.07940101623535,-2.3746232986450195,-2.0283946990966797,-1.259155511856079,-2.70933198928833
15.05,-6.7979631423950195,-14.831513404846191,8.074056625366211,-5.868638038635254,-1.5987035036087036,-4.628801345825195
15.1,-9.779853820800781,0.11177409440279007,11.456757545471191,-8.43820858001709,-0.48429107666015625,-5.395805835723877
15.15,-1.8908488750457764,9.916315078735352,2.690699338912964,-7.591582298278809,0.9219158291816711,-3.253732204437256
15.2,1.5448391437530518,9.036214828491211,-3.75079607963562,-4.606573581695557,2.0734920501708984,-0.7695607542991638
15.25,-0.9165902137756348,5.65962028503418,-4.888676166534424,-2.423511505126953,1.5288505554199219,0.4415024220943451
15.3,0.12089180946350098,4.894221305847168,-3.7146730422973633,-1.5691936016082764,1.0521124601364136,0.13845738768577576
15.35,0.9714068174362183,3.857630491256714,-3.504694938659668,-0.9021264314651489,0.8955748081207275,0.1850888580083847
15.4,0.4904465675354004,3.9654576778411865,-4.10208797454834,-0.15103961527347565,0.37338876724243164,0.20230364799499512
15.45,1.3750818967819214,2.7578330039978027,-3.3315622806549072,0.7104887366294861,0.06524863094091415,-0.08694776147603989
15.5,2.6640987396240234,4.624382019042969,-3.303704261779785,1.1320997476577759,-0.1219886764883995,-0.03095085546374321
15.55,-0.03130348026752472,5.769186496734619,-0.5467543005943298,2.206211566925049,-0.13745056092739105,0.781177282333374
15.6,-1.692986249923706,3.9055330753326416,2.222059965133667,2.9511566162109375,0.015372632071375847,0.9551846981048584
15.65,0.3610883951187134,1.8604068756103516,3.901762008666992,3.106339931488037,0.3350681662559509,0.7536988258361816
15.7,-0.7399213314056396,0.17978736758232117,3.2915070056915283,3.5544843673706055,0.33335015177726746,1.187896490097046
15.75,-2.133406162261963,-0.44747769832611084,2.7579667568206787,3.8301844596862793,0.14777430891990662,1.2792694568634033
15.8,-1.2227611541748047,-0.39616042375564575,2.4295237064361572,3.787581205368042,0.17415998876094818,0.9176158308982849
15.85,-0.8650463819503784,-0.8523935079574585,2.6764156818389893,3.8115501403808594,0.26769784092903137,0.7058275938034058
15.9,-0.8798670768737793,-2.3960890769958496,2.4153337478637695,3.727344274520874,0.3352809250354767,0.5400634407997131
15.95,-0.11156436800956726,-3.8593578338623047,1.0282894372940063,3.3973476886749268,0.6128890514373779,0.3073278069496155
16.0,2.7868218421936035,-5.172111511230469,-0.7754102945327759,2.915161609649658,0.8877997994422913,0.08978434652090073
16.05,3.4871087074279785,-7.431329727172852,-2.2412607669830322,2.0113308429718018,0.5840662717819214,-0.9253352284431458
16.1,-0.552020788192749,-14.588525772094727,-3.714689016342163,0.37672701478004456,0.26087528467178345,-1.1643775701522827
16.15,-0.7706053256988525,-13.696771621704102,2.0668420791625977,-3.705204486846924,0.988495945930481,-0.43684330582618713
16.2,1.7838644981384277,-1.3095834255218506,8.372143745422363,-6.413597106933594,1.0920424461364746,0.6518789529800415
16.25,-0.25669944286346436,11.917413711547852,4.149783611297607,-5.46455717086792,0.8162878751754761,1.750312089920044
16.3,-3.559065580368042,16.17030143737793,-0.2574004828929901,-1.2031737565994263,1.4193308353424072,2.1953582763671875
16.35,-3.4411492347717285,14.485123634338379,-3.8853862285614014,2.835421562194824,1.7152656316757202,0.8983343243598938
16.4,-1.1044312715530396,6.535271167755127,-3.7824790477752686,5.541136741638184,1.1838431358337402,-0.7463775873184204
16.45,1.6510064601898193,-0.2937942445278168,-4.36030912399292,5.206014156341553,0.09212210029363632,-1.8228800296783447
16.5,0.9913663864135742,-3.39736008644104,-3.2303709983825684,3.979248285293579,-1.3153014183044434,-1.7392849922180176
16.55,1.2437565326690674,-4.230335235595703,-0.15228913724422455,2.871309280395508,-1.8821845054626465,-1.2845427989959717
16.6,0.7482717633247375,-4.848780155181885,1.7260079383850098,2.0672380924224854,-1.7594646215438843,-0.8823636174201965
16.65,0.5873917937278748,-4.023798942565918,2.5527424812316895,1.1657603979110718,-1.1456997394561768,-0.36216509342193604
16.7,-1.254033088684082,-3.7904398441314697,1.4722844362258911,0.9614361524581909,-0.9792078733444214,0.5125342011451721
16.75,0.032365381717681885,-6.42036771774292,0.8688616752624512,0.5860319137573242,-0.20442001521587372,1.3525501489639282
16.8,1.3161487579345703,-5.723611354827881,0.415761262178421,-0.2272893190383911,-0.021742288023233414,1.1585571765899658
16.85,0.2538321614265442,-5.517189025878906,-1.4359722137451172,-0.5598641633987427,-0.5837314128875732,1.0936083793640137
16.9,0.39836937189102173,-4.545052528381348,0.14891698956489563,-1.7964565753936768,-0.828825056552887,0.9658842086791992
16.95,-1.0423638820648193,-2.346280097961426,3.080760955810547,-2.199479818344116,-1.071166753768921,1.068550944328308
17.0,-2.8239312171936035,-4.092276096343994,2.814384937286377,-2.1547036170959473,-0.5940686464309692,1.1454777717590332
17.05,-2.0008230209350586,-0.8920531868934631,4.02323055267334,-3.5754828453063965,-0.42332667112350464,0.8939206004142761
17.1,-1.5471222400665283,1.3967417478561401,2.827491283416748,-3.882694721221924,-0.17761799693107605,1.820062518119812
17.15,0.21240955591201782,10.705865859985352,2.137136697769165,-5.442811489105225,0.8931145071983337,2.172088623046875
17.2,-0.9560272693634033,16.511220932006836,-4.178107261657715,-2.9469523429870605,0.8901616930961609,1.3596224784851074
17.25,-4.057959079742432,13.8490571975708,-4.166798114776611,0.15567348897457123,0.01719151809811592,-0.3235712945461273
17.3,-4.040839195251465,7.932821273803711,-2.492525815963745,2.7124345302581787,1.0139631032943726,-1.4473724365234375
17.35,-1.1876085996627808,-0.1632671356201172,-0.8575180768966675,3.9333934783935547,2.3383045196533203,-1.6963396072387695
17.4,-1.3835309743881226,-9.090397834777832,-0.5726933479309082,4.163913726806641,2.6448607444763184,-0.2375950813293457
17.45,-0.12939895689487457,-10.772336959838867,0.6003949046134949,3.2884767055511475,2.9217758178710938,2.742297887802124
17.5,0.2840694189071655,-5.953617572784424,1.1241532564163208,3.9948642253875732,3.511335849761963,3.498560667037964
17.55,-0.020259350538253784,-3.750537395477295,0.28306180238723755,4.142033100128174,3.86026668548584,3.5550451278686523
17.6,-1.348057508468628,-0.7560551166534424,0.7011474967002869,3.4331283569335938,3.593172550201416,2.5387964248657227
17.65,-0.4051913022994995,1.3578567504882812,0.7690832018852234,2.9854495525360107,3.1563587188720703,1.364121675491333
17.7,-1.6538281440734863,1.8579035997390747,0.6455204486846924,2.2518579959869385,2.6469008922576904,0.011058269068598747
17.75,-0.3650488555431366,4.9031548500061035,0.5343427658081055,1.3183939456939697,1.8117262125015259,-0.4627949297428131
17.8,0.9964873790740967,6.302738189697266,-0.13858485221862793,-0.00958174467086792,1.2230570316314697,-1.2840948104858398
17.85,2.2563695907592773,4.841895580291748,-0.6997034549713135,-1.166783332824707,1.1525685787200928,-1.7824318408966064
17.9,2.6545631885528564,4.660146713256836,-2.259251356124878,-1.7813775539398193,1.156855821609497,-2.254971504211426
17.95,-0.07310175895690918,3.228200912475586,-5.201087951660156,-2.1145834922790527,0.8997833132743835,-2.993320941925049
18.0,2.2369184494018555,-0.5571741461753845,-6.403906345367432,-2.4506702423095703,-0.05602908506989479,-3.3324837684631348
18.05,3.6768550872802734,-4.413511276245117,-2.8303613662719727,-2.8782012462615967,-0.9005143642425537,-3.5089540481567383
18.1,0.21161317825317383,-6.5162353515625,1.6577852964401245,-3.1261420249938965,-1.190068244934082,-3.350771427154541
18.15,-3.804239273071289,-6.578187942504883,8.644295692443848,-2.623866558074951,-0.6132825613021851,-2.5508337020874023
18.2,-5.23681640625,-3.4251770973205566,8.42699909210205,-0.8213889598846436,0.6028825044631958,-1.4383032321929932
18.25,-4.943107604980469,-1.9262691736221313,1.8669211864471436,0.7382420301437378,1.2492471933364868,-0.2513931393623352
18.3,-2.9054245948791504,-6.512752532958984,-3.6370763778686523,1.0755927562713623,0.49362871050834656,1.7824492454528809
18.35,0.0863003134727478,-4.577203273773193,-2.083367109298706,1.4209768772125244,0.3293745815753937,1.9836311340332031
18.4,2.7270076274871826,-4.48580265045166,-1.2471116781234741,1.888691782951355,0.27599164843559265,2.149231433868408
18.45,2.46449613571167,-3.5700066089630127,-1.5836368799209595,1.9406321048736572,0.5164591670036316,1.930851936340332
18.5,1.4418708086013794,-1.7618646621704102,-2.0566329956054688,2.077468156814575,0.5386620759963989,2.143974781036377
18.55,1.1084742546081543,-0.746230959892273,-1.688345193862915,2.491623878479004,0.07455021142959595,2.6806108951568604
18.6,2.2460505962371826,2.4024882316589355,-2.4444031715393066,3.1809728145599365,-0.4320226311683655,3.1729679107666016
18.65,0.4609828293323517,5.349874019622803,-0.5166122913360596,3.013611316680908,-0.4293181896209717,2.6557416915893555
18.7,-0.3372466564178467,7.726314067840576,3.70414137840271,1.9247581958770752,-0.030880695208907127,1.8792636394500732
18.75,-1.3853373527526855,7.665841579437256,5.5798115730285645,0.096646249294281,0.7273935079574585,0.6493029594421387
18.8,-2.050497055053711,4.824710845947266,4.781989574432373,-1.3768501281738281,1.1645127534866333,-0.4825703799724579
18.85,-3.484772205352783,3.7659380435943604,1.2376117706298828,-1.4602255821228027,1.2157126665115356,-0.9300413131713867
18.9,-1.7802083492279053,5.433726787567139,-2.900407075881958,-0.9725558757781982,0.33960220217704773,-1.237220048904419
18.95,0.5740948915481567,4.0584940910339355,-2.4996492862701416,-1.6475753784179688,-0.3262927532196045,-1.8474156856536865
19.0,3.3644118309020996,0.39514288306236267,-1.6067777872085571,-2.0796263217926025,-0.33290615677833557,-1.9003729820251465
19.05,3.916378974914551,-1.8445748090744019,-1.7799123525619507,-2.1434905529022217,0.12873241305351257,-2.006481409072876
19.1,-0.04361379146575928,-2.4771413803100586,-2.8632354736328125,-2.0302984714508057,0.2783552408218384,-2.059507369995117
19.15,0.09990286827087402,-2.9463844299316406,-2.978257656097412,-1.9450966119766235,-0.1955936998128891,-1.6417800188064575
19.2,0.031210124492645264,-2.8335821628570557,-0.6993024349212646,-2.038546085357666,-0.38745060563087463,-1.375893235206604
19.25,-1.3139115571975708,-1.5381959676742554,0.526437520980835,-1.6658543348312378,-0.30539438128471375,-1.306133508682251
19.3,-1.3108779191970825,-0.26752492785453796,1.650251865386963,-1.1889127492904663,-0.18695072829723358,-1.2089526653289795
19.35,-0.9201022386550903,0.8900537490844727,1.379370093345642,-0.6616876721382141,-0.27725309133529663,-0.9533705711364746
19.4,0.03819441795349121,0.5029324889183044,1.691354751586914,-0.2165004014968872,-0.38832196593284607,-0.6718418002128601
19.45,-0.42795103788375854,0.5308026075363159,2.1308703422546387,0.11046402156352997,-0.29295778274536133,-0.7075741291046143
19.5,-0.5298163890838623,0.43949878215789795,2.1422243118286133,0.4472668766975403,-0.5216065049171448,-0.37644705176353455
19.55,2.299708604812622,-1.8715001344680786,-0.374703586101532,0.6957166194915771,-0.4548729956150055,-0.09256086498498917
19.6,3.065156936645508,-1.1423852443695068,-2.362743854522705,0.5184772610664368,0.002937803277745843,-0.9722921252250671
19.65,1.6147170066833496,-2.3125576972961426,-2.6004128456115723,-0.028839945793151855,0.3864249587059021,-1.5164804458618164
19.7,-1.3188116550445557,-4.868006706237793,0.35670360922813416,-0.260439395904541,0.6499441862106323,-1.3788288831710815
19.75,-3.58665132522583,-5.528740882873535,1.4983233213424683,0.4360744059085846,0.24897749722003937,-0.6295150518417358
19.8,-0.6834174990653992,-9.114087104797363,0.7696672081947327,1.722015380859375,-0.05494431406259537,0.534153401851654
19.85,-0.21752846240997314,-8.786356925964355,0.967865526676178,2.6470770835876465,-0.07886005938053131,1.2421326637268066
19.9,1.2878048419952393,-10.12495231628418,-0.18395574390888214,3.8843932151794434,0.3883158266544342,2.7173404693603516
19.95,-1.095463514328003,-3.161626100540161,-4.216528415679932,5.501057147979736,0.19226843118667603,2.772834062576294
20.0,-3.290801525115967,7.344851016998291,-5.491577625274658,6.045094013214111,0.10630998015403748,2.4757003784179688
20.05,-4.725913047790527,9.714488983154297,0.1251395046710968,4.755185127258301,-0.42116492986679077,1.1012418270111084
20.1,-1.0916740894317627,15.317408561706543,2.819375514984131,3.1070289611816406,-0.598015546798706,-0.21502763032913208
20.15,1.1198006868362427,11.75895881652832,1.8380228281021118,0.2705007791519165,-0.5485949516296387,-0.9470133185386658
20.2,6.049864292144775,3.9550998210906982,0.0031017025467008352,-1.283324122428894,-0.8012175559997559,-0.6090183258056641
20.25,3.7780566215515137,3.4048173427581787,-1.0525431632995605,-1.4133380651474,0.1382986158132553,-1.133009672164917
20.3,0.9955323338508606,3.4816081523895264,-2.4464192390441895,-1.6707735061645508,0.5930476188659668,-1.6346564292907715
20.35,1.1161937713623047,1.1285910606384277,-3.3984286785125732,-2.050041913986206,0.24315756559371948,-1.5695828199386597
20.4,1.117258071899414,-2.0235462188720703,-1.44154953956604,-2.3062028884887695,-0.10209260880947113,-1.6810758113861084
20.45,0.01566612720489502,-2.4685723781585693,1.39573335647583,-2.2893362045288086,-0.2639603614807129,-1.735909104347229
20.5,0.8051263093948364,-4.246423244476318,2.274453639984131,-2.0201592445373535,-0.38484421372413635,-1.569321632385254
20.55,0.3594008684158325,-8.165579795837402,2.355036973953247,-1.7740557193756104,-0.04578947648406029,-1.471039056777954
20.6,-0.034245967864990234,-15.619397163391113,3.7938485145568848,-0.8491803407669067,0.9288474321365356,-0.3717201054096222
20.65,-2.823582649230957,-17.208072662353516,-0.74949049949646,1.3590127229690552,1.5719077587127686,0.39097800850868225
20.7,-3.4048714637756348,-12.861942291259766,-4.463519096374512,2.8298933506011963,1.4627834558486938,1.9863337278366089
20.75,-2.0287463665008545,-1.4770668745040894,-4.7503767013549805,3.081926107406616,0.2955714464187622,3.025716543197632
20.8,1.814863920211792,8.704694747924805,-3.1684296131134033,2.2157764434814453,-1.0034844875335693,2.9578893184661865
20.85,2.6013569831848145,9.1705322265625,0.26247042417526245,0.5869988203048706,-1.1980912685394287,1.4729090929031372
20.9,0.1547377109527588,2.20568585395813,0.8718053102493286,-0.357721209526062,-0.8489447832107544,0.5948641300201416
20.95,-1.331106424331665,-0.7163020372390747,-0.03494948521256447,0.560661256313324,-1.219569444656372,0.6735822558403015
21.0,0.008688867092132568,2.1350626945495605,-2.209872007369995,1.6297409534454346,-1.419190526008606,0.689134955406189
21.05,0.4183163642883301,1.0509759187698364,0.5510705709457397,1.2367026805877686,-0.22682440280914307,0.7717903852462769
21.1,2.1786398887634277,0.4914199113845825,0.3484328091144562,1.1392017602920532,-0.22891509532928467,0.9843800067901611
21.15,-1.6578783988952637,0.1333475410938263,-1.17974853515625,1.081330418586731,0.07936424016952515,0.7519559264183044
21.2,0.2189466953277588,2.174342393875122,-0.607754647731781,1.1950527429580688,-0.15857747197151184,0.805158793926239
21.25,0.5129608511924744,3.7021145820617676,1.1566507816314697,1.2016284465789795,0.057143036276102066,0.7328186631202698
21.3,-0.20726945996284485,5.619790554046631,0.19784633815288544,1.0758066177368164,0.13525988161563873,0.6386085748672485
21.35,-1.862347960472107,5.013036251068115,1.735661268234253,0.41286909580230713,0.3238387107849121,0.5436639785766602
21.4,-0.8738772869110107,2.070113182067871,1.619513988494873,0.7249832153320312,-0.15619400143623352,0.07746098935604095
21.45,0.5002748966217041,6.673295497894287,4.225240707397461,1.2971676588058472,0.2713598906993866,-0.2886676490306854
21.5,-2.259417772293091,7.17660665512085,3.893232822418213,-0.4940190017223358,1.268332839012146,-0.6019510626792908
21.55,-1.9902321100234985,6.041248321533203,0.5593106150627136,-1.8061050176620483,0.7279154658317566,-0.9096533060073853
21.6,1.5153777599334717,3.7745769023895264,-1.6154826879501343,-2.1669676303863525,-0.37599465250968933,-0.9557758569717407
21.65,5.440356254577637,1.1893430948257446,-3.7313356399536133,-2.3512682914733887,-0.9226620197296143,-0.5847682952880859
21.7,1.920741081237793,-3.6138155460357666,-3.482462167739868,-2.752566337585449,0.8038129806518555,-0.7391049265861511
21.75,-0.804063618183136,-6.616783618927002,-1.7364298105239868,-1.5187492370605469,1.1275684833526611,-0.648200273513794
21.8,-4.470004558563232,-5.711027145385742,0.06214865669608116,0.5716776847839355,0.006487097591161728,-0.7677718997001648
21.85,3.2574687004089355,4.7653656005859375,-4.13347864151001,1.9841282367706299,-1.883783221244812,-0.2841714024543762
21.9,1.116442322731018,5.599092960357666,-0.18507060408592224,-0.5200412273406982,0.3363635540008545,-0.5669062733650208
21.95,-0.47799545526504517,4.221311092376709,-0.3782460391521454,-1.8247275352478027,0.6507041454315186,-1.4637595415115356
22.0,0.5277611017227173,0.9468318819999695,-0.6664626002311707,-2.521695852279663,-0.026815783232450485,-1.3460617065429688
22.05,1.7056020498275757,-2.2799789905548096,-0.17828956246376038,-2.5641438961029053,-0.21124503016471863,-1.4046201705932617
22.1,0.4577917456626892,-3.3419694900512695,-0.4642503559589386,-2.3631937503814697,-0.16983161866664886,-1.7724153995513916
22.15,-0.8617478013038635,-3.327681064605713,-0.2564038038253784,-2.351588726043701,-0.33160433173179626,-1.3290191888809204
22.2,-1.767906665802002,-4.3829779624938965,0.6950772404670715,-2.4052014350891113,-0.20347316563129425,-0.8723112344741821
22.25,-0.732373058795929,-4.9611334800720215,1.559016227722168,-1.884574055671692,-0.3035833537578583,-0.1718917191028595
22.3,0.25588345527648926,-3.0061941146850586,-0.7243974804878235,-1.0965758562088013,-0.20898625254631042,-0.27017366886138916
22.35,-0.14640653133392334,-1.7811813354492188,-3.4399116039276123,-1.1050418615341187,0.5720986127853394,-1.409980058670044
22.4,-3.1228647232055664,1.3990343809127808,1.3443726301193237,-1.5576800107955933,1.2043967247009277,-2.179661750793457
22.45,-1.9186099767684937,-2.3897204399108887,6.615874290466309,-1.0811400413513184,0.01147245243191719,0.402713805437088
22.5,0.44569945335388184,-3.372546434402466,2.5443294048309326,1.26002836227417,-0.3893660604953766,1.0172094106674194
22.55,1.692311406135559,-3.3399016857147217,-3.1085822582244873,2.3050029277801514,-0.3831396698951721,0.6903918385505676
22.6,-2.4601967334747314,-4.1446733474731445,-0.49473732709884644,1.5142972469329834,-0.08409198373556137,0.6377243399620056
22.65,-1.0930430889129639,-2.1281659603118896,-1.0077764987945557,1.8524922132492065,0.2169862538576126,1.2411787509918213
22.7,0.9653974175453186,-4.059509754180908,2.4832448959350586,1.9260579347610474,0.4474959075450897,0.8964064717292786
22.75,4.072790145874023,-2.1655874252319336,-0.20772404968738556,2.845935344696045,1.2191486358642578,1.2602436542510986
22.8,1.6681166887283325,0.13662640750408173,-1.0374784469604492,2.7366385459899902,1.4640898704528809,1.1750344038009644
22.85,-1.7099674940109253,5.961994647979736,-3.8017210960388184,2.4452271461486816,0.5898213386535645,1.905966877937317
22.9,-2.357466697692871,8.903619766235352,-3.994976758956909,0.6576321125030518,-0.39835402369499207,1.7009336948394775
22.95,-2.5284693241119385,1.966462254524231,0.6759914755821228,-1.5791938304901123,-1.0599730014801025,0.9575444459915161
23.0,-0.39693140983581543,-2.915834426879883,2.61806058883667,-0.9058396220207214,-1.6628178358078003,0.8484548926353455
23.05,2.29292368888855,-2.9332430362701416,1.9821500778198242,0.6440520882606506,-1.0452494621276855,0.6427606344223022
23.1,-1.7927709817886353,0.6895151138305664,-0.3003826141357422,1.3779940605163574,0.19388127326965332,0.34540197253227234
23.15,-1.6093056201934814,3.2387423515319824,-1.920616865158081,1.3528021574020386,-0.49380189180374146,0.4352768659591675
23.2,1.7565789222717285,3.6124300956726074,-0.3950195610523224,0.5664690136909485,-0.8695926666259766,0.3621510863304138
23.25,0.08456391096115112,4.069207668304443,-1.3599320650100708,-0.0024755001068115234,-0.645383358001709,0.1752641648054123
23.3,-1.040291428565979,7.44196891784668,-2.456052541732788,-0.535487949848175,-0.4349398612976074,-0.14012278616428375
23.35,3.2258529663085938,5.825934886932373,-1.0201561450958252,-1.7107616662979126,-0.2942318320274353,-0.3962635099887848
23.4,2.271176338195801,2.381108522415161,-0.21328946948051453,-2.1696832180023193,0.20013427734375,-0.9302093386650085
23.45,-0.919911801815033,2.812380075454712,-1.7423787117004395,-1.9543646574020386,0.35488104820251465,-1.5794342756271362
23.5,0.3548685312271118,-0.24495038390159607,1.04960298538208,-2.118248224258423,0.2840407192707062,-2.005908250808716
23.55,0.817834734916687,-1.29085373878479,2.4580039978027344,-1.740260362625122,0.2418379783630371,-2.1680727005004883
23.6,-1.8670003414154053,-0.8215259909629822,2.5775604248046875,-1.1682828664779663,0.5226975679397583,-2.0526294708251953
23.65,-2.451270341873169,0.7088888883590698,1.0713962316513062,-0.35592085123062134,0.45366212725639343,-1.891711950302124
23.7,-0.18699315190315247,-0.3703126609325409,-0.9202688932418823,-0.1565459966659546,-0.4667833745479584,-1.587080955505371
23.75,0.270973801612854,-2.1275548934936523,1.9597742557525635,-0.3646239638328552,-0.2742418050765991,-1.5708727836608887
23.8,0.30522334575653076,-4.1155524253845215,2.517596483230591,0.3132725954055786,-0.23538030683994293,-0.6356489062309265
23.85,4.0072340965271,-5.235835075378418,-4.036195278167725,1.0587304830551147,-1.2788963317871094,0.34801191091537476
23.9,3.781115770339966,-5.463820457458496,-5.985929489135742,0.4334774315357208,-0.7886837720870972,0.3112473785877228
23.95,-0.7885928153991699,-4.768885612487793,-5.249382019042969,-0.39421749114990234,-0.27668729424476624,0.11074803024530411
24.0,-0.3215804100036621,-5.984238624572754,-1.9949358701705933,-0.5841620564460754,-0.01291537843644619,0.8682671785354614
24.05,-1.3097326755523682,-5.549263954162598,2.5279784202575684,-0.30931657552719116,0.06751979887485504,1.0501576662063599
24.1,-0.43030470609664917,-1.937278151512146,1.751854419708252,0.24919873476028442,0.08046243339776993,1.535829782485962
24.15,0.5941847562789917,1.3180408477783203,1.8394159078598022,0.06870847940444946,0.4196011424064636,1.692236304283142
24.2,-0.5380584001541138,4.080239772796631,0.558404803276062,-0.44273993372917175,1.0146484375,0.9124427437782288
24.25,-2.298490285873413,0.9044284820556641,0.5976018309593201,-1.050217628479004,0.4705662131309509,0.6902268528938293
24.3,-2.226144313812256,-3.118302822113037,5.257359504699707,-0.9885022640228271,-0.24630951881408691,1.347092628479004
24.35,2.835251569747925,0.8873205184936523,3.4416370391845703,0.6897645592689514,0.09742645919322968,1.7413707971572876
24.4,-1.8870514631271362,-0.6490564942359924,-1.0016099214553833,1.024256706237793,0.3390924334526062,1.5846145153045654
24.45,0.07843772321939468,-1.9197466373443604,0.25611740350723267,1.3161754608154297,-0.35230955481529236,2.31431245803833
24.5,0.6066776514053345,1.529431939125061,-4.431096076965332,1.8148380517959595,0.13323888182640076,1.9136697053909302
24.55,1.8977439403533936,3.321091413497925,-1.0813223123550415,0.9866423606872559,0.03005901724100113,1.481345534324646
24.6,-0.7422770261764526,0.02455061860382557,-2.6938722133636475,1.1354877948760986,-0.02174757607281208,1.2255529165267944
24.65,6.39370059967041,10.893341064453125,-2.2452428340911865,2.1122591495513916,-0.262550950050354,1.7541494369506836
24.7,4.1245436668396,7.177358627319336,-0.7007167935371399,0.1883937418460846,0.9226554036140442,0.39132681488990784
24.75,-4.77906608581543,0.0805637463927269,-5.22226095199585,-0.5448492765426636,1.2927757501602173,-0.7291004657745361
24.8,-1.485737681388855,3.4144246578216553,-3.9596176147460938,-0.342038094997406,-0.42249178886413574,-0.31377655267715454
24.85,4.313333988189697,5.673616886138916,-0.13813838362693787,-0.8405779600143433,-0.3986535370349884,-0.7049176692962646
24.9,2.0799107551574707,3.1312241554260254,0.9257459044456482,-1.5342243909835815,0.5886833667755127,-1.898180603981018
24.95,-0.2981134057044983,0.3868722915649414,0.6915480494499207,-1.597832202911377,0.5722774863243103,-2.1893258094787598
25.0,-3.4053125381469727,0.07584373652935028,-0.8872614502906799,-1.248904824256897,-0.00992899015545845,-2.540773630142212
25.05,0.22028958797454834,-1.1826419830322266,-1.630652666091919,-1.0548584461212158,-1.5096427202224731,-2.01982045173645
25.1,0.23879408836364746,-1.451540231704712,2.4104247093200684,-1.212632656097412,-0.4415338635444641,-2.3015105724334717
25.15,-0.25812608003616333,0.382906973361969,-0.11163891106843948,-1.2768261432647705,-0.2680031359195709,-2.150280714035034
25.2,0.06901609897613525,-0.718693733215332,-0.4080163836479187,-1.359567403793335,-0.7623972296714783,-2.0330233573913574
25.25,2.0465192794799805,-2.413287401199341,2.1021201610565186,-1.7510770559310913,-0.714979887008667,-1.6487727165222168
25.3,-2.9435949325561523,0.954527735710144,1.6958063840866089,-1.4193077087402344,-0.5846827030181885,-2.148016929626465
25.35,-2.1152400970458984,1.408644437789917,3.1475324630737305,-0.8497436046600342,-0.3394163250923157,-1.4357802867889404
25.4,0.6568928956985474,-0.48942774534225464,2.0009450912475586,0.4534931778907776,-1.054227590560913,-0.12793320417404175
25.45,0.805813193321228,0.580600917339325,-0.9350650310516357,1.6429197788238525,-0.7883486747741699,-0.6354508996009827
25.5,-0.21355977654457092,-1.0075085163116455,1.4144105911254883,1.9677472114562988,-0.6180731058120728,-1.1630208492279053
25.55,-0.1534225046634674,-2.0989878177642822,0.9402661323547363,3.015076160430908,-1.063480257987976,-0.9906270503997803
25.6,1.7094484567642212,2.7554261684417725,-4.679957389831543,2.538682460784912,-1.4921209812164307,-0.76066654920578
25.65,3.3075437545776367,0.5245755314826965,-1.3998808860778809,-0.42886704206466675,-0.24054600298404694,0.04106269031763077
25.7,1.3538837432861328,-1.4672527313232422,-0.3311654329299927,-1.388435959815979,-0.12052860110998154,-0.35081011056900024
25.75,0.8937746286392212,-4.402775287628174,4.509486675262451,-0.7791898846626282,0.4577103853225708,-0.5621300339698792
25.8,-1.8927193880081177,-1.1678699254989624,2.6721975803375244,0.9338449239730835,0.2746584713459015,-0.6534743309020996
25.85,-3.6024022102355957,0.02413836494088173,-0.8915143013000488,0.6809176206588745,0.0546177476644516,0.8532356023788452
25.9,-1.494482159614563,-0.5015726089477539,-1.9225634336471558,-1.0254970788955688,-1.6703851222991943,1.5549126863479614
25.95,2.5999321937561035,-2.2746782302856445,-0.5720837116241455,-0.916748583316803,-0.9797359704971313,1.3212755918502808
26.0,0.14042329788208008,0.10338142514228821,-3.2111258506774902,-0.8851803541183472,0.271329402923584,-0.2023019641637802
26.05,-0.2362940013408661,-1.8360248804092407,-1.2805533409118652,-2.528949737548828,0.8901322484016418,0.02191372774541378
26.1,2.502829074859619,-3.2451655864715576,3.843021869659424,-2.88159441947937,1.554669737815857,0.011455436237156391
26.15,0.3636269271373749,-1.2612886428833008,-0.668565571308136,-1.645751714706421,0.5805515050888062,-1.3387552499771118
26.2,-0.1788947582244873,-0.1745816171169281,0.8046610355377197,-1.167972207069397,1.2062883377075195,-1.2627532482147217
26.25,-2.017674207687378,1.5688412189483643,-0.3845272958278656,-0.1448400914669037,0.7342325448989868,-0.13283340632915497
26.3,2.3117806911468506,-5.119287014007568,-4.3560614585876465,0.14612352848052979,-0.2987448275089264,2.0823566913604736
26.35,-0.29110437631607056,0.014082835987210274,0.7973283529281616,0.8090180158615112,0.8380173444747925,0.24803531169891357
26.4,0.8603543639183044,-0.6856459975242615,-1.214186191558838,1.3861027956008911,0.15793702006340027,-0.20251260697841644
26.45,-0.3870956599712372,1.1040107011795044,-0.08354312181472778,0.7745873928070068,0.4178182780742645,-0.6509478092193604
26.5,-1.276891827583313,0.617619514465332,0.14188724756240845,0.23511724174022675,0.11385680735111237,0.48229092359542847
26.55,3.846436023712158,-2.638599395751953,-0.17135417461395264,0.3371954560279846,-0.09187877923250198,1.5636461973190308
26.6,0.3662518262863159,-0.3875083923339844,-0.6003125905990601,0.6540372371673584,0.06294740736484528,-0.46195682883262634
26.65,2.3771419525146484,-1.6690797805786133,-1.5077883005142212,0.9609296321868896,0.0338452011346817,-1.1914520263671875
26.7,-1.0150587558746338,3.3799424171447754,-1.2760339975357056,0.9443850517272949,0.5831144452095032,-1.9069229364395142
26.75,0.5632599592208862,0.27401265501976013,-0.3472921550273895,0.30676740407943726,0.23026816546916962,0.011857515200972557
26.8,1.7293394804000854,0.28811362385749817,0.8342723250389099,0.42446357011795044,0.26061689853668213,0.10323720425367355
26.85,0.4464360475540161,0.1446179896593094,1.034773349761963,0.6567071676254272,0.43456628918647766,-0.12230374664068222
26.9,-0.46223652362823486,0.558929443359375,0.503655731678009,0.6748208999633789,-0.13470229506492615,0.18781299889087677
26.95,-0.7530015707015991,1.1032699346542358,-3.2549400329589844,-0.1662142276763916,-1.2966924905776978,0.49688634276390076
27.0,-0.5659300088882446,1.8932603597640991,-1.1896320581436157,-1.2147027254104614,-0.8757613301277161,0.31699374318122864
27.05,-0.732663094997406,-0.4190579354763031,0.08320745080709457,-1.2797744274139404,-0.3815982937812805,0.9461761713027954
27.1,0.47816532850265503,-0.8489506244659424,1.9060325622558594,-0.9285646677017212,0.5712980031967163,0.663844883441925
27.15,1.6456494331359863,-1.9353668689727783,0.28291797637939453,0.18548160791397095,0.15211139619350433,0.35211485624313354
27.2,0.20958632230758667,-1.0528632402420044,-0.21981415152549744,0.9092438817024231,-0.2251097559928894,0.4044824242591858
27.25,0.3985879719257355,-1.0448150634765625,-1.5899882316589355,1.1415479183197021,-0.1449863463640213,0.5500648021697998
27.3,1.204682469367981,-0.31205931305885315,-0.8342102766036987,0.991673469543457,0.007031895685940981,0.473882257938385
27.35,0.8928074240684509,0.26334482431411743,0.14618003368377686,0.6661228537559509,0.2020643800497055,0.8672057390213013
27.4,-0.3476202189922333,1.5190956592559814,0.16826193034648895,0.47771739959716797,0.6288936734199524,1.238969087600708
27.45,2.6464622020721436,2.087735891342163,-4.228692054748535,0.2854002118110657,1.2723690271377563,0.6762229204177856
27.5,0.8808503150939941,0.8199094533920288,-2.417358875274658,-1.5948846340179443,1.9699946641921997,-0.6120694875717163
27.55,-0.25507307052612305,0.3659619987010956,0.6685150265693665,-2.640573740005493,1.1218920946121216,-1.3778550624847412
27.6,-0.7796847820281982,0.25142255425453186,4.018353462219238,-2.0081639289855957,-0.34880781173706055,-0.8277962803840637
27.65,0.9549099206924438,-1.784161925315857,2.3749918937683105,-0.016737930476665497,-1.8322490453720093,0.16355042159557343
27.7,0.4253932535648346,-0.3234920799732208,0.24118131399154663,0.40444016456604004,-1.539049744606018,-0.39647331833839417
27.75,-1.4481170177459717,0.6909904479980469,-0.23060059547424316,0.16441285610198975,-0.6685178875923157,-0.23679770529270172
27.8,-0.21045826375484467,0.25470829010009766,0.23716765642166138,0.23878292739391327,-0.06417571753263474,0.6480474472045898
27.85,1.5661152601242065,-2.402754068374634,0.5100125670433044,0.8297156691551208,0.17838098108768463,0.94633948802948
27.9,2.245974063873291,-2.6898112297058105,-1.5018366575241089,0.6887319684028625,-0.2559402585029602,0.8830738067626953
27.95,-1.7092208862304688,-2.025660276412964,0.08008980751037598,0.8014024496078491,-0.16374987363815308,0.5656895637512207
28.0,-2.876156806945801,0.8323847055435181,4.877744197845459,1.062220573425293,0.1085100993514061,0.6948785781860352
28.05,1.8420071601867676,-0.7088785767555237,1.3936954736709595,1.0748094320297241,0.1930810511112213,0.9590768814086914
28.1,1.570689082145691,1.5303205251693726,-1.3936575651168823,1.0237218141555786,0.12077107280492783,0.48844167590141296
28.15,1.216956615447998,2.742703914642334,-2.7471678256988525,0.29068276286125183,0.2998718023300171,0.07740508764982224
28.2,2.234682321548462,1.7463871240615845,-3.439556360244751,-0.5402951240539551,0.2550860345363617,-0.3591209650039673
28.25,0.02436649799346924,0.7607854008674622,-2.588608503341675,-1.056381344795227,-0.041455794125795364,-0.8010379076004028
28.3,1.915147304534912,-0.11027033627033234,-1.2063583135604858,-0.7964326739311218,0.004605832044035196,0.2926020324230194
28.35,2.551635265350342,0.42909830808639526,-0.11302574723958969,-0.49017465114593506,-0.20624761283397675,0.7452322840690613
28.4,-0.6742081642150879,3.0045390129089355,-1.0582720041275024,-0.20231273770332336,-0.6314928531646729,-0.882445752620697
28.45,-2.4702067375183105,3.2714521884918213,1.0799109935760498,-1.012890100479126,-0.4478800296783447,-1.6487222909927368
28.5,1.5300449132919312,-2.297987461090088,3.7897822856903076,-1.5921974182128906,0.4109944999217987,-0.09007438272237778
28.55,-1.0752490758895874,-2.50321102142334,1.7148877382278442,-0.9740183353424072,-0.059471674263477325,-1.3722319602966309
28.6,-0.6162109375,-2.6546430587768555,2.403041124343872,-0.2568731904029846,0.15193422138690948,-1.9376901388168335
28.65,-2.4440150260925293,-0.515488862991333,1.1646113395690918,0.7120877504348755,-0.6968839168548584,-0.18189632892608643
28.7,5.611530303955078,-2.6970455646514893,-2.596626043319702,0.6381818056106567,-0.9342085719108582,1.4693156480789185
28.75,0.4523674249649048,-2.6516964435577393,0.5746355056762695,0.15900634229183197,1.1574651002883911,-0.18132349848747253
28.8,-3.8587403297424316,0.9667434096336365,-0.21713343262672424,0.6660481095314026,1.020479440689087,-1.091577410697937
28.85,-1.3698019981384277,0.2399321049451828,-0.9722920060157776,0.5607998967170715,-0.5313135385513306,0.05050886794924736
28.9,2.561997652053833,-1.188456416130066,-1.3834216594696045,0.4268798828125,-0.33098962903022766,0.6810586452484131
28.95,1.8964588642120361,0.1365882307291031,-0.36097097396850586,0.24002325534820557,0.7561063766479492,-0.3332546353340149
29.0,0.03944530338048935,2.401568651199341,-0.19475553929805756,0.15794622898101807,0.7909764647483826,-1.0715570449829102
29.05,-1.2814573049545288,3.222588062286377,0.7401619553565979,-0.2701551616191864,0.42218485474586487,-0.2692212462425232
29.1,0.32540833950042725,0.7416954636573792,0.42291563749313354,-0.2954217195510864,-0.17277461290359497,0.5603992938995361
29.15,0.6262045502662659,-1.2711670398712158,1.987726092338562,0.24472975730895996,-0.05853239819407463,0.6577683687210083
29.2,2.0341668128967285,-3.0864028930664062,1.2921773195266724,1.3239914178848267,0.07084017992019653,0.38212060928344727
29.25,-0.21400697529315948,-1.1256725788116455,0.8811686635017395,1.4578913450241089,-0.1266561597585678,-0.2833026051521301
29.3,-0.4905107021331787,-1.2632676362991333,-0.2545517683029175,1.6030588150024414,-0.4238003194332123,0.5317180156707764
29.35,2.739879608154297,-1.8460001945495605,-1.8257578611373901,1.260185718536377,-0.9705787301063538,1.2525242567062378
29.4,2.1994986534118652,-1.8878154754638672,-1.3577841520309448,1.020674705505371,-0.3907756507396698,1.007802128791809
29.45,1.6537177562713623,-1.4351911544799805,-0.1397208720445633,1.235992193222046,-0.6229502558708191,0.5237743854522705
29.5,-0.6684170961380005,-0.3789379596710205,1.8128798007965088,1.313986897468567,-0.3864145576953888,0.4967457950115204
29.55,-0.6984542608261108,3.126492738723755,1.1993337869644165,1.3193811178207397,-0.08702915161848068,0.5806907415390015
29.6,1.7898950576782227,6.480653762817383,-2.0435800552368164,0.779613196849823,0.4835016131401062,0.4501369893550873
29.65,-0.19557827711105347,5.960279941558838,-1.5682482719421387,-0.8765342235565186,1.5441224575042725,-0.7248218059539795
29.7,-1.871649146080017,1.1789464950561523,-0.14741171896457672,-2.214949131011963,0.8775789737701416,-1.0239477157592773
29.75,-0.9999564290046692,-2.291823387145996,1.3858041763305664,-1.910949945449829,-0.2806171178817749,-0.428378164768219
29.8,0.3593630790710449,-3.496633529663086,0.891169548034668,-0.3229280710220337,-0.6007983684539795,-0.2111058533191681
29.85,2.4380924701690674,-3.771902322769165,-3.1523919105529785,0.880477249622345,-0.9366664886474609,0.13802599906921387
29.9,1.9530980587005615,-2.5183210372924805,-1.028005838394165,0.819902241230011,-0.3715880215167999,0.5651785135269165
29.95,-1.14616060256958,-2.0071523189544678,-0.9133784770965576,0.8917341828346252,-0.2732744514942169,0.5604844689369202
30.0,1.1506710052490234,-1.2308950424194336,-0.243063285946846,1.0561363697052002,-0.3389822542667389,0.5220121145248413
30.05,-1.0403218269348145,0.3064459264278412,1.5574601888656616,1.191128134727478,-0.33824843168258667,0.5412099957466125
30.1,0.09249889850616455,3.034707546234131,0.9275439381599426,1.0821430683135986,-0.15149669349193573,0.5208376049995422
30.15,2.8126604557037354,6.701117038726807,-2.6064891815185547,0.42854204773902893,0.7397128939628601,0.5644516944885254
30.2,-0.5963535308837891,6.490861892700195,-2.79154634475708,-0.8476173877716064,1.6960211992263794,-0.5678704380989075
30.25,-2.089096784591675,2.656282663345337,-2.242995500564575,-1.912770390510559,0.8394145965576172,-1.4443082809448242
30.3,-1.2892433404922485,-1.4041244983673096,0.5189486742019653,-2.207728624343872,0.12126456946134567,-1.3920676708221436
30.35,-1.418226718902588,-3.9541497230529785,0.42427515983581543,-1.4426484107971191,-1.1165289878845215,-0.9898329973220825
30.4,0.25239670276641846,-7.007388114929199,1.5303341150283813,-0.4414713680744171,-1.3864091634750366,0.39504748582839966
30.45,3.6157190799713135,-5.870945453643799,1.0331883430480957,0.7659962177276611,-0.4490346312522888,0.5958223938941956
30.5,-3.4196853637695312,-0.7347471714019775,0.6799355149269104,1.3479955196380615,-0.1508321464061737,0.2580792307853699
30.55,-0.9014875888824463,1.709025502204895,1.1493403911590576,1.385314702987671,-0.041301023215055466,0.47635525465011597
30.6,2.2583539485931396,3.246985912322998,1.005565881729126,1.1656237840652466,-0.001356495195068419,0.057331979274749756
30.65,0.7586376667022705,2.526639223098755,-1.0088053941726685,0.678232729434967,-0.03226734325289726,0.08486774563789368
30.7,2.12616229057312,-0.09023450314998627,-2.163870096206665,0.4909227192401886,-0.12756909430027008,0.28430435061454773
30.75,2.7169692516326904,-1.3404206037521362,-0.8932073712348938,0.8521910309791565,0.2871234714984894,0.33702507615089417
30.8,2.5351858139038086,-3.4351425170898438,0.8408792614936829,2.1646575927734375,1.8275569677352905,0.16068129241466522
30.85,2.020487070083618,-4.9836297035217285,-0.41303589940071106,3.9871060848236084,2.304086208343506,0.6533333659172058
30.9,1.9528852701187134,-4.454071998596191,-3.012587308883667,5.144690990447998,2.0485153198242188,1.5115766525268555
30.95,-0.7542020082473755,0.4490693211555481,-3.6157126426696777,5.382338523864746,1.9943301677703857,1.6365280151367188
31.0,0.0055359601974487305,2.3099100589752197,-1.3898208141326904,3.6799044609069824,1.3633164167404175,1.502868890762329
31.05,-0.016110390424728394,5.200759410858154,0.7810806035995483,2.48038911819458,1.2633498907089233,1.0937587022781372
31.1,-2.062483310699463,6.848325729370117,1.8027044534683228,0.8896098136901855,0.9557428956031799,1.1337051391601562
31.15,-3.9109878540039062,7.5714850425720215,1.4081382751464844,-0.7396755814552307,0.09097900986671448,1.162462592124939
31.2,-3.830228567123413,9.057971954345703,-0.587723970413208,-1.928072452545166,-0.9285666942596436,0.058050014078617096
31.25,-1.0163860321044922,9.882455825805664,-2.7783923149108887,-2.958467721939087,-1.3484711647033691,-0.9685488343238831
31.3,2.621799945831299,8.458640098571777,-5.213958740234375,-4.471670150756836,-1.6261893510818481,-1.6587804555892944
31.35,5.7380266189575195,2.555736541748047,-5.679166316986084,-6.0194292068481445,-1.6394749879837036,-1.8031083345413208
31.4,5.375239849090576,-3.898723602294922,-2.482220411300659,-6.511635780334473,-1.3101632595062256,-2.0427613258361816
31.45,2.5678515434265137,-5.252273082733154,1.3414545059204102,-5.5612921714782715,-0.8344123363494873,-2.3462917804718018
31.5,0.3446659445762634,-5.306243419647217,2.3566532135009766,-4.306036472320557,-0.8571439385414124,-1.7257689237594604
31.55,-0.23328208923339844,-4.927473068237305,2.85721492767334,-3.1102216243743896,-0.7434374094009399,-1.1101869344711304
31.6,0.21098870038986206,-2.4853999614715576,0.3958316147327423,-1.9836881160736084,-0.6251158118247986,-0.8472682237625122
31.65,0.16155637800693512,-2.271205186843872,-0.8029853105545044,-2.0017385482788086,-0.06820053607225418,-0.34443461894989014
31.7,-0.8039237260818481,-2.2435407638549805,-2.1829936504364014,-2.0769453048706055,-0.1817818433046341,-0.3495686948299408
31.75,-0.7786482572555542,-1.5041849613189697,-0.3296971321105957,-2.231142282485962,0.7205959558486938,-0.06555604189634323
31.8,-1.962790846824646,-0.2717830538749695,0.6933619379997253,-2.1206986904144287,0.6025656461715698,0.33673185110092163
31.85,-0.9112462401390076,-1.7517142295837402,3.2025105953216553,-1.6018660068511963,0.11268439888954163,1.5477294921875
31.9,3.9363811016082764,-3.3531270027160645,2.0743839740753174,-0.1886698603630066,-0.9148699641227722,1.8100836277008057
31.95,0.5262911319732666,-1.4509371519088745,-3.075525999069214,-0.16410204768180847,-1.083755612373352,-0.43357977271080017
32.0,-1.525329351425171,-2.631622076034546,4.160675048828125,-1.1345981359481812,0.9132028222084045,-0.19547708332538605
32.05,-0.8838074803352356,-2.807407855987549,3.6545746326446533,0.7954728007316589,-0.16849495470523834,0.2076745480298996
32.1,1.5690128803253174,-3.2138028144836426,0.16812844574451447,2.026977777481079,-0.4107845723628998,0.5181124806404114
32.15,-0.00995945930480957,-1.099851369857788,-4.7231950759887695,1.9329099655151367,0.07751648873090744,-0.2184392809867859
32.2,-0.7879678010940552,3.079819440841675,-4.514628887176514,1.0013262033462524,0.5941184163093567,-0.7437525987625122
32.25,-0.14109113812446594,1.2610026597976685,0.4642963707447052,-0.382573664188385,0.46868985891342163,0.3173505365848541
32.3,4.0502095222473145,-3.067735195159912,2.725909948348999,-0.22978323698043823,0.20654721558094025,1.5128989219665527
32.35,1.1655288934707642,-1.0606889724731445,-1.2913036346435547,0.5191284418106079,0.07274056226015091,0.4165036380290985
32.4,0.12191630154848099,-2.1436798572540283,-0.367766797542572,-0.2129155695438385,0.1686840057373047,0.4313064217567444
32.45,-1.27366042137146,0.3939027786254883,-0.10507621616125107,-0.1082857996225357,-0.5330941081047058,0.21950359642505646
32.5,0.2837653160095215,3.189696788787842,0.9293161034584045,-0.08257953822612762,0.02461419627070427,0.7184667587280273
32.55,2.859097480773926,4.862555027008057,0.08504290878772736,-0.08284527063369751,1.0957180261611938,0.8655107021331787
32.6,2.0070714950561523,5.204091548919678,-1.3935567140579224,-0.02076786756515503,1.3723777532577515,-1.1651140451431274
32.65,-1.0515079498291016,3.3204522132873535,-1.7853803634643555,-0.6926180720329285,0.4123506546020508,-2.2394909858703613
32.7,-3.6556034088134766,0.36119920015335083,0.5632886290550232,-1.4500669240951538,-0.41176143288612366,-1.0560578107833862
32.75,-3.6450648307800293,-4.605284214019775,2.149092674255371,-1.4264366626739502,-0.9402132034301758,0.7187113761901855
32.8,-1.1296560764312744,-4.551672458648682,5.524020671844482,-0.29678428173065186,-0.9302616119384766,0.9174274802207947
32.85,3.912773609161377,-4.0875678062438965,3.201735258102417,1.4697757959365845,-0.45996978878974915,1.0411934852600098
32.9,3.226254940032959,-1.7838398218154907,-5.241703510284424,1.5999714136123657,-0.10129818320274353,0.37105730175971985
32.95,1.160510778427124,-2.0053157806396484,-2.8395721912384033,-0.208486407995224,0.7666479349136353,0.1261875033378601
33.0,0.12931644916534424,-1.7755732536315918,2.705726146697998,-1.0188205242156982,0.29320067167282104,0.10184219479560852
33.05,0.7053985595703125,-2.3254384994506836,3.3761346340179443,-0.09614145755767822,0.21448619663715363,0.8522378206253052
33.1,2.0605111122131348,-2.770360231399536,-0.32632017135620117,0.7415987253189087,0.5229271650314331,1.0311243534088135
33.15,-1.508353352546692,-1.2811919450759888,-0.788914144039154,0.40041425824165344,0.4294112026691437,0.04250025004148483
33.2,-3.9607367515563965,-2.0010385513305664,0.6087797284126282,0.5775431394577026,0.21015676856040955,0.6004362106323242
33.25,-0.7413825988769531,-2.048051595687866,-1.143519639968872,1.2344486713409424,-0.529732882976532,2.111294746398926
33.3,2.377379894256592,1.3801766633987427,2.0146656036376953,0.9639874696731567,-0.13553299009799957,1.8705341815948486
33.35,2.2569446563720703,1.4784611463546753,4.990918159484863,0.715186357498169,0.7755448222160339,1.5332772731781006
33.4,-0.8519516587257385,2.276547431945801,3.0370802879333496,1.270616054534912,1.5459935665130615,1.4243327379226685
33.45,-2.771206855773926,1.5068941116333008,1.416487455368042,1.2736402750015259,1.506679892539978,1.901856541633606
33.5,-2.99908447265625,1.1024800539016724,-2.3884406089782715,1.7340211868286133,0.4839642345905304,2.3173389434814453
33.55,1.142338514328003,0.9534676671028137,-1.8112685680389404,1.4976112842559814,-0.22950182855129242,2.0452425479888916
33.6,2.759697198867798,2.5304577350616455,0.96845543384552,1.212631106376648,0.81111741065979,1.000137448310852
33.65,2.467334270477295,0.5978441834449768,1.7601327896118164,0.958737313747406,1.9233745336532593,0.5144456028938293
33.7,1.683140754699707,-3.125192165374756,0.2698330581188202,0.9694551825523376,2.065141439437866,0.9734055399894714
33.75,1.6150761842727661,-4.449736595153809,-1.6806453466415405,1.7335420846939087,1.7442216873168945,1.5341858863830566
33.8,-0.44781458377838135,-3.6170499324798584,-2.277386426925659,2.709766149520874,1.6232194900512695,1.4925848245620728
33.85,-1.14189612865448,-1.5194644927978516,-3.331515073776245,4.381875038146973,0.5127823948860168,1.200120210647583
33.9,-0.9603036642074585,2.7880377769470215,-4.017699241638184,5.556121349334717,-0.2340843230485916,0.6533758640289307
33.95,0.8016597628593445,4.668493747711182,-1.190280556678772,4.967099189758301,0.08712566643953323,0.5111614465713501
34.0,3.369558811187744,4.783107280731201,1.4509433507919312,3.596522808074951,0.6682637333869934,0.5262754559516907
34.05,-0.021417677402496338,1.0008344650268555,1.6933929920196533,2.09051513671875,1.5484226942062378,0.6499308347702026
34.1,-0.08457249402999878,-0.09777464717626572,1.611886978149414,1.727041244506836,1.4093657732009888,0.7406283617019653
34.15,-0.9806324243545532,-0.4069244861602783,1.7196763753890991,1.3280978202819824,1.2457534074783325,0.32904326915740967
34.2,0.13671553134918213,1.146783709526062,2.387120485305786,1.2153428792953491,0.9378595948219299,-0.1423739194869995
34.25,-0.666231095790863,2.113144874572754,3.244985342025757,0.4713727533817291,1.1032992601394653,-0.1603810340166092
34.3,-1.6813496351242065,2.7937850952148438,3.132411479949951,-0.6023143529891968,1.0298306941986084,-0.46456485986709595
34.35,-2.157931327819824,2.6316585540771484,2.7864997386932373,-1.4924501180648804,0.6873955726623535,-0.878818154335022
34.4,-0.4062361717224121,3.459892511367798,2.050867795944214,-1.989287257194519,0.13152320683002472,-1.1250532865524292
34.45,1.2729530334472656,5.258716106414795,1.1975351572036743,-2.573341131210327,-0.032273679971694946,-1.1156071424484253
34.5,1.163888692855835,5.369105815887451,-0.998163640499115,-3.5054564476013184,-0.30602216720581055,-1.006049633026123
34.55,1.7954257726669312,3.2495458126068115,-3.0005745887756348,-4.075191020965576,-0.6939393877983093,-0.7788388133049011
34.6,3.1950323581695557,1.4626442193984985,-4.118290901184082,-3.974893569946289,-0.6567649245262146,-0.6510841250419617
34.65,1.6475157737731934,0.3713039755821228,-4.185702323913574,-3.499986171722412,0.007936491630971432,-0.619009256362915
34.7,0.03729689121246338,-0.7347208857536316,-4.219111442565918,-2.9341492652893066,0.1889064908027649,-0.5520247220993042
34.75,-0.4227031469345093,-1.4655245542526245,-3.5800154209136963,-2.5314078330993652,0.08620265871286392,-0.29861021041870117
34.8,0.13802075386047363,-4.17079496383667,-2.4923315048217773,-2.247011423110962,-0.10395072400569916,-0.15589042007923126
34.85,0.5730648636817932,-8.35931396484375,0.9657440781593323,-1.6246222257614136,-0.07938071340322495,0.06084965914487839
34.9,1.169492483139038,-11.145216941833496,2.6695995330810547,0.1820436418056488,0.1572730392217636,0.1587437391281128
34.95,0.7019056677818298,-8.473569869995117,-1.1669037342071533,2.6334409713745117,0.3630545437335968,-0.014318433590233326
35.0,0.15173983573913574,-3.228830575942993,-3.3796472549438477,3.7554028034210205,0.4911625385284424,-0.04126305878162384
35.05,-0.14474260807037354,-0.35493364930152893,-1.8050322532653809,3.5094518661499023,0.5785450339317322,0.10566776245832443
35.1,1.5097037553787231,0.43875807523727417,-0.6208671927452087,3.4388821125030518,0.35579219460487366,0.40587177872657776
35.15,1.411699652671814,3.419834613800049,0.7388772368431091,3.57470440864563,0.5600221753120422,0.3455471396446228
35.2,-0.35663217306137085,3.80436635017395,2.350372552871704,3.0994529724121094,0.7859910130500793,0.1497320681810379
35.25,-1.5570625066757202,3.2252304553985596,2.4325110912323,2.3841822147369385,0.6185630559921265,0.2694452404975891
35.3,-1.575742244720459,2.098477363586426,2.669826030731201,1.5427939891815186,0.4561801850795746,0.5705968737602234
35.35,-2.106231927871704,2.837794065475464,3.607927083969116,0.8133105635643005,0.4081401824951172,0.5644856691360474
35.4,-2.0759387016296387,2.075632095336914,3.2881834506988525,-0.19741834700107574,0.07803284376859665,0.3446744978427887
35.45,-0.6750147342681885,0.8569220304489136,2.3393993377685547,-0.6486437916755676,-0.4078492522239685,-0.05253235250711441
35.5,1.0775960683822632,1.3969926834106445,1.8330134153366089,-0.4248850345611572,-0.5890533328056335,-0.4257928133010864
35.55,1.161299467086792,2.4434759616851807,1.0725626945495605,-0.3004271388053894,-0.44692131876945496,-0.4599435329437256
35.6,-1.5013387203216553,4.6977458000183105,0.837345540523529,-0.7794825434684753,-0.20402580499649048,-0.4777405858039856
35.65,-3.3154380321502686,7.202548980712891,-0.6688508987426758,-2.1773550510406494,-0.5906780362129211,-0.22239238023757935
35.7,1.7560038566589355,4.163118362426758,-3.9319653511047363,-3.8209242820739746,-1.888938546180725,0.3353655934333801
35.75,3.779391050338745,1.635736346244812,-4.821181774139404,-4.410402774810791,-1.7162350416183472,0.6085837483406067
35.8,2.9415574073791504,-2.5489957332611084,-4.689042091369629,-4.581778049468994,-0.7818068265914917,0.3365480303764343
35.85,2.6124637126922607,-7.215631008148193,-2.9498605728149414,-4.107953071594238,-0.3587387800216675,0.17151698470115662
35.9,-0.6475315093994141,-10.658519744873047,-0.04998616874217987,-2.7923150062561035,0.004950045142322779,-0.026406168937683105
35.95,-1.4799041748046875,-10.935821533203125,1.6640350818634033,-0.779904842376709,-0.11297045648097992,0.3383195400238037
36.0,0.5193883180618286,-7.155336380004883,0.8077935576438904,1.3154901266098022,-0.2071101814508438,0.7567874193191528
36.05,0.9379279613494873,-2.7662923336029053,-0.8439681529998779,2.5217807292938232,0.11924995481967926,0.6740208268165588
36.1,0.1674187183380127,-1.1647634506225586,-1.431624174118042,2.8116400241851807,0.35283052921295166,0.5668327808380127
36.15,0.10842770338058472,1.806165099143982,-1.8927786350250244,3.2895753383636475,0.15606689453125,0.5947972536087036
36.2,0.7321498394012451,4.12182092666626,-0.632172167301178,3.5604381561279297,-0.04783308878540993,0.41964972019195557
36.25,1.0706524848937988,6.629598617553711,0.2942580282688141,2.9599661827087402,0.4820667505264282,0.08956222236156464
36.3,-1.0140678882598877,8.82020378112793,1.1939271688461304,1.5564444065093994,0.9149273037910461,0.10725202411413193
36.35,-2.459336757659912,6.809712886810303,1.8224648237228394,0.024563558399677277,0.5908627510070801,0.2087835818529129
36.4,-1.7983238697052002,6.28778076171875,1.6670327186584473,-0.880026638507843,0.2349092662334442,0.14479435980319977
36.45,-1.963306188583374,6.0918474197387695,0.3566799759864807,-1.5594801902770996,-0.06789136677980423,-0.12814873456954956
36.5,-1.0713660717010498,4.841169834136963,-1.7022526264190674,-2.2748942375183105,-0.7957814931869507,-0.27760642766952515
36.55,2.081716775894165,3.0068795680999756,-3.1583526134490967,-2.805424451828003,-1.1999211311340332,-0.2694051265716553
36.6,3.655454158782959,0.8561339974403381,-3.1180336475372314,-3.1395750045776367,-0.6781256794929504,-0.37675005197525024
36.65,0.8463024497032166,-0.8092582821846008,-3.1006314754486084,-3.203502893447876,-0.01231666561216116,-0.8027305603027344
36.7,0.5150648355484009,-1.631251335144043,-3.136326551437378,-3.010470151901245,-0.07187671214342117,-0.9508305788040161
36.75,0.823623538017273,-2.453805446624756,-2.3709700107574463,-2.911860942840576,-0.11519628763198853,-1.033515453338623
36.8,0.7860110998153687,-3.0575594902038574,-0.6476534008979797,-2.7724316120147705,-0.04358521103858948,-1.2318263053894043
36.85,-0.4944331645965576,-3.5210652351379395,0.49904075264930725,-2.4352753162384033,-0.05376316234469414,-1.3573951721191406
36.9,-1.268686294555664,-3.7586348056793213,1.123195767402649,-1.9531396627426147,-0.09339331835508347,-1.2725684642791748
36.95,-1.0412700176239014,-4.406070232391357,3.4046449661254883,-1.3601597547531128,-0.15529555082321167,-0.9186943173408508
37.0,-3.037231206893921,-2.8029301166534424,3.712768077850342,-0.26110950112342834,-0.24299415946006775,-0.49448361992836
37.05,-3.4442086219787598,1.8704253435134888,-0.24487097561359406,0.6306145787239075,-0.32329225540161133,-0.36358001828193665
37.1,1.154069185256958,4.032193660736084,-2.1014058589935303,0.25098592042922974,-0.324555903673172,-0.5784201622009277
37.15,2.546743154525757,3.020354986190796,-0.9105778932571411,-0.5960004925727844,-0.27082234621047974,-0.8746291399002075
37.2,-0.4967104196548462,1.5311137437820435,1.1735813617706299,-0.954905092716217,-0.16105486452579498,-1.0214719772338867
37.25,-0.10729473829269409,-0.8010056614875793,2.4589037895202637,-0.3776746392250061,-0.5021476149559021,-0.7593479752540588
37.3,0.7734806537628174,-2.4073421955108643,1.0722551345825195,0.5690550208091736,-0.857399046421051,-0.7993970513343811
37.35,-0.21722367405891418,-1.98332941532135,-1.113285779953003,0.9636583924293518,-0.7881804704666138,-1.1453845500946045
37.4,-1.4841430187225342,-3.013009548187256,-0.5323948860168457,0.8541676998138428,-0.6320949196815491,-0.630497395992279
37.45,0.05745363235473633,-5.777035236358643,-1.677364468574524,1.2429262399673462,-0.9359901547431946,0.4752828776836395
37.5,4.565289497375488,-8.310646057128906,-2.2838456630706787,2.1271934509277344,-0.3408237099647522,0.15136387944221497
37.55,4.444072246551514,-9.377591133117676,-1.6431809663772583,3.198086738586426,1.885256290435791,-0.7990365624427795
37.6,1.8904190063476562,-5.819662094116211,-3.3235092163085938,3.945463180541992,2.683222770690918,-0.02342665009200573
37.65,0.4969285726547241,0.14171919226646423,-3.739278793334961,4.080643177032471,2.1483192443847656,1.7613167762756348
37.7,-2.3427178859710693,7.401754379272461,-2.507150888442993,3.57574200630188,1.5530900955200195,2.2537717819213867
37.75,-6.696442604064941,12.754742622375488,-0.11921363323926926,1.6725375652313232,1.066369891166687,1.8471232652664185
37.8,-7.943014144897461,11.43848991394043,0.03359396383166313,-0.8454434275627136,0.15154847502708435,1.5722672939300537
37.85,-4.44270658493042,6.9975433349609375,-2.3365707397460938,-2.31845760345459,-1.2422585487365723,0.8792257308959961
37.9,1.0136313438415527,5.020269393920898,-4.205645561218262,-2.733989715576172,-1.7948499917984009,-0.18037955462932587
37.95,4.61362361907959,3.5650196075439453,-3.888253688812256,-3.1078991889953613,-1.5846165418624878,-1.3215736150741577
38.0,4.796269416809082,1.3420912027359009,-2.6976819038391113,-3.346201181411743,-1.4551407098770142,-1.9325518608093262
38.05,2.7765684127807617,-0.05099376663565636,-0.4827011823654175,-3.465020179748535,-1.1718719005584717,-2.006304979324341
38.1,1.3022260665893555,-1.0246307849884033,1.5877195596694946,-3.1820006370544434,-1.1000298261642456,-1.7875475883483887
38.15,0.44675636291503906,-1.4777711629867554,3.0471551418304443,-2.504777431488037,-1.1544761657714844,-1.7346458435058594
38.2,-0.7085875272750854,-1.275632381439209,3.6361746788024902,-1.9549119472503662,-0.7519991397857666,-1.4030848741531372
38.25,-0.614264965057373,-2.4574084281921387,4.1577911376953125,-1.6789233684539795,-0.0884408950805664,-0.5059057474136353
38.3,-0.49489569664001465,-3.496518850326538,3.753479242324829,-1.1164555549621582,-0.17360980808734894,-0.32879552245140076
38.35,-1.2517905235290527,-3.4431560039520264,3.1079485416412354,-0.5270320177078247,-0.20905108749866486,-0.2381640374660492
38.4,-1.1703486442565918,-4.097482204437256,3.0084261894226074,-0.08819448947906494,0.061504658311605453,0.764915943145752
38.45,-0.9384498596191406,-5.371432781219482,1.3367418050765991,0.6613218188285828,-0.5567085146903992,1.840139627456665
38.5,1.7070109844207764,-6.295113563537598,0.23238590359687805,1.5678553581237793,-0.5593537092208862,2.54547119140625
38.55,2.3629202842712402,-4.656105995178223,-1.1770870685577393,2.0638349056243896,-0.11950097978115082,1.7266671657562256
38.6,0.008820891380310059,-2.6828980445861816,-4.0527544021606445,2.2009105682373047,-0.33502909541130066,0.7508904337882996
38.65,0.8063658475875854,-2.5100879669189453,-3.6377205848693848,1.5203380584716797,-0.2981763780117035,0.8701420426368713
38.7,-0.10528522729873657,-2.7928225994110107,-0.6758531928062439,0.6333892345428467,-0.14238384366035461,-0.03753424808382988
38.75,-0.4016351103782654,-2.9348676204681396,0.413822740316391,0.4908260107040405,0.31810906529426575,0.11544842272996902
38.8,2.3175837993621826,-2.4309306144714355,-0.5843724608421326,0.6688053607940674,0.9360794425010681,0.9164113402366638
38.85,-0.07625047862529755,-0.5164518356323242,-0.45704346895217896,0.48855847120285034,0.47123974561691284,-0.3513534367084503
38.9,-2.5871481895446777,-0.5456717014312744,0.45014840364456177,0.3614858388900757,-0.1930391490459442,0.26556986570358276
38.95,-0.418091356754303,-0.7265729904174805,-1.1492351293563843,0.7951512932777405,-0.4997674524784088,2.193206787109375
39.0,0.6116399765014648,1.3238500356674194,-2.5433266162872314,0.8025763034820557,-0.26598531007766724,2.1703925132751465
39.05,3.636582374572754,0.260455459356308,-1.6704819202423096,0.2303851842880249,0.13246892392635345,2.738009452819824
39.1,3.91580867767334,-0.41315922141075134,-0.49345603585243225,-0.5232890844345093,1.815244197845459,3.1792476177215576
39.15,-0.05880892276763916,0.3702535033226013,1.2885464429855347,-2.2397491931915283,3.480220317840576,3.0841219425201416
39.2,-1.623587965965271,1.8056135177612305,1.7604639530181885,-3.1193692684173584,2.719853162765503,3.299058198928833
39.25,-1.594414234161377,2.762293815612793,2.343949317932129,-3.4963791370391846,1.3932242393493652,3.1792895793914795
39.3,0.22570109367370605,4.848690032958984,3.6368138790130615,-3.2294974327087402,0.6604084968566895,3.3888885974884033
39.35,0.6857472658157349,5.3244147300720215,1.2890572547912598,-1.5514010190963745,0.9351757764816284,2.3369057178497314
39.4,-0.6655998229980469,1.9867241382598877,0.08982899785041809,-0.3471238911151886,0.9163282513618469,0.055586107075214386
39.45,-2.2734150886535645,1.0474236011505127,-2.2924387454986572,0.6335657238960266,0.759667158126831,-1.1074382066726685
39.5,-2.481917381286621,1.6515096426010132,-2.302549123764038,1.1507983207702637,0.23455722630023956,-1.242079257965088
39.55,-0.952156662940979,-0.6359196901321411,0.2597552537918091,0.7826564311981201,-0.0011369390413165092,-0.5747049450874329
39.6,-0.08055132627487183,-1.336356282234192,-0.733871579170227,0.7105453014373779,0.51578289270401,0.2871459722518921
39.65,0.31982460618019104,-0.2160463184118271,-0.3292733430862427,0.6520602703094482,0.6837339401245117,0.1268039494752884
39.7,-0.254656046628952,0.3588123023509979,0.7322123646736145,0.8593404293060303,0.8670204281806946,-0.19838406145572662
39.75,-0.4636433720588684,1.5138790607452393,-0.30957046151161194,1.5132064819335938,1.2057569026947021,-0.036225926131010056
39.8,1.5540904998779297,3.2683675289154053,-1.869907259941101,1.6949706077575684,0.8394290804862976,-0.4614050090312958
39.85,-2.033416748046875,0.985289454460144,1.5682653188705444,0.6747640371322632,-0.40087446570396423,-2.2685370445251465
39.9,-3.2485058307647705,-0.7599311470985413,3.296968460083008,-0.9289985299110413,-0.7009050250053406,-1.781819224357605
39.95,-0.672901451587677,-2.022240161895752,3.304269552230835,-2.014441728591919,0.08494933694601059,0.41714388132095337
40.0,0.7376021146774292,-2.0058321952819824,1.985588550567627,-0.977475106716156,0.36526021361351013,1.8602566719055176
40.05,1.974073886871338,-0.1983487755060196,-2.068096399307251,0.2631837725639343,0.1571972668170929,1.4924026727676392
40.1,-0.07144474983215332,1.1677048206329346,-1.9681137800216675,-0.20482060313224792,0.02985757775604725,0.3946171998977661
40.15,-0.9329214692115784,0.7829620242118835,-1.05241060256958,-0.3313324749469757,0.02190987765789032,0.5907442569732666
40.2,-0.5155388712882996,0.7157984972000122,-1.2782100439071655,-0.5749726891517639,0.04974396154284477,0.7939009666442871
40.25,-1.4524729251861572,1.8488725423812866,-1.9839974641799927,-1.2785382270812988,0.08991256356239319,0.8583422303199768
40.3,-1.2962892055511475,2.2582104206085205,-0.8579226732254028,-1.354638695716858,-0.070627860724926,1.1438709497451782
40.35,-0.6653650403022766,0.5910378098487854,-0.07048734277486801,-0.8867676258087158,-0.27313944697380066,1.0029582977294922
40.4,-1.4608205556869507,0.46649080514907837,-0.9550069570541382,-1.2099716663360596,-0.3402262330055237,0.8846198916435242
40.45,-0.7736149430274963,1.72860848903656,-1.8569587469100952,-2.013204336166382,-0.2864226698875427,1.5367974042892456
40.5,1.0238981246948242,0.8462842106819153,-1.8032426834106445,-2.302626132965088,-0.11655499041080475,1.9110708236694336
40.55,1.860381007194519,-0.6038236021995544,-0.6442210674285889,-1.8845125436782837,-0.03543529286980629,1.4218106269836426
40.6,1.5056273937225342,-1.6262753009796143,0.17052564024925232,-0.7244729995727539,-0.12997181713581085,0.7521963715553284
40.65,0.7851187586784363,-1.2161275148391724,0.2477036416530609,0.6147423386573792,-0.21979157626628876,0.6333152055740356
40.7,0.5561450719833374,-0.8657065629959106,-0.0262693352997303,1.462060809135437,0.23614290356636047,0.7942493557929993
40.75,0.4432538151741028,-0.441898375749588,-0.3018343150615692,2.012573480606079,0.816342830657959,1.0159627199172974
40.8,0.9085677266120911,0.853997528553009,-1.6500993967056274,2.1653261184692383,1.0373789072036743,1.0410219430923462
40.85,1.1627047061920166,1.040213942527771,-1.9167813062667847,1.544808030128479,0.6151486039161682,0.654946506023407
40.9,0.9703083634376526,1.2387192249298096,-1.4656726121902466,1.0023937225341797,-0.09705760329961777,0.18831394612789154
40.95,0.8697012662887573,2.2549052238464355,-1.4674307107925415,0.6517161130905151,-0.8299717903137207,-0.7830467820167542
41.0,0.15127894282341003,0.5766469836235046,-1.2934842109680176,0.27039915323257446,-1.9969067573547363,-2.564793825149536
41.05,-0.7553107738494873,-1.1191035509109497,-0.5633726716041565,-1.050939917564392,-2.925891399383545,-3.9307034015655518
41.1,-0.12485244870185852,-0.9250069856643677,0.13443996012210846,-1.6776803731918335,-2.8421239852905273,-4.273700714111328
41.15,-1.1066620349884033,-1.2420952320098877,1.0072486400604248,-1.123181700706482,-2.6125597953796387,-4.3559465408325195
41.2,-3.1214914321899414,-0.66279536485672,1.1856961250305176,-1.012834072113037,-2.0449111461639404,-3.358041524887085
41.25,-3.134671211242676,-1.0070947408676147,1.812388300895691,-1.1812077760696411,-0.37670961022377014,-1.8436806201934814
41.3,-1.9969719648361206,-1.8761979341506958,3.1440036296844482,-0.22178174555301666,1.2779384851455688,-0.6590613126754761
41.35,0.4367638826370239,-2.8825013637542725,1.5890369415283203,1.328028678894043,1.5602190494537354,0.15787149965763092
41.4,0.2097473442554474,-2.6181747913360596,-0.2618043124675751,1.6909106969833374,0.093300960958004,-0.1370897740125656
41.45,0.6482630968093872,-3.1480953693389893,-1.6352978944778442,0.8924061059951782,-1.0599784851074219,-1.0044523477554321
41.5,-0.522606611251831,-1.2904425859451294,-0.710835337638855,-0.957700788974762,-2.067810297012329,-1.9891959428787231
41.55,-0.3034568130970001,2.2995216846466064,0.67799311876297,-1.706882357597351,-1.9265761375427246,-1.7014942169189453
41.6,-0.8495748043060303,1.3074560165405273,0.3280506730079651,-0.3704237937927246,-1.3095673322677612,-0.6899896860122681
41.65,0.2081737071275711,-1.0169020891189575,-0.08320330828428268,0.5220884084701538,-0.9015259742736816,0.24623313546180725
41.7,1.2580949068069458,-0.9733991622924805,-0.532913863658905,0.652901291847229,-0.9444241523742676,0.19815124571323395
41.75,1.5556305646896362,-0.6162480711936951,-0.27268218994140625,0.4461796283721924,-0.8420154452323914,-0.19492824375629425
41.8,-0.4180382490158081,-1.4567395448684692,-0.7866189479827881,0.5684201717376709,-0.9822425246238708,-0.42075493931770325
41.85,-0.6474024057388306,-1.0321532487869263,-0.7958977818489075,0.6551147699356079,-0.7929355502128601,-0.3702660799026489
41.9,-0.5728842616081238,-0.4945431351661682,-0.29547515511512756,0.6927701234817505,-1.0976170301437378,-0.39176517724990845
41.95,-0.18421800434589386,-0.09805109351873398,-0.031099235638976097,0.7529657483100891,-1.3169965744018555,-0.34455984830856323
42.0,0.41697731614112854,0.03850944712758064,-0.7011354565620422,0.7030573487281799,-0.9312027096748352,-0.30908751487731934
42.05,0.3635163903236389,0.5422269105911255,-0.4405554234981537,0.35241615772247314,-0.1543290913105011,-0.3881262540817261
42.1,0.03810814768075943,0.4975891411304474,0.2162206619977951,0.009415477514266968,0.05477725341916084,-0.31958311796188354
42.15,-0.09175347536802292,0.4286241829395294,0.1641673594713211,0.06437747180461884,-0.23914949595928192,-0.22369244694709778
42.2,0.38106757402420044,0.12072187662124634,-0.3691243827342987,0.2885904908180237,-0.3931737244129181,-0.0766361653804779
42.25,0.5147470235824585,-0.10524458438158035,-0.5661227107048035,0.2667391002178192,-0.23948431015014648,-0.13848917186260223
42.3,0.3200107216835022,-0.2461729198694229,-0.04378101974725723,0.10788591206073761,-9.618543117539957e-05,-0.15070369839668274
42.35,-0.18853849172592163,-0.23027899861335754,-0.12614242732524872,0.12150220572948456,-0.10949456691741943,-0.08525099605321884
42.4,-0.10296682268381119,-0.050689686089754105,-0.31593066453933716,0.1383628398180008,-0.24437998235225677,-0.023311398923397064
42.45,0.29318132996559143,-0.05570981279015541,-0.24406760931015015,0.08068490773439407,-0.25440239906311035,0.009042061865329742
42.5,0.7314816117286682,-0.41042426228523254,-0.08745665103197098,0.05249661207199097,-0.23620958626270294,0.0010465843370184302
42.55,0.5001955628395081,-0.5610409379005432,0.0826125219464302,0.1556268334388733,-0.16689254343509674,-0.12209589779376984
42.6,-0.12187211215496063,-0.4644318222999573,-0.23351074755191803,0.2693069577217102,-0.21183325350284576,-0.1618182212114334
42.65,-0.6486603617668152,-0.02677058055996895,-0.5613633394241333,0.28429272770881653,-0.2783031165599823,-0.1882418394088745
42.7,-0.14612415432929993,0.2938385307788849,-0.04752456024289131,0.21818092465400696,-0.1651131957769394,-0.1766388863325119
42.75,0.1000378355383873,0.42699912190437317,0.30065399408340454,0.14720076322555542,-0.08503792434930801,-0.13143251836299896
42.8,0.3436928987503052,0.04551124945282936,0.19552074372768402,0.06609214097261429,-0.11420441418886185,-0.0008625657646916807
42.85,0.13732539117336273,-0.13068677484989166,0.024960190057754517,0.0542394258081913,-0.15079355239868164,-0.030332816764712334
42.9,-0.2501787841320038,-0.21715548634529114,-0.09032901376485825,0.052850209176540375,-0.16286787390708923,0.027234895154833794
42.95,-0.3742838203907013,-0.35610777139663696,0.2785058319568634,0.05351804941892624,-0.16102014482021332,0.20835740864276886
43.0,0.021761059761047363,1.8172063827514648,2.885765552520752,0.15059956908226013,-0.06088660657405853,0.3036423921585083
43.05,-0.34383130073547363,1.8593463897705078,2.709486246109009,0.23805829882621765,0.08645085990428925,0.4390616714954376
43.1,0.04992872476577759,1.0856571197509766,1.206710696220398,0.3527585566043854,0.1284644901752472,0.4515361189842224
43.15,0.5794388055801392,1.0769740343093872,0.3414209187030792,0.3632580041885376,0.10795392096042633,0.3800840973854065
43.2,0.1873628795146942,0.8779698610305786,0.15371747314929962,0.21159455180168152,0.058477990329265594,0.42859601974487305
43.25,0.3589192032814026,0.6707011461257935,-0.4490610361099243,0.04398226737976074,-0.00854798499494791,0.3616676926612854
43.3,0.5076575875282288,0.09575856477022171,-1.1286373138427734,-0.17364050447940826,0.0014868545113131404,0.1697799265384674
43.35,0.6762242913246155,-0.5946884155273438,-0.7010243535041809,-0.3524852693080902,0.1326262652873993,0.015191194601356983
43.4,-0.059293217957019806,-0.7128048539161682,-0.1369026005268097,-0.28671765327453613,0.20190736651420593,-0.10365019738674164
43.45,-0.7887653112411499,-0.8143474459648132,-0.05672357976436615,-0.0804520770907402,0.07218126952648163,0.10908138006925583
43.5,-0.38988998532295227,-0.828858494758606,-0.24873174726963043,0.15236510336399078,-0.09689156711101532,0.3854229748249054
43.55,0.9739955067634583,-0.6437415480613708,-1.0144634246826172,0.2360013723373413,-0.041325028985738754,0.3954481780529022
43.6,0.872177004814148,-0.5768975615501404,-1.3966015577316284,0.16208529472351074,0.037384215742349625,0.2718930244445801
43.65,0.8891588449478149,-0.28292930126190186,-1.2506599426269531,0.14714664220809937,0.0032376935705542564,0.20415452122688293
43.7,2.2841715812683105,1.482133150100708,-0.26653432846069336,-0.007806409150362015,-0.1394520103931427,0.10427720844745636
43.75,1.629793405532837,1.1168310642242432,-0.5069276690483093,-0.18770313262939453,-0.38283950090408325,-0.3867987096309662
43.8,1.5013148784637451,0.5917474031448364,-0.2690023183822632,-0.412996768951416,-0.2103528380393982,-0.7063031196594238
43.85,0.1085117757320404,0.36198899149894714,0.7527027726173401,-0.6729966998100281,0.31970134377479553,-0.9572288990020752
43.9,-1.9958076477050781,-0.18899275362491608,1.7383031845092773,-0.6267046928405762,0.578060507774353,-0.7225388884544373
43.95,-2.369476795196533,-0.7299283146858215,1.5411335229873657,-0.10960354655981064,0.22774969041347504,-0.15624068677425385
44.0,-0.8460858464241028,-0.5577470064163208,0.05960456654429436,0.359993577003479,-0.206273153424263,0.3046545088291168
44.05,0.3411273658275604,-0.26026439666748047,-0.20498739182949066,0.39050713181495667,-0.11667844653129578,0.3956131935119629
44.1,0.5398018956184387,-0.3852434754371643,0.1518400013446808,0.2653387486934662,0.05796993523836136,0.3245457708835602
44.15,0.3559548258781433,-0.04717729613184929,-0.13006336987018585,0.20049957931041718,0.020057106390595436,0.20215213298797607
44.2,-0.36156535148620605,0.14939500391483307,-0.1545962244272232,0.1352107673883438,-0.04317118972539902,0.07708323001861572
44.25,-0.3189886510372162,-0.18094637989997864,0.05321584641933441,0.22588738799095154,0.007919810712337494,0.14218689501285553
44.3,1.439788818359375,-0.337486207485199,-0.33519741892814636,0.3462298512458801,0.11408837139606476,0.1987764835357666
44.35,0.3077467679977417,-0.37636375427246094,-0.6401383876800537,0.4860230088233948,0.060141079127788544,0.20054489374160767
44.4,0.9430113434791565,-1.404784083366394,-2.4926557540893555,0.5774682760238647,0.08120785653591156,0.2711818814277649
44.45,0.4360620379447937,0.3669796884059906,-0.450663685798645,0.5452219247817993,0.004381166305392981,0.20000168681144714
44.5,0.19252988696098328,-1.3963985443115234,-0.882749080657959,0.5719234943389893,-0.1548803597688675,0.2671842873096466
44.55,-0.9073428511619568,-0.32402515411376953,-1.0187046527862549,0.47962644696235657,-0.02613740786910057,0.2695925235748291
44.6,-2.1092400550842285,0.24955371022224426,-1.233435869216919,0.5076741576194763,0.05208183079957962,0.4774952828884125
44.65,0.997957706451416,0.5431329011917114,-0.022175174206495285,0.45694252848625183,0.7994778752326965,1.0783580541610718
44.7,1.4267213344573975,2.968858242034912,-1.2806696891784668,0.1165878176689148,1.27848482131958,0.6432174444198608
44.75,-0.13843846321105957,2.6288723945617676,-2.4438841342926025,-0.906581461429596,1.4965543746948242,-0.20860305428504944
44.8,-0.7172762155532837,0.18201245367527008,1.142479658126831,-1.9570306539535522,0.9725071787834167,-0.6289660334587097
44.85,-1.9151638746261597,-2.7674901485443115,3.538034439086914,-1.0532407760620117,-0.45512545108795166,-0.7768041491508484
44.9,-0.4445333480834961,-2.78780460357666,3.1382925510406494,0.39637476205825806,-0.8538564443588257,-0.20244784653186798
44.95,0.3505597710609436,0.008222630247473717,-0.43811121582984924,1.154435396194458,-0.6448865532875061,0.07564842700958252
45.0,-0.16936135292053223,1.1724693775177002,-0.9750083684921265,0.6205200552940369,-0.14337095618247986,0.17517203092575073
45.05,-0.39454564452171326,0.6467905640602112,-0.46507886052131653,0.18524159491062164,-0.22186148166656494,0.13816912472248077
45.1,0.33663704991340637,0.516271710395813,-0.3379780054092407,0.15841463208198547,-0.3647812306880951,0.04282032698392868
45.15,0.5345283150672913,0.2915869653224945,-0.3544284403324127,0.11402148008346558,-0.2378079891204834,0.03657011687755585
45.2,1.2228866815567017,0.3113662302494049,-0.737118124961853,0.07638368010520935,0.011613748036324978,-0.032270751893520355
45.25,1.0395176410675049,1.1602528095245361,-1.6684589385986328,-0.056740373373031616,0.15634775161743164,-0.41475456953048706
45.3,0.6148837804794312,1.4794954061508179,-2.621854543685913,-0.6945152282714844,0.019547969102859497,-0.907428503036499
45.35,-1.0034353733062744,1.6771833896636963,-1.035265326499939,-1.8390229940414429,0.23067615926265717,-1.2678608894348145
45.4,-1.2315047979354858,0.4102238714694977,1.0920073986053467,-2.310912609100342,0.3944316506385803,-0.4600748121738434
45.45,-0.8618870973587036,-0.5360414385795593,1.3760886192321777,-1.8828431367874146,0.2542594373226166,0.33836695551872253
45.5,-0.7729523181915283,-0.5518618822097778,0.5723356604576111,-1.339402198791504,0.5406311750411987,0.7262988686561584
45.55,0.5891623497009277,-0.4943019449710846,1.5956087112426758,-1.1482832431793213,0.7392851114273071,1.1612309217453003
45.6,1.717586636543274,-1.0554295778274536,1.304878830909729,-0.2896260917186737,0.08316211402416229,0.6810998916625977
45.65,0.303214430809021,-1.1375962495803833,0.043408770114183426,0.39966124296188354,-0.46716177463531494,-0.1537753939628601
45.7,0.1040118932723999,-1.0089389085769653,-0.3570086658000946,0.2835737466812134,-0.4794410467147827,-0.1419837921857834
45.75,-0.21960240602493286,-1.691021203994751,-0.813502311706543,0.28098660707473755,-0.6684895157814026,-0.22294360399246216
45.8,0.2136404812335968,-2.4342434406280518,-1.4006415605545044,0.2843513786792755,-0.6569428443908691,0.18330423533916473
45.85,-1.614052176475525,-3.3398277759552,-5.1037983894348145,0.33158546686172485,-0.5894314646720886,0.25175026059150696
45.9,-0.5201438665390015,-3.672374963760376,-2.8950698375701904,0.17380866408348083,-0.1544344574213028,0.29194068908691406
45.95,-0.8587660789489746,-2.456664562225342,-2.679258346557617,0.28410428762435913,-0.37652185559272766,0.1268922984600067
46.0,-2.210951805114746,1.8847458362579346,-1.6457548141479492,0.1565271019935608,-0.5425925254821777,-0.5103616714477539
46.05,0.6231213808059692,1.938468098640442,1.4155596494674683,-0.2601277232170105,-0.1631208062171936,-0.4989612400531769
46.1,-1.2874977588653564,-0.23748423159122467,2.129183292388916,-0.023380011320114136,-0.43851032853126526,-0.8200786113739014
46.15,-0.24846616387367249,-1.241645097732544,1.5725337266921997,0.2500690519809723,-0.2398938089609146,-0.3631232678890228
46.2,0.490970641374588,-0.9478436708450317,0.16325530409812927,0.3333393335342407,0.0481904000043869,-0.10074788331985474
46.25,-0.1643986999988556,-0.361873596906662,-0.8012030124664307,0.17993491888046265,0.1962876319885254,-0.06386277079582214
46.3,-0.808808445930481,0.23603157699108124,-0.6139840483665466,-0.014180520549416542,-0.03673429414629936,-0.07459321618080139
46.35,-1.035524845123291,-0.569709837436676,-0.4805387854576111,-0.1172802746295929,-0.36724355816841125,0.08654201030731201
46.4,-0.9423430562019348,-2.243199110031128,-0.1778668612241745,0.04702151566743851,0.02021363191306591,-0.013257838785648346
46.45,-1.8412035703659058,-0.039256297051906586,1.4847023487091064,0.3469063639640808,0.14725956320762634,0.2787337601184845
46.5,-0.7779182195663452,-0.7770176529884338,-1.4742629528045654,0.503501296043396,0.07295490056276321,0.2496153712272644
46.55,0.3281128406524658,1.5046921968460083,1.1957447528839111,0.26502907276153564,0.22515755891799927,0.2928909361362457
46.6,1.2575842142105103,2.4063076972961426,-1.5107001066207886,0.020011350512504578,0.3236973285675049,0.4469757676124573
46.65,2.0876047611236572,-0.3177478611469269,-1.8160061836242676,-0.04219259321689606,0.41482648253440857,0.45913657546043396
46.7,2.5573172569274902,-1.0043429136276245,-0.9198799729347229,0.02514537051320076,0.4765101671218872,0.09932297468185425
46.75,0.7864738702774048,-1.0073041915893555,-1.0587947368621826,0.12178117036819458,0.23510292172431946,-0.3631040155887604
46.8,-0.561420738697052,-0.8140144944190979,-0.9050370454788208,0.11752918362617493,-0.05912497267127037,-0.30870476365089417
46.85,-0.25924956798553467,-0.7291308045387268,-0.3910830020904541,0.12275774776935577,-0.23759672045707703,-0.05873779579997063
46.9,0.6202476620674133,-0.7947178483009338,-0.12129755318164825,0.13990017771720886,-0.3297182023525238,0.12584999203681946
46.95,0.808925449848175,-0.6781196594238281,-0.6058186888694763,0.1384020447731018,-0.5284940004348755,-0.03554496541619301
47.0,0.29368457198143005,-1.0248565673828125,-0.6375256776809692,0.08224273473024368,-0.5677053928375244,-0.13632962107658386
47.05,-1.1373834609985352,-0.3636426627635956,-1.539015769958496,0.07631929218769073,-0.250024676322937,-0.23069939017295837
47.1,-1.336663842201233,0.1849411129951477,1.6667842864990234,0.03243672102689743,-0.11897753924131393,0.07179069519042969
47.15,-3.0017359256744385,2.3039023876190186,5.069189071655273,0.015801848843693733,0.037515729665756226,0.07555494457483292
47.2,-7.2903151512146,0.7661415338516235,2.1194205284118652,-0.04496198892593384,0.12399456650018692,0.17197516560554504
47.25,-5.72124719619751,-0.5256654620170593,-1.643665075302124,0.017998620867729187,0.38936126232147217,0.38852444291114807
47.3,0.3517642021179199,-0.761088490486145,0.14945924282073975,0.01992937922477722,0.83236163854599,0.7513595819473267
47.35,4.113897800445557,0.7241509556770325,-0.5637747645378113,0.23376436531543732,1.4074056148529053,0.2612273097038269
47.4,1.8178752660751343,1.1178964376449585,-2.266148805618286,-0.3573812246322632,1.6278423070907593,-0.3232693076133728
47.45,-0.4817531108856201,0.4493619501590729,-1.3620712757110596,-1.0518760681152344,1.0472369194030762,-0.5939960479736328
47.5,0.1613365113735199,0.026887889951467514,0.1895943433046341,-1.3177177906036377,0.2294759601354599,-0.5344441533088684
47.55,0.8966512084007263,-0.1817236989736557,1.7060458660125732,-1.2163678407669067,0.15234677493572235,-0.4022550582885742
47.6,0.21992647647857666,-0.4425795376300812,2.738477945327759,-0.7626237869262695,0.14794783294200897,-0.2174106389284134
47.65,-0.5864133834838867,-0.8404534459114075,1.990584373474121,0.1651168167591095,-0.30530866980552673,0.18366315960884094
47.7,0.36157938838005066,-0.5494547486305237,-0.07557670027017593,0.8538696765899658,-0.7733187079429626,0.3302229344844818
47.75,0.957565426826477,0.13529500365257263,-0.34547632932662964,0.9317463636398315,-0.6969754099845886,0.15646597743034363
47.8,1.0925424098968506,1.1813088655471802,-0.0956013947725296,0.7939478754997253,-0.2841154634952545,-0.038387324661016464
47.85,0.9953670501708984,0.9970476031303406,-0.06676706671714783,0.5620548129081726,-0.12246204167604446,-0.11837386339902878
47.9,0.8834789991378784,0.23782259225845337,0.1499573141336441,0.3233603835105896,-0.2012781798839569,-0.12252651154994965
47.95,0.35460516810417175,-0.2330312877893448,-0.08006849139928818,0.27829858660697937,-0.28270113468170166,-0.15513208508491516
48.0,0.3294905722141266,-0.33995723724365234,-0.34719422459602356,0.2049514651298523,-0.22284524142742157,0.02562219835817814
48.05,0.42049354314804077,-0.034896813333034515,-0.2677743434906006,0.13913682103157043,-0.1202886700630188,-0.050986044108867645
48.1,0.49572351574897766,0.13172537088394165,-0.32705140113830566,0.03897758573293686,-0.13071739673614502,-0.17501609027385712
48.15,1.1007219552993774,-0.33147335052490234,0.15497910976409912,-0.11137336492538452,0.035030100494623184,-0.12317660450935364
48.2,0.6413887739181519,-0.1673707664012909,-0.12397557497024536,-0.1337997317314148,0.10977961122989655,-0.2162318080663681
48.25,0.12744873762130737,0.2343912422657013,0.10174552351236343,-0.07795300334692001,0.17773877084255219,-0.22022785246372223
48.3,-0.12341350317001343,0.21245862543582916,0.06571092456579208,-0.0644293874502182,0.01842954382300377,-0.07366965711116791
48.35,0.1306544840335846,0.32867908477783203,0.3985651433467865,-0.06350166350603104,-0.1187768280506134,-0.013446680270135403
48.4,0.4854184687137604,0.11251642554998398,0.2174416184425354,0.03583305701613426,-0.19048084318637848,0.016036581248044968
48.45,0.458890438079834,-0.21111202239990234,-0.055610183626413345,0.04589083790779114,-0.2621643841266632,-0.030759435147047043
48.5,0.6072061657905579,-0.6355162262916565,0.2218693047761917,0.0450458899140358,-0.1603969782590866,0.03125734627246857
48.55,0.43565109372138977,-0.5124197006225586,-0.2544582486152649,0.08638229966163635,-0.14373639225959778,-0.023002395406365395
48.6,0.12508997321128845,-0.5508700013160706,0.03692030534148216,0.00043728481978178024,0.01192561350762844,-0.02606925554573536
48.65,-0.7380079627037048,-0.35876375436782837,-0.06611454486846924,-0.040079403668642044,-0.050894517451524734,0.06571292877197266
48.7,0.2529990077018738,-0.42155370116233826,0.5751139521598816,-0.00976630300283432,-0.005054695066064596,0.24725885689258575
48.75,0.7821259498596191,-0.1726999133825302,0.1463094800710678,0.12663650512695312,0.0010273082880303264,0.1710149347782135
48.8,0.7016545534133911,0.17053799331188202,-0.0006295290077105165,0.07826705276966095,0.08557534962892532,0.059719379991292953
