Time [s],Acc_x [m/s^2],Acc_y [m/s^2],Acc_z [m/s^2],Gyro_x [1/s],Gyro_y [1/s],Gyro_z [1/s]
0.0,0.0017372104339301586,0.12058353424072266,0.0013773414539173245,0.006345217581838369,0.00019142379460390657,0.0014964393340051174
0.025,0.004785545635968447,0.1252460479736328,-0.00200218940153718,0.006343479733914137,0.0002774268505163491,0.001496484619565308
0.05,-0.0003069836529903114,0.10982227325439453,0.0011359330965206027,0.006304997485131025,0.0021493786480277777,0.0015002492582425475
0.075,-0.0013777042040601373,0.11366939544677734,0.006006973795592785,0.006343550980091095,0.00027737009804695845,0.001496191369369626
0.1,-0.004179770592600107,0.11032676696777344,0.013727529905736446,0.006345333065837622,0.00019129157590214163,0.0014959672698751092
0.125,-0.02195332571864128,0.11145687103271484,-0.01001234631985426,0.006430984474718571,0.00019295854144729674,0.0014878414804115891
0.15,-0.011341785080730915,0.10907554626464844,-0.003327081212773919,0.008294622413814068,0.00023192327353172004,0.0013111797161400318
0.175,0.003754433710128069,0.10002326965332031,0.02787316031754017,0.0064310054294764996,0.00019282338325865567,0.001487767556682229
0.2,-0.004587193019688129,0.10650062561035156,0.02055933140218258,0.0063534872606396675,0.00019096815958619118,0.0015815197257325053
0.225,-0.02006491646170616,0.12996864318847656,0.0025624213740229607,0.006614129990339279,0.00027632684214040637,0.003437638282775879
0.25,-0.026922740042209625,0.1635875701904297,0.013486037030816078,0.0082619683817029,0.002190195955336094,0.0014032688923180103
0.275,-0.010491477325558662,0.15754413604736328,0.034445490688085556,0.006523066200315952,0.0002805645053740591,0.001565246842801571
0.3,0.006769812665879726,0.11263656616210938,0.04233940690755844,0.0084797078743577,0.00022918466129340231,0.003260262543335557
0.325,-0.011758494190871716,0.09917163848876953,0.047955408692359924,0.0064392173662781715,0.00019289125339128077,0.0015730406157672405
0.35,-0.03259504586458206,0.11252117156982422,0.05061492696404457,0.006431087851524353,0.00019297107064630836,0.001487391535192728
0.375,-0.021031737327575684,0.09276962280273438,0.055073775351047516,0.008294690400362015,0.00023276667343452573,0.0013105961261317134
0.4,-0.0028683748096227646,0.06371021270751953,0.03219115361571312,0.006516746245324612,0.0001946258416865021,0.001479226048104465
0.425,-0.019381055608391762,0.11845111846923828,0.015892259776592255,0.00838846992701292,0.0002344012464163825,0.0013881012564525008
0.45,-0.023819396272301674,0.1605358123779297,0.01531512662768364,0.008565397933125496,0.0002294469450134784,0.0032521283719688654
0.475,-0.02289736457169056,0.16019535064697266,0.01654433272778988,0.006439231336116791,0.00019240545225329697,0.001573043642565608
0.5,-0.014615975320339203,0.12140655517578125,0.025759298354387283,0.006353587843477726,0.000190614111488685,0.0015811612829566002
0.525,0.02251419425010681,0.1542062759399414,0.033864859491586685,0.006616178900003433,0.00018692968296818435,0.0034370431676506996
0.55,0.017893046140670776,0.1744403839111328,0.03236730396747589,0.008310920558869839,0.0002333431039005518,0.0014819302596151829
0.575,-0.015058326534926891,0.1620330810546875,0.03831303492188454,0.00670002494007349,0.00027465145103633404,0.0034293117932975292
0.6,-0.012448465451598167,0.13924503326416016,0.03889424726366997,0.00834471546113491,0.002279822016134858,0.0013991405721753836
0.625,0.0030768171418458223,0.12452030181884766,0.040645089000463486,0.00833665020763874,0.002279864391312003,0.0013134784530848265
0.65,-0.09243634343147278,0.11243247985839844,0.07213395088911057,0.006429467350244522,0.0002772057196125388,0.0014872713945806026
0.675,-1.029599666595459,0.21921920776367188,0.3629251718521118,0.006046075373888016,0.0006952027906663716,0.0011789447162300348
0.7,-2.3813138008117676,0.7504043579101562,1.0182393789291382,-0.00014415406621992588,0.012095969170331955,-0.005030778702348471
0.725,-1.3791691064834595,1.3423433303833008,1.1050115823745728,0.013732180930674076,0.006799248047173023,0.01645604707300663
0.75,-0.40664127469062805,0.726466178894043,0.3597547113895416,0.017324699088931084,0.004421223886311054,0.006960439495742321
0.775,0.003971440717577934,-0.1041116714477539,-0.2752460837364197,0.015984853729605675,-0.0008388465503230691,-0.0007963866228237748
0.8,0.8917838335037231,0.24694061279296875,-0.18990546464920044,-0.002475660527125001,0.012906121090054512,0.010072375647723675
0.825,1.0300172567367554,0.3634376525878906,-0.10675695538520813,0.005945304408669472,-0.015490712597966194,-0.0004897789913229644
0.85,0.6427095532417297,0.19204425811767578,-0.19764243066310883,0.004080694168806076,-0.014048666693270206,-0.006470491178333759
0.875,0.5152032375335693,0.19723033905029297,-0.181146502494812,0.009700850583612919,0.003763947868719697,-0.0029195714741945267
0.9,0.444553017616272,0.28333187103271484,-0.006416836753487587,0.007226386573165655,0.004185039084404707,0.005274043418467045
0.925,0.2825665771961212,0.23997211456298828,0.06049573794007301,0.0166724044829607,-0.0013028745306655765,0.0026423721574246883
0.95,0.2347051501274109,0.28589439392089844,0.1186225637793541,0.015380063094198704,0.0026043320540338755,0.0006422212463803589
0.975,0.25157588720321655,0.13929462432861328,0.0456831268966198,0.025978518649935722,0.008561392314732075,-0.0024808498565107584
1.0,0.11243563145399094,0.19241619110107422,0.03647357225418091,0.01072895061224699,0.0006606137030757964,-0.002772848354652524
1.025,0.12290472537279129,0.24790096282958984,0.16104164719581604,0.007313028909265995,0.0004414797876961529,0.005335358437150717
1.05,0.1621466875076294,0.14542293548583984,0.2219674438238144,0.017100272700190544,0.006196415051817894,0.00434460025280714
1.075,-0.024748846888542175,0.15642166137695312,0.09816212952136993,0.02428659051656723,-0.001227749977260828,-0.006395396776497364
1.1,-0.347781777381897,0.2564401626586914,0.019071077927947044,0.018107956275343895,-0.0032975501380860806,-0.009752331301569939
1.125,-0.32581543922424316,0.33411693572998047,0.10036937147378922,0.011076814495027065,0.003950970247387886,0.0007188315503299236
1.15,0.004149225540459156,0.30560874938964844,0.2781681716442108,0.018074121326208115,-0.0017910654423758388,0.001805581501685083
1.175,0.07521424442529678,0.24667835235595703,0.21645696461200714,0.044537946581840515,-0.009268179535865784,-0.014893566258251667
1.2,-0.16317631304264069,0.42315196990966797,0.21047881245613098,0.04735314100980759,-0.01106865331530571,-0.025447705760598183
1.225,-0.08273223787546158,0.7377691268920898,0.34220388531684875,0.0650792345404625,-0.0023841727524995804,-0.024680448696017265
1.25,0.27772992849349976,0.9609479904174805,0.4166606664657593,0.15750740468502045,0.013268215581774712,-0.06135784462094307
1.275,0.39212748408317566,1.187997817993164,0.4670792520046234,0.27769213914871216,0.0027157682925462723,-0.14044542610645294
1.3,0.08907955884933472,1.1624298095703125,0.43681594729423523,0.44580644369125366,-0.00831989012658596,-0.28594377636909485
1.325,-0.0458221510052681,0.56439208984375,0.23020119965076447,0.6142285466194153,0.028833165764808655,-0.40663960576057434
1.35,0.07062315195798874,0.09303665161132812,0.09282303601503372,0.6552515029907227,0.014164447784423828,-0.4227268397808075
1.375,0.16306538879871368,0.056224822998046875,0.20682331919670105,0.6474035382270813,-0.012777138501405716,-0.40562450885772705
1.4,0.3363564610481262,0.21693134307861328,0.32768306136131287,0.6285510659217834,-0.010046692565083504,-0.3835502564907074
1.425,0.35085049271583557,0.3693971633911133,0.4654851257801056,0.6523507833480835,-0.025077639147639275,-0.4003722071647644
1.45,0.21258656680583954,0.4150714874267578,0.5230275988578796,0.7214401364326477,-0.0305851548910141,-0.457027792930603
1.475,0.10764973610639572,0.3180809020996094,0.42851126194000244,0.7847135663032532,-0.03648064658045769,-0.5044015645980835
1.5,0.04410478472709656,0.09786033630371094,0.23684893548488617,0.82796710729599,-0.04267195612192154,-0.5363313555717468
1.525,-0.020156821236014366,0.054587364196777344,0.16977550089359283,0.8414115905761719,-0.041725918650627136,-0.5295470356941223
1.55,-0.034880831837654114,0.2332439422607422,0.2616925537586212,0.820982813835144,-0.04952559620141983,-0.5121881365776062
1.575,-0.08880327641963959,0.2417316436767578,0.14785760641098022,0.8546817898750305,-0.05349183827638626,-0.54117751121521
1.6,-0.07091338187456131,0.24882793426513672,0.07935543358325958,0.8640437126159668,-0.05682593584060669,-0.5483855605125427
1.625,0.0457877516746521,0.25899600982666016,0.1792462021112442,0.8873772621154785,-0.0442366898059845,-0.5589099526405334
1.65,0.14922380447387695,0.05480766296386719,0.28334903717041016,0.9543890953063965,-0.01600421965122223,-0.6015233993530273
1.675,0.31409624218940735,0.01764965057373047,0.2997840940952301,0.9926014542579651,0.008705519139766693,-0.6304613947868347
1.7,0.3205130100250244,0.06470870971679688,0.2108989655971527,1.019757866859436,0.024414291605353355,-0.6738468408584595
1.725,0.26111385226249695,0.1652994155883789,0.30778801441192627,1.069975733757019,0.0493880920112133,-0.7251074314117432
1.75,0.09197254478931427,0.16257762908935547,0.45453429222106934,1.1398499011993408,0.07375795394182205,-0.7653264999389648
1.775,0.022773876786231995,-0.03997516632080078,0.4251590073108673,1.2382903099060059,0.1125117838382721,-0.8093518018722534
1.8,0.270988404750824,-0.15671253204345703,0.32224345207214355,1.271630883216858,0.13841205835342407,-0.8050293922424316
1.825,0.3045310080051422,-0.30463504791259766,0.17617937922477722,1.2869114875793457,0.13874296844005585,-0.8259530067443848
1.85,-0.11963362246751785,-0.4701070785522461,-0.05928909406065941,1.2989877462387085,0.13089004158973694,-0.8489535450935364
1.875,-0.3588551878929138,-0.4211416244506836,-0.1835046410560608,1.2224310636520386,0.1211862564086914,-0.7909746766090393
1.9,-0.2836986482143402,-0.507206916809082,-0.2930765450000763,1.1628491878509521,0.12960177659988403,-0.734317421913147
1.925,-0.04964208975434303,-0.5971870422363281,-0.24908357858657837,1.055398941040039,0.11883789300918579,-0.6596262454986572
1.95,0.07516790926456451,-0.6025495529174805,-0.257539838552475,0.9606776237487793,0.10940021276473999,-0.6097480058670044
1.975,-0.12075554579496384,-0.37817859649658203,-0.07645800709724426,0.8241257071495056,0.06592065095901489,-0.5571405291557312
2.0,-0.26529648900032043,-0.15849590301513672,0.0738135352730751,0.7230555415153503,0.029028303921222687,-0.4992290139198303
2.025,-0.2841947078704834,-0.057281494140625,0.10484685003757477,0.6872552633285522,0.014904920943081379,-0.4558301866054535
2.05,-0.16644170880317688,-0.03582191467285156,0.18260186910629272,0.6644461750984192,0.005909477360546589,-0.4222230017185211
2.075,-0.03157142549753189,-0.07928180694580078,0.2269066870212555,0.6436280608177185,-0.005157868377864361,-0.4042336046695709
2.1,0.01719566434621811,-0.07535743713378906,0.1883334368467331,0.6137570738792419,-0.017767837271094322,-0.3946201503276825
2.125,0.043284181505441666,-0.08748531341552734,0.07133042812347412,0.5854020714759827,-0.0242605023086071,-0.38046398758888245
2.15,-0.01074350718408823,-0.40462684631347656,-0.7703497409820557,0.5704970359802246,-0.025589367374777794,-0.37630152702331543
2.175,-0.21900413930416107,-0.9450349807739258,-1.921724796295166,0.5287442803382874,-0.034615058451890945,-0.3641274869441986
2.2,-0.7440497875213623,-0.8728551864624023,-0.8053488731384277,0.25077584385871887,-0.16408005356788635,-0.2622685134410858
2.225,-0.8146523833274841,-0.3691263198852539,0.1286139041185379,0.13651707768440247,-0.15104565024375916,-0.1664542704820633
2.25,-0.7304840683937073,0.11099529266357422,0.11149301379919052,0.048079971224069595,-0.18168622255325317,-0.05444757267832756
2.275,-0.8659342527389526,0.0740060806274414,-0.20969665050506592,-0.004491086583584547,-0.18395854532718658,0.0007547452114522457
2.3,-1.0199216604232788,-0.2406454086303711,-0.7870307564735413,-0.05395926535129547,-0.15482555329799652,0.07712829113006592
2.325,-0.5050128698348999,-0.31333160400390625,-1.2043778896331787,-0.14907680451869965,-0.08503660559654236,0.26375606656074524
2.35,0.633054256439209,-0.0951089859008789,-0.9098923802375793,-0.31166887283325195,-0.007937543094158173,0.40576794743537903
2.375,0.7887696027755737,-0.1431446075439453,-0.5281302332878113,-0.39672768115997314,-0.05275686830282211,0.2796996831893921
2.4,0.2799031734466553,-0.0961151123046875,-0.2731003761291504,-0.43570592999458313,-0.05506682023406029,0.21446241438388824
2.425,-0.00012705312110483646,-0.020868301391601562,-0.04567805305123329,-0.45670953392982483,0.002190551720559597,0.23898395895957947
2.45,-0.24206747114658356,-0.12527942657470703,-0.013114329427480698,-0.49773451685905457,0.03744969516992569,0.28307655453681946
2.475,-0.5455031394958496,-0.17263031005859375,0.1282902956008911,-0.5891855359077454,0.04415319859981537,0.35181140899658203
2.5,-0.5146013498306274,-0.11599445343017578,0.45429593324661255,-0.6751529574394226,0.05366732180118561,0.42818060517311096
2.525,0.034616559743881226,-0.09412670135498047,0.4022041857242584,-0.7470863461494446,0.05796828493475914,0.4935265779495239
2.55,0.2757147550582886,-0.12476062774658203,0.22613506019115448,-0.7654485702514648,0.031438425183296204,0.4908033311367035
2.575,0.17264381051063538,-0.08270931243896484,0.27924495935440063,-0.7950244545936584,-0.012351353652775288,0.48144084215164185
2.6,0.12292815744876862,0.12313556671142578,0.5520046949386597,-0.8038626909255981,-0.03742571175098419,0.4707225263118744
2.625,0.08094380050897598,0.10071086883544922,0.5655024647712708,-0.720628023147583,-0.052599675953388214,0.43409842252731323
2.65,0.051665302366018295,-0.1460132598876953,0.24083559215068817,-0.6899032592773438,-0.04112900048494339,0.43126997351646423
2.675,-0.050955481827259064,-0.3925943374633789,-0.20735809206962585,-0.7188267707824707,-0.04940707981586456,0.4502303898334503
2.7,-0.07992583513259888,-0.41305065155029297,-0.41031479835510254,-0.801523745059967,-0.057485852390527725,0.5061678886413574
2.725,-0.04113125801086426,-0.32648372650146484,-0.3167324662208557,-0.8801326155662537,-0.05340918153524399,0.5525463223457336
2.75,0.047399941831827164,-0.23482894897460938,-0.02991626225411892,-0.9455229043960571,-0.05173565447330475,0.586703360080719
2.775,-0.11201629787683487,-0.3087625503540039,0.11056683957576752,-0.9888474345207214,-0.059633396565914154,0.6004632711410522
2.8,-0.1442767232656479,-0.40481090545654297,0.1783934086561203,-1.06853187084198,-0.06475169956684113,0.6420375108718872
2.825,0.0521429106593132,-0.3721609115600586,0.034231919795274734,-1.1327805519104004,-0.06278276443481445,0.6878025531768799
2.85,0.20685654878616333,-0.1275196075439453,0.072266586124897,-1.1738916635513306,-0.05896570533514023,0.7175771594047546
2.875,0.18819524347782135,0.006775856018066406,0.16863583028316498,-1.1749181747436523,-0.05598602071404457,0.7172650098800659
2.9,0.12247427552938461,-0.1262950897216797,0.14913612604141235,-1.1681991815567017,-0.051838431507349014,0.708279550075531
2.925,0.06800583004951477,-0.26025962829589844,0.18732333183288574,-1.1938563585281372,-0.05619777366518974,0.7164602875709534
2.95,0.16767337918281555,-0.19296836853027344,0.2522541880607605,-1.2396577596664429,-0.062395233660936356,0.7472901344299316
2.975,0.19194862246513367,-0.05304241180419922,0.27265822887420654,-1.2533867359161377,-0.0565958172082901,0.754913330078125
3.0,0.2302568107843399,-0.032263755798339844,0.2454655021429062,-1.2336894273757935,-0.05873055383563042,0.7554670572280884
3.025,0.20663559436798096,0.23989200592041016,0.417149156332016,-1.2134259939193726,-0.052912209182977676,0.7487901449203491
3.05,0.08027839660644531,0.5590047836303711,0.578862726688385,-1.1748323440551758,-0.04375255107879639,0.7203533053398132
3.075,0.08475146442651749,0.4911375045776367,0.44111865758895874,-1.095320463180542,-0.025580378249287605,0.6652117371559143
3.1,0.1369660347700119,0.24786949157714844,0.20895397663116455,-1.0179144144058228,-0.007599201053380966,0.6236639618873596
3.125,0.18696005642414093,0.16664695739746094,0.1362246870994568,-0.9951987266540527,-0.0010285228490829468,0.6137954592704773
3.15,0.06860407441854477,0.3549785614013672,0.2775002121925354,-0.9892041683197021,-0.005251120775938034,0.616062343120575
3.175,0.14042070508003235,1.0388526916503906,0.6545206308364868,-0.95931476354599,-0.012497431598603725,0.5988925099372864
3.2,1.2986400127410889,6.27431583404541,3.857846260070801,-0.8857784867286682,-0.015619313344359398,0.5555187463760376
3.225,2.884996175765991,13.369921684265137,7.919828414916992,-0.8052999973297119,0.002199256792664528,0.4900953769683838
3.25,1.5280903577804565,6.334986686706543,3.8631045818328857,0.02291198819875717,0.060206372290849686,-0.0259468462318182
3.275,0.24172037839889526,1.0327510833740234,0.7696564793586731,-0.028046375140547752,0.05013570934534073,0.012648196890950203
3.3,0.22246681153774261,0.2642936706542969,0.41474154591560364,-0.005334882996976376,0.03230394795536995,0.005783414002507925
3.325,-0.058587439358234406,-0.006465911865234375,-0.0186628270894289,0.018684668466448784,0.021792897954583168,-0.009081749245524406
3.35,-0.0863972082734108,0.15370941162109375,-0.1259758621454239,0.016144808381795883,0.00921632256358862,-0.0012028523487970233
3.375,0.08558965474367142,0.2849578857421875,0.0007048897678032517,0.004875603597611189,-0.0016330250073224306,0.00585694657638669
3.4,0.09551510959863663,0.2613687515258789,0.08324375003576279,0.0029610740020871162,-0.007921820506453514,0.00599025608971715
3.425,-0.016048936173319817,0.1442575454711914,0.07082328200340271,0.010614659637212753,-0.005826766137033701,-0.002324447501450777
3.45,-0.08979497104883194,0.11570072174072266,0.03418559581041336,0.020842857658863068,0.000563833920750767,-0.0033543205354362726
3.475,-0.10541743040084839,0.12107467651367188,-0.04370691999793053,0.02885139361023903,0.0028793509118258953,-0.0037562046200037003
3.5,-0.08342145383358002,0.07088279724121094,-0.1366342157125473,0.025106513872742653,-0.0011381043586879969,-0.0014347495744004846
3.525,-0.058797843754291534,0.08586597442626953,-0.1383906900882721,0.015093795023858547,-0.0035801283083856106,0.0012112644035369158
3.55,-0.06789231300354004,0.12203502655029297,-0.08242440968751907,0.008720656856894493,-0.003794049145653844,0.0016570661682635546
3.575,-0.06878641247749329,0.17491912841796875,-0.0406254343688488,0.006605618167668581,-0.001821487327106297,0.0016604734119027853
3.6,-0.06718704104423523,0.19104766845703125,-0.0269330907613039,0.010506142862141132,0.0003306144499219954,-0.0005505502340383828
3.625,-0.06184854730963707,0.16604995727539062,-0.036250755190849304,0.016453567892313004,0.0007027441170066595,-0.0008039260283112526
3.65,-0.05024361237883568,0.14166736602783203,-0.057589612901210785,0.014652459882199764,0.002644933294504881,0.0031948278192430735
3.675,-0.046693719923496246,0.14932727813720703,-0.05918228626251221,0.00862803403288126,0.0024438060354441404,0.0037088424433022738
3.7,-0.05239567905664444,0.18753814697265625,-0.005220252089202404,0.006731315515935421,0.00041786141810007393,0.0036682640202343464
3.725,-0.06017860770225525,0.20604896545410156,0.05147490277886391,0.012547909282147884,0.00048686526133678854,-0.0005845723208039999
3.75,-0.031649310141801834,0.16594791412353516,0.030768120661377907,0.0187471155077219,0.0006067086942493916,-0.00110877666156739
3.775,-0.03634173423051834,0.14067554473876953,-0.0556633397936821,0.021020637825131416,-0.001278212759643793,-0.001303107594139874
3.8,-0.06316959857940674,0.14094829559326172,-0.0796283558011055,0.020746031776070595,-0.0013903530780225992,-0.003162867622449994
3.825,-0.06482023745775223,0.14946460723876953,-0.040075745433568954,0.014988977462053299,-0.0015683796955272555,-0.0009610775159671903
3.85,-0.03820447251200676,0.18996810913085938,0.02001819759607315,0.015168352983891964,-0.0016484679654240608,-0.0008849248988553882
3.875,-0.01258309930562973,0.38220787048339844,0.0916808620095253,0.02610466443002224,-0.0033342766109853983,-0.0018340055830776691
3.9,0.0364910252392292,0.6934547424316406,0.15627190470695496,0.054727669805288315,-0.004586181603372097,-0.013100733980536461
3.925,0.04202788323163986,0.7864713668823242,0.18828436732292175,0.1317414790391922,-0.004413146059960127,-0.06131867691874504
3.95,-0.01672927476465702,0.6355934143066406,0.21216124296188354,0.22665192186832428,-0.0032375059090554714,-0.1231023296713829
3.975,-0.037434082478284836,0.5496282577514648,0.25703293085098267,0.29658856987953186,0.006981099024415016,-0.16783693432807922
4.0,0.021235425025224686,0.7008199691772461,0.33174583315849304,0.3460194766521454,0.01694340445101261,-0.2018003910779953
4.025,0.07278323918581009,0.830998420715332,0.3625267446041107,0.4301605224609375,0.026048880070447922,-0.25953277945518494
4.05,0.052673615515232086,0.6152563095092773,0.27479246258735657,0.5502471923828125,0.03418248891830444,-0.33494871854782104
4.075,0.058447495102882385,0.22884368896484375,0.008054093457758427,0.6283766627311707,0.0408225953578949,-0.3838159739971161
4.1,0.03682224079966545,-0.10613441467285156,-0.1688687652349472,0.6589639782905579,0.04231421649456024,-0.3985973000526428
4.125,0.009195045568048954,-0.1750316619873047,-0.07500999420881271,0.6309778690338135,0.052836619317531586,-0.3807445764541626
4.15,0.10273346304893494,0.29068756103515625,0.2286989688873291,0.5662791728973389,0.04053843766450882,-0.3315449655056
4.175,0.17893248796463013,0.6756515502929688,0.3935295641422272,0.6208490133285522,0.0419338196516037,-0.3671230375766754
4.2,0.17041023075580597,0.7177639007568359,0.46669572591781616,0.7331211566925049,0.04454679787158966,-0.44488874077796936
4.225,0.10575829446315765,0.5483942031860352,0.4468635618686676,0.8462285399436951,0.04659515619277954,-0.5176714658737183
4.25,0.05549447238445282,0.21980857849121094,0.2198246568441391,0.9172745943069458,0.051637984812259674,-0.5657350420951843
4.275,0.007755911443382502,0.13480854034423828,0.14607179164886475,0.9296970963478088,0.05555891990661621,-0.5711644887924194
4.3,0.09811055660247803,0.4606456756591797,0.38442063331604004,0.9247335195541382,0.05248343199491501,-0.5649804472923279
4.325,0.30758169293403625,0.8811807632446289,0.8004805445671082,0.9792110323905945,0.04897760599851608,-0.6030473113059998
4.35,0.3796341121196747,0.8376989364624023,0.9512147307395935,1.1365042924880981,0.058672040700912476,-0.7116227746009827
4.375,0.28999972343444824,0.36374855041503906,0.6989879608154297,1.2931345701217651,0.06760407984256744,-0.814810574054718
4.4,0.1883215606212616,-0.14600563049316406,0.28352493047714233,1.3676552772521973,0.07105691730976105,-0.8582296967506409
4.425,0.06864725798368454,-0.4558115005493164,-0.03145265951752663,1.3619638681411743,0.0694192498922348,-0.8565505146980286
4.45,0.008329064585268497,-0.47832393646240234,-0.08841369301080704,1.2972074747085571,0.0634760856628418,-0.8184608817100525
4.475,0.06735501438379288,-0.2648944854736328,0.14525127410888672,1.2151505947113037,0.051901377737522125,-0.772304356098175
4.5,0.042377665638923645,-0.21143722534179688,0.15153762698173523,1.2115485668182373,0.04878092557191849,-0.7670892477035522
4.525,-0.047204140573740005,-0.3056821823120117,-0.06868746876716614,1.217572808265686,0.06552711129188538,-0.7494050860404968
4.55,-0.047485850751399994,-0.31558704376220703,-0.10615108162164688,1.170301079750061,0.06826865673065186,-0.7056583166122437
4.575,0.06808645278215408,-0.31017398834228516,-0.06497135758399963,1.1331111192703247,0.05878748744726181,-0.691673994064331
4.6,-0.0026248733047395945,-0.37218761444091797,-0.11732584983110428,1.1322920322418213,0.05725359171628952,-0.6978411078453064
4.625,-0.2707785964012146,-0.42134952545166016,-0.18389655649662018,1.0851064920425415,0.05625586956739426,-0.67839115858078
4.65,-0.4187864661216736,-0.4563560485839844,-0.36281436681747437,1.0221320390701294,0.06044359505176544,-0.6143878698348999
4.675,-0.296406626701355,-0.42346954345703125,-0.46213802695274353,0.8954494595527649,0.04375608265399933,-0.5431073307991028
4.7,-0.19895166158676147,-0.30623722076416016,-0.36564746499061584,0.7916300296783447,0.043312594294548035,-0.4596846103668213
4.725,-0.1475912630558014,-0.22268962860107422,-0.25692859292030334,0.703883171081543,0.033936239778995514,-0.40067628026008606
4.75,-0.09346263855695724,-0.14140987396240234,-0.22225624322891235,0.6135889291763306,0.016953814774751663,-0.36066243052482605
4.775,-0.059768758714199066,-0.05123138427734375,-0.13600105047225952,0.5513776540756226,0.008265157230198383,-0.3318842649459839
4.8,-0.17671625316143036,-0.062401771545410156,-0.1528620421886444,0.5380874872207642,0.00682403426617384,-0.3344692587852478
4.825,-0.20314162969589233,-0.12888240814208984,-0.27310287952423096,0.5190504193305969,0.012024424970149994,-0.3108862340450287
4.85,-0.13081464171409607,-0.14924335479736328,-0.22128435969352722,0.46129414439201355,0.01235109567642212,-0.2758218050003052
4.875,-0.022384481504559517,-0.044147491455078125,0.022021975368261337,0.3936030864715576,0.013128003105521202,-0.2311345934867859
4.9,-0.11641121655702591,0.13572311401367188,0.5674682855606079,0.3547947108745575,0.006716747768223286,-0.2193918228149414
4.925,-0.2967557907104492,0.18533992767333984,0.7978479266166687,0.1665394902229309,-0.03875486180186272,-0.13253337144851685
4.95,-0.4289505183696747,-0.0918264389038086,-0.20503878593444824,0.0766332745552063,-0.046787794679403305,-0.053363945335149765
4.975,-0.39960986375808716,-0.23353099822998047,-0.8453409671783447,0.004992249887436628,-0.04245810955762863,0.017401916906237602
5.0,-0.1861405074596405,-0.26908111572265625,-0.9516764283180237,-0.0588272288441658,-0.047160305082798004,0.05603576824069023
5.025,0.14540886878967285,-0.13236331939697266,-0.9377204179763794,-0.12359888851642609,-0.0322517529129982,0.10426745563745499
5.05,0.07083545625209808,-0.08014488220214844,-0.5909353494644165,-0.2236485779285431,-0.028904398903250694,0.11310425400733948
5.075,-0.12059591710567474,-0.20472431182861328,-0.26736098527908325,-0.29284989833831787,-0.011970153078436852,0.1540265679359436
5.1,-0.20694893598556519,-0.21294307708740234,-0.14854711294174194,-0.3737879991531372,-0.0003111925907433033,0.20613157749176025
5.125,-0.20606032013893127,-0.10294532775878906,-0.0544397234916687,-0.4625083804130554,-0.002584627131000161,0.26707935333251953
5.15,-0.1911243200302124,-0.026719093322753906,-0.03579731285572052,-0.5004797577857971,-0.0018895815592259169,0.2989597022533417
5.175,-0.11421643197536469,-0.07148361206054688,-0.14496199786663055,-0.5087127685546875,0.010912934318184853,0.3192601203918457
5.2,-0.060956940054893494,-0.15872859954833984,-0.2756713628768921,-0.518963634967804,0.02453288808465004,0.332745760679245
5.225,-0.0917925089597702,-0.17188358306884766,-0.2169015258550644,-0.5754861831665039,0.010878223925828934,0.3630490005016327
5.25,-0.16265372931957245,-0.17464733123779297,-0.09132866561412811,-0.6260563135147095,0.019394228234887123,0.38935229182243347
5.275,-0.17291675508022308,-0.23744487762451172,-0.15917162597179413,-0.6589057445526123,0.026915494352579117,0.41582804918289185
5.3,-0.26715540885925293,-0.46301937103271484,-0.45775261521339417,-0.7157653570175171,0.01991923712193966,0.4507995843887329
5.325,-0.49896150827407837,-0.5606832504272461,-0.420265257358551,-0.8358787298202515,0.003917310386896133,0.5231761932373047
5.35,-0.44137492775917053,-0.18337249755859375,0.29122647643089294,-1.0338069200515747,-0.016755443066358566,0.6438071727752686
5.375,-0.03446415066719055,0.11191082000732422,0.5695234537124634,-1.0861022472381592,-0.029455242678523064,0.6611036658287048
5.4,0.08866513520479202,-0.06975269317626953,0.35254332423210144,-1.026621699333191,-0.05560334771871567,0.6204593777656555
5.425,-0.014576548710465431,-0.27622509002685547,0.24230718612670898,-1.0378391742706299,-0.05469560623168945,0.6274548172950745
5.45,-0.17016087472438812,-0.39350223541259766,0.1920357197523117,-1.0719900131225586,-0.059466272592544556,0.6529262661933899
5.475,0.07258082926273346,-0.18676280975341797,0.2688596844673157,-1.179966688156128,-0.05473604053258896,0.7347510457038879
5.5,0.20949287712574005,-0.020038604736328125,0.34130874276161194,-1.1998817920684814,-0.06258030980825424,0.7403064370155334
5.525,0.18122556805610657,-0.05541229248046875,0.16461323201656342,-1.1873265504837036,-0.06641992181539536,0.7309310436248779
5.55,0.021935924887657166,-0.14277172088623047,0.06894805282354355,-1.1645324230194092,-0.06451467424631119,0.7094845175743103
5.575,0.002384877298027277,-0.16607952117919922,0.22670778632164001,-1.1608573198318481,-0.05751495063304901,0.7115032076835632
5.6,0.02927345037460327,-0.23746585845947266,0.3306010067462921,-1.1776303052902222,-0.060126710683107376,0.7221382856369019
5.625,-0.041421275585889816,-0.3548879623413086,0.21732787787914276,-1.2107553482055664,-0.07292197644710541,0.7411084771156311
5.65,-0.042879845947027206,-0.1636819839477539,0.23146778345108032,-1.2622594833374023,-0.07526827603578568,0.7680503129959106
5.675,0.10847426950931549,-0.040137290954589844,0.21729104220867157,-1.273120641708374,-0.07592029869556427,0.7753950953483582
5.7,0.25754350423812866,-0.09099197387695312,0.08176641911268234,-1.25381600856781,-0.07977881282567978,0.7736099362373352
5.725,0.31024283170700073,-0.09878921508789062,0.08542559295892715,-1.2411524057388306,-0.07969267666339874,0.7663379907608032
5.75,0.20475934445858002,0.23043155670166016,0.32247570157051086,-1.2300834655761719,-0.07761256396770477,0.7494254112243652
5.775,0.2675231397151947,0.7027311325073242,0.5418823957443237,-1.1904125213623047,-0.07090015709400177,0.7314232587814331
5.8,0.27954617142677307,1.0361461639404297,0.6108776330947876,-1.0808689594268799,-0.05800463631749153,0.6678652167320251
5.825,0.281655490398407,1.267660140991211,0.5738450884819031,-0.9144613742828369,-0.05134592205286026,0.5709676146507263
5.85,0.24404604732990265,1.3800849914550781,0.505016565322876,-0.7278832793235779,-0.045674607157707214,0.45742741227149963
5.875,0.22099623084068298,1.2217693328857422,0.3460574746131897,-0.5229836106300354,-0.029754498973488808,0.32595938444137573
5.9,0.05841393768787384,0.8751201629638672,0.2238301783800125,-0.344829797744751,-0.01836782693862915,0.21642087399959564
5.925,-0.07100988179445267,0.4665040969848633,0.11836012452840805,-0.24085918068885803,-0.013322528451681137,0.15763849020004272
5.95,-0.11635679751634598,0.14534282684326172,0.02897047996520996,-0.20860141515731812,-0.014496706426143646,0.13651008903980255
5.975,-0.3014647960662842,0.048419952392578125,0.26167914271354675,-0.21230022609233856,-0.020298317074775696,0.1357371211051941
6.0,-0.5548338294029236,0.3881711959838867,0.8142508864402771,-0.06450000405311584,-0.012831621803343296,0.033981021493673325
6.025,-0.35721200704574585,0.565953254699707,0.6414393782615662,-0.007527442183345556,-0.01683470606803894,0.005561942234635353
6.05,-0.21152299642562866,0.2760047912597656,0.14849860966205597,0.006080228369683027,-0.014999853447079659,5.43142668902874e-05
6.075,-0.1981455385684967,0.1370534896850586,-0.021040180698037148,0.004838836845010519,-0.021091539412736893,0.00018904033640865237
6.1,-0.1315908282995224,0.11216163635253906,-0.04202815890312195,0.004958317149430513,-0.027265729382634163,0.004182075150310993
6.125,-0.07222043722867966,0.17489910125732422,0.009894725866615772,0.001375639229081571,-0.029601125046610832,0.004364818800240755
6.15,-0.06788292527198792,0.20688724517822266,0.03085365518927574,0.007237306330353022,-0.029281657189130783,0.00018181523773819208
6.175,-0.07226043194532394,0.16840648651123047,0.005331919062882662,0.01553251501172781,-0.022791152819991112,-0.0004285017494112253
6.2,-0.026590241119265556,0.15099048614501953,0.021176869049668312,0.02563200518488884,-0.014110112562775612,-0.0010456849122419953
6.225,-0.0022140550427138805,0.14339923858642578,0.11640729010105133,0.03222740814089775,-0.007784645073115826,-0.0037843140307813883
6.25,-0.025645654648542404,0.23189067840576172,0.2994175851345062,0.0462283231317997,-0.008779944851994514,-0.014421815052628517
6.275,0.10395240038633347,0.7906656265258789,0.7429591417312622,0.05742790549993515,-0.0001912392908707261,-0.019758151844143867
6.3,0.5036740899085999,1.0712976455688477,0.797247052192688,0.08809471130371094,0.013685550540685654,-0.032689228653907776
6.325,0.9040883779525757,-0.05823802947998047,-0.5041697025299072,0.1285046935081482,0.033635325729846954,-0.07053756713867188
6.35,0.31617286801338196,-0.7122650146484375,-1.4546921253204346,0.1309271603822708,0.0035217052791267633,-0.07842686772346497
6.375,-0.39368975162506104,-0.26839447021484375,-1.351055383682251,0.04143359139561653,0.00346798961982131,-0.037301622331142426
6.4,-0.2404053509235382,0.17235851287841797,-0.46882790327072144,-0.033987779170274734,0.0035022215452045202,0.022084228694438934
6.425,0.18734818696975708,0.22141456604003906,0.24963752925395966,-0.06973189115524292,0.010293440893292427,0.06194740906357765
6.45,0.2925054728984833,0.1747264862060547,0.5340828895568848,-0.04384339600801468,0.013132773339748383,0.03201444819569588
6.475,0.14779843389987946,0.39494895935058594,0.6478286385536194,-0.010097411461174488,0.006481222342699766,0.004757546354085207
6.5,-0.06764011085033417,0.3461942672729492,0.3596380650997162,0.04029538854956627,0.007655927911400795,-0.020077891647815704
6.525,-0.19641894102096558,-0.0822744369506836,-0.23372428119182587,0.06678654998540878,0.006247422657907009,-0.02195039764046669
6.55,-0.24310849606990814,-0.1374969482421875,-0.49372828006744385,0.04114946350455284,-0.0006912517128512263,-0.014339092187583447
6.575,-0.2232580929994583,0.08840751647949219,-0.2824539840221405,-0.001214184914715588,-0.005947515834122896,0.0021193220745772123
6.6,-0.08241751790046692,0.22814464569091797,0.08841513097286224,-0.023549780249595642,-0.0007259175181388855,0.017467636615037918
6.625,0.07761044055223465,0.2543649673461914,0.2929401099681854,-0.011915372684597969,0.005760446656495333,0.01688547432422638
6.65,0.0530068576335907,0.21792888641357422,0.22831140458583832,0.011945638805627823,0.0065606990829110146,-0.0002990781213156879
6.675,-0.11468428373336792,0.1565237045288086,0.006134386174380779,0.02612176164984703,0.0010767763014882803,-0.01127917505800724
6.7,-0.21412475407123566,0.10702133178710938,-0.14937734603881836,0.020330607891082764,-0.001252435613423586,-0.006935726851224899
6.725,-0.10382372885942459,0.10723590850830078,-0.11155745387077332,0.0027050350327044725,7.517433914472349e-06,0.007849066518247128
6.75,0.0014239493757486343,0.17688751220703125,0.10322925448417664,-0.005534703843295574,-0.00016671547200530767,0.010440272279083729
6.775,-0.017879126593470573,0.2369518280029297,0.2137896716594696,0.00031480530742555857,0.00014514391659758985,0.0022488103713840246
6.8,-0.0930238589644432,0.16834735870361328,0.08712957054376602,0.01605430617928505,0.002516866661608219,-0.0027192120905965567
6.825,-0.12680625915527344,0.08244895935058594,-0.0399508960545063,0.01824352890253067,0.0006212199805304408,-0.0027433126233518124
6.85,-0.12059418112039566,0.0829477310180664,-0.02046428620815277,0.006584971211850643,-0.0017293266719207168,0.0038267464842647314
6.875,-0.08091966062784195,0.1682605743408203,0.09189383685588837,-0.0014523513382300735,-3.979260509368032e-05,0.008295963518321514
6.9,-0.02482376992702484,0.20164108276367188,0.14127439260482788,0.0023940703831613064,0.0020491478499025106,0.006086583249270916
6.925,-0.057931166142225266,0.1517629623413086,0.05254032462835312,0.012211871333420277,0.000428257801104337,-0.00042549066711217165
6.95,-0.1350814700126648,0.1275949478149414,-0.02627681940793991,0.014217669144272804,-0.001456278609111905,-0.0025764654856175184
6.975,-0.13017691671848297,0.13172245025634766,0.00364184589125216,0.006351347081363201,0.0001496382465120405,0.0018007935723289847
7.0,-0.0536409430205822,0.13834857940673828,0.07835137844085693,0.0004933361778967083,2.827855132636614e-05,0.006074975244700909
7.025,-0.03257240355014801,0.14586734771728516,0.09397592395544052,0.004400985315442085,0.00016052581486292183,0.00393644580617547
7.05,-0.0797826275229454,0.1350994110107422,0.02450459823012352,0.012211880646646023,0.00042647216469049454,-0.0004269648634362966
7.075,-0.11564496159553528,0.1097421646118164,-0.012179700657725334,0.012211897410452366,0.0004256142710801214,-0.0004273555241525173
7.1,-0.09432435035705566,0.1312875747680664,0.03381458669900894,0.004483470227569342,0.00016021430201362818,0.0038461394142359495
7.125,-0.050709038972854614,0.14656829833984375,0.08245706558227539,0.0023601872380822897,9.608047548681498e-05,0.004029195290058851
7.15,-0.03998379036784172,0.1562662124633789,0.07070945203304291,0.006264843046665192,0.0003160645137540996,0.0018906984478235245
7.175,-0.061510611325502396,0.14105892181396484,0.03012675791978836,0.010289040394127369,0.00230915448628366,0.001635303720831871
7.2,-0.08392108976840973,0.125701904296875,0.008076604455709457,0.010347935371100903,0.0004362943582236767,0.0017029281007125974
7.225,-0.09066620469093323,0.11640739440917969,0.0637676939368248,0.00644386513158679,0.00021425404702313244,0.0038414178416132927
7.25,-0.07594669610261917,0.13475990295410156,0.1321527063846588,0.004488506354391575,0.00015575333964079618,0.003931001294404268
7.275,-0.06826159358024597,0.15552330017089844,0.1140696182847023,0.008305263705551624,0.00028939961339347064,0.0017088950844481587
7.3,-0.09861256182193756,0.15088272094726562,0.05945224687457085,0.010342198424041271,0.0003692374157253653,-0.00034543158835731447
7.325,-0.11647483706474304,0.15027523040771484,0.039664074778556824,0.010342882014811039,0.0003486408095341176,0.0015284911496564746
7.35,-0.07889483869075775,0.16968154907226562,0.07849027216434479,0.0063539897091686726,0.00022834178525954485,0.0018841108540073037
7.375,-0.04386964440345764,0.18642044067382812,0.12328799813985825,0.004485298879444599,0.00015251604781951755,0.003844319609925151
7.4,-0.047110240906476974,0.16298484802246094,0.1022120788693428,0.008305635303258896,0.0002866591385100037,0.0017075467621907592
7.425,-0.06581311672925949,0.12854290008544922,0.06257462501525879,0.010260249488055706,0.00036490586353465915,-0.0002571691002231091
7.45,-0.08965836465358734,0.12510108947753906,0.06741701811552048,0.008396679535508156,0.0002660044701769948,0.0036633373238146305
7.475,-0.08546353131532669,0.14305782318115234,0.08685490489006042,0.0044937944039702415,0.00014828349230811,0.0040157330222427845
7.5,-0.05907781049609184,0.13935279846191406,0.08539119362831116,0.006359475664794445,0.00020416225015651435,0.0038432374130934477
7.525,-0.045957036316394806,0.1333332061767578,0.07050496339797974,0.008395821787416935,0.0002869923191610724,0.0017884523840621114
7.55,-0.06736236810684204,0.10968589782714844,0.07331757992506027,0.010265452787280083,0.0003420074353925884,0.0017016479978337884
7.575,-0.07332583516836166,0.12468242645263672,0.08461714535951614,0.006445789244025946,0.00020493021293077618,0.003838697448372841
7.6,-0.062448207288980484,0.16129398345947266,0.09361081570386887,0.004408502951264381,0.0001433127763448283,0.004019103012979031
7.625,-0.05476721376180649,0.1738147735595703,0.10835745185613632,0.0063600544817745686,0.00020210568618495017,0.0038423901423811913
7.65,-0.0736241415143013,0.17712974548339844,0.10276137292385101,0.00830614473670721,0.00028465286595746875,0.001705405069515109
7.675,-0.0739382728934288,0.1598968505859375,0.07391408085823059,0.008214759640395641,0.00030587989022023976,-0.00025096326135098934
7.7,-0.07527945190668106,0.14654827117919922,0.06677881628274918,0.006350778043270111,0.0002255906001664698,0.0017958810785785317
7.725,-0.08157438039779663,0.1769847869873047,0.09646987169981003,0.006360406521707773,0.0001996359060285613,0.0038419351913034916
7.75,-0.0782007947564125,0.19668865203857422,0.1059974804520607,0.006532298866659403,0.0002043694257736206,0.0038338759914040565
7.775,-0.07077575474977493,0.16274738311767578,0.08668632060289383,0.010265825316309929,0.000339842721587047,0.001699837390333414
7.8,-0.05941106006503105,0.12932491302490234,0.05738093703985214,0.008396320044994354,0.000284122652374208,0.001786562381312251
7.825,-0.054408662021160126,0.1309795379638672,0.0683462917804718,0.00644664466381073,0.00020021706586703658,0.0038375104777514935
7.85,-0.038231465965509415,0.1487588882446289,0.11065761744976044,0.006450756918638945,0.00019913914729841053,0.003923321142792702
7.875,-0.03978763148188591,0.14904403686523438,0.13077326118946075,0.008402283303439617,0.00025820473092608154,0.0037461649626493454
7.9,-0.06706320494413376,0.16528797149658203,0.11542648822069168,0.008396472781896591,0.00028424651827663183,0.0017858261708170176
7.925,-0.09478391706943512,0.16637325286865234,0.10300564020872116,0.00831060390919447,0.00028125985409133136,0.0017896754434332252
7.95,-0.09036194533109665,0.13336753845214844,0.10167425125837326,0.006447123363614082,0.0001984399277716875,0.0038367961533367634
7.975,-0.07174660265445709,0.12812328338623047,0.10095678269863129,0.006361326668411493,0.00019556016195565462,0.0038406201638281345
8.0,-0.07406194508075714,0.14699172973632812,0.10268237441778183,0.006356884725391865,0.00030742998933419585,0.0019673907663673162
8.025,-0.08052904903888702,0.13006973266601562,0.11932174861431122,0.00825611874461174,0.0022114228922873735,0.0036904222797602415
8.05,-0.08089114725589752,0.11279487609863281,0.11672079563140869,0.006353011820465326,0.0003080333408433944,0.0018809420289471745
8.075,-0.06000475212931633,0.10920238494873047,0.1145080178976059,0.006269656587392092,0.00021929151262156665,0.0018835603259503841
8.1,-0.06338289380073547,0.12126827239990234,0.12426350265741348,0.00644800066947937,0.00019625003915280104,0.00383543549105525
8.125,-0.07929950952529907,0.13304805755615234,0.1081538274884224,0.008403543382883072,0.0002540046989452094,0.003743626642972231
8.15,-0.09002996981143951,0.13040828704833984,0.08267731219530106,0.008397085592150688,0.0002818382636178285,0.0017833253368735313
8.175,-0.08269131183624268,0.11442089080810547,0.08864592760801315,0.008311226963996887,0.0002788076235447079,0.0017871623858809471
8.2,-0.09051548689603806,0.1065359115600586,0.10715137422084808,0.006448441185057163,0.00019389722729101777,0.0038348131347447634
8.225,-0.09668514132499695,0.1042623519897461,0.11991002410650253,0.006444441620260477,0.00019463618809822947,0.003748773830011487
8.25,-0.091197669506073,0.13290786743164062,0.12624119222164154,0.00821871031075716,0.0003044133190996945,-0.0001692642254056409
8.275,-0.07879479974508286,0.13887977600097656,0.1266283541917801,0.008389155380427837,0.00028194556944072247,0.0016107979463413358
8.3,-0.07595933228731155,0.1281147003173828,0.13152550160884857,0.008307348936796188,0.00027779900119639933,0.0017006591660901904
8.325,-0.0746019184589386,0.11605453491210938,0.13189445436000824,0.006356034893542528,0.00021853976068086922,0.0018783629639074206
8.35,-0.06930134445428848,0.12199974060058594,0.11886169016361237,0.006444739643484354,0.00019221808179281652,0.003748387796804309
8.375,-0.06901170313358307,0.14658069610595703,0.1161220446228981,0.008311514742672443,0.0002759407216217369,0.0017862673848867416
8.4,-0.07544292509555817,0.17145252227783203,0.1346774846315384,0.008307481184601784,0.00027676974423229694,0.001700183260254562
8.425,-0.08022566884756088,0.17548561096191406,0.14632368087768555,0.006358635611832142,0.00013155397027730942,0.0018767081201076508
8.45,-0.08799713850021362,0.15973472595214844,0.1397944539785385,0.006415275391191244,-0.0017691756365820765,0.0037216537166386843
8.475,-0.062329649925231934,0.1377248764038086,0.13825076818466187,0.006272703409194946,0.00012875074753537774,0.0018808264285326004
8.5,-0.05967766419053078,0.12455081939697266,0.11212591826915741,0.006352097261697054,0.00021826851298101246,0.0017921170219779015
8.525,-0.07649108022451401,0.13065719604492188,0.0941840410232544,0.008221646770834923,0.0002729791449382901,0.001704028807580471
8.55,-0.07469669729471207,0.1458110809326172,0.11307751387357712,0.006442176178097725,0.00021890175412409008,0.0018738055368885398
8.575,-0.08142143487930298,0.14557743072509766,0.12873055040836334,0.008400571532547474,0.000246275682002306,0.003655788255855441
8.6,-0.07917892932891846,0.1307239532470703,0.11717201769351959,0.008397653698921204,0.0002758655755314976,0.001781583996489644
8.625,-0.05864802747964859,0.11166858673095703,0.10158990323543549,0.008393603377044201,0.0002767763799056411,0.0016955297905951738
8.65,-0.06167072057723999,0.09635257720947266,0.11902855336666107,0.008397720754146576,0.0002752572763711214,0.0017813617596402764
8.675,-0.07244512438774109,0.11588668823242188,0.15356750786304474,0.008404872380197048,0.00024334058980457485,0.0037413504905998707
8.7,-0.06131047382950783,0.11418819427490234,0.1652655452489853,0.006535390391945839,0.0001883551594801247,0.003829424502328038
8.725,-0.05714486166834831,0.1045827865600586,0.14842888712882996,0.008311850018799305,0.0002727371465880424,0.001785207656212151
8.75,-0.05356471613049507,0.11904239654541016,0.1419811248779297,0.008391255512833595,0.00036236795131117105,0.0016964464448392391
8.775,-0.05197504535317421,0.1334095001220703,0.15865004062652588,0.008251810446381569,0.0022310505155473948,0.0017312787240371108
8.8,-0.051155347377061844,0.1376657485961914,0.1596180945634842,0.006350030656903982,0.00030206693918444216,0.0017924100393429399
8.825,-0.05547163635492325,0.13918209075927734,0.1435847282409668,0.006352522410452366,0.00021591721451841295,0.0017908918671309948
8.85,-0.06551836431026459,0.15346717834472656,0.13153479993343353,0.00822205375880003,0.0002706099476199597,0.0017024427652359009
8.875,-0.06997199356555939,0.17243480682373047,0.13026702404022217,0.006352593656629324,0.00021545824711211026,0.0017906967550516129
8.9,-0.04692976176738739,0.19050121307373047,0.12493851035833359,0.0062666991725564,0.00021283420210238546,0.0017946994630619884
8.925,-0.040692541748285294,0.16571521759033203,0.1424022763967514,0.0062642754055559635,0.000298780738376081,0.0017960374243557453
8.95,-0.06683550029993057,0.13816356658935547,0.15121379494667053,0.006300914566963911,0.0021712342277169228,0.001909244223497808
8.975,-0.08790843933820724,0.10675716400146484,0.14419151842594147,0.008403310552239418,0.00032679043943062425,0.0037409579381346703
9.0,-0.07649227231740952,0.10238456726074219,0.14192967116832733,0.008405801840126514,0.00024060517898760736,0.003739435225725174
9.025,-0.07252947986125946,0.1368122100830078,0.1473408192396164,0.006356893572956324,0.0002135391696356237,0.001876032561995089
9.05,-0.07358770817518234,0.15584659576416016,0.1529625803232193,0.006266893818974495,0.000212182872928679,0.0017940961988642812
9.075,-0.05901110917329788,0.15151309967041016,0.14719520509243011,0.006350398529320955,0.00030053345835767686,0.0017913634655997157
9.1,-0.054960303008556366,0.14515972137451172,0.12088052928447723,0.008252535946667194,0.0022289897315204144,0.0017304717330262065
9.125,-0.04896753653883934,0.15257644653320312,0.11404325813055038,0.00839180126786232,0.00035992596531286836,0.0016942728543654084
9.15,-0.0630144327878952,0.16005897521972656,0.12497757375240326,0.008398384787142277,0.0002723798097576946,0.0017786723328754306
9.175,-0.061593905091285706,0.15667438507080078,0.13198573887348175,0.008492142893373966,0.00024105087504722178,0.003734532743692398
9.2,-0.06394046545028687,0.14929676055908203,0.13197393715381622,0.008492173627018929,0.0002408573345746845,0.003734477562829852
9.225,-0.08133471012115479,0.15904903411865234,0.148532897233963,0.008398432284593582,0.0002720352786127478,0.0017784993397071958
9.25,-0.08451037108898163,0.17467880249023438,0.16072265803813934,0.008306000381708145,0.00035650248173624277,0.0016979826614260674
9.275,-0.08960172533988953,0.17740345001220703,0.1656268686056137,0.00629753852263093,0.0021702973172068596,0.0018234857125207782
9.3,-0.07786758989095688,0.14513874053955078,0.1720861941576004,0.006350750103592873,0.0002986774197779596,0.0017904265550896525
9.325,-0.08540242165327072,0.1120767593383789,0.1631557047367096,0.008308613672852516,0.00026935103232972324,0.001695834333077073
9.35,-0.1026269868016243,0.11380386352539062,0.15294204652309418,0.00831276923418045,0.0002675764262676239,0.0017817022744566202
9.375,-0.07964785397052765,0.1254720687866211,0.1594705879688263,0.006453803274780512,9.260643855668604e-05,0.003829104360193014
9.4,-0.059356916695833206,0.11820507049560547,0.16268718242645264,0.006420821417123079,-0.0017811759607866406,0.0038000878412276506
9.425,-0.051120251417160034,0.12903499603271484,0.16251616179943085,0.006273877806961536,0.00012218623305670917,0.0018773439805954695
9.45,-0.05482042580842972,0.12659835815429688,0.16812214255332947,0.00635324465110898,0.0002120224089594558,0.0017887972062453628
9.475,-0.06015847250819206,0.13222122192382812,0.16945451498031616,0.008222748525440693,0.0002663437044247985,0.001699760789051652
9.5,-0.05678027868270874,0.14946651458740234,0.16406141221523285,0.0063532995991408825,0.0002117617113981396,0.0017886334098875523
9.525,-0.05761630833148956,0.1591949462890625,0.14744240045547485,0.006353324744850397,0.00021163056953810155,0.0017885568086057901
9.55,-0.0494709238409996,0.17131423950195312,0.14035485684871674,0.008308741264045238,0.0002683701750356704,0.0016953612212091684
9.575,-0.05081445723772049,0.164520263671875,0.14976225793361664,0.00830877386033535,0.00026818850892595947,0.0016952368896454573
9.6,-0.05881626904010773,0.1583852767944336,0.1605745404958725,0.006353416480123997,0.00021114952687639743,0.0017882901011034846
9.625,-0.06123148277401924,0.14921951293945312,0.13648594915866852,0.006353441625833511,0.00021099491277709603,0.0017882201354950666
9.65,-0.040509022772312164,0.14010047912597656,0.1086384579539299,0.008308850228786469,0.00026769109535962343,0.0016949394484981894
9.675,-0.03178970515727997,0.1582775115966797,0.1070951297879219,0.008394785225391388,0.00027005921583622694,0.0016907528042793274
9.7,-0.04374721646308899,0.1752948760986328,0.12192059308290482,0.00839894637465477,0.00026852244627662003,0.0017766072414815426
9.725,-0.06221328303217888,0.1395864486694336,0.12191776186227798,0.008407297544181347,0.00023277493892237544,0.003736569080501795
9.75,-0.06719567626714706,0.12673568725585938,0.13787494599819183,0.006537816487252712,0.0001783018815331161,0.0038257623091340065
9.775,-0.06548774987459183,0.1492023468017578,0.16471238434314728,0.008317169733345509,0.0002646787033881992,0.0018666476244106889
9.8,-0.05643489584326744,0.1560201644897461,0.1709126979112625,0.008489093743264675,0.00023662211606279016,0.0036464864388108253
9.825,-0.054096464067697525,0.1591329574584961,0.16184552013874054,0.008403115905821323,0.0002671977272257209,0.0018623964861035347
9.85,-0.05807678773999214,0.151885986328125,0.16814684867858887,0.0084891552105546,0.00023650354705750942,0.0036463504657149315
9.875,-0.04192265495657921,0.14386463165283203,0.17268919944763184,0.008398984558880329,0.0002687663654796779,0.001776388962753117
9.9,-0.027434278279542923,0.14132308959960938,0.16663336753845215,0.008394847624003887,0.0002702223719097674,0.0016904179938137531
9.925,-0.052734632045030594,0.15643978118896484,0.15749329328536987,0.008394863456487656,0.00027002504793927073,0.0016903657233342528
9.95,-0.08839402347803116,0.1467599868774414,0.16772983968257904,0.008394883014261723,0.00026965985307469964,0.0016903348732739687
