Time [s],Acc_x [m/s^2],Acc_y [m/s^2],Acc_z [m/s^2],Gyro_x [1/s],Gyro_y [1/s],Gyro_z [1/s]
0.0,0.21224820613861084,0.5214796662330627,-0.033870626240968704,0.012051386758685112,-0.0036875931546092033,-0.00020168020273558795
0.008,0.21262669563293457,0.5214710831642151,-0.03332618251442909,0.012051258236169815,-0.0036880229599773884,-0.0002014776400756091
0.016,0.2131011188030243,0.5214644074440002,-0.0326521061360836,0.012051098048686981,-0.0036885617300868034,-0.00020122804562561214
0.024,0.21367260813713074,0.5214548707008362,-0.031833235174417496,0.012050904333591461,-0.0036892115604132414,-0.00020092815975658596
0.032,0.21433618664741516,0.5214443802833557,-0.030878273770213127,0.01205067802220583,-0.0036899643018841743,-0.00020057798246853054
0.04,0.2150774896144867,0.5214348435401917,-0.02981618605554104,0.012050429359078407,-0.003690806683152914,-0.00020019427756778896
0.048,0.2158675640821457,0.5214224457740784,-0.028676440939307213,0.012050161138176918,-0.003691704012453556,-0.00019978263298980892
0.056,0.21660949289798737,0.5212975144386292,-0.02738783322274685,0.012049876153469086,-0.0036926562897861004,-0.0001993481710087508
0.064,0.21695807576179504,0.5206175446510315,-0.025773925706744194,0.012049591168761253,-0.0036936067044734955,-0.0001989151060115546
0.072,0.21689775586128235,0.5191164612770081,-0.023917457088828087,0.01204930804669857,-0.003694556187838316,-0.00019847365911118686
0.08,0.21603631973266602,0.516416609287262,-0.02169991098344326,0.012042426504194736,-0.0036925976164638996,-0.00019341331790201366
0.088,0.21475425362586975,0.5120411515235901,-0.019232874736189842,0.011994536966085434,-0.003710720222443342,-0.00016388247604481876
0.096,0.21346168220043182,0.5059929490089417,-0.01656794548034668,0.011853912845253944,-0.003998658154159784,-0.00012120419705752283
0.104,0.21286404132843018,0.49911025166511536,-0.01439734548330307,0.01159652415663004,-0.005255809519439936,-0.00023657332349102944
0.112,0.214217871427536,0.4922809898853302,-0.012924098409712315,0.011265881359577179,-0.008224556222558022,-0.0008487636805512011
0.12,0.21822425723075867,0.48659804463386536,-0.011893989518284798,0.010769128799438477,-0.012111215852200985,-0.0019205035641789436
0.128,0.2246093451976776,0.4825592339038849,-0.010560901835560799,0.010083604604005814,-0.014517173171043396,-0.002635796321555972
0.136,0.23167884349822998,0.4797268211841583,-0.008380028419196606,0.009675079956650734,-0.014263429678976536,-0.0023397367913275957
0.144,0.23796382546424866,0.4774942696094513,-0.004840048961341381,0.009755878709256649,-0.012547613121569157,-0.001232659094966948
0.152,0.2424382120370865,0.47544291615486145,-2.6549345420789905e-05,0.009777425788342953,-0.010944019071757793,0.00018881363212130964
0.16,0.24467957019805908,0.47354891896247864,0.00502674700692296,0.009569800458848476,-0.010089990682899952,0.0015163731295615435
0.168,0.2450869381427765,0.47223952412605286,0.00921076163649559,0.009626343846321106,-0.009841809049248695,0.0026298402808606625
0.176,0.24373097717761993,0.47154906392097473,0.01170172169804573,0.009961804375052452,-0.00961242150515318,0.0036836632061749697
0.184,0.24173574149608612,0.471495658159256,0.012502800673246384,0.010154522955417633,-0.00904057826846838,0.004508835729211569
0.192,0.2398378849029541,0.4723072350025177,0.01127811148762703,0.010168829001486301,-0.00881439819931984,0.004740532487630844
0.2,0.23911520838737488,0.4737701714038849,0.008552898652851582,0.010071195662021637,-0.009720701724290848,0.004493286833167076
0.208,0.23996172845363617,0.4749346077442169,0.005586591549217701,0.009655524976551533,-0.011140775866806507,0.004137279000133276
0.216,0.24173030257225037,0.47550395131111145,0.003278125775977969,0.008925852365791798,-0.012165741994976997,0.003767922520637512
0.224,0.2435605525970459,0.47524550557136536,0.0023150339256972075,0.008254443295300007,-0.012971555814146996,0.003270507790148258
0.232,0.24430310726165771,0.47452643513679504,0.002662037266418338,0.007991505786776543,-0.013871950097382069,0.0025819868315011263
0.24,0.24368694424629211,0.47417643666267395,0.0040942770428955555,0.008295457810163498,-0.014576977118849754,0.0019823142793029547
0.248,0.24152511358261108,0.4744577705860138,0.005895030219107866,0.008906674571335316,-0.014882296323776245,0.0017215270781889558
0.256,0.23890888690948486,0.475218802690506,0.007936050184071064,0.009196911938488483,-0.01503994781523943,0.001620650407858193
0.264,0.2370915412902832,0.4763813316822052,0.010101360268890858,0.009018871933221817,-0.015397424809634686,0.0014706242363899946
0.272,0.23719292879104614,0.4775886833667755,0.011826102621853352,0.008936641737818718,-0.016040435060858727,0.0014007752761244774
0.28,0.23970124125480652,0.4785347282886505,0.01285813469439745,0.009159235283732414,-0.016685670241713524,0.0016350479563698173
0.288,0.24359363317489624,0.4790802299976349,0.01329748798161745,0.009167351759970188,-0.017072033137083054,0.0020174297969788313
0.296,0.24802593886852264,0.4790668785572052,0.014327933080494404,0.00881646852940321,-0.017530998215079308,0.0022298756521195173
0.304,0.2523804306983948,0.47861579060554504,0.01565624587237835,0.008566406555473804,-0.018597589805722237,0.002305482979863882
0.312,0.2564113736152649,0.4783516228199005,0.016887744888663292,0.008616937324404716,-0.01983582228422165,0.002409599255770445
0.32,0.2599695920944214,0.4780931770801544,0.01758568547666073,0.00881208200007677,-0.019998706877231598,0.002633514115586877
0.328,0.26235657930374146,0.47790148854255676,0.017207501456141472,0.009025960229337215,-0.018551506102085114,0.0029625133611261845
0.336,0.2636338174343109,0.47741034626960754,0.01593313179910183,0.009145401418209076,-0.01650063320994377,0.0031527478713542223
0.344,0.26359719038009644,0.4764709770679474,0.013326344080269337,0.009145810268819332,-0.015527174808084965,0.002979466924443841
0.352,0.26332077383995056,0.4753904640674591,0.010103506036102772,0.009091170504689217,-0.015989620238542557,0.00264342175796628
0.36,0.26372790336608887,0.4746761620044708,0.006528225727379322,0.00897763017565012,-0.016937101259827614,0.0022034344729036093
0.368,0.26558351516723633,0.47411730885505676,0.002814423991367221,0.008847761899232864,-0.01789998821914196,0.001391831785440445
0.376,0.2685438096523285,0.4737873375415802,0.00016265794693026692,0.008663302287459373,-0.018659375607967377,0.0005288125248625875
0.384,0.27192598581314087,0.4736814796924591,-0.00032866315450519323,0.008471548557281494,-0.01854238472878933,0.00031136220786720514
0.392,0.2750362753868103,0.4736042320728302,0.002157237846404314,0.00851123221218586,-0.01718076504766941,0.0007231375784613192
0.4,0.27726688981056213,0.4736213982105255,0.008037609048187733,0.008724749088287354,-0.01511659100651741,0.0010858458699658513
0.408,0.2781293988227844,0.47409728169441223,0.015585166402161121,0.008990028873085976,-0.013309142552316189,0.0010148289147764444
0.416,0.27779072523117065,0.47474196553230286,0.022482629865407944,0.009296989068388939,-0.01262809056788683,0.0005740508204326034
0.424,0.2766546607017517,0.47579672932624817,0.02679549530148506,0.009636405855417252,-0.013513856567442417,-0.0002760246570687741
0.432,0.27565523982048035,0.47647956013679504,0.028833162039518356,0.010149664245545864,-0.0155191570520401,-0.001463115680962801
0.44,0.2746765911579132,0.4776029884815216,0.029448246583342552,0.010829482227563858,-0.017589500173926353,-0.0023959127720445395
0.448,0.27502650022506714,0.47919562458992004,0.030076390132308006,0.011318972334265709,-0.01920432224869728,-0.002808178775012493
0.456,0.27768540382385254,0.48113730549812317,0.03040785901248455,0.011537441983819008,-0.020556965842843056,-0.00306682544760406
0.464,0.28250741958618164,0.4825325310230255,0.030591731891036034,0.011998794972896576,-0.021471135318279266,-0.003204491687938571
0.472,0.2875499725341797,0.4830179512500763,0.030929071828722954,0.012837808579206467,-0.021000096574425697,-0.002877706428989768
0.48,0.29092779755592346,0.4822902977466583,0.030399484559893608,0.013464435935020447,-0.019153747707605362,-0.0021549086086452007
0.488,0.2916238307952881,0.480681449174881,0.029091564938426018,0.013686906546354294,-0.017724856734275818,-0.00157306925393641
0.496,0.29009151458740234,0.47974398732185364,0.026838792487978935,0.013922329992055893,-0.017910055816173553,-0.001293947221711278
0.504,0.28839629888534546,0.4801769554615021,0.024851514026522636,0.014326265081763268,-0.018555935472249985,-0.0009652775479480624
0.512,0.2888643741607666,0.48194029927253723,0.02350166253745556,0.014616326428949833,-0.018341120332479477,-0.0006162266945466399
0.52,0.29255029559135437,0.4849853813648224,0.022469980642199516,0.01471332460641861,-0.01799999549984932,-0.0006286355783231556
0.528,0.299591064453125,0.48787882924079895,0.02139110676944256,0.014644917100667953,-0.018511248752474785,-0.001104865106754005
0.536,0.3084280788898468,0.49033740162849426,0.01975756697356701,0.014444212429225445,-0.01884915679693222,-0.001572458422742784
0.544,0.3172931373119354,0.4916096031665802,0.0178529005497694,0.014471768401563168,-0.01731308363378048,-0.0013546065893024206
0.552,0.3235793709754944,0.49219515919685364,0.016714856028556824,0.014938002452254295,-0.013639048673212528,-0.0003278970252722502
0.56,0.3261845111846924,0.49276354908943176,0.017458930611610413,0.015650881454348564,-0.00895406398922205,0.0010792323155328631
0.568,0.32569006085395813,0.4939270317554474,0.019268572330474854,0.01637042500078678,-0.0048167090862989426,0.002298979554325342
0.576,0.3239707350730896,0.4952268898487091,0.021786674857139587,0.016820352524518967,-0.002687618136405945,0.002817475935444236
0.584,0.3219774663448334,0.49680808186531067,0.02425612509250641,0.01675001159310341,-0.003092924365773797,0.0024785595014691353
0.592,0.32197555899620056,0.4978695213794708,0.02590814232826233,0.01636543869972229,-0.004666549619287252,0.0017152492655441165
0.6,0.3238014578819275,0.497588187456131,0.027078762650489807,0.016332071274518967,-0.005094284191727638,0.001291282824240625
0.608,0.32648932933807373,0.4957752525806427,0.02766406536102295,0.01694166474044323,-0.0033515754621475935,0.0014665770577266812
0.616,0.3291601538658142,0.4930248558521271,0.02919672429561615,0.017785560339689255,-0.0012366753071546555,0.001509663532488048
0.624,0.3314286470413208,0.49021533131599426,0.0321006178855896,0.018497364595532417,-0.0012338542146608233,0.001031373511068523
0.632,0.3328871726989746,0.4881439507007599,0.03594668209552765,0.01904565468430519,-0.0025916642043739557,0.0006786833400838077
0.64,0.33327120542526245,0.48682883381843567,0.039151936769485474,0.0194820798933506,-0.0024365501012653112,0.0008703728090040386
0.648,0.3322111964225769,0.48627379536628723,0.040289267897605896,0.01980436034500599,-0.00031421505264006555,0.0012815482914447784
0.656,0.33073747158050537,0.4866314232349396,0.038439780473709106,0.01993035152554512,0.00124970986507833,0.001438590814359486
0.664,0.32940053939819336,0.488040953874588,0.03417322039604187,0.019912095740437508,0.0004749309446197003,0.001263854093849659
0.672,0.328945517539978,0.49010851979255676,0.029022840782999992,0.01997886411845684,-0.0010151318274438381,0.0011629740474745631
0.68,0.3293479084968567,0.49271491169929504,0.022861316800117493,0.020145270973443985,-0.0009782069828361273,0.0014345328090712428
0.688,0.33107614517211914,0.4956035912036896,0.016659200191497803,0.020139282569289207,-0.0007162649417296052,0.0016895950539037585
0.696,0.3336711823940277,0.49979689717292786,0.010666653513908386,0.019772816449403763,-0.0029121702536940575,0.001473939628340304
0.704,0.3379858732223511,0.5053415894508362,0.005362868774682283,0.019084453582763672,-0.006116637494415045,0.001206947723403573
0.712,0.3433000445365906,0.5119104981422424,0.0016677393577992916,0.017994467169046402,-0.0063659269362688065,0.0015599989565089345
0.72,0.3472835421562195,0.5177889466285706,0.00016378078726120293,0.01644660346210003,-0.003255405928939581,0.0024125338532030582
0.728,0.3490889072418213,0.5211477875709534,0.0008472527260892093,0.014607359655201435,-8.926283044274896e-05,0.002927505411207676
0.736,0.3489344120025635,0.5215149521827698,0.003908964805305004,0.012581922113895416,0.0007008613902144134,0.0023484518751502037
0.744,0.3477485179901123,0.5183802247047424,0.009219737723469734,0.010559339076280594,1.7963408026844263e-05,0.0009527080692350864
0.752,0.34704405069351196,0.5128098130226135,0.016088249161839485,0.008919382467865944,1.4319081856228877e-05,0.00010419217869639397
0.76,0.3467612862586975,0.5066280961036682,0.0234593003988266,0.007916663773357868,0.0009867515182122588,0.0007226954912766814
0.768,0.34751051664352417,0.5012961030006409,0.02960836887359619,0.007643586490303278,0.0015944251790642738,0.00201312149874866
0.776,0.34924226999282837,0.4979105293750763,0.03353334963321686,0.007962064817547798,0.0007579041994176805,0.002434904919937253
0.784,0.3516359329223633,0.49686434864997864,0.034454345703125,0.008280832320451736,-0.001473530544899404,0.001539341639727354
0.792,0.3544992208480835,0.498050719499588,0.03277061879634857,0.008137552067637444,-0.00424684165045619,0.0002617798454593867
0.8,0.3580644428730011,0.5004463791847229,0.03025996685028076,0.007829722948372364,-0.006627807393670082,-0.0005258246092125773
0.808,0.36185407638549805,0.5036144852638245,0.027620673179626465,0.007938680239021778,-0.007626706268638372,-0.000994799891486764
0.816,0.36642909049987793,0.5068207383155823,0.02589556574821472,0.008482763543725014,-0.006545817945152521,-0.0015635226154699922
0.824,0.3714909553527832,0.5092898011207581,0.025197582319378853,0.009010586887598038,-0.004000488668680191,-0.0018822441343218088
0.832,0.37596839666366577,0.5109615921974182,0.025070400908589363,0.009327125735580921,-0.0015808971365913749,-0.0015166515950113535
0.84,0.37958091497421265,0.5109606385231018,0.025132985785603523,0.009614899754524231,-0.00013603099796455353,-0.0009214240126311779
0.848,0.38157951831817627,0.5091457962989807,0.025852756574749947,0.009905185550451279,0.0007853787392377853,-0.0005981189897283912
0.856,0.3816300630569458,0.5056067109107971,0.028563737869262695,0.010005464777350426,0.0017695369897410274,-0.0001900901843328029
0.864,0.3800598680973053,0.5008974671363831,0.03371866047382355,0.009970718994736671,0.002778549212962389,0.0005918930983170867
0.872,0.3779289722442627,0.495940238237381,0.04159581661224365,0.010173339396715164,0.003405151655897498,0.001292579690925777
0.88,0.37649765610694885,0.4918422996997833,0.050393640995025635,0.010740382596850395,0.003233411116525531,0.0015148347010836005
0.888,0.3769874572753906,0.4886007606983185,0.05907735228538513,0.011450537480413914,0.0021777544170618057,0.0012840370181947947
0.896,0.37996721267700195,0.48647215962409973,0.06556949019432068,0.012218041345477104,0.0006045895861461759,0.0009540576138533652
0.904,0.384896457195282,0.48533347249031067,0.06945596635341644,0.013147903606295586,-0.0006744450074620545,0.0010479780612513423
0.912,0.3904579281806946,0.48455527424812317,0.07077233493328094,0.014229988679289818,-0.0007908250554464757,0.0015856543323025107
0.92,0.39448726177215576,0.4842577278614044,0.06893225014209747,0.015387414954602718,0.00034414013498462737,0.002184294629842043
0.928,0.3965056836605072,0.4846802055835724,0.06505383551120758,0.016515273600816727,0.001979542663320899,0.002700971672311425
0.936,0.39573854207992554,0.4853697121143341,0.060994431376457214,0.017582692205905914,0.0034882400650531054,0.0031363707967102528
0.944,0.3926738500595093,0.4864044487476349,0.05850319564342499,0.018701648339629173,0.004782566800713539,0.0032930150628089905
0.952,0.3884807229042053,0.486637145280838,0.05913648009300232,0.019975483417510986,0.005435147322714329,0.0029515575151890516
0.96,0.3830421566963196,0.48531249165534973,0.06373247504234314,0.021342411637306213,0.004354873672127724,0.0021421401761472225
0.968,0.3768408000469208,0.48253634572029114,0.07345148921012878,0.02269669994711876,0.000824720598757267,0.0007188526215031743
0.976,0.37139540910720825,0.47849658131599426,0.08799447119235992,0.02443937212228775,-0.005146149545907974,-0.001936769695021212
0.984,0.3699147701263428,0.47272971272468567,0.10818242281675339,0.02724505215883255,-0.015347370877861977,-0.007125192321836948
0.992,0.37585267424583435,0.4650593101978302,0.1308060884475708,0.030843038111925125,-0.035928256809711456,-0.017128754407167435
1.0,0.3933141827583313,0.4550047218799591,0.15285088121891022,0.03393569961190224,-0.07413242012262344,-0.03345108777284622
1.008,0.4261040687561035,0.44280722737312317,0.17034810781478882,0.035790398716926575,-0.128749817609787,-0.05431639775633812
1.016,0.4747689366340637,0.42896750569343567,0.18389739096164703,0.03758753836154938,-0.1848105490207672,-0.07512521743774414
1.024,0.5321556925773621,0.4137621223926544,0.19643624126911163,0.04178842157125473,-0.22184020280838013,-0.09095235168933868
1.032,0.5883595943450928,0.39654257893562317,0.21385380625724792,0.050228580832481384,-0.22934842109680176,-0.09941288828849792
1.04,0.6356225609779358,0.37702468037605286,0.23928332328796387,0.06258396804332733,-0.21554137766361237,-0.10306602716445923
1.048,0.6723123788833618,0.3548307418823242,0.27224770188331604,0.07681532949209213,-0.1998399794101715,-0.10752546042203903
1.056,0.7001467943191528,0.3307342529296875,0.30792978405952454,0.09196573495864868,-0.19302336871623993,-0.11530603468418121
1.064,0.7193949818611145,0.3061103820800781,0.3398849666118622,0.10914231836795807,-0.18729980289936066,-0.12304949760437012
1.072,0.7262126207351685,0.2835731506347656,0.3619541525840759,0.12877856194972992,-0.17158006131649017,-0.1273404061794281
1.08,0.7163217067718506,0.26676464080810547,0.36992645263671875,0.14924773573875427,-0.15045617520809174,-0.13059142231941223
1.088,0.6899051070213318,0.2591552734375,0.36133816838264465,0.168554425239563,-0.13682636618614197,-0.13662734627723694
1.096,0.6533434987068176,0.26245594024658203,0.33887597918510437,0.18587514758110046,-0.13373322784900665,-0.144990935921669
1.104,0.6140709519386292,0.27750205993652344,0.30608421564102173,0.20108246803283691,-0.13498938083648682,-0.1533648818731308
1.112,0.5776233077049255,0.3030252456665039,0.2683129906654358,0.21394094824790955,-0.13522200286388397,-0.16064511239528656
1.12,0.548140823841095,0.3375844955444336,0.2296166718006134,0.2245354801416397,-0.13288511335849762,-0.16633081436157227
1.128,0.531247615814209,0.37987807393074036,0.19132062792778015,0.23320305347442627,-0.12911772727966309,-0.17008976638317108
1.136,0.5313479900360107,0.428130179643631,0.15095774829387665,0.23992981016635895,-0.1258293241262436,-0.17198948562145233
1.144,0.5524212121963501,0.4796333611011505,0.1047310084104538,0.24458129703998566,-0.12400398403406143,-0.17269128561019897
1.152,0.5953302383422852,0.5317459106445312,0.048997972160577774,0.24709348380565643,-0.12310703098773956,-0.173557847738266
1.16,0.6568918824195862,0.5825986862182617,-0.014663328416645527,0.24791193008422852,-0.1204042136669159,-0.17516133189201355
1.168,0.7285624742507935,0.6305704116821289,-0.07953576743602753,0.24853064119815826,-0.10996829718351364,-0.17573311924934387
1.176,0.798123836517334,0.6737756729125977,-0.13621042668819427,0.25104185938835144,-0.08354347199201584,-0.17188328504562378
1.184,0.8507090210914612,0.709477424621582,-0.17467725276947021,0.25662708282470703,-0.036615751683712006,-0.1617567092180252
1.192,0.876279354095459,0.7346534729003906,-0.18950054049491882,0.26421037316322327,0.025750312954187393,-0.147676020860672
1.2,0.8723279237747192,0.7485189437866211,-0.18274298310279846,0.2714414596557617,0.09131525456905365,-0.13438113033771515
1.208,0.8432913422584534,0.7524653077125549,-0.16103386878967285,0.27675536274909973,0.14707159996032715,-0.1259189397096634
1.216,0.7976875305175781,0.7502251267433167,-0.13428890705108643,0.2795957922935486,0.18442974984645844,-0.12398876994848251
1.224,0.7455933094024658,0.7456521987915039,-0.11137959361076355,0.28005552291870117,0.20271506905555725,-0.1271418035030365
1.232,0.6959685683250427,0.7422571182250977,-0.0956941545009613,0.2786768674850464,0.20696839690208435,-0.13250760734081268
1.24,0.6547768712043762,0.7415285110473633,-0.08669647574424744,0.27578553557395935,0.2026963084936142,-0.13786673545837402
1.248,0.6245913505554199,0.7425756454467773,-0.07942971587181091,0.27130597829818726,0.1946992725133896,-0.14219796657562256
1.256,0.6047642230987549,0.74432373046875,-0.0669492781162262,0.2654258906841278,0.1875341534614563,-0.14567989110946655
1.264,0.5917180776596069,0.7450942993164062,-0.04353412985801697,0.2590271830558777,0.18418121337890625,-0.14926327764987946
1.272,0.5793815851211548,0.7429561614990234,-0.006464571692049503,0.25317344069480896,0.1852255016565323,-0.15382416546344757
1.28,0.5634932518005371,0.7376413345336914,0.0409199595451355,0.24813078343868256,0.18744340538978577,-0.15990044176578522
1.288,0.546974241733551,0.7299985885620117,0.09014841914176941,0.24285878241062164,0.18190991878509521,-0.1686445027589798
1.296,0.5351556539535522,0.7224788665771484,0.1328836977481842,0.23633262515068054,0.1596520096063614,-0.1813250631093979
1.304,0.5360597968101501,0.7176828980445862,0.16277170181274414,0.22936631739139557,0.12123720347881317,-0.19631683826446533
1.312,0.5559874773025513,0.7176409363746643,0.17837822437286377,0.2240431308746338,0.07623936235904694,-0.2095867544412613
1.32,0.5935223698616028,0.724273681640625,0.1840554177761078,0.22203971445560455,0.034664589911699295,-0.21864835917949677
1.328,0.6405113935470581,0.7367572784423828,0.18756930530071259,0.22354063391685486,0.003056056797504425,-0.22344674170017242
1.336,0.6847732663154602,0.7531576752662659,0.19753289222717285,0.22736549377441406,-0.014966591261327267,-0.22467440366744995
1.344,0.7148413062095642,0.7718172669410706,0.2208300530910492,0.2322813719511032,-0.02030479907989502,-0.22325511276721954
1.352,0.7234663963317871,0.7917967438697815,0.25893279910087585,0.23750461637973785,-0.01768498495221138,-0.22044406831264496
1.36,0.7102464437484741,0.8136378526687622,0.3079690933227539,0.2423964887857437,-0.011056603863835335,-0.21775434911251068
1.368,0.6800528764724731,0.8388863801956177,0.359245628118515,0.24579548835754395,-0.004257539752870798,-0.21759328246116638
1.376,0.6444097757339478,0.8698807954788208,0.40149298310279846,0.24587279558181763,-0.0037304896395653486,-0.22294479608535767
1.384,0.6177964210510254,0.9073992967605591,0.4265090227127075,0.24148660898208618,-0.016464127227663994,-0.23539897799491882
1.392,0.6114803552627563,0.95032799243927,0.43043801188468933,0.23305626213550568,-0.043430689722299576,-0.25261515378952026
1.4,0.6296789646148682,0.9956542253494263,0.4159301221370697,0.2230091691017151,-0.07251494377851486,-0.2664480209350586
1.408,0.666901171207428,1.041265606880188,0.3926788568496704,0.2148873656988144,-0.08492448925971985,-0.26778876781463623
1.416,0.7147611379623413,1.0873090028762817,0.3730263411998749,0.21034038066864014,-0.0746200904250145,-0.2555934190750122
1.424,0.7670749425888062,1.1355687379837036,0.3692115843296051,0.2084319293498993,-0.05237744748592377,-0.23689307272434235
1.432,0.8204181790351868,1.1890021562576294,0.38780316710472107,0.20772609114646912,-0.030705830082297325,-0.2188304215669632
1.44,0.8744783997535706,1.2479583024978638,0.4301978051662445,0.20671573281288147,-0.015898223966360092,-0.20453664660453796
1.448,0.9249762296676636,1.3109627962112427,0.4933547079563141,0.20377135276794434,-0.01067293155938387,-0.19459949433803558
1.456,0.9656767249107361,1.3746730089187622,0.5703004002571106,0.1988172084093094,-0.0135984281077981,-0.1877809762954712
1.464,0.9873990416526794,1.4350873231887817,0.6542083621025085,0.19313612580299377,-0.021701926365494728,-0.18242348730564117
1.472,0.9849711656570435,1.490280270576477,0.7397457361221313,0.1864670068025589,-0.03849918767809868,-0.1803334653377533
1.48,0.9595280885696411,1.5410473346710205,0.8231365084648132,0.17673687636852264,-0.0724567174911499,-0.18644510209560394
1.488,0.9178035855293274,1.5880863666534424,0.8976579904556274,0.16235294938087463,-0.12486039102077484,-0.20317330956459045
1.496,0.8712379932403564,1.6345207691192627,0.9588501453399658,0.1429460346698761,-0.18419058620929718,-0.2266557663679123
1.504,0.8312512636184692,1.6845057010650635,1.006035566329956,0.11907368898391724,-0.23358210921287537,-0.2485230565071106
1.512,0.8106741309165955,1.743476152420044,1.0317306518554688,0.09294246137142181,-0.25934669375419617,-0.25983041524887085
1.52,0.8176345825195312,1.810364007949829,1.0252031087875366,0.06748229265213013,-0.2582351863384247,-0.2561150789260864
1.528,0.8630159497261047,1.8798487186431885,0.9756603240966797,0.04397439956665039,-0.23791716992855072,-0.23895424604415894
1.536,0.9526256322860718,1.9425604343414307,0.8789462447166443,0.02348417043685913,-0.20863986015319824,-0.2144724428653717
1.544,1.088964581489563,1.9876196384429932,0.7431067228317261,0.009984277188777924,-0.17852328717708588,-0.19131223857402802
1.552,1.2633126974105835,2.0061867237091064,0.5921924114227295,0.007217742502689362,-0.1457005739212036,-0.17157749831676483
1.56,1.4468209743499756,1.9949713945388794,0.45686227083206177,0.012982532382011414,-0.09802281856536865,-0.14724871516227722
1.568,1.6074305772781372,1.9561110734939575,0.3599690794944763,0.023072827607393265,-0.026868611574172974,-0.10949958860874176
1.576,1.715778112411499,1.896018147468567,0.3096997141838074,0.03499245271086693,0.058477506041526794,-0.06003161519765854
1.584,1.7614502906799316,1.8211966753005981,0.299697607755661,0.044346243143081665,0.12781380116939545,-0.014239955693483353
1.592,1.7581562995910645,1.73682701587677,0.31375256180763245,0.04709562659263611,0.15434320271015167,0.013585630804300308
1.6,1.7304086685180664,1.6409894227981567,0.32960769534111023,0.04366094619035721,0.13715070486068726,0.023617517203092575
1.608,1.6968038082122803,1.526596188545227,0.32697343826293945,0.036051128059625626,0.09300331026315689,0.02457292005419731
1.616,1.6618781089782715,1.388031005859375,0.2989238500595093,0.025627098977565765,0.0452941469848156,0.025360630825161934
1.624,1.6229302883148193,1.2267541885375977,0.2455281913280487,0.0157657191157341,0.018159382045269012,0.03275926783680916
1.632,1.5696167945861816,1.0484962463378906,0.1755925416946411,0.012278195470571518,0.024028431624174118,0.04894467815756798
1.64,1.4976518154144287,0.8640537261962891,0.10007534921169281,0.017100626602768898,0.05716312304139137,0.07117807120084763
1.648,1.4030810594558716,0.6852292418479919,0.025325916707515717,0.02505578100681305,0.10297871381044388,0.09591825306415558
1.656,1.2899638414382935,0.5222596526145935,-0.04869478568434715,0.030115172266960144,0.14718711376190186,0.12024262547492981
1.664,1.1668864488601685,0.3825072944164276,-0.12426657974720001,0.03114018216729164,0.18000079691410065,0.14165647327899933
1.672,1.042439341545105,0.26913541555404663,-0.20288661122322083,0.030920982360839844,0.2004822939634323,0.15875428915023804
1.68,0.929824709892273,0.179467111825943,-0.2835638225078583,0.03300492465496063,0.21261757612228394,0.170224130153656
1.688,0.8359589576721191,0.10797587782144547,-0.36439627408981323,0.038263700902462006,0.21846626698970795,0.17645004391670227
1.696,0.7613290548324585,0.04742899164557457,-0.4400104880332947,0.04435693472623825,0.2215730994939804,0.1825905740261078
1.704,0.6988781094551086,-0.005954843480139971,-0.5032387971878052,0.04976656287908554,0.22888316214084625,0.19489328563213348
1.712,0.6378807425498962,-0.05275927856564522,-0.5437080264091492,0.05457082390785217,0.24141725897789001,0.21283432841300964
1.72,0.5655848383903503,-0.0896683782339096,-0.5508118271827698,0.05836997181177139,0.25046437978744507,0.22952955961227417
1.728,0.47382473945617676,-0.10867509990930557,-0.5156287550926208,0.06155991554260254,0.24777163565158844,0.23989543318748474
1.736,0.3612906336784363,-0.10355671495199203,-0.43440595269203186,0.06561815738677979,0.23147708177566528,0.24266986548900604
1.744,0.23418913781642914,-0.06992631405591965,-0.3116357922554016,0.06900698691606522,0.20130683481693268,0.23648801445960999
1.752,0.10731908679008484,-0.007469200994819403,-0.1601150780916214,0.06747826933860779,0.15641197562217712,0.21981272101402283
1.76,-0.002064192434772849,0.07769490033388138,0.001140773412771523,0.05998602509498596,0.09661069512367249,0.1930508017539978
1.768,-0.07607458531856537,0.17567065358161926,0.15349559485912323,0.04978226125240326,0.02535725198686123,0.15950098633766174
1.776,-0.10656373202800751,0.27601343393325806,0.28294292092323303,0.03962848335504532,-0.047476671636104584,0.12511692941188812
1.784,-0.09434667229652405,0.3719845414161682,0.3839319944381714,0.030400335788726807,-0.10934840887784958,0.09538863599300385
1.792,-0.0468815416097641,0.46111878752708435,0.4590407609939575,0.02325889840722084,-0.15065307915210724,0.0729055106639862
1.8,0.025831282138824463,0.5456830263137817,0.5149267315864563,0.018569638952612877,-0.168061763048172,0.057786691933870316
1.808,0.11595197021961212,0.628947377204895,0.556492805480957,0.0145238246768713,-0.16544991731643677,0.048599813133478165
1.816,0.21913036704063416,0.7142173051834106,0.5850393176078796,0.008952528238296509,-0.1514427363872528,0.04305524751543999
1.824,0.3332471251487732,0.8024102449417114,0.599738359451294,0.002058001235127449,-0.13456496596336365,0.03887458145618439
1.832,0.4540666341781616,0.8914061784744263,0.6000235080718994,-0.0035088658332824707,-0.11855874955654144,0.03506794571876526
1.84,0.5754822492599487,0.9762755632400513,0.586020827293396,-0.006283904425799847,-0.10307303071022034,0.03174863010644913
1.848,0.6893044710159302,1.0491782426834106,0.5615800023078918,-0.00838922057300806,-0.09065946936607361,0.028028447180986404
1.856,0.78741854429245,1.101716160774231,0.5326772928237915,-0.013243176974356174,-0.08739957213401794,0.022318094968795776
1.864,0.8624826669692993,1.1281834840774536,0.5039548873901367,-0.021840358152985573,-0.0954873114824295,0.015170112252235413
1.872,0.9064850211143494,1.1267129182815552,0.479862242937088,-0.03261055797338486,-0.11085838079452515,0.009568072855472565
1.88,0.913358211517334,1.1010714769363403,0.46483513712882996,-0.0441061332821846,-0.12891750037670135,0.007125176023691893
1.888,0.8800461888313293,1.0612794160842896,0.45907706022262573,-0.055465154349803925,-0.1475977897644043,0.006342343054711819
1.896,0.8097056150436401,1.0199939012527466,0.459439218044281,-0.06591000407934189,-0.16631770133972168,0.004960461053997278
1.904,0.7128452062606812,0.9878398180007935,0.4599045217037201,-0.07582718133926392,-0.1865108460187912,0.0013828949304297566
1.912,0.6050583124160767,0.970321774482727,0.450837105512619,-0.08669145405292511,-0.20934784412384033,-0.004659230820834637
1.92,0.5019626617431641,0.9663048982620239,0.42078348994255066,-0.09893375635147095,-0.2303110957145691,-0.011379928328096867
1.928,0.41780850291252136,0.9680596590042114,0.36385801434516907,-0.1109008640050888,-0.24150799214839935,-0.01621958799660206
1.936,0.36001861095428467,0.966314435005188,0.28080034255981445,-0.12095344066619873,-0.23696644604206085,-0.016759635880589485
1.944,0.3291919529438019,0.9512854814529419,0.1823325753211975,-0.1287686824798584,-0.21291448175907135,-0.010717681609094143
1.952,0.31962892413139343,0.9161273241043091,0.08318359404802322,-0.1342928409576416,-0.16890369355678558,0.002700375858694315
1.96,0.32184427976608276,0.8614140748977661,-0.006423877086490393,-0.13804802298545837,-0.11099936813116074,0.02093094401061535
1.968,0.3299993872642517,0.7943859696388245,-0.08227609843015671,-0.14134350419044495,-0.05064692720770836,0.03854421153664589
1.976,0.34320688247680664,0.728489875793457,-0.15013036131858826,-0.14516189694404602,-0.0018621376948431134,0.04975693300366402
1.984,0.3667529225349426,0.6775274276733398,-0.22005124390125275,-0.15022486448287964,0.02285075932741165,0.05128060281276703
1.992,0.4077756702899933,0.6500387191772461,-0.3002029061317444,-0.15723729133605957,0.01937999576330185,0.0447041355073452
2.0,0.47044920921325684,0.6472749710083008,-0.394631952047348,-0.1667121946811676,-0.007443028036504984,0.03389640152454376
2.008,0.550367534160614,0.6628942489624023,-0.4977113604545593,-0.178450345993042,-0.048276692628860474,0.021678732708096504
2.016,0.6355136036872864,0.686210572719574,-0.5933172106742859,-0.19043992459774017,-0.08910854160785675,0.0121180834248662
2.024,0.7070205211639404,0.7063121199607849,-0.6619742512702942,-0.1998598277568817,-0.11384978890419006,0.010694214142858982
2.032,0.7491278052330017,0.7145804762840271,-0.687906801700592,-0.20585352182388306,-0.11410839855670929,0.01919405348598957
2.04,0.7552086114883423,0.7060536742210388,-0.6638199687004089,-0.20990946888923645,-0.09462302923202515,0.03352345898747444
2.048,0.7317579984664917,0.6809539198875427,-0.5980085134506226,-0.213718980550766,-0.0694977417588234,0.046782299876213074
2.056,0.6979117393493652,0.642936646938324,-0.5122910141944885,-0.21791402995586395,-0.054572656750679016,0.053366973996162415
2.064,0.6764800548553467,0.5978145003318787,-0.43286651372909546,-0.2224053293466568,-0.05980741232633591,0.051448553800582886
2.072,0.6824005246162415,0.551732063293457,-0.3796956241130829,-0.22647139430046082,-0.0828726664185524,0.04358461871743202
2.08,0.7192284464836121,0.5093154907226562,-0.35958194732666016,-0.228298157453537,-0.1083231270313263,0.03464462235569954
2.088,0.7770690321922302,0.4727782905101776,-0.3641640543937683,-0.2258298397064209,-0.11880077421665192,0.02781742811203003
2.096,0.8395143747329712,0.4412355124950409,-0.37429773807525635,-0.21873679757118225,-0.10830189287662506,0.022844472900032997
2.104,0.8902909755706787,0.41292569041252136,-0.37061628699302673,-0.2083488255739212,-0.08284568041563034,0.01784234307706356
2.112,0.9173852801322937,0.38559433817863464,-0.34197765588760376,-0.19555401802062988,-0.052801333367824554,0.011510969139635563
2.12,0.9192615747451782,0.35815995931625366,-0.2862091362476349,-0.18029293417930603,-0.027579668909311295,0.002812196034938097
2.128,0.9020872116088867,0.33142465353012085,-0.20911838114261627,-0.1629609614610672,-0.013132925145328045,-0.009335840120911598
2.136,0.8743207454681396,0.30833810567855835,-0.1230756863951683,-0.1453361213207245,-0.010018515400588512,-0.024038126692175865
2.144,0.8482311964035034,0.2931804358959198,-0.0435594879090786,-0.13000692427158356,-0.017381681129336357,-0.03997223451733589
2.152,0.835371732711792,0.28947827219963074,0.014379416592419147,-0.11866121739149094,-0.039835404604673386,-0.05913473293185234
2.16,0.8450746536254883,0.29852673411369324,0.041959770023822784,-0.11063292622566223,-0.08020570129156113,-0.08315286040306091
2.168,0.8776888847351074,0.31833741068840027,0.03974781185388565,-0.10312234610319138,-0.12661491334438324,-0.10761602967977524
2.176,0.9237991571426392,0.3449201285839081,0.018149327486753464,-0.09293965995311737,-0.15738476812839508,-0.125246062874794
2.184,0.9670418500900269,0.37296003103256226,-0.004183099139481783,-0.07825764268636703,-0.1580546647310257,-0.13325265049934387
2.192,0.9900480508804321,0.39995667338371277,-0.008315962739288807,-0.059659529477357864,-0.12980371713638306,-0.13443605601787567
2.2,0.9811969995498657,0.42607590556144714,0.018750300630927086,-0.03892459347844124,-0.08292137086391449,-0.1319611370563507
2.208,0.9397919774055481,0.45328521728515625,0.08062510937452316,-0.01698831096291542,-0.026977865025401115,-0.12694552540779114
2.216,0.8736461997032166,0.48346710205078125,0.16977643966674805,0.005101457238197327,0.028479035943746567,-0.12178222835063934
2.224,0.7968321442604065,0.5175924301147461,0.2684546113014221,0.024736572057008743,0.07039930671453476,-0.12107052654027939
2.232,0.7271366715431213,0.5548754334449768,0.3545016050338745,0.039467524737119675,0.08757881075143814,-0.1277843564748764
2.24,0.6800047159194946,0.5934181809425354,0.40936458110809326,0.049153201282024384,0.0788295790553093,-0.14117741584777832
2.248,0.6625865697860718,0.6299486756324768,0.4260428845882416,0.05563846603035927,0.05491039901971817,-0.1574704349040985
2.256,0.6713778972625732,0.6630945801734924,0.40920397639274597,0.061464112251996994,0.03173436224460602,-0.1715983897447586
2.264,0.6947221159934998,0.6939850449562073,0.36861804127693176,0.06815752387046814,0.01874467171728611,-0.18083426356315613
2.272,0.722173810005188,0.7244978547096252,0.31435665488243103,0.07466202974319458,0.014187769964337349,-0.18651723861694336
2.28,0.7449158430099487,0.7550974488258362,0.25352197885513306,0.07852689921855927,0.010913345962762833,-0.19139443337917328
2.288,0.7591322660446167,0.7836123108863831,0.19228646159172058,0.0786140114068985,0.004756293259561062,-0.19645026326179504
2.296,0.7627154588699341,0.8044796586036682,0.13821491599082947,0.07635568827390671,-0.0009659767965786159,-0.19989922642707825
2.304,0.7524058222770691,0.8133078217506409,0.09971127659082413,0.074229896068573,0.0011101950658485293,-0.1992301344871521
2.312,0.7250959873199463,0.8087807297706604,0.08336860686540604,0.07352226227521896,0.013810751028358936,-0.19446289539337158
2.32,0.6806656122207642,0.7946720719337463,0.08926007896661758,0.07426436245441437,0.03215053305029869,-0.18856902420520782
2.328,0.6235911846160889,0.7766409516334534,0.11077506840229034,0.0760430246591568,0.04807331785559654,-0.18527421355247498
2.336,0.5639923214912415,0.760435163974762,0.13509637117385864,0.0779876559972763,0.05491068959236145,-0.1869751214981079
2.344,0.5155001282691956,0.7487002015113831,0.1476477086544037,0.07873896509408951,0.04770732671022415,-0.19438058137893677
2.352,0.48816412687301636,0.7416906952857971,0.13634975254535675,0.07700340449810028,0.02507861889898777,-0.20672376453876495
2.36,0.4878051280975342,0.7362556457519531,0.09832559525966644,0.07276300340890884,-0.007055286783725023,-0.22107799351215363
2.368,0.5113778114318848,0.7292671203613281,0.03942778334021568,0.0679553970694542,-0.03665171563625336,-0.23326122760772705
2.376,0.5487492084503174,0.7192354202270508,-0.02798059955239296,0.06534590572118759,-0.05266888067126274,-0.24029025435447693
2.384,0.5898205041885376,0.7064399719238281,-0.09005121141672134,0.06634446233510971,-0.05129418149590492,-0.24142344295978546
2.392,0.6304487586021423,0.6937227249145508,-0.13825255632400513,0.0702289566397667,-0.03675633668899536,-0.23853930830955505
2.4,0.6757497787475586,0.6843490600585938,-0.1729566603899002,0.07525445520877838,-0.0195911955088377,-0.23563122749328613
2.408,0.7338246703147888,0.6793270111083984,-0.198635533452034,0.07969839870929718,-0.011974825523793697,-0.23573905229568481
2.416,0.808515191078186,0.6774759292602539,-0.22101251780986786,0.0824693962931633,-0.018015772104263306,-0.2383083999156952
2.424,0.8940356969833374,0.674522340297699,-0.24126245081424713,0.08355343341827393,-0.028715984895825386,-0.24030055105686188
2.432,0.9705758094787598,0.6663112044334412,-0.25309309363365173,0.08426479250192642,-0.028445297852158546,-0.2385891079902649
2.44,1.0099661350250244,0.6511372923851013,-0.24325712025165558,0.08698035031557083,-0.005251644179224968,-0.23042292892932892
2.448,0.986686110496521,0.6297444701194763,-0.20057420432567596,0.09416612982749939,0.04256940633058548,-0.21386976540088654
2.456,0.8909766674041748,0.6032571792602539,-0.12283377349376678,0.10599377751350403,0.0999869853258133,-0.19194291532039642
2.464,0.7305974364280701,0.5718908309936523,-0.019693633541464806,0.11883147060871124,0.1367643028497696,-0.1738392561674118
2.472,0.5333782434463501,0.534693717956543,0.09112953394651413,0.12771253287792206,0.12616576254367828,-0.16838116943836212
2.48,0.33280205726623535,0.4915381073951721,0.19145219027996063,0.1303420066833496,0.06285670399665833,-0.17846311628818512
2.488,0.15400072932243347,0.4440060257911682,0.2719573974609375,0.1286749690771103,-0.036497924476861954,-0.20113907754421234
2.496,0.0017681717872619629,0.395148366689682,0.3355568051338196,0.12804344296455383,-0.1419217437505722,-0.22905747592449188
2.504,-0.13404299318790436,0.3474760949611664,0.39101049304008484,0.13487586379051208,-0.22244951128959656,-0.25269815325737
2.512,-0.2685883343219757,0.29808148741722107,0.4415760934352875,0.15302546322345734,-0.2627420425415039,-0.26601681113243103
2.52,-0.4133722186088562,0.23700056970119476,0.4823663830757141,0.18072380125522614,-0.27209776639938354,-0.27125704288482666
2.528,-0.5680791735649109,0.1504260152578354,0.5002005100250244,0.21224425733089447,-0.27485719323158264,-0.2771120071411133
2.536,-0.7200236916542053,0.024734601378440857,0.48022007942199707,0.24244458973407745,-0.29316696524620056,-0.2925933301448822
2.544,-0.8507449626922607,-0.14666739106178284,0.4151093661785126,0.2703767716884613,-0.33633118867874146,-0.3216198980808258
2.552,-0.9456964731216431,-0.36152738332748413,0.3133091926574707,0.30039191246032715,-0.39582425355911255,-0.3611280620098114
2.56,-0.9950013756752014,-0.6044797301292419,0.19731934368610382,0.34008461236953735,-0.44789400696754456,-0.4029923677444458
2.568,-0.9886161088943481,-0.8475638031959534,0.08734200894832611,0.3962387442588806,-0.4731002748012543,-0.4389742910861969
2.576,-0.9117401242256165,-1.0599279403686523,-0.0055648754350841045,0.4705016016960144,-0.47547289729118347,-0.4658716917037964
2.584,-0.7326580286026001,-1.2180720567703247,-0.07790487259626389,0.5578697323799133,-0.4731619954109192,-0.4847024381160736
2.592,-0.42690324783325195,-1.303768277168274,-0.12662944197654724,0.650722086429596,-0.46714943647384644,-0.49271589517593384
2.6,0.0037957578897476196,-1.3039942979812622,-0.14409515261650085,0.7450552582740784,-0.4306889474391937,-0.48209524154663086
2.608,0.5280234813690186,-1.2045832872390747,-0.123150534927845,0.8373487591743469,-0.3488229215145111,-0.45614251494407654
2.616,1.0908730030059814,-0.9948275089263916,-0.06699371337890625,0.9195464849472046,-0.2478705197572708,-0.434739351272583
2.624,1.6192114353179932,-0.6754791140556335,0.01920405961573124,0.9897623062133789,-0.15835940837860107,-0.4293034076690674
2.632,2.0198652744293213,-0.2657615542411804,0.11950495839118958,1.060929298400879,-0.0703868716955185,-0.42409828305244446
2.64,2.2088325023651123,0.1932591050863266,0.21207359433174133,1.142280101776123,0.04460743069648743,-0.3964843451976776
2.648,2.1359143257141113,0.6441506743431091,0.2766623795032501,1.2176942825317383,0.17242911458015442,-0.35252004861831665
2.656,1.822298526763916,1.0270204544067383,0.29626327753067017,1.2555668354034424,0.25246065855026245,-0.32724079489707947
2.664,1.3611053228378296,1.287766456604004,0.26862838864326477,1.2418913841247559,0.24748696386814117,-0.3419119119644165
2.672,0.8727626204490662,1.3912612199783325,0.21262706816196442,1.1900826692581177,0.17226220667362213,-0.38310083746910095
2.68,0.4407464563846588,1.3354607820510864,0.14786456525325775,1.124373435974121,0.06502730399370193,-0.42202478647232056
2.688,0.08141890168190002,1.1462870836257935,0.07885857671499252,1.0695784091949463,-0.027706261724233627,-0.4308219850063324
2.696,-0.22206757962703705,0.8598147630691528,-0.00674731470644474,1.0423755645751953,-0.07814028859138489,-0.401464581489563
2.704,-0.4964921474456787,0.5173330903053284,-0.11728987097740173,1.0404715538024902,-0.10402139276266098,-0.3602769076824188
2.712,-0.7517165541648865,0.15318971872329712,-0.23066671192646027,1.0483440160751343,-0.13919559121131897,-0.3423335552215576
2.72,-0.9759995937347412,-0.19675062596797943,-0.2988227605819702,1.048753261566162,-0.20320777595043182,-0.36201101541519165
2.728,-1.1438429355621338,-0.4834756851196289,-0.26252076029777527,1.0299961566925049,-0.3027072548866272,-0.41055095195770264
2.736,-1.2305283546447754,-0.6459922194480896,-0.06663496792316437,0.9960492849349976,-0.42050155997276306,-0.4597592353820801
2.744,-1.232898235321045,-0.635617196559906,0.3032240867614746,0.9677414298057556,-0.5140000581741333,-0.47585150599479675
2.752,-1.14430832862854,-0.44361963868141174,0.8042933344841003,0.9589889049530029,-0.5604385137557983,-0.4505266547203064
2.76,-0.9444581270217896,-0.11200219392776489,1.3544517755508423,0.9569382667541504,-0.5925355553627014,-0.41783544421195984
2.768,-0.6028723120689392,0.28714776039123535,1.8691283464431763,0.9394487142562866,-0.6645752191543579,-0.4276157021522522
2.776,-0.0938793420791626,0.6965640187263489,2.3008790016174316,0.9077639579772949,-0.7904983758926392,-0.49440059065818787
2.784,0.5927032232284546,1.1066516637802124,2.6628901958465576,0.8828826546669006,-0.9414024353027344,-0.595704972743988
2.792,1.4174762964248657,1.55758798122406,2.9932825565338135,0.8767307996749878,-1.083810567855835,-0.7091673612594604
2.8,2.291431188583374,2.082033395767212,3.2943122386932373,0.8899060487747192,-1.1854966878890991,-0.8045799732208252
2.808,3.1068315505981445,2.6700022220611572,3.509674310684204,0.9255774021148682,-1.216127872467041,-0.8366298079490662
2.816,3.7597827911376953,3.2694363594055176,3.5416808128356934,0.9887553453445435,-1.1752451658248901,-0.7888319492340088
2.824,4.183183670043945,3.8073668479919434,3.3166663646698,1.0808271169662476,-1.0962973833084106,-0.6938197612762451
2.832,4.339585781097412,4.230713367462158,2.818882465362549,1.1954838037490845,-1.0145710706710815,-0.5950223207473755
2.84,4.2413411140441895,4.522243022918701,2.1050541400909424,1.3155033588409424,-0.9411377310752869,-0.5042034387588501
2.848,3.948561668395996,4.695419788360596,1.2885949611663818,1.4209495782852173,-0.8616508841514587,-0.4052734673023224
2.856,3.5342464447021484,4.780799865722656,0.4810276925563812,1.4943788051605225,-0.7569200992584229,-0.28830769658088684
2.864,3.078409194946289,4.812676429748535,-0.2390846163034439,1.5206913948059082,-0.6235889792442322,-0.1616993099451065
2.872,2.6609086990356445,4.8312482833862305,-0.8251667618751526,1.4968780279159546,-0.47552716732025146,-0.03698020800948143
2.88,2.334942102432251,4.871758460998535,-1.2568037509918213,1.429793357849121,-0.3353646695613861,0.07533165067434311
2.888,2.118739604949951,4.953619003295898,-1.5326639413833618,1.3267097473144531,-0.21635964512825012,0.16639754176139832
2.896,2.008415699005127,5.085723876953125,-1.651969075202942,1.1977770328521729,-0.11300978064537048,0.24241705238819122
2.904,1.9759355783462524,5.270564079284668,-1.632599949836731,1.0522372722625732,-0.022922663018107414,0.31220588088035583
2.912,1.9997272491455078,5.494406700134277,-1.5060745477676392,0.8963993787765503,0.04665378853678703,0.3693683445453644
2.92,2.060914993286133,5.740535736083984,-1.317655086517334,0.7390344142913818,0.09863729029893875,0.4080023169517517
2.928,2.15578556060791,5.983644485473633,-1.109338402748108,0.5889368653297424,0.14607176184654236,0.4331952929496765
2.936,2.2793474197387695,6.211854457855225,-0.8862899541854858,0.458150178194046,0.21434852480888367,0.4660193622112274
2.944,2.3794186115264893,6.4168524742126465,-0.6435256600379944,0.36199480295181274,0.3402358591556549,0.5371484160423279
2.952,2.3998823165893555,6.55888557434082,-0.3626604676246643,0.3080085515975952,0.5446178913116455,0.6516430974006653
2.96,2.2869226932525635,6.597969055175781,-0.03421657159924507,0.2950127124786377,0.8180142641067505,0.783073902130127
2.968,1.977283239364624,6.481544494628906,0.32064372301101685,0.3052879273891449,1.1150344610214233,0.9015220403671265
2.976,1.4474925994873047,6.161577224731445,0.6451566219329834,0.313102126121521,1.3694030046463013,0.9848563075065613
2.984,0.7227141857147217,5.6447577476501465,0.8521425724029541,0.29231151938438416,1.511017918586731,0.986854612827301
2.992,-0.13401249051094055,4.989960193634033,0.8527073264122009,0.20014986395835876,1.4665035009384155,0.8302928805351257
3.0,-1.0226619243621826,4.284485340118408,0.5826731324195862,0.01843869686126709,1.2522315979003906,0.5287321209907532
3.008,-1.8740431070327759,3.65625262260437,0.03540625050663948,-0.20984894037246704,1.0366331338882446,0.2491006851196289
3.016,-2.672585964202881,3.22556471824646,-0.7705555558204651,-0.4166909456253052,1.0071446895599365,0.16208600997924805
3.024,-3.481102466583252,3.1308817863464355,-1.8212069272994995,-0.556096613407135,1.2282280921936035,0.2972524166107178
3.032,-4.435342311859131,3.477281093597412,-3.1040806770324707,-0.6374064683914185,1.6339757442474365,0.5590365529060364
3.04,-5.669258117675781,4.297281742095947,-4.599890232086182,-0.6940436363220215,2.104447841644287,0.8263741731643677
3.048,-7.249454498291016,5.514384746551514,-6.183708667755127,-0.7083264589309692,2.554177761077881,1.0302571058273315
3.056,-9.15162467956543,6.958843231201172,-7.621487617492676,-0.6090713739395142,2.9480347633361816,1.1487888097763062
3.064,-11.148696899414062,8.389787673950195,-8.649211883544922,-0.3429425358772278,3.2489049434661865,1.1444710493087769
3.072,-12.822990417480469,9.60604476928711,-9.138101577758789,0.05400186777114868,3.3725104331970215,0.9241817593574524
3.08,-13.719991683959961,10.486547470092773,-9.161255836486816,0.44926804304122925,3.2184128761291504,0.38799965381622314
3.088,-13.506494522094727,10.984567642211914,-8.925558090209961,0.7065510749816895,2.7931764125823975,-0.45094600319862366
3.096,-12.164637565612793,11.104997634887695,-8.630861282348633,0.8190582990646362,2.303630828857422,-1.3785313367843628
3.104,-10.05099105834961,10.856546401977539,-8.331233024597168,0.9267999529838562,2.0515949726104736,-2.064833879470825
3.112,-7.730102062225342,10.242029190063477,-7.9384236335754395,1.1732020378112793,2.206369638442993,-2.280832052230835
3.12,-5.7521891593933105,9.30143928527832,-7.303882122039795,1.5750025510787964,2.6953423023223877,-2.03410005569458
3.128,-4.398359775543213,8.08358383178711,-6.3400468826293945,2.0308406352996826,3.2738378047943115,-1.544577717781067
3.136,-3.6379733085632324,6.678407669067383,-5.078476905822754,2.397066593170166,3.6787662506103516,-1.1011571884155273
3.144,-3.2364206314086914,5.1702046394348145,-3.626336097717285,2.572584390640259,3.7795393466949463,-0.8752821683883667
3.152,-2.9228880405426025,3.642076015472412,-2.1401278972625732,2.5505762100219727,3.615142583847046,-0.8548028469085693
3.16,-2.5039477348327637,2.1533331871032715,-0.7827572226524353,2.3829336166381836,3.29756498336792,-0.9388629198074341
3.168,-1.909935474395752,0.7442991733551025,0.3277585804462433,2.1136059761047363,2.914058208465576,-1.0466355085372925
3.176,-1.1638031005859375,-0.5632399320602417,1.1388391256332397,1.7743571996688843,2.514993667602539,-1.1407803297042847
3.184,-0.3327831029891968,-1.7636138200759888,1.6518067121505737,1.4129458665847778,2.1431612968444824,-1.194517731666565
3.192,0.4889410734176636,-2.858308792114258,1.9273792505264282,1.0897388458251953,1.8475728034973145,-1.1713125705718994
3.2,1.2124987840652466,-3.8416175842285156,2.0641040802001953,0.8526959419250488,1.6665526628494263,-1.0440317392349243
3.208,1.771761417388916,-4.697127342224121,2.16938853263855,0.7190897464752197,1.6020394563674927,-0.8168176412582397
3.216,2.1203689575195312,-5.407341480255127,2.3424429893493652,0.6747496128082275,1.6206938028335571,-0.5158299207687378
3.224,2.23817777633667,-5.968430995941162,2.6672286987304688,0.6896244287490845,1.6764519214630127,-0.1697930246591568
3.232,2.140923500061035,-6.384623050689697,3.2070181369781494,0.729008674621582,1.7238861322402954,0.1938745677471161
3.24,1.8792403936386108,-6.677762985229492,3.9936330318450928,0.7541922330856323,1.720723271369934,0.5473762154579163
3.248,1.549680471420288,-6.881028652191162,5.008729457855225,0.7258315682411194,1.6330589056015015,0.8608587980270386
3.256,1.302764892578125,-7.037868499755859,6.174651145935059,0.6111620664596558,1.442736029624939,1.0972850322723389
3.264,1.3106703758239746,-7.17542839050293,7.368312358856201,0.39076951146125793,1.15483820438385,1.2262195348739624
3.272,1.6373927593231201,-7.21558141708374,8.441020011901855,0.06435555219650269,0.7996032238006592,1.2460147142410278
3.28,2.2136523723602295,-7.0291266441345215,9.267274856567383,-0.36037391424179077,0.4145534634590149,1.1804711818695068
3.288,3.0055654048919678,-6.59966516494751,9.707610130310059,-0.8647387623786926,0.039995063096284866,1.0708800554275513
3.296,3.85444712638855,-5.794969081878662,9.756356239318848,-1.3798573017120361,-0.2564597725868225,0.9691950678825378
3.304,4.541475296020508,-4.6433258056640625,9.460984230041504,-1.7926251888275146,-0.39729025959968567,0.8963735103607178
3.312,5.1817827224731445,-3.422926902770996,8.802542686462402,-2.0175466537475586,-0.3496846556663513,0.7963681221008301
3.32,5.915265083312988,-2.4774985313415527,7.932127475738525,-1.9948194026947021,-0.11009471118450165,0.5719251036643982
3.328,6.821168899536133,-2.056086778640747,7.022341251373291,-1.577287197113037,0.39019736647605896,0.2506682276725769
3.336,7.743809223175049,-2.1752560138702393,6.151918411254883,-0.7222415208816528,1.150424838066101,0.0072280946187675
3.344,8.28860855102539,-2.5904593467712402,5.325716495513916,0.10436689853668213,1.8210164308547974,-0.051914945244789124
3.352,8.095492362976074,-2.969456195831299,4.537967681884766,0.3552950620651245,1.9732623100280762,-0.007451686542481184
3.36,7.06525182723999,-3.0766212940216064,3.8653597831726074,0.17251098155975342,1.657942295074463,0.00916912779211998
3.368,5.409148216247559,-2.813626766204834,3.462632894515991,0.051291387528181076,1.228079080581665,-0.05562402307987213
3.376,3.625450372695923,-2.2197229862213135,3.4253904819488525,0.06996963173151016,0.800108015537262,-0.2082834094762802
3.384,2.218545436859131,-1.3205480575561523,3.694336414337158,-0.08353060483932495,0.2916823625564575,-0.4602263271808624
3.392,1.4760223627090454,-0.11551929265260696,4.122926712036133,-0.5975618958473206,-0.28448283672332764,-0.7983879446983337
3.4,1.6405494213104248,1.1744893789291382,4.452807426452637,-1.2948912382125854,-0.8025209903717041,-1.130979299545288
3.408,2.7210049629211426,2.381394863128662,4.560102939605713,-1.8532490730285645,-1.12498939037323,-1.3087620735168457
3.416,4.2860236167907715,3.3634915351867676,4.524057388305664,-2.0760483741760254,-1.1610244512557983,-1.2271147966384888
3.424,5.906876087188721,3.953406810760498,4.376866817474365,-1.8997128009796143,-0.8635106682777405,-0.860706090927124
3.432,7.1844682693481445,4.124466419219971,4.250022888183594,-1.3453329801559448,-0.25343790650367737,-0.2827341854572296
3.44,7.921875953674316,4.0042009353637695,4.278565883636475,-0.5902408361434937,0.4900563955307007,0.30647343397140503
3.448,8.181910514831543,3.7705414295196533,4.460557460784912,0.05978462100028992,1.0586330890655518,0.665223240852356
3.456,8.119231224060059,3.610947847366333,4.685330867767334,0.37576377391815186,1.226335883140564,0.6741899251937866
3.464,7.896451473236084,3.666152238845825,4.784137725830078,0.33757829666137695,0.9995239973068237,0.3914865553379059
3.472,7.609962463378906,3.9751226902008057,4.635251522064209,0.08848657459020615,0.5585487484931946,-0.031209034845232964
3.48,7.247251033782959,4.5224080085754395,4.217116832733154,-0.1945139467716217,0.10252927988767624,-0.459061861038208
3.488,6.790700912475586,5.229188442230225,3.5667543411254883,-0.41538918018341064,-0.2581919729709625,-0.8235681653022766
3.496,6.243171215057373,5.983263969421387,2.7521655559539795,-0.5558992028236389,-0.4887687563896179,-1.090721607208252
3.504,5.600968360900879,6.657983303070068,1.898032546043396,-0.5873534679412842,-0.5574697852134705,-1.218666911125183
3.512,4.870611190795898,7.14442777633667,1.1467828750610352,-0.4602714478969574,-0.4378366768360138,-1.175379991531372
3.52,4.083133220672607,7.370687007904053,0.6305469870567322,-0.1905118227005005,-0.17317664623260498,-0.9858400821685791
3.528,3.279618263244629,7.322242736816406,0.425131231546402,0.10660243034362793,0.11794324219226837,-0.7345620393753052
3.536,2.504556655883789,7.028926849365234,0.5123742818832397,0.29693424701690674,0.3175140619277954,-0.5143135786056519
3.544,1.8231797218322754,6.543279647827148,0.7919291257858276,0.3263459801673889,0.3801686763763428,-0.3716285228729248
3.552,1.2830944061279297,5.948450565338135,1.1371808052062988,0.24041569232940674,0.3398691713809967,-0.29562002420425415
3.56,0.9187979102134705,5.323032855987549,1.4435646533966064,0.12901031970977783,0.2644839882850647,-0.24803736805915833
3.568,0.7303601503372192,4.741932392120361,1.6547666788101196,0.05877424776554108,0.21028640866279602,-0.19844098389148712
3.576,0.703283429145813,4.269351482391357,1.752335548400879,0.047611791640520096,0.2069176882505417,-0.13829299807548523
3.584,0.8130072951316833,3.9400248527526855,1.7569079399108887,0.08007770031690598,0.256710946559906,-0.07471539080142975
3.592,1.023333191871643,3.7529311180114746,1.7106318473815918,0.12740458548069,0.33514732122421265,-0.020090097561478615
3.6,1.294901967048645,3.669063091278076,1.6558574438095093,0.16540783643722534,0.40730148553848267,0.01726803556084633
3.608,1.5833544731140137,3.6286845207214355,1.626828908920288,0.18548721075057983,0.44828251004219055,0.037295304238796234
3.616,1.843626618385315,3.5657248497009277,1.6435215473175049,0.18800687789916992,0.4469726085662842,0.04334241896867752
3.624,2.053762674331665,3.42964506149292,1.7074353694915771,0.17192892730236053,0.40267354249954224,0.03673859313130379
3.632,2.2119333744049072,3.1986632347106934,1.806664228439331,0.1401393711566925,0.3273307979106903,0.018910693004727364
3.64,2.333085775375366,2.880521059036255,1.919287085533142,0.10698629915714264,0.24465611577033997,-0.006456383038312197
3.648,2.4401941299438477,2.5089828968048096,2.0305235385894775,0.0907801017165184,0.18012674152851105,-0.03617563098669052
3.656,2.5654921531677246,2.128638505935669,2.1420912742614746,0.10509969294071198,0.1513434648513794,-0.06835443526506424
3.664,2.739126205444336,1.7811424732208252,2.264895439147949,0.15484023094177246,0.16032356023788452,-0.10421620309352875
3.672,2.9852795600891113,1.488211750984192,2.4090540409088135,0.23324942588806152,0.1913979947566986,-0.14956727623939514
3.68,3.3237242698669434,1.2436190843582153,2.5765345096588135,0.32488900423049927,0.2215842306613922,-0.210586816072464
3.688,3.76450514793396,1.0179396867752075,2.7581355571746826,0.4130510091781616,0.23294097185134888,-0.2916311025619507
3.696,4.3010783195495605,0.774416983127594,2.9362640380859375,0.488777220249176,0.2198651283979416,-0.3949086666107178
3.704,4.909223556518555,0.47789090871810913,3.102464199066162,0.5579041242599487,0.1923774778842926,-0.5159075856208801
3.712,5.545777797698975,0.12853513658046722,3.253592014312744,0.6368092894554138,0.16822053492069244,-0.6442374587059021
3.72,6.169309139251709,-0.23344634473323822,3.391603469848633,0.7396666407585144,0.15672875940799713,-0.7745484709739685
3.728,6.801458358764648,-0.5862134099006653,3.518153667449951,0.866952657699585,0.15044765174388885,-0.9152026772499084
3.736,7.485435485839844,-0.8786701560020447,3.637079954147339,1.0029761791229248,0.13375616073608398,-1.0817207098007202
3.744,8.277670860290527,-1.0942721366882324,3.7505030632019043,1.1244608163833618,0.09906592220067978,-1.2824006080627441
3.752,9.231746673583984,-1.2574715614318848,3.867316246032715,1.2272818088531494,0.060817331075668335,-1.5077646970748901
3.76,10.342105865478516,-1.4007831811904907,4.0554962158203125,1.3542873859405518,0.05421077087521553,-1.7305846214294434
3.768,11.525161743164062,-1.5446069240570068,4.439281940460205,1.5972017049789429,0.12091194093227386,-1.9047516584396362
3.776,12.587414741516113,-1.6469429731369019,5.15647554397583,2.043138027191162,0.28009673953056335,-1.9717772006988525
3.784,13.306319236755371,-1.6188561916351318,6.29761266708374,2.640326976776123,0.47477635741233826,-1.9318788051605225
3.792,13.536155700683594,-1.3483977317810059,7.84880256652832,3.178995370864868,0.5867904424667358,-1.8869708776474
3.8,13.283540725708008,-0.7886403203010559,9.656949996948242,3.463595151901245,0.5236473679542542,-1.9586647748947144
3.808,12.719261169433594,0.013186453841626644,11.427689552307129,3.405921697616577,0.25504809617996216,-2.197845458984375
3.816,12.12285041809082,0.9146206974983215,12.817368507385254,3.014878511428833,-0.19079487025737762,-2.5538406372070312
3.824,11.76827621459961,1.7096152305603027,13.53613567352295,2.374746084213257,-0.7532322406768799,-2.9300341606140137
3.832,11.840521812438965,2.22035551071167,13.445001602172852,1.5732587575912476,-1.3672608137130737,-3.2924320697784424
3.84,12.390814781188965,2.3143115043640137,12.580037117004395,0.7062100172042847,-1.938794493675232,-3.6278328895568848
3.848,13.295244216918945,2.0115673542022705,11.137558937072754,-0.0614546537399292,-2.362384557723999,-3.8355987071990967
3.856,14.268597602844238,1.465606451034546,9.376607894897461,-0.5874080657958984,-2.620353937149048,-3.815973997116089
3.864,15.020813941955566,0.8745465874671936,7.535796165466309,-0.8827393054962158,-2.8049583435058594,-3.5951735973358154
3.872,15.343301773071289,0.4013713002204895,5.825722694396973,-1.0119738578796387,-3.011303186416626,-3.23724627494812
3.88,15.17230224609375,0.09880748391151428,4.432729721069336,-0.9398216009140015,-3.2585158348083496,-2.7201406955718994
3.888,14.525416374206543,-0.052394770085811615,3.491610050201416,-0.6249212026596069,-3.517632007598877,-2.002990245819092
3.896,13.448474884033203,-0.12824998795986176,3.051574230194092,-0.16588401794433594,-3.7618894577026367,-1.1425480842590332
3.904,12.002620697021484,-0.18421147763729095,3.0689425468444824,0.2523673176765442,-3.9816887378692627,-0.2746608257293701
3.912,10.247505187988281,-0.24851854145526886,3.420642375946045,0.4951810836791992,-4.176827430725098,0.486339271068573
3.92,8.261093139648438,-0.32525381445884705,3.915809154510498,0.5298230648040771,-4.342130184173584,1.1146076917648315
3.928,6.148972034454346,-0.38905730843544006,4.38014030456543,0.37340277433395386,-4.465288162231445,1.6378555297851562
3.936,4.027200698852539,-0.41570374369621277,4.687456130981445,0.04381060600280762,-4.543606281280518,2.060879707336426
3.944,2.0312447547912598,-0.393934041261673,4.777303695678711,-0.4237464666366577,-4.593997478485107,2.356177806854248
3.952,0.29073023796081543,-0.3057743310928345,4.632416248321533,-0.9677167534828186,-4.642096996307373,2.498600959777832
3.96,-1.074460506439209,-0.13781026005744934,4.273230075836182,-1.53196382522583,-4.706019401550293,2.4918854236602783
3.968,-1.9950997829437256,0.12295106053352356,3.7155094146728516,-2.078432559967041,-4.791699409484863,2.3703534603118896
3.976,-2.4459304809570312,0.4725241959095001,2.9914307594299316,-2.566821336746216,-4.902591228485107,2.190136671066284
3.984,-2.4671125411987305,0.8914275169372559,2.147921085357666,-2.955352306365967,-5.040885925292969,2.0179173946380615
3.992,-2.1580348014831543,1.3499568700790405,1.256496787071228,-3.2232868671417236,-5.198498249053955,1.9078823328018188
4.0,-1.6804462671279907,1.8291648626327515,0.39665570855140686,-3.3674421310424805,-5.356424808502197,1.8937335014343262
4.008,-1.2566742897033691,2.30895733833313,-0.36121493577957153,-3.3865880966186523,-5.480531692504883,2.0153234004974365
4.016,-1.1299268007278442,2.7671148777008057,-0.9717665910720825,-3.292402982711792,-5.522869110107422,2.326453685760498
4.024,-1.4997628927230835,3.1696114540100098,-1.4304099082946777,-3.1293063163757324,-5.450315475463867,2.840357542037964
4.032,-2.4485011100769043,3.4723477363586426,-1.7846790552139282,-2.967341184616089,-5.274755954742432,3.4680283069610596
4.04,-3.9285054206848145,3.6295783519744873,-2.1110191345214844,-2.8680062294006348,-5.057143211364746,4.0354695320129395
4.048,-5.793642997741699,3.6106183528900146,-2.4894182682037354,-2.8520030975341797,-4.88224458694458,4.383244037628174
4.056,-7.854972839355469,3.414632797241211,-2.980052947998047,-2.8965303897857666,-4.8152756690979,4.450109004974365
4.064,-9.930970191955566,3.073089599609375,-3.6236703395843506,-2.9568748474121094,-4.874584197998047,4.260742664337158
4.072,-11.874773025512695,2.6500613689422607,-4.435169219970703,-2.9906132221221924,-5.044301986694336,3.8607254028320312
4.08,-13.565229415893555,2.228440284729004,-5.412779331207275,-2.966740608215332,-5.308667182922363,3.2747371196746826
4.088,-14.891164779663086,1.9013689756393433,-6.524301052093506,-2.8604543209075928,-5.671810626983643,2.5120577812194824
4.096,-15.771530151367188,1.7562283277511597,-7.7015838623046875,-2.645496368408203,-6.141252040863037,1.59772789478302
4.104,-16.18450355529785,1.8506791591644287,-8.840177536010742,-2.2979507446289062,-6.692756175994873,0.6051299571990967
4.112,-16.186996459960938,2.211435079574585,-9.831305503845215,-1.8189914226531982,-7.261028289794922,-0.3389250338077545
4.12,-15.88802433013916,2.8127121925354004,-10.598661422729492,-1.254485845565796,-7.767324447631836,-1.1045337915420532
4.128,-15.422774314880371,3.5978658199310303,-11.158211708068848,-0.6819108128547668,-8.152422904968262,-1.6220800876617432
4.136,-14.920364379882812,4.476649761199951,-11.580243110656738,-0.17931771278381348,-8.382590293884277,-1.901210904121399
4.144,-14.418028831481934,5.3747687339782715,-11.98189640045166,0.20281749963760376,-8.429060935974121,-2.0140817165374756
4.152,-13.887011528015137,6.202903747558594,-12.383476257324219,0.4642185568809509,-8.258133888244629,-2.0603275299072266
4.16,-13.277633666992188,6.872457504272461,-12.695154190063477,0.6473159790039062,-7.8441691398620605,-2.1142046451568604
4.168,-12.606518745422363,7.311948776245117,-12.794204711914062,0.7797773480415344,-7.157995700836182,-2.1675024032592773
4.176,-11.84781265258789,7.46934700012207,-12.513751029968262,0.8739338517189026,-6.19933557510376,-2.163059711456299
4.184,-10.884475708007812,7.314062118530273,-11.673251152038574,0.9843596816062927,-5.073751449584961,-2.101609230041504
4.192,-9.599767684936523,6.867269515991211,-10.256085395812988,1.1692901849746704,-3.949538469314575,-2.058371067047119
4.2,-7.8598222732543945,6.201406478881836,-8.39549446105957,1.3575291633605957,-2.9163129329681396,-2.0863475799560547
4.208,-5.622648239135742,5.410872936248779,-6.35739278793335,1.362123966217041,-1.9468743801116943,-2.15433406829834
4.216,-3.0680103302001953,4.587911128997803,-4.432553768157959,1.11003577709198,-1.0141390562057495,-2.1965372562408447
4.224,-0.5049910545349121,3.801713228225708,-2.821502208709717,0.6781569719314575,-0.10252030938863754,-2.1355180740356445
4.232,1.7179995775222778,3.0905439853668213,-1.5613574981689453,0.12372499704360962,0.8233620524406433,-1.8926087617874146
4.24,3.3707685470581055,2.49166202545166,-0.5169009566307068,-0.4382162094116211,1.617105484008789,-1.5733258724212646
4.248,4.322207927703857,2.071084976196289,0.5654076337814331,-0.7990334033966064,2.011965751647949,-1.467868447303772
4.256,4.5620622634887695,1.9330167770385742,1.889007329940796,-0.8958088159561157,2.034449815750122,-1.6700669527053833
4.264,4.1582865715026855,2.1629345417022705,3.5425267219543457,-0.856600821018219,1.9713069200515747,-1.9801514148712158
4.272,3.230344772338867,2.7646212577819824,5.463153839111328,-0.818803071975708,2.0179061889648438,-2.181854009628296
4.28,1.9669058322906494,3.6881580352783203,7.373706340789795,-0.8237107396125793,2.177494525909424,-2.1891372203826904
4.288,0.6288304328918457,4.757421970367432,8.916132926940918,-0.8198865056037903,2.315781831741333,-2.0327374935150146
4.296,-0.46227073669433594,5.744694232940674,9.886103630065918,-0.7390931844711304,2.2685534954071045,-1.7913026809692383
4.304,-1.103189468383789,6.448563575744629,10.163897514343262,-0.5500672459602356,1.9728888273239136,-1.5396571159362793
4.312,-1.2279186248779297,6.749415397644043,9.752218246459961,-0.25109153985977173,1.5003254413604736,-1.3527837991714478
4.32,-0.8751261234283447,6.616263389587402,8.738763809204102,0.1033937931060791,1.0379523038864136,-1.2562382221221924
4.328,-0.22566652297973633,6.0861992835998535,7.276954650878906,0.40424293279647827,0.7824383974075317,-1.1913964748382568
4.336,0.535862922668457,5.254234313964844,5.522404670715332,0.5796502232551575,0.8106180429458618,-1.069003939628601
4.344,1.2417207956314087,4.236844539642334,3.5725669860839844,0.6365104913711548,1.0687623023986816,-0.8417670130729675
4.352,1.8026474714279175,3.157805919647217,1.5303229093551636,0.6205650568008423,1.4096471071243286,-0.5548211336135864
4.36,2.210383653640747,2.1378612518310547,-0.46144208312034607,0.5783944725990295,1.6658927202224731,-0.3150502145290375
4.368,2.4883384704589844,1.276228666305542,-2.1987967491149902,0.5374704003334045,1.7785290479660034,-0.19643700122833252
4.376,2.662656545639038,0.6618075370788574,-3.4800288677215576,0.501562237739563,1.8144266605377197,-0.19193366169929504
4.384,2.7044339179992676,0.3410743772983551,-4.1790008544921875,0.4524567723274231,1.854743480682373,-0.23528705537319183
4.392,2.584604263305664,0.3353942930698395,-4.295578479766846,0.372482031583786,1.9003210067749023,-0.25733378529548645
4.4,2.2813620567321777,0.5678610801696777,-3.953294277191162,0.27236124873161316,1.8772380352020264,-0.24122212827205658
4.408,1.8147313594818115,0.927435576915741,-3.3096728324890137,0.1815999299287796,1.7113385200500488,-0.2235865741968155
4.416,1.2520948648452759,1.2941291332244873,-2.518333673477173,0.12305819988250732,1.387985348701477,-0.24359458684921265
4.424,0.6965234875679016,1.575984001159668,-1.6918901205062866,0.10045009851455688,0.9348065257072449,-0.3223675489425659
4.432,0.27290627360343933,1.747031331062317,-0.9009103775024414,0.10579241812229156,0.40950897336006165,-0.463562935590744
4.44,0.06688125431537628,1.7971184253692627,-0.16872146725654602,0.1327582746744156,-0.07487492263317108,-0.6225613355636597
4.448,0.10590371489524841,1.7484562397003174,0.4672713279724121,0.17184150218963623,-0.38702574372291565,-0.7173977494239807
4.456,0.33070364594459534,1.6230995655059814,0.9171785712242126,0.20430156588554382,-0.457290381193161,-0.6834738850593567
4.464,0.6433545351028442,1.4489470720291138,1.0804890394210815,0.21655529737472534,-0.3220311403274536,-0.511927604675293
4.472,0.9452447295188904,1.2540751695632935,0.8797904253005981,0.21303534507751465,-0.11077161878347397,-0.2631552219390869
4.48,1.1932883262634277,1.0560712814331055,0.33170902729034424,0.20568157732486725,0.02761826291680336,-0.03427242860198021
4.488,1.3708488941192627,0.8791875243186951,-0.4478212594985962,0.20030829310417175,0.008509544655680656,0.10251227021217346
4.496,1.4755594730377197,0.7506932020187378,-1.298962950706482,0.19495424628257751,-0.1571824550628662,0.13169124722480774
4.504,1.4959490299224854,0.6956241130828857,-2.0816075801849365,0.18181680142879486,-0.39995139837265015,0.08200371265411377
4.512,1.4140114784240723,0.7330872416496277,-2.7053821086883545,0.1505948007106781,-0.652908444404602,-0.0014503408456221223
4.52,1.2182111740112305,0.8724772930145264,-3.143385887145996,0.09662290662527084,-0.887193500995636,-0.07924801856279373
4.528,0.9231019020080566,1.1103713512420654,-3.424309492111206,0.024637088179588318,-1.1191215515136719,-0.1365816295146942
4.536,0.5838233232498169,1.4208781719207764,-3.604559898376465,-0.05798761546611786,-1.3976551294326782,-0.19001887738704681
4.544,0.291898250579834,1.7562674283981323,-3.7319066524505615,-0.1452399045228958,-1.769456386566162,-0.2674432098865509
4.552,0.145737886428833,2.0531415939331055,-3.8071696758270264,-0.230882465839386,-2.2402002811431885,-0.3808521032333374
4.56,0.20692205429077148,2.2728376388549805,-3.8004660606384277,-0.3074491024017334,-2.762916326522827,-0.5206800103187561
4.568,0.4929300546646118,2.412461042404175,-3.6494803428649902,-0.3672875165939331,-3.2584400177001953,-0.6665083765983582
4.576,0.9718490839004517,2.4748103618621826,-3.2791783809661865,-0.406948447227478,-3.650608539581299,-0.7958199977874756
4.584,1.605621099472046,2.4949023723602295,-2.685211181640625,-0.43244078755378723,-3.8900036811828613,-0.885020911693573
4.592,2.331545114517212,2.478419303894043,-1.8964924812316895,-0.46034181118011475,-3.9597463607788086,-0.9106610417366028
4.6,3.1094167232513428,2.4382171630859375,-0.991538941860199,-0.5122613906860352,-3.871492385864258,-0.854580819606781
4.608,3.8925724029541016,2.3870649337768555,-0.06752045452594757,-0.5984399914741516,-3.674724578857422,-0.7215455770492554
4.616,4.611595630645752,2.329667091369629,0.8134987950325012,-0.7111125588417053,-3.451056480407715,-0.5463026762008667
4.624,5.192649841308594,2.2856340408325195,1.6024494171142578,-0.8415024280548096,-3.2743418216705322,-0.36533215641975403
4.632,5.569153785705566,2.2776689529418945,2.28261661529541,-0.9889898896217346,-3.1943140029907227,-0.1972249448299408
4.64,5.689684867858887,2.3266496658325195,2.8542778491973877,-1.1471648216247559,-3.2501065731048584,-0.05512431263923645
4.648,5.527164459228516,2.435482978820801,3.3441567420959473,-1.2939324378967285,-3.471072196960449,0.04339743033051491
4.656,5.073428153991699,2.5886738300323486,3.8014566898345947,-1.4006919860839844,-3.8631770610809326,0.08922214806079865
4.664,4.336944103240967,2.7575809955596924,4.271854877471924,-1.4506269693374634,-4.3983941078186035,0.09684456884860992
4.672,3.3315482139587402,2.915523052215576,4.757649898529053,-1.4489474296569824,-5.017994403839111,0.0979609489440918
4.68,2.109356641769409,3.0716283321380615,5.190369129180908,-1.4212658405303955,-5.636777400970459,0.1278558224439621
4.688,0.7349247932434082,3.228989601135254,5.474828243255615,-1.4005826711654663,-6.165860176086426,0.21364860236644745
4.696,-0.6572403907775879,3.4110822677612305,5.48623514175415,-1.4158594608306885,-6.553969383239746,0.362628698348999
4.704,-1.956464409828186,3.6151926517486572,5.15062952041626,-1.4875307083129883,-6.81411075592041,0.5526732206344604
4.712,-3.0766959190368652,3.8468363285064697,4.455050945281982,-1.6150931119918823,-7.010617256164551,0.7382683157920837
4.72,-3.9892115592956543,4.122676849365234,3.41318941116333,-1.779354214668274,-7.194336891174316,0.886909544467926
4.728,-4.733016014099121,4.4442291259765625,2.055544376373291,-1.9661628007888794,-7.366969585418701,0.998304009437561
4.736,-5.341546535491943,4.800631523132324,0.3961401879787445,-2.167346477508545,-7.5306267738342285,1.0778783559799194
4.744,-5.791446685791016,5.174921989440918,-1.532859206199646,-2.3579750061035156,-7.726033687591553,1.1202359199523926
4.752,-5.9878339767456055,5.5314412117004395,-3.6742782592773438,-2.492358684539795,-8.004561424255371,1.1282567977905273
4.76,-5.800662517547607,5.830623149871826,-5.912391662597656,-2.534233570098877,-8.38453197479248,1.1268815994262695
4.768,-5.146362781524658,6.038656711578369,-8.079957962036133,-2.483003854751587,-8.842610359191895,1.152652621269226
4.776,-4.011730670928955,6.147383213043213,-9.99889087677002,-2.3681271076202393,-9.334832191467285,1.2383061647415161
4.784,-2.456089496612549,6.160080909729004,-11.523650169372559,-2.235178232192993,-9.802680969238281,1.3954752683639526
4.792,-0.575075626373291,6.104020118713379,-12.562646865844727,-2.125152349472046,-10.179417610168457,1.5980511903762817
4.8,1.5347199440002441,6.0465474128723145,-13.095770835876465,-2.0559921264648438,-10.412712097167969,1.7929211854934692
4.808,3.743468761444092,6.06558084487915,-13.138564109802246,-2.0304811000823975,-10.488555908203125,1.9381980895996094
4.816,5.894418716430664,6.258762836456299,-12.725428581237793,-2.0502586364746094,-10.428110122680664,2.021265983581543
4.824,7.814967155456543,6.712100982666016,-11.901846885681152,-2.0985379219055176,-10.271018028259277,2.056642770767212
4.832,9.281347274780273,7.479747772216797,-10.74691104888916,-2.1209654808044434,-10.0980806350708,2.1237621307373047
4.84,10.071661949157715,8.532697677612305,-9.439985275268555,-2.0988729000091553,-10.00915813446045,2.348090648651123
4.848,10.096473693847656,9.702842712402344,-8.21815013885498,-2.1382699012756348,-9.984513282775879,2.715557098388672
4.856,9.460591316223145,10.75460147857666,-7.311631202697754,-2.3670129776000977,-9.867398262023926,2.9918155670166016
4.864,8.464071273803711,11.478680610656738,-6.820188045501709,-2.7555062770843506,-9.566742897033691,2.9550750255584717
4.872,7.489283561706543,11.784998893737793,-6.668417453765869,-3.1665425300598145,-9.134539604187012,2.584218978881836
4.88,6.842135429382324,11.727555274963379,-6.683604717254639,-3.5276312828063965,-8.641051292419434,1.9679124355316162
4.888,6.676400184631348,11.44506549835205,-6.706087589263916,-3.835861921310425,-8.132875442504883,1.1880308389663696
4.896,7.027931213378906,11.064057350158691,-6.643624305725098,-4.080010890960693,-7.669107437133789,0.314676433801651
4.904,7.8623046875,10.631627082824707,-6.461585521697998,-4.228586196899414,-7.307693004608154,-0.5828223824501038
4.912,9.160021781921387,10.157567024230957,-6.132831573486328,-4.253272533416748,-7.073498249053955,-1.4471874237060547
4.92,10.890804290771484,9.582148551940918,-5.6197404861450195,-4.1577935218811035,-6.958751678466797,-2.234480381011963
4.928,12.992460250854492,8.82955551147461,-4.862699508666992,-3.972012519836426,-6.948758602142334,-2.899834394454956
4.936,15.352069854736328,7.8454155921936035,-3.7492852210998535,-3.718616247177124,-7.042247295379639,-3.3939085006713867
4.944,17.764209747314453,6.634308338165283,-2.1931397914886475,-3.427072048187256,-7.238952159881592,-3.6672677993774414
4.952,19.960912704467773,5.266562461853027,-0.20829996466636658,-3.153080940246582,-7.503371238708496,-3.7065987586975098
4.96,21.677234649658203,3.8548269271850586,2.097156047821045,-2.9504237174987793,-7.781738758087158,-3.560112953186035
4.968,22.739559173583984,2.5061728954315186,4.521206378936768,-2.8523011207580566,-8.052624702453613,-3.2982876300811768
4.976,23.11185073852539,1.2904566526412964,6.836176872253418,-2.8697900772094727,-8.311312675476074,-2.98681640625
4.984,22.908035278320312,0.20636552572250366,8.868416786193848,-2.959760904312134,-8.524528503417969,-2.713399648666382
4.992,22.337413787841797,-0.8012466430664062,10.54085922241211,-2.9947280883789062,-8.639739036560059,-2.5999505519866943
5.0,21.63914680480957,-1.7951116561889648,11.899356842041016,-2.8211522102355957,-8.63680362701416,-2.737323522567749
5.008,20.997682571411133,-2.8175079822540283,13.100739479064941,-2.359175205230713,-8.551987648010254,-3.107027292251587
5.016,20.485267639160156,-3.8820552825927734,14.348406791687012,-1.6117396354675293,-8.453778266906738,-3.5893144607543945
5.024,20.072246551513672,-4.9708428382873535,15.829771995544434,-0.631096363067627,-8.410115242004395,-4.036287784576416
5.032,19.65052604675293,-6.075013637542725,17.65809440612793,0.483767032623291,-8.463541984558105,-4.3350443840026855
5.04,19.0794677734375,-7.222692489624023,19.828901290893555,1.593091368675232,-8.620960235595703,-4.422810077667236
5.048,18.20596694946289,-8.446000099182129,22.272226333618164,2.557346820831299,-8.863452911376953,-4.285547256469727
5.056,16.925445556640625,-9.798908233642578,24.836999893188477,3.2912821769714355,-9.163683891296387,-3.9590461254119873
5.064,15.16575813293457,-11.308206558227539,27.37624740600586,3.7749409675598145,-9.495741844177246,-3.504150390625
5.072,12.896000862121582,-12.961483001708984,29.758848190307617,4.025013446807861,-9.827432632446289,-2.972095012664795
5.08,10.130900382995605,-14.684642791748047,31.859968185424805,4.063009262084961,-10.110138893127441,-2.4008052349090576
5.088,6.931118011474609,-16.338424682617188,33.54817581176758,3.8920373916625977,-10.294282913208008,-1.822316288948059
5.096,3.4146814346313477,-17.75095558166504,34.67703628540039,3.473654270172119,-10.368748664855957,-1.2760847806930542
5.104,-0.24217605590820312,-18.76683235168457,35.12329864501953,2.7551794052124023,-10.330343246459961,-0.8035269379615784
5.112,-3.8295040130615234,-19.293039321899414,34.835662841796875,1.752725601196289,-10.165785789489746,-0.4320014417171478
5.12,-7.152671813964844,-19.33806037902832,33.86765670776367,0.6044976711273193,-9.913098335266113,-0.18864552676677704
5.128,-10.079465866088867,-18.994173049926758,32.367210388183594,-0.48219776153564453,-9.650796890258789,-0.07756701111793518
5.136,-12.566180229187012,-18.39484214782715,30.530410766601562,-1.3612823486328125,-9.434054374694824,-0.05257808417081833
5.144,-14.646544456481934,-17.662921905517578,28.538555145263672,-2.0101985931396484,-9.282410621643066,-0.05277493968605995
5.152,-16.370328903198242,-16.88008689880371,26.51347541809082,-2.4873337745666504,-9.18430233001709,-0.03681053966283798
5.16,-17.809953689575195,-16.063034057617188,24.521408081054688,-2.875683069229126,-9.113787651062012,0.0017459256341680884
5.168,-18.987760543823242,-15.192028999328613,22.564434051513672,-3.251400947570801,-9.051255226135254,0.03500019758939743
5.176,-19.89569854736328,-14.217483520507812,20.614614486694336,-3.6648902893066406,-8.993688583374023,0.0158383846282959
5.184,-20.500919342041016,-13.096505165100098,18.633949279785156,-4.125059127807617,-8.948144912719727,-0.0877610370516777
5.192,-20.758981704711914,-11.817521095275879,16.60416603088379,-4.602527618408203,-8.92090892791748,-0.26539909839630127
5.2,-20.65123748779297,-10.398754119873047,14.551899909973145,-5.052730560302734,-8.913979530334473,-0.46623027324676514
5.208,-20.196754455566406,-8.871797561645508,12.531485557556152,-5.43969202041626,-8.925106048583984,-0.6230436563491821
5.216,-19.46376609802246,-7.277529716491699,10.610505104064941,-5.750560760498047,-8.946017265319824,-0.6883794069290161
5.224,-18.544292449951172,-5.644449710845947,8.836678504943848,-5.994067668914795,-8.965808868408203,-0.6506131887435913
5.232,-17.533960342407227,-4.0020341873168945,7.238651752471924,-6.187573432922363,-8.97519588470459,-0.5131257772445679
5.24,-16.514728546142578,-2.374117612838745,5.822839260101318,-6.3536696434021,-8.96309757232666,-0.28712356090545654
5.248,-15.560091018676758,-0.7682679891586304,4.592155456542969,-6.522111415863037,-8.915141105651855,-0.003237595083191991
5.256,-14.733086585998535,0.823466956615448,3.5349578857421875,-6.723228931427002,-8.817411422729492,0.297725111246109
5.264,-14.102409362792969,2.4375016689300537,2.620089292526245,-6.978532791137695,-8.65653133392334,0.5860382914543152
5.272,-13.73160171508789,4.116331100463867,1.7784271240234375,-7.291936874389648,-8.418299674987793,0.8290414214134216
5.28,-13.674659729003906,5.891201496124268,0.9085633754730225,-7.640718460083008,-8.098236083984375,0.961705207824707
5.288,-13.954264640808105,7.74314022064209,-0.14578154683113098,-7.97557258605957,-7.7163896560668945,0.9054244160652161
5.296,-14.537191390991211,9.585249900817871,-1.546128511428833,-8.242874145507812,-7.317625999450684,0.6217823624610901
5.304,-15.293182373046875,11.288680076599121,-3.436081886291504,-8.393750190734863,-6.9693474769592285,0.12152063846588135
5.312,-16.008676528930664,12.713356018066406,-5.901486873626709,-8.353523254394531,-6.772535800933838,-0.5773619413375854
5.32,-16.332307815551758,13.752185821533203,-8.866466522216797,-8.011781692504883,-6.8649582862854,-1.4521905183792114
5.328,-15.917107582092285,14.356083869934082,-12.119304656982422,-7.290699005126953,-7.383789539337158,-2.409548282623291
5.336,-14.50710678100586,14.524895668029785,-15.332511901855469,-6.240883827209473,-8.374735832214355,-3.251828193664551
5.344,-12.05830192565918,14.304586410522461,-18.156095504760742,-5.068295478820801,-9.675914764404297,-3.7634928226470947
5.352,-8.782001495361328,13.741035461425781,-20.30867576599121,-4.014261722564697,-10.913214683532715,-3.8613760471343994
5.36,-5.09178352355957,12.824212074279785,-21.68316650390625,-3.201746940612793,-11.660467147827148,-3.622429132461548
5.368,-1.4648723602294922,11.472892761230469,-22.406129837036133,-2.6471431255340576,-11.630969047546387,-3.1754095554351807
5.376,1.7994918823242188,9.68531608581543,-22.883893966674805,-2.327263116836548,-10.806581497192383,-2.657989263534546
5.384,4.689021110534668,7.485972881317139,-23.332645416259766,-2.11588454246521,-9.426453590393066,-2.217395305633545
5.392,7.582791805267334,5.248902797698975,-23.810630798339844,-1.7888736724853516,-7.852694511413574,-1.917686104774475
5.4,10.814042091369629,3.3748505115509033,-23.937637329101562,-1.2130756378173828,-6.426368236541748,-1.6945009231567383
5.408,14.570648193359375,2.1975724697113037,-23.34235382080078,-0.41215693950653076,-5.372082710266113,-1.4688900709152222
5.416,18.623273849487305,1.9512746334075928,-21.295806884765625,0.5704737901687622,-4.775781154632568,-1.1871649026870728
5.424,22.214317321777344,2.5197865962982178,-17.512365341186523,1.6862434148788452,-4.511668682098389,-0.7247207164764404
5.432,24.33851432800293,3.5104591846466064,-12.331850051879883,2.6477556228637695,-3.871309995651245,0.09317602217197418
5.44,24.240924835205078,4.432583808898926,-6.979274272918701,2.9502484798431396,-1.9121485948562622,1.2424829006195068
5.448,22.00088882446289,4.833070278167725,-2.7577004432678223,2.3595170974731445,1.4041491746902466,2.2576026916503906
5.456,18.496509552001953,4.550603866577148,-0.42737048864364624,1.3107023239135742,4.451464653015137,2.621443271636963
5.464,14.784418106079102,3.814697504043579,0.12918327748775482,0.6741634607315063,5.134220600128174,2.2758443355560303
5.472,11.503427505493164,3.126957416534424,-0.31483563780784607,0.8621149063110352,3.346010684967041,1.5793882608413696
5.48,8.727701187133789,2.866940975189209,-0.8858693838119507,1.454014778137207,0.9136366844177246,1.0386563539505005
5.488,6.201327800750732,3.2488811016082764,-1.214758038520813,1.9577255249023438,-0.8314816951751709,0.8708794116973877
5.496,3.616903305053711,4.15158748626709,-1.146259069442749,2.322175979614258,-1.8612024784088135,0.8245249390602112
5.504,1.1186168193817139,5.392505168914795,-0.7797773480415344,2.6411192417144775,-2.4489011764526367,0.650711715221405
5.512,-1.0465283393859863,6.614810943603516,-0.11495642364025116,2.8534483909606934,-2.561337947845459,0.425415575504303
5.52,-2.5311949253082275,7.469074726104736,0.5451571345329285,2.822160243988037,-2.215285301208496,0.3094962537288666
5.528,-3.149583101272583,7.819345951080322,1.1309266090393066,2.510920763015747,-1.5817476511001587,0.3111066222190857
5.536,-2.914715051651001,7.700088977813721,1.5386663675308228,2.0471105575561523,-0.8055278062820435,0.39696791768074036
5.544,-1.9933651685714722,7.23705530166626,1.7490595579147339,1.593119502067566,-0.0062620812095701694,0.5789145827293396
5.552,-0.7184373140335083,6.63031005859375,1.6125848293304443,1.1854215860366821,0.6614347100257874,0.8540592193603516
5.56,0.6097100377082825,5.983814716339111,1.0690422058105469,0.8281602263450623,1.019279956817627,1.150758981704712
5.568,1.8573063611984253,5.341497898101807,0.18895427882671356,0.5906195044517517,0.9716391563415527,1.3569484949111938
5.576,2.9770145416259766,4.7407073974609375,-0.8241609930992126,0.5165378451347351,0.6057249903678894,1.4059993028640747
5.584,3.8818798065185547,4.277820587158203,-1.6902406215667725,0.5681586265563965,0.13480043411254883,1.3017923831939697
5.592,4.53449821472168,4.025226593017578,-2.158325672149658,0.65547114610672,-0.24406498670578003,1.086616039276123
5.6,4.882554531097412,3.9932241439819336,-2.1821603775024414,0.6936898231506348,-0.45236167311668396,0.8195192217826843
5.608,4.901946067810059,4.1719818115234375,-1.8254694938659668,0.6464171409606934,-0.5055006146430969,0.5634527802467346
5.616,4.606790065765381,4.512598991394043,-1.28221595287323,0.5140864253044128,-0.44600924849510193,0.37621939182281494
5.624,4.06074857711792,4.916970252990723,-0.7911883592605591,0.3055834472179413,-0.32362040877342224,0.28438615798950195
5.632,3.3777577877044678,5.272686958312988,-0.500856339931488,0.06012410670518875,-0.21183237433433533,0.2611796259880066
5.64,2.6799373626708984,5.521969795227051,-0.3803345561027527,-0.13515806198120117,-0.20045867562294006,0.2477739155292511
5.648,2.055549144744873,5.671321392059326,-0.30428752303123474,-0.2140520066022873,-0.32308366894721985,0.1994301676750183
5.656,1.5391113758087158,5.7660231590271,-0.11878350377082825,-0.19879859685897827,-0.5163084268569946,0.11318908631801605
5.664,1.130998134613037,5.8425068855285645,0.2617015540599823,-0.17479394376277924,-0.6747589707374573,0.023385675624012947
5.672,0.768728494644165,5.894459247589111,0.8216524720191956,-0.21889248490333557,-0.7331141829490662,-0.030794164165854454
5.68,0.3753405809402466,5.884885311126709,1.4316385984420776,-0.3522129952907562,-0.6956857442855835,-0.0313384011387825
5.688,-0.10578048229217529,5.780999660491943,2.000089168548584,-0.5470844507217407,-0.6068457365036011,0.016580210998654366
5.696,-0.6791185140609741,5.561031341552734,2.4428277015686035,-0.735195517539978,-0.5419614315032959,0.08553095906972885
5.704,-1.3219817876815796,5.199302673339844,2.755213975906372,-0.8438475131988525,-0.5704085230827332,0.1390727311372757
5.712,-2.010496139526367,4.718976974487305,2.9071102142333984,-0.8657209873199463,-0.6972882747650146,0.1711316704750061
5.72,-2.710817337036133,4.129140853881836,2.9652154445648193,-0.8495996594429016,-0.8804096579551697,0.20939745008945465
5.728,-3.4041004180908203,3.464557647705078,2.939027786254883,-0.8000617027282715,-1.1064047813415527,0.26676449179649353
5.736,-4.138079643249512,2.716254949569702,2.872574806213379,-0.6906116604804993,-1.351761817932129,0.33372342586517334
5.744,-4.9407830238342285,1.8733948469161987,2.785845994949341,-0.5578334331512451,-1.5266335010528564,0.4189555048942566
5.752,-5.85283088684082,0.9179199934005737,2.6287145614624023,-0.4747881591320038,-1.561425805091858,0.552238404750824
5.76,-6.884539604187012,-0.15055963397026062,2.3135154247283936,-0.45169609785079956,-1.4993202686309814,0.7391499280929565
5.768,-8.01904296875,-1.2687971591949463,1.7147003412246704,-0.47022712230682373,-1.3971494436264038,0.968695342540741
5.776,-9.197028160095215,-2.3176136016845703,0.7154132723808289,-0.5358989238739014,-1.263148546218872,1.2563711404800415
5.784,-10.321268081665039,-3.133315324783325,-0.7152127027511597,-0.6413429975509644,-1.128347396850586,1.62503981590271
5.792,-11.261872291564941,-3.5375893115997314,-2.5538406372070312,-0.6901320219039917,-1.1261162757873535,2.0638370513916016
5.8,-11.907369613647461,-3.382944107055664,-4.6220197677612305,-0.47898203134536743,-1.472039818763733,2.5257952213287354
5.808,-12.18707275390625,-2.573235273361206,-6.646687984466553,0.12176525592803955,-2.2576487064361572,2.9705631732940674
5.816,-12.112815856933594,-1.092141032218933,-8.260330200195312,1.0305461883544922,-3.3416779041290283,3.398690700531006
5.824,-11.808403968811035,0.9860432147979736,-9.212925910949707,2.0825042724609375,-4.526270389556885,3.827061653137207
5.832,-11.524188041687012,3.4080891609191895,-9.29404067993164,3.1080822944641113,-5.64556360244751,4.257107257843018
5.84,-11.492040634155273,5.872073650360107,-8.564065933227539,3.929974317550659,-6.543668746948242,4.663511753082275
5.848,-11.929375648498535,8.037466049194336,-7.272601127624512,4.421160697937012,-7.110027313232422,5.009690761566162
5.856,-12.930258750915527,9.668305397033691,-5.774213790893555,4.575665473937988,-7.332973480224609,5.282025337219238
5.864,-14.375785827636719,10.640292167663574,-4.495270252227783,4.499431610107422,-7.282658576965332,5.465581893920898
5.872,-15.960186004638672,10.972245216369629,-3.6987998485565186,4.286574363708496,-7.034986972808838,5.499105930328369
5.88,-17.307437896728516,10.794058799743652,-3.4444572925567627,3.947629690170288,-6.651485443115234,5.32788610458374
5.888,-18.127056121826172,10.29120922088623,-3.597562074661255,3.509181022644043,-6.203941345214844,4.987699031829834
5.896,-18.327808380126953,9.618790626525879,-3.9000890254974365,3.073147773742676,-5.7366838455200195,4.581414699554443
5.904,-17.97528839111328,8.850974082946777,-4.0462822914123535,2.714150905609131,-5.241235256195068,4.170205116271973
5.912,-17.22800064086914,8.00104808807373,-3.8395438194274902,2.421818256378174,-4.713748455047607,3.7389659881591797
5.92,-16.240203857421875,7.044760704040527,-3.23807954788208,2.1120357513427734,-4.159185886383057,3.2529373168945312
5.928,-15.104360580444336,6.012576103210449,-2.320173978805542,1.6667327880859375,-3.570690631866455,2.6876344680786133
5.936,-13.871317863464355,4.999396800994873,-1.2169064283370972,1.0555739402770996,-2.9686195850372314,2.032257318496704
5.944,-12.604751586914062,4.0573554039001465,-0.05983876436948776,0.39443454146385193,-2.397979736328125,1.2866066694259644
5.952,-11.33242416381836,3.2252068519592285,1.0547136068344116,-0.17748473584651947,-1.8881187438964844,0.4404424726963043
5.96,-10.03989028930664,2.5253546237945557,2.0778191089630127,-0.6282454133033752,-1.434409499168396,-0.5258686542510986
5.968,-8.71973705291748,1.9852049350738525,2.9478840827941895,-1.010715365409851,-0.9914669394493103,-1.6153241395950317
5.976,-7.330788612365723,1.616070032119751,3.5697758197784424,-1.376267671585083,-0.5060532689094543,-2.790684223175049
5.984,-5.833117485046387,1.4346275329589844,3.8496081829071045,-1.7352993488311768,0.03564050793647766,-3.9750113487243652
5.992,-4.198790073394775,1.4073256254196167,3.7085418701171875,-2.0546560287475586,0.619152307510376,-5.090835094451904
6.0,-2.4107062816619873,1.4762722253799438,3.1235687732696533,-2.2609798908233643,1.2254831790924072,-6.092268943786621
6.008,-0.500036895275116,1.5437006950378418,2.1326279640197754,-2.243192195892334,1.8120197057724,-6.945436477661133
6.016,1.469963550567627,1.5254261493682861,0.8916972875595093,-1.8860485553741455,2.302593469619751,-7.6030144691467285
6.024,3.415027141571045,1.4051311016082764,-0.3998801112174988,-1.1436946392059326,2.6150991916656494,-8.022858619689941
6.032,5.265285491943359,1.218061923980713,-1.5450223684310913,-0.08459901809692383,2.6869020462036133,-8.203109741210938
6.04,7.029470443725586,1.0529636144638062,-2.370882749557495,1.1319785118103027,2.5038297176361084,-8.195320129394531
6.048,8.77956771850586,0.9402505159378052,-2.733813524246216,2.336463212966919,2.115046262741089,-8.082680702209473
6.056,10.601341247558594,0.9030628204345703,-2.511277198791504,3.4442241191864014,1.5746949911117554,-7.927177429199219
6.064,12.559542655944824,0.9262513518333435,-1.5788511037826538,4.472834587097168,0.855780303478241,-7.743155002593994
6.072,14.693102836608887,0.9338034987449646,0.1489468663930893,5.44340181350708,-0.12051503360271454,-7.544438362121582
6.08,16.907543182373047,0.8003873229026794,2.6036581993103027,6.255149841308594,-1.318415880203247,-7.3863115310668945
6.088,19.0846004486084,0.4184264838695526,5.516959190368652,6.675816059112549,-2.4447455406188965,-7.319762229919434
6.096,21.16131591796875,-0.2371082454919815,8.408361434936523,6.515047550201416,-3.0422801971435547,-7.282319068908691
6.104,23.18637466430664,-1.1615773439407349,10.784334182739258,5.843032360076904,-2.7803292274475098,-7.08589506149292
6.112,25.29326629638672,-2.3874433040618896,12.278020858764648,4.99015474319458,-1.6853349208831787,-6.5961809158325195
6.12,27.52817726135254,-4.002443790435791,12.759109497070312,4.285525321960449,-0.13976846635341644,-5.85785436630249
6.128,29.813007354736328,-6.048877239227295,12.357382774353027,3.862475872039795,1.3183997869491577,-4.991466522216797
6.136,32.016357421875,-8.394251823425293,11.406002044677734,3.678779363632202,2.276951789855957,-4.051906108856201
6.144,33.9802131652832,-10.802811622619629,10.321386337280273,3.5889976024627686,2.674816846847534,-3.0278284549713135
6.152,35.470481872558594,-12.937410354614258,9.50893783569336,3.440272092819214,2.7556018829345703,-1.9288800954818726
6.16,36.308414459228516,-14.461494445800781,9.23957347869873,3.1739258766174316,2.77266001701355,-0.804039478302002
6.168,36.19974136352539,-15.1664457321167,9.649205207824707,2.840104103088379,2.7870211601257324,0.31844744086265564
6.176,34.690059661865234,-14.828142166137695,10.656243324279785,2.511610269546509,2.7497832775115967,1.4747562408447266
6.184,31.532794952392578,-13.345377922058105,11.920746803283691,2.168696403503418,2.7362356185913086,2.764803886413574
6.192,26.934045791625977,-10.755266189575195,12.899892807006836,1.6619417667388916,2.989673376083374,4.249554634094238
6.2,21.61119270324707,-7.26558256149292,12.872496604919434,0.850226879119873,3.6743321418762207,5.668198108673096
6.208,16.524831771850586,-3.242943525314331,11.152917861938477,-0.1695711612701416,4.531407833099365,6.388979434967041
6.216,12.366710662841797,0.7999427914619446,7.713578224182129,-1.0371251106262207,4.875205993652344,6.067786693572998
6.224,9.3279390335083,4.302000999450684,3.3815996646881104,-1.3505984544754028,4.07129430770874,5.049593448638916
6.232,7.2715911865234375,6.771722316741943,-0.39386215806007385,-0.9771292209625244,1.935794472694397,3.877030372619629
6.24,5.956460952758789,7.907163143157959,-2.2229080200195312,-0.16831660270690918,-1.1098533868789673,2.827219247817993
6.248,5.20743989944458,7.77051305770874,-1.5699800252914429,0.7345032691955566,-4.0113983154296875,1.9380671977996826
6.256,4.941066741943359,6.6859049797058105,1.0408538579940796,1.519243597984314,-5.604369640350342,1.29536771774292
6.264,4.936917304992676,5.092640399932861,4.407665252685547,1.9600430727005005,-5.438086032867432,1.1203017234802246
6.272,5.024013042449951,3.579932928085327,7.210511684417725,1.817013144493103,-3.9308979511260986,1.4663474559783936
6.28,5.150641918182373,2.5577120780944824,8.561816215515137,1.069815993309021,-1.9356552362442017,2.0775349140167236
6.288,5.217265605926514,2.1793103218078613,8.328266143798828,0.061798810958862305,-0.3330742120742798,2.5891685485839844
6.296,5.144124507904053,2.3046956062316895,6.973847389221191,-0.681686520576477,0.3447718620300293,2.7791457176208496
6.304,4.9613847732543945,2.620300531387329,5.36931037902832,-0.8550416827201843,0.1625920534133911,2.66575026512146
6.312,4.727161884307861,2.870828866958618,4.299251556396484,-0.5358976125717163,-0.3888324201107025,2.436171770095825
6.32,4.556276798248291,2.9813692569732666,4.0390238761901855,-0.03968513011932373,-0.7953243255615234,2.276175022125244
6.328,4.5635247230529785,3.0391688346862793,4.397966384887695,0.3069791793823242,-0.8019042611122131,2.250332832336426
6.336,4.723902702331543,3.202597141265869,4.925939083099365,0.35401636362075806,-0.4622696340084076,2.3129968643188477
6.344,4.961798191070557,3.619088649749756,5.201279163360596,0.17819082736968994,-0.022212669253349304,2.371795654296875
6.352,5.162024021148682,4.282557964324951,5.083227634429932,-0.03261244297027588,0.2794230580329895,2.3576531410217285
6.36,5.2437896728515625,5.0897040367126465,4.667658805847168,-0.14275312423706055,0.3585331439971924,2.2600135803222656
6.368,5.1860032081604,5.896892070770264,4.179287433624268,-0.13304752111434937,0.2832300066947937,2.1033339500427246
6.376,5.025275230407715,6.581066131591797,3.8393592834472656,-0.058534979820251465,0.1733955293893814,1.923241138458252
6.384,4.824378490447998,7.106418609619141,3.7581887245178223,-0.005060970783233643,0.12799109518527985,1.7583147287368774
6.392,4.637611389160156,7.52198600769043,3.894787549972534,-0.03443175554275513,0.173271045088768,1.6225206851959229
6.4,4.462822914123535,7.906778335571289,4.100290298461914,-0.1370493769645691,0.25361698865890503,1.4926278591156006
6.408,4.257550239562988,8.34337043762207,4.252371788024902,-0.2685697078704834,0.28548890352249146,1.3327090740203857
6.416,3.96124267578125,8.864067077636719,4.266071319580078,-0.3926995098590851,0.20950116217136383,1.1232774257659912
6.424,3.4904913902282715,9.458568572998047,4.1696600914001465,-0.48267239332199097,0.015698900446295738,0.8669905662536621
6.432,2.76985502243042,10.056360244750977,4.07571268081665,-0.5189857482910156,-0.26249659061431885,0.5829207301139832
6.44,1.7331066131591797,10.56566047668457,4.121752738952637,-0.4914241433143616,-0.5760408639907837,0.29504892230033875
6.448,0.2925713062286377,10.869953155517578,4.40756368637085,-0.41053763031959534,-0.8787123560905457,0.02896873652935028
6.456,-1.5902365446090698,10.883423805236816,4.961920261383057,-0.3166731595993042,-1.1283159255981445,-0.1926525980234146
6.464,-3.893702745437622,10.571860313415527,5.700450420379639,-0.2644106447696686,-1.2868890762329102,-0.35242605209350586
6.472,-6.475034236907959,9.928053855895996,6.506933212280273,-0.27876994013786316,-1.3267894983291626,-0.43879470229148865
6.48,-9.11833381652832,8.939949989318848,7.22144889831543,-0.32752272486686707,-1.2295498847961426,-0.4470612108707428
6.488,-11.539778709411621,7.578830242156982,7.693437099456787,-0.3703954517841339,-0.9723387360572815,-0.38132598996162415
6.496,-13.403629302978516,5.8286967277526855,7.7297139167785645,-0.4564896523952484,-0.5190486311912537,-0.28024446964263916
6.504,-14.439605712890625,3.7275612354278564,7.1671528816223145,-0.7288538813591003,0.15160369873046875,-0.19419221580028534
6.512,-14.532392501831055,1.3956068754196167,5.84299373626709,-1.277637004852295,0.998572826385498,-0.09201818704605103
6.52,-13.79637336730957,-0.9648739099502563,3.7460713386535645,-2.0233235359191895,1.8775638341903687,0.12150971591472626
6.528,-12.466712951660156,-3.119455575942993,0.9876104593276978,-2.7605233192443848,2.563603162765503,0.48080331087112427
6.536,-10.886551856994629,-4.859694480895996,-2.112938404083252,-3.260805606842041,2.844144105911255,0.9176748991012573
6.544,-9.403937339782715,-6.029937267303467,-5.009259223937988,-3.3121390342712402,2.546226739883423,1.3548532724380493
6.552,-8.341154098510742,-6.547532081604004,-6.996555328369141,-2.800313711166382,1.612820029258728,1.7987141609191895
6.56,-7.97395133972168,-6.404162883758545,-7.48878288269043,-1.8357059955596924,0.2352789342403412,2.3029844760894775
6.568,-8.4098482131958,-5.710287570953369,-6.27721643447876,-0.7061276435852051,-1.2059944868087769,2.8733904361724854
6.576,-9.587541580200195,-4.610962390899658,-3.668576717376709,0.27408409118652344,-2.287290334701538,3.4599881172180176
6.584,-11.278867721557617,-3.226400852203369,-0.3814219534397125,0.8584041595458984,-2.6939685344696045,4.027082443237305
6.592,-13.140179634094238,-1.653537631034851,2.6956803798675537,0.9075195789337158,-2.369947910308838,4.576405048370361
6.6,-14.86026382446289,0.05680055543780327,4.8166584968566895,0.34073376655578613,-1.4760026931762695,5.089714050292969
6.608,-16.233251571655273,1.827123761177063,5.6025238037109375,-0.8114237785339355,-0.2962942123413086,5.488661766052246
6.616,-17.25723648071289,3.564530849456787,5.096973419189453,-2.2237753868103027,0.7854995131492615,5.704545021057129
6.624,-18.04217529296875,5.15430212020874,3.6886351108551025,-3.3849644660949707,1.426180124282837,5.762118816375732
6.632,-18.67857551574707,6.428811550140381,1.9512250423431396,-3.9576950073242188,1.5165762901306152,5.706040382385254
6.64,-19.122547149658203,7.255950450897217,0.39656439423561096,-3.9141674041748047,1.1672441959381104,5.505259990692139
6.648,-19.22481918334961,7.56257963180542,-0.695280134677887,-3.409061908721924,0.5332721471786499,5.117437362670898
6.656,-18.869632720947266,7.387755870819092,-1.3126307725906372,-2.6523585319519043,-0.24035930633544922,4.609760761260986
6.664,-18.048036575317383,6.880044460296631,-1.5668870210647583,-1.8577405214309692,-0.9646384119987488,4.136184215545654
6.672,-16.868961334228516,6.237090587615967,-1.6185672283172607,-1.1779184341430664,-1.4666754007339478,3.769198417663574
6.68,-15.434793472290039,5.587305545806885,-1.6055543422698975,-0.6475833654403687,-1.6959726810455322,3.447882890701294
6.688,-13.799333572387695,5.002898693084717,-1.5835126638412476,-0.2107146978378296,-1.7162843942642212,3.099942684173584
6.696,-12.052026748657227,4.490744113922119,-1.5268802642822266,0.2023169994354248,-1.6302014589309692,2.707655191421509
6.704,-10.27159309387207,4.024443626403809,-1.369605541229248,0.6229860186576843,-1.5138728618621826,2.2683308124542236
6.712,-8.553711891174316,3.5967845916748047,-1.0785226821899414,1.035940408706665,-1.3930294513702393,1.7477396726608276
6.72,-6.927961349487305,3.2045364379882812,-0.6430236101150513,1.3804900646209717,-1.257646918296814,1.1056524515151978
6.728,-5.395621299743652,2.8498494625091553,-0.08967246115207672,1.5843842029571533,-1.0841176509857178,0.34036362171173096
6.736,-3.9712631702423096,2.533862829208374,0.526104748249054,1.6358362436294556,-0.8544824123382568,-0.5190257430076599
6.744,-2.6478943824768066,2.245286464691162,1.1607420444488525,1.580956220626831,-0.5680203437805176,-1.4389746189117432
6.752,-1.4276387691497803,1.9692845344543457,1.7803410291671753,1.4519660472869873,-0.2349792867898941,-2.3981831073760986
6.76,-0.30335772037506104,1.6937804222106934,2.354792833328247,1.247985601425171,0.12994644045829773,-3.3857157230377197
6.768,0.7237659692764282,1.4057687520980835,2.8293421268463135,0.9691108465194702,0.5101240277290344,-4.38535213470459
6.776,1.6362264156341553,1.0979435443878174,3.151629686355591,0.6274347305297852,0.8972333073616028,-5.360935211181641
6.784,2.41365385055542,0.8046705722808838,3.285346269607544,0.25353527069091797,1.3001585006713867,-6.2574687004089355
6.792,3.043097496032715,0.5471183061599731,3.2407498359680176,-0.08761429786682129,1.7250880002975464,-7.029156684875488
6.8,3.5590059757232666,0.36431029438972473,3.0530991554260254,-0.317349910736084,2.1556801795959473,-7.662262439727783
6.808,4.024206638336182,0.26801010966300964,2.786219596862793,-0.38858938217163086,2.5647051334381104,-8.170047760009766
6.816,4.53433895111084,0.2588585615158081,2.4979329109191895,-0.3041820526123047,2.931617259979248,-8.571889877319336
6.824,5.188396453857422,0.32882291078567505,2.2190027236938477,-0.08459234237670898,3.236759901046753,-8.88018798828125
6.832,6.0692901611328125,0.45096278190612793,1.955361247062683,0.2661871910095215,3.446197271347046,-9.115913391113281
6.84,7.2307353019714355,0.5830999612808228,1.7071467638015747,0.7197494506835938,3.537112236022949,-9.312673568725586
6.848,8.685569763183594,0.6806159019470215,1.4810224771499634,1.2049074172973633,3.5285277366638184,-9.485918998718262
6.856,10.449698448181152,0.7152636647224426,1.3290849924087524,1.6690483093261719,3.4374632835388184,-9.631070137023926
6.864,12.5144681930542,0.6663686037063599,1.3460184335708618,2.0979084968566895,3.21929931640625,-9.758079528808594
6.872,14.87911605834961,0.5086345672607422,1.6454678773880005,2.458845853805542,2.8043665885925293,-9.89985466003418
6.88,17.50226402282715,0.1892707645893097,2.299065589904785,2.6721179485321045,2.215559244155884,-10.063543319702148
6.888,20.28837013244629,-0.364069402217865,3.290803909301758,2.669706344604492,1.6213680505752563,-10.165619850158691
6.896,23.082477569580078,-1.168298363685608,4.45949649810791,2.464613914489746,1.2492623329162598,-10.044999122619629
6.904,25.71415138244629,-2.231328010559082,5.52221155166626,2.138331174850464,1.2523736953735352,-9.546125411987305
6.912,28.045806884765625,-3.5795958042144775,6.1385722160339355,1.782172441482544,1.6808347702026367,-8.621387481689453
6.92,29.952993392944336,-5.275811195373535,5.991433620452881,1.4944634437561035,2.540045738220215,-7.396241664886475
6.928,31.26910400390625,-7.3315205574035645,4.8550825119018555,1.4150757789611816,3.743082046508789,-6.091963768005371
6.936,31.821205139160156,-9.603235244750977,2.7742316722869873,1.6349906921386719,4.99494743347168,-4.8442606925964355
6.944,31.62367820739746,-11.776203155517578,-0.004845115821808577,2.030815362930298,5.8579182624816895,-3.6533873081207275
6.952,30.819673538208008,-13.432897567749023,-3.263244390487671,2.3365695476531982,6.00328254699707,-2.4811582565307617
6.96,29.680885314941406,-14.339320182800293,-6.50819206237793,2.409186601638794,5.415367126464844,-1.3322514295578003
6.968,28.461910247802734,-14.387694358825684,-9.477816581726074,2.2827935218811035,4.355527877807617,-0.27737292647361755
6.976,27.294708251953125,-13.486645698547363,-11.738283157348633,2.032480478286743,3.157273292541504,0.6052046418190002
6.984,26.202056884765625,-11.566300392150879,-12.797396659851074,1.7407503128051758,2.0030412673950195,1.3214759826660156
6.992,24.922616958618164,-8.813009262084961,-11.997847557067871,1.5409531593322754,0.8500673770904541,1.9787489175796509
7.0,23.208250045776367,-5.4031853675842285,-8.95412540435791,1.5593085289001465,-0.4672292172908783,2.732478141784668
7.008,20.86464500427246,-1.7237123250961304,-4.007730484008789,1.716931939125061,-1.9808168411254883,3.636059284210205
7.016,17.938642501831055,1.6835955381393433,1.5449659824371338,1.7093080282211304,-3.2234256267547607,4.51411247253418
7.024,14.793502807617188,4.264260292053223,6.018954277038574,1.314834713935852,-3.6223483085632324,4.940240383148193
7.032,11.99655818939209,5.7784647941589355,8.231010437011719,0.7339122295379639,-3.2815444469451904,4.637269496917725
7.04,9.920574188232422,6.361644744873047,8.145355224609375,0.3745671510696411,-2.816112756729126,3.93232798576355
7.048,8.68635368347168,6.408063888549805,6.810727119445801,0.34098172187805176,-2.7132112979888916,3.389578104019165
7.056,8.174827575683594,6.246641159057617,5.631407737731934,0.4494069814682007,-3.069451093673706,3.135582447052002
7.064,8.132002830505371,6.032114028930664,5.261802673339844,0.6221768856048584,-3.590428352355957,2.8897390365600586
7.072,8.398916244506836,5.556716442108154,5.797095775604248,0.8876696228981018,-3.814060688018799,2.5152690410614014
7.08,8.816502571105957,4.65719747543335,6.633909702301025,1.1220450401306152,-3.5132949352264404,2.218325614929199
7.088,9.161725997924805,3.4715018272399902,7.098870754241943,1.154507040977478,-2.8348464965820312,2.2138149738311768
7.096,9.310253143310547,2.428433418273926,6.736687183380127,0.976844072341919,-2.0195512771606445,2.5167224407196045
7.104,9.229598999023438,1.6509895324707031,5.559825897216797,0.7065340280532837,-1.3116809129714966,2.9141433238983154
7.112,8.985824584960938,1.2439563274383545,3.986304521560669,0.5315166711807251,-0.9444745779037476,3.08648681640625
7.12,8.662090301513672,1.2001291513442993,2.5526084899902344,0.5872611999511719,-0.8986757397651672,2.9287047386169434
7.128,8.303129196166992,1.5116078853607178,1.5984017848968506,0.782085657119751,-0.88006591796875,2.6451644897460938
7.136,7.903591156005859,2.1504123210906982,1.1691606044769287,0.8868482708930969,-0.6870877146720886,2.4473605155944824
7.144,7.473531246185303,3.104641914367676,1.1230286359786987,0.8079214096069336,-0.39814743399620056,2.34454345703125
7.152,6.988255500793457,4.218639373779297,1.2769801616668701,0.6454320549964905,-0.1839843988418579,2.2377195358276367
7.16,6.533442497253418,5.3086347579956055,1.5183123350143433,0.5235848426818848,-0.11293558031320572,2.067013740539551
7.168,6.159938812255859,6.1989264488220215,1.8310151100158691,0.45854175090789795,-0.13763421773910522,1.8708176612854004
7.176,5.840372562408447,6.858495235443115,2.146798610687256,0.3911520838737488,-0.17005480825901031,1.7458453178405762
7.184,5.559500694274902,7.345527648925781,2.469144821166992,0.29449164867401123,-0.1618472933769226,1.7261598110198975
7.192,5.228039741516113,7.761167526245117,2.858503818511963,0.1860324740409851,-0.11912351101636887,1.7379060983657837
7.2,4.756530284881592,8.23991584777832,3.338122844696045,0.0704272985458374,-0.05895059555768967,1.7120388746261597
7.208,4.071586608886719,8.82467269897461,3.8988962173461914,-0.05463773012161255,0.001400704262778163,1.660836935043335
7.216,3.1557729244232178,9.423139572143555,4.527476787567139,-0.15015572309494019,0.031099479645490646,1.6261036396026611
7.224,2.013627529144287,9.876995086669922,5.248265266418457,-0.13768833875656128,-0.007717359345406294,1.6145179271697998
7.232,0.6745145320892334,10.042723655700684,6.043580532073975,-0.005475640296936035,-0.09245742857456207,1.6207526922225952
7.24,-0.7982878684997559,9.830107688903809,6.834588050842285,0.11301308870315552,-0.10771584510803223,1.6663357019424438
7.248,-2.344511032104492,9.22010326385498,7.492143630981445,0.04856926202774048,0.02075018920004368,1.7464022636413574
7.256,-3.9092721939086914,8.263201713562012,7.910506248474121,-0.22725385427474976,0.23271974921226501,1.8129234313964844
7.264,-5.454363822937012,7.036177635192871,8.032539367675781,-0.596349835395813,0.4565790295600891,1.8703317642211914
7.272,-6.942178249359131,5.634665489196777,7.841541767120361,-0.9434001445770264,0.7102401852607727,1.9894940853118896
7.28,-8.306722640991211,4.139711380004883,7.404992580413818,-1.2228164672851562,1.0273323059082031,2.203777551651001
7.288,-9.532119750976562,2.64959979057312,6.733155727386475,-1.3950436115264893,1.3684035539627075,2.463960647583008
7.296,-10.572360038757324,1.2673735618591309,5.897008895874023,-1.4121760129928589,1.6387993097305298,2.7014217376708984
7.304,-11.443780899047852,0.07295649498701096,4.982292652130127,-1.2689257860183716,1.7654459476470947,2.8917412757873535
7.312,-12.177778244018555,-0.83262038230896,4.076500415802002,-1.0148725509643555,1.7497478723526,3.057354211807251
7.32,-12.846651077270508,-1.382211446762085,3.268636465072632,-0.680959939956665,1.599358081817627,3.2219865322113037
7.328,-13.533151626586914,-1.585931658744812,2.691359281539917,-0.22922098636627197,1.258350133895874,3.3786842823028564
7.336,-14.241921424865723,-1.479736089706421,2.4779961109161377,0.34445321559906006,0.71802818775177,3.5249247550964355
7.344,-14.942441940307617,-1.1694732904434204,2.7489969730377197,0.9311158657073975,0.10563591867685318,3.6784017086029053
7.352,-15.578121185302734,-0.7788958549499512,3.5601658821105957,1.404093861579895,-0.39985135197639465,3.835841655731201
7.36,-16.097623825073242,-0.41275715827941895,4.915236949920654,1.693320870399475,-0.6700215935707092,3.9857089519500732
7.368,-16.431678771972656,-0.1300497204065323,6.695157051086426,1.8116273880004883,-0.7153913378715515,4.107219696044922
7.376,-16.510543823242188,0.08472747355699539,8.672060012817383,1.8576381206512451,-0.6601997017860413,4.135780334472656
7.384,-16.28009033203125,0.30865705013275146,10.527145385742188,1.9045237302780151,-0.5813289880752563,4.029662132263184
7.392,-15.739288330078125,0.6180586814880371,11.976712226867676,1.8655774593353271,-0.4440469741821289,3.85516619682312
7.4,-14.995405197143555,1.0579363107681274,12.810107231140137,1.5546774864196777,-0.21326135098934174,3.7325010299682617
7.408,-14.200583457946777,1.5953375101089478,12.930723190307617,0.9062033891677856,0.057863857597112656,3.7101211547851562
7.416,-13.464305877685547,2.1248326301574707,12.340622901916504,0.05586981773376465,0.2654867172241211,3.726776599884033
7.424,-12.788220405578613,2.5400326251983643,11.124773979187012,-0.7584890127182007,0.32158592343330383,3.6635351181030273
7.432,-12.103133201599121,2.7506191730499268,9.440017700195312,-1.3014788627624512,0.20771248638629913,3.409661293029785
7.44,-11.346929550170898,2.694249153137207,7.508403778076172,-1.4653675556182861,-0.0024240417405962944,2.940545082092285
7.448,-10.459506034851074,2.42047381401062,5.577229022979736,-1.3300635814666748,-0.2161991149187088,2.3135271072387695
7.456,-9.405624389648438,2.025635242462158,3.873107433319092,-1.055066704750061,-0.398165225982666,1.5746885538101196
7.464,-8.153823852539062,1.6113587617874146,2.563979387283325,-0.7272807359695435,-0.5639150142669678,0.7185941934585571
7.472,-6.699045181274414,1.2472237348556519,1.7763553857803345,-0.3468000888824463,-0.7283442616462708,-0.2750714421272278
7.48,-5.0593414306640625,0.9501215815544128,1.5576075315475464,0.06800061464309692,-0.8762829303741455,-1.3804540634155273
7.488,-3.2964744567871094,0.712064266204834,1.8719125986099243,0.4319729804992676,-0.9841811656951904,-2.497598171234131
7.496,-1.4888050556182861,0.5247549414634705,2.586275815963745,0.6437326669692993,-1.0458803176879883,-3.502761125564575
7.504,0.280143141746521,0.3631814420223236,3.508164405822754,0.6220096349716187,-1.0597143173217773,-4.315486907958984
7.512,1.9200222492218018,0.23626354336738586,4.419302940368652,0.31963205337524414,-1.0122599601745605,-4.922533988952637
7.52,3.3499083518981934,0.1712018996477127,5.11877965927124,-0.25403714179992676,-0.8879141211509705,-5.355777740478516
7.528,4.513740539550781,0.20481029152870178,5.460182189941406,-1.0344288349151611,-0.6806656718254089,-5.656054496765137
7.536,5.401413917541504,0.3697558343410492,5.385467052459717,-1.9281737804412842,-0.3919830322265625,-5.859992980957031
7.544,6.038753032684326,0.6573705673217773,4.950748443603516,-2.8256478309631348,-0.04242260381579399,-6.009134769439697
7.552,6.491436004638672,1.0795164108276367,4.237276554107666,-3.612865686416626,0.31189411878585815,-6.153341770172119
7.56,6.858112335205078,1.6387929916381836,3.336057424545288,-4.220564842224121,0.6029090881347656,-6.3381805419921875
7.568,7.259854793548584,2.329089879989624,2.2786121368408203,-4.661526203155518,0.8013686537742615,-6.584874153137207
7.576,7.805797576904297,3.102715492248535,1.0145550966262817,-4.998763084411621,0.9377602338790894,-6.888492584228516
7.584,8.607248306274414,3.8654801845550537,-0.5722651481628418,-5.281203746795654,1.0715528726577759,-7.229415416717529
7.592,9.745847702026367,4.472057819366455,-2.6078238487243652,-5.5028228759765625,1.2213495969772339,-7.585197925567627
7.6,11.279699325561523,4.718564033508301,-5.156740665435791,-5.619294166564941,1.3181250095367432,-7.956581115722656
7.608,13.237613677978516,4.40634298324585,-8.14094066619873,-5.604424476623535,1.2303909063339233,-8.36078929901123
7.616,15.569452285766602,3.398045778274536,-11.299774169921875,-5.471165657043457,0.812805712223053,-8.765037536621094
7.624,18.095836639404297,1.750362753868103,-14.21570873260498,-5.2496538162231445,-0.03020334057509899,-9.034673690795898
7.632,20.637088775634766,-0.25193527340888977,-16.468311309814453,-4.955239295959473,-1.238478183746338,-8.985865592956543
7.64,23.083396911621094,-2.2731688022613525,-17.774587631225586,-4.586360454559326,-2.574164867401123,-8.54026985168457
7.648,25.42353057861328,-4.116718292236328,-17.974884033203125,-4.150434970855713,-3.790764331817627,-7.795438289642334
7.656,27.61492347717285,-5.726583957672119,-17.13622283935547,-3.6887707710266113,-4.774632453918457,-6.894812107086182
7.664,29.448209762573242,-7.223907470703125,-15.464949607849121,-3.2783780097961426,-5.394927024841309,-5.878018856048584
7.672,30.804107666015625,-8.774397850036621,-13.340129852294922,-2.9770047664642334,-5.399539947509766,-4.758500099182129
7.68,31.53707504272461,-10.404220581054688,-11.314653396606445,-2.73697566986084,-4.709174633026123,-3.691200017929077
7.688,31.422595977783203,-11.861315727233887,-9.833343505859375,-2.3937301635742188,-3.61085844039917,-2.824364423751831
7.696,30.403278350830078,-12.478994369506836,-9.160041809082031,-1.8015804290771484,-2.4640185832977295,-2.012049913406372
7.704,28.426834106445312,-11.531354904174805,-9.145502090454102,-0.964470386505127,-1.4343031644821167,-0.9393437504768372
7.712,25.22502899169922,-8.622193336486816,-9.344225883483887,-0.0068881213665008545,-0.5496612787246704,0.5270134806632996
7.72,20.82392692565918,-3.873025894165039,-9.355764389038086,0.9240810871124268,0.20410488545894623,2.1960854530334473
7.728,15.752857208251953,1.7605191469192505,-8.750436782836914,1.7063342332839966,0.8010795712471008,3.623919725418091
7.736,10.921914100646973,6.753794193267822,-7.14051628112793,2.193627119064331,0.8894749283790588,4.368895530700684
7.744,7.3396782875061035,9.764439582824707,-4.621062755584717,2.1901462078094482,-0.23745787143707275,4.290269374847412
7.752,5.55615234375,10.201436042785645,-1.7996633052825928,1.76406729221344,-2.1600685119628906,3.6710994243621826
7.76,5.466315269470215,8.399629592895508,0.560023844242096,1.2965242862701416,-2.9886560440063477,3.078343152999878
7.768,6.404595851898193,5.422840118408203,1.8069688081741333,1.0075271129608154,-1.977776050567627,2.88835072517395
7.776,7.5492963790893555,2.524164915084839,1.8010283708572388,0.8585537672042847,-0.38590508699417114,2.928544521331787
7.784,8.443992614746094,0.5108923316001892,0.9551008343696594,0.8235278129577637,0.6084991097450256,2.8414556980133057
7.792,9.017385482788086,-0.30313757061958313,-0.036218203604221344,0.8931909203529358,0.9094385504722595,2.5571234226226807
7.8,9.2191801071167,-0.03808673843741417,-0.6868085861206055,1.0150761604309082,0.8168026208877563,2.2078380584716797
7.808,9.118057250976562,1.0137836933135986,-0.9388355016708374,1.1230677366256714,0.5556740164756775,1.916995644569397
