Time [s],Acc_x [m/s^2],Acc_y [m/s^2],Acc_z [m/s^2],Gyro_x [1/s],Gyro_y [1/s],Gyro_z [1/s]
0.0,0.03727442026138306,0.09718228876590729,0.011715480126440525,0.01981266215443611,-0.04067439213395119,-6.787404709029943e-05
0.008,0.033262088894844055,0.10333730280399323,0.008117925375699997,0.02602926269173622,-0.04258505254983902,-0.0005907336599193513
0.016,0.02821020409464836,0.10747815668582916,0.005489327944815159,0.029561009258031845,-0.0432114377617836,-0.0013405713252723217
0.024,0.022626079618930817,0.1098499447107315,0.0050424449145793915,0.02749244123697281,-0.04118750989437103,-0.0024993012193590403
0.032,0.017559563741087914,0.11236955225467682,0.0075607518665492535,0.02444978430867195,-0.038444843143224716,-0.004075960256159306
0.04,0.01338046882301569,0.11578084528446198,0.01155416201800108,0.025656752288341522,-0.03805118054151535,-0.004887275397777557
0.048,0.010032166726887226,0.11970426142215729,0.013913517817854881,0.029423866420984268,-0.039709847420454025,-0.00416929554194212
0.056,0.007422680966556072,0.12333299219608307,0.01316680945456028,0.03098493255674839,-0.04053787887096405,-0.003122870111837983
0.064,0.005476060789078474,0.12427903711795807,0.0076077161356806755,0.028421588242053986,-0.03928467258810997,-0.002905529923737049
0.072,0.003941994160413742,0.12260724604129791,-0.0001299145515076816,0.023812811821699142,-0.03748974949121475,-0.002977501368150115
0.08,0.0032838103361427784,0.1199960857629776,-0.0073297773487865925,0.020411822944879532,-0.03660433739423752,-0.002770115388557315
0.088,0.003546901047229767,0.1173858791589737,-0.012123087421059608,0.01946384087204933,-0.03676477447152138,-0.0026889683213084936
0.096,0.0035044346004724503,0.11503030359745026,-0.014322393573820591,0.0196087546646595,-0.03757404536008835,-0.0026914316695183516
0.104,0.003326758276671171,0.11359693109989166,-0.013179745525121689,0.01905880868434906,-0.038404498249292374,-0.0021254876628518105
0.112,0.002683360828086734,0.11246396601200104,-0.01023546326905489,0.016903221607208252,-0.038883026689291,-0.0008887043222784996
0.12,0.001774161821231246,0.11181069910526276,-0.006483441684395075,0.01344611681997776,-0.039008308202028275,0.00044659199193120003
0.128,0.0008999864803627133,0.11154080927371979,-0.002638872480019927,0.009995107538998127,-0.038676247000694275,0.0012894063256680965
0.136,9.929519728757441e-05,0.11078454554080963,-0.00038295038393698633,0.007208709139376879,-0.03777511045336723,0.001196041819639504
0.144,7.120720692910254e-05,0.11022759974002838,0.0004284805618226528,0.005052477121353149,-0.036155156791210175,0.00011862756218761206
0.152,-5.54389989702031e-05,0.10929776728153229,-0.0002450965694151819,0.0033622023183852434,-0.03354780375957489,-0.001601722789928317
0.16,-0.0009419797570444643,0.1085062175989151,-0.002574447076767683,0.0018599622417241335,-0.030108503997325897,-0.0036798829678446054
0.168,-0.003100256435573101,0.1075134426355362,-0.005252700299024582,0.0006359843537211418,-0.02641753852367401,-0.005813487805426121
0.176,-0.005586644634604454,0.1072540432214737,-0.007910200394690037,-0.00024462235160171986,-0.022811371833086014,-0.007874800823628902
0.184,-0.007302719168365002,0.10796929895877838,-0.010736510157585144,-0.0008412562310695648,-0.019508110359311104,-0.010051723569631577
0.192,-0.00795497465878725,0.10873700678348541,-0.013456509448587894,-0.0011632014065980911,-0.0166252963244915,-0.012189279310405254
0.2,-0.007304120808839798,0.10935403406620026,-0.015633072704076767,-0.001593432854861021,-0.01405904721468687,-0.013806037604808807
0.208,-0.007574703078716993,0.10872270166873932,-0.01927335001528263,-0.002423776313662529,-0.011793472804129124,-0.014676334336400032
0.216,-0.009143047034740448,0.10683633387088776,-0.02317204512655735,-0.0034896358847618103,-0.009877881966531277,-0.015290227718651295
0.224,-0.01101328432559967,0.1032266765832901,-0.02675643004477024,-0.00432572839781642,-0.007963390089571476,-0.016325393691658974
0.232,-0.011769955977797508,0.0994272381067276,-0.028915777802467346,-0.00473157549276948,-0.0055509088560938835,-0.017824728041887283
0.24,-0.010317311622202396,0.09564687311649323,-0.02923768386244774,-0.004788411781191826,-0.002782089402899146,-0.019304480403661728
0.248,-0.007027635350823402,0.0922708585858345,-0.028825100511312485,-0.004410829395055771,-0.00028489678516052663,-0.02025110274553299
0.256,-0.0030534453690052032,0.08928395062685013,-0.02877066843211651,-0.0036301929503679276,0.0017868956783786416,-0.020315350964665413
0.264,0.00015763752162456512,0.08598233014345169,-0.02879224345088005,-0.0026945238932967186,0.003633498912677169,-0.019824925810098648
0.272,0.0025730933994054794,0.08283425122499466,-0.029343772679567337,-0.0019075218588113785,0.0050783404149115086,-0.019313283264636993
0.28,0.004056225530803204,0.07928276807069778,-0.02982628531754017,-0.0014915643259882927,0.005938123911619186,-0.01857054978609085
0.288,0.005386720411479473,0.07557202130556107,-0.03048488311469555,-0.0014024041593074799,0.006392069160938263,-0.017088936641812325
0.296,0.007295710034668446,0.07247353345155716,-0.03164147585630417,-0.0014365599490702152,0.006702428683638573,-0.014908015727996826
0.304,0.008999053388834,0.06993962079286575,-0.033679571002721786,-0.001262487843632698,0.007049528881907463,-0.01243546698242426
0.312,0.011050626635551453,0.06897926330566406,-0.0355428010225296,-0.0005572279915213585,0.007395564112812281,-0.010320878587663174
0.32,0.012995797209441662,0.07016658782958984,-0.03706894814968109,0.0005852407775819302,0.007636747322976589,-0.00904685165733099
0.328,0.015086418017745018,0.07417678833007812,-0.03711404278874397,0.0014972817152738571,0.0079075051471591,-0.008309686556458473
0.336,0.01694526895880699,0.07991886138916016,-0.03600489720702171,0.0018483090680092573,0.008326360955834389,-0.007679062895476818
0.344,0.01799926534295082,0.08611011505126953,-0.03411455079913139,0.0021150822285562754,0.008734304457902908,-0.007155126426368952
0.352,0.01764967292547226,0.09107589721679688,-0.03226121515035629,0.0025581978261470795,0.009217801503837109,-0.006657598074525595
0.36,0.016249801963567734,0.09462357312440872,-0.03011040762066841,0.002949637360870838,0.009845305234193802,-0.00605508079752326
0.368,0.01377449743449688,0.09591294825077057,-0.028487851843237877,0.0031442996114492416,0.010519920848309994,-0.005521598272025585
0.376,0.011001992970705032,0.09475518763065338,-0.027309037744998932,0.003211347386240959,0.011247190646827221,-0.005430793855339289
0.384,0.009134288877248764,0.09136582165956497,-0.026804020628333092,0.00342400255613029,0.011793565936386585,-0.005655402783304453
0.392,0.008129536174237728,0.08557701855897903,-0.02757059596478939,0.003983084578067064,0.011764025315642357,-0.005265975371003151
0.4,0.008539155125617981,0.07857037335634232,-0.030241241678595543,0.0046325684525072575,0.010946938768029213,-0.003586668986827135
0.408,0.010312467813491821,0.07193756103515625,-0.03530745953321457,0.004873132333159447,0.00940069928765297,-0.0009450589423067868
0.416,0.012859857641160488,0.06677627563476562,-0.04323965683579445,0.00465140026062727,0.0074048275128006935,0.0018755113705992699
0.424,0.01614164188504219,0.0643301010131836,-0.05365763604640961,0.004707528743892908,0.005077307112514973,0.004473049659281969
0.432,0.019145751371979713,0.06473731994628906,-0.06453674286603928,0.005823201034218073,0.0027513836976140738,0.006700117606669664
0.44,0.020777875557541847,0.06772708892822266,-0.07369022816419601,0.008200378157198429,0.001005138037726283,0.008325754664838314
0.448,0.020566744729876518,0.07225799560546875,-0.07983627170324326,0.01157260313630104,0.00011965297017013654,0.00915771909058094
0.456,0.01772662065923214,0.07715225219726562,-0.08224479854106903,0.015014869160950184,-3.8647940527880564e-05,0.009268292225897312
0.464,0.01380976289510727,0.08249473571777344,-0.08128948509693146,0.017288053408265114,0.00045244902139529586,0.008998367935419083
0.472,0.010030332952737808,0.08844280242919922,-0.07644288241863251,0.01771003007888794,0.001581949763931334,0.008785432204604149
0.48,0.008016115054488182,0.09412480145692825,-0.06858765333890915,0.016444196924567223,0.002625836757943034,0.008956280536949635
0.488,0.008757125586271286,0.09862709790468216,-0.058131780475378036,0.01457635685801506,0.002842741087079048,0.00970462616533041
0.496,0.011945044621825218,0.10169125348329544,-0.04634746164083481,0.013350876048207283,0.0029136224184185266,0.010663583874702454
0.504,0.016961222514510155,0.10282421857118607,-0.03496954217553139,0.012867945246398449,0.004013360943645239,0.010840944945812225
0.512,0.022449059411883354,0.10278607159852982,-0.026410168036818504,0.012034133076667786,0.0064211878925561905,0.00994986854493618
0.52,0.02583964169025421,0.10124684125185013,-0.021174389868974686,0.009966372512280941,0.008889064192771912,0.009334214963018894
0.528,0.02454986982047558,0.0972137525677681,-0.022699499502778053,0.00732096703723073,0.009086434729397297,0.01022564247250557
0.536,0.01871580444276333,0.09114456176757812,-0.031102633103728294,0.005093592219054699,0.0064901020377874374,0.012024550698697567
0.544,0.011203859932720661,0.0831899642944336,-0.04327722638845444,0.00296452222391963,0.004126408137381077,0.012646869756281376
0.552,0.0058496855199337006,0.07644462585449219,-0.054155126214027405,0.0010519055649638176,0.005430905148386955,0.01056769397109747
0.56,0.007448868826031685,0.07323551177978516,-0.05833546817302704,0.001185375265777111,0.009404255077242851,0.0066365450620651245
0.568,0.01545114815235138,0.07373046875,-0.054786428809165955,0.004712330177426338,0.011147172190248966,0.003443903988227248
0.576,0.025949252769351006,0.07600116729736328,-0.04796252027153969,0.009874163195490837,0.00713924877345562,0.003546827007085085
0.584,0.03217290714383125,0.07632160186767578,-0.0424271859228611,0.012704682536423206,-0.0028415543492883444,0.008507476188242435
0.592,0.030284684151411057,0.0716695785522461,-0.04134206846356392,0.011946321465075016,-0.016201816499233246,0.017056584358215332
0.6,0.021177049726247787,0.06331062316894531,-0.043170712888240814,0.01045496016740799,-0.027299003675580025,0.024948308244347572
0.608,0.009059444069862366,0.05509663000702858,-0.04684585705399513,0.011987210251390934,-0.03143342211842537,0.02834126725792885
0.616,0.0004211403429508209,0.05169868841767311,-0.05070236325263977,0.019414808601140976,-0.029598139226436615,0.026783296838402748
0.624,-0.0010116547346115112,0.05559158697724342,-0.05510188266634941,0.031162532046437263,-0.026655349880456924,0.022769462317228317
0.632,0.004991719499230385,0.06541633605957031,-0.0580439455807209,0.04063541814684868,-0.026098599657416344,0.018823593854904175
0.64,0.015330689027905464,0.07747077941894531,-0.060590773820877075,0.043325893580913544,-0.02760409191250801,0.015525154769420624
0.648,0.02645115740597248,0.09012222290039062,-0.06153392419219017,0.040914349257946014,-0.0286300927400589,0.012114894576370716
0.656,0.03588540852069855,0.10083771497011185,-0.05941348150372505,0.038127005100250244,-0.027347125113010406,0.007910716347396374
0.664,0.042329706251621246,0.11061859875917435,-0.053406789898872375,0.038165923207998276,-0.023697059601545334,0.0034904154017567635
0.672,0.045291587710380554,0.11844635754823685,-0.044391945004463196,0.04058925062417984,-0.01853662170469761,-0.00017481704708188772
0.68,0.04521043598651886,0.12301064282655716,-0.033445846289396286,0.04263285547494888,-0.012777047231793404,-0.002855317434296012
0.688,0.04222049564123154,0.12323380261659622,-0.023516211658716202,0.041723594069480896,-0.007145286537706852,-0.004824786446988583
0.696,0.037357039749622345,0.11877156049013138,-0.01666518673300743,0.037526652216911316,-0.0024563786573708057,-0.006427664775401354
0.704,0.031680554151535034,0.11051370203495026,-0.012912401929497719,0.03199058398604393,0.00026429048739373684,-0.0075829001143574715
0.712,0.02647765353322029,0.10075952112674713,-0.011707143858075142,0.02727128192782402,0.0008790992433205247,-0.00813633855432272
0.72,0.022283103317022324,0.09223843365907669,-0.01215596403926611,0.024537764489650726,0.00031172495801001787,-0.008401828818023205
0.728,0.020526770502328873,0.08748722821474075,-0.013540531508624554,0.024051321670413017,-0.0006290203309617937,-0.008622161112725735
0.736,0.02100093476474285,0.08732128888368607,-0.014844770543277264,0.024996792897582054,-0.001563839614391327,-0.008883081376552582
0.744,0.023632224649190903,0.09170437604188919,-0.014539629220962524,0.02621573954820633,-0.002160564996302128,-0.009054812602698803
0.752,0.028250375762581825,0.09850694239139557,-0.01272785197943449,0.02696819044649601,-0.00248378561809659,-0.00877118855714798
0.76,0.033619098365306854,0.10597898066043854,-0.01045401394367218,0.02692292630672455,-0.002935986965894699,-0.00797740276902914
0.768,0.03916719928383827,0.11136437207460403,-0.008383119478821754,0.02584415301680565,-0.0031927882228046656,-0.006884561385959387
0.776,0.044048648327589035,0.11459637433290482,-0.00721925450488925,0.023542407900094986,-0.002791754901409149,-0.0056055705063045025
0.784,0.04796481877565384,0.11572552472352982,-0.007501800544559956,0.020548615604639053,-0.002290062140673399,-0.003992532845586538
0.792,0.051196686923503876,0.11570072919130325,-0.007945648394525051,0.01784658432006836,-0.002470965264365077,-0.0018375845393165946
0.8,0.05369456857442856,0.11554814130067825,-0.009471463970839977,0.01592503860592842,-0.0034587683621793985,0.0005800789804197848
0.808,0.055620573461055756,0.11544037610292435,-0.011135892011225224,0.014702126383781433,-0.004882568959146738,0.0027928240597248077
0.816,0.05627761781215668,0.11484432965517044,-0.013144467957317829,0.01379062794148922,-0.006533337756991386,0.004629441071301699
0.824,0.05587483197450638,0.11295891553163528,-0.015975670889019966,0.012501800432801247,-0.008384677581489086,0.005987716838717461
0.832,0.05433199554681778,0.10884762555360794,-0.018502384424209595,0.010335247032344341,-0.009858819656074047,0.006930068135261536
0.84,0.0523797944188118,0.1033172681927681,-0.019224481657147408,0.00756355794146657,-0.01015894953161478,0.0075596049427986145
0.848,0.050483956933021545,0.09752560406923294,-0.018013035878539085,0.005186788737773895,-0.009130916558206081,0.008029328659176826
0.856,0.048996299505233765,0.09366893768310547,-0.015699660405516624,0.00543619692325592,-0.007809782866388559,0.008789924904704094
0.864,0.04817584529519081,0.09160804748535156,-0.014705276116728783,0.01027155015617609,-0.007992741651833057,0.009751589968800545
0.872,0.0466279536485672,0.09029579162597656,-0.016370266675949097,0.016414936631917953,-0.00983817782253027,0.010322973132133484
0.88,0.04478013888001442,0.08790874481201172,-0.0193050317466259,0.017770426347851753,-0.011221585795283318,0.01042868196964264
0.888,0.04347854107618332,0.0844268798828125,-0.019955916330218315,0.015035717748105526,-0.010563458316028118,0.00989206787198782
0.896,0.04426868259906769,0.08191204071044922,-0.016540976241230965,0.015181848779320717,-0.00875748973339796,0.008242216892540455
0.904,0.047877952456474304,0.08331966400146484,-0.007532912772148848,0.021083347499370575,-0.007707548793405294,0.006095582153648138
0.912,0.053079117089509964,0.0893239974975586,0.0025667562149465084,0.028261534869670868,-0.007432065904140472,0.004710410721600056
0.92,0.05751556158065796,0.09759999811649323,0.010781316086649895,0.031197290867567062,-0.006022775545716286,0.004060513339936733
0.928,0.058118272572755814,0.10459424555301666,0.015017819590866566,0.0284310020506382,-0.002414027927443385,0.003320123767480254
0.936,0.05437155067920685,0.1074829250574112,0.015605224296450615,0.022303463891148567,0.0018939125584438443,0.0027318859938532114
0.944,0.04729125648736954,0.10486127436161041,0.015529605560004711,0.01661836914718151,0.004880853462964296,0.0030208644457161427
0.952,0.038855526596307755,0.0969400554895401,0.01807364821434021,0.01379762589931488,0.006498693488538265,0.0038293616380542517
0.96,0.03085288032889366,0.08494759351015091,0.025813763961195946,0.01335848867893219,0.007545407395809889,0.004073830787092447
0.968,0.02469627931714058,0.07045460492372513,0.04011166840791702,0.013509511016309261,0.008514057844877243,0.003058822825551033
0.976,0.02148588001728058,0.054911624640226364,0.060222819447517395,0.013572942465543747,0.00951659120619297,0.0006620028871111572
0.984,0.020665541291236877,0.03982163593173027,0.08526179939508438,0.014256594702601433,0.00959599856287241,-0.0025829554069787264
0.992,0.020757805556058884,0.026811610907316208,0.11231274902820587,0.016548791900277138,0.007636975962668657,-0.00553539814427495
1.0,0.021264154464006424,0.016511930152773857,0.13811829686164856,0.020563513040542603,0.0037681846879422665,-0.007419376168400049
1.008,0.021478228271007538,0.008717549964785576,0.15761640667915344,0.02561255171895027,-0.0008690484100952744,-0.008289451710879803
1.016,0.022766925394535065,0.004385008011013269,0.16814479231834412,0.031369686126708984,-0.005066742654889822,-0.008084546774625778
1.024,0.026824630796909332,0.003825200954452157,0.16873794794082642,0.037637434899806976,-0.0076348502188920975,-0.006323547102510929
1.032,0.03620501607656479,0.006259930320084095,0.16016645729541779,0.043570488691329956,-0.007139164954423904,-0.0033988235518336296
1.04,0.049014728516340256,0.010209093801677227,0.14501288533210754,0.04865302890539169,-0.0030370778404176235,-0.0008911568438634276
1.048,0.06091954931616783,0.012696274556219578,0.1269652247428894,0.05374161899089813,0.002533236751332879,0.0005972220678813756
1.056,0.06476914882659912,0.010514264926314354,0.1108570545911789,0.05904955789446831,0.005195902194827795,0.003010869724676013
1.064,0.05698982626199722,0.0011720702750608325,0.10137122124433517,0.06295058131217957,0.0014948557363823056,0.008517907932400703
1.072,0.03851717710494995,-0.014566417783498764,0.10274733603000641,0.06533697247505188,-0.007705594412982464,0.016252627596259117
1.08,0.015405967831611633,-0.03145408257842064,0.11512305587530136,0.06882443279027939,-0.017608268186450005,0.022747589275240898
1.088,-0.003730766475200653,-0.042222969233989716,0.1342519372701645,0.07555170357227325,-0.023815829306840897,0.025554228574037552
1.096,-0.01205524057149887,-0.04157065227627754,0.15225328505039215,0.08506160974502563,-0.02512415125966072,0.025142865255475044
1.104,-0.00862497091293335,-0.02689265087246895,0.1612958014011383,0.09345686435699463,-0.022277969866991043,0.022996151819825172
1.112,0.006046481430530548,-0.00024508096976205707,0.1562367081642151,0.0951378121972084,-0.016988830640912056,0.019753480330109596
1.12,0.02774970605969429,0.03451825678348541,0.13859347999095917,0.0880095511674881,-0.012101861648261547,0.016010375693440437
1.128,0.05206867307424545,0.074769988656044,0.1155209019780159,0.07574352622032166,-0.010182456113398075,0.012658867053687572
1.136,0.07499424368143082,0.12024213373661041,0.09758765250444412,0.06467201560735703,-0.012089022435247898,0.010313574224710464
1.144,0.0937807634472847,0.17116166651248932,0.09323795139789581,0.05948049947619438,-0.017329277470707893,0.009205050766468048
1.152,0.10745061188936234,0.2279691994190216,0.10625876486301422,0.06046166270971298,-0.024515550583600998,0.009172908030450344
1.16,0.11737526953220367,0.2907285988330841,0.13443036377429962,0.06435628235340118,-0.03168511390686035,0.009701566770672798
1.168,0.12602972984313965,0.35772421956062317,0.17236988246440887,0.06781312078237534,-0.03755124658346176,0.010751434601843357
1.176,0.1349656730890274,0.4247742295265198,0.21522532403469086,0.06842298805713654,-0.0428105853497982,0.01305499579757452
1.184,0.14407917857170105,0.4858894944190979,0.2599011957645416,0.06432713568210602,-0.04919853433966637,0.0176913533359766
1.192,0.15096788108348846,0.5348940491676331,0.3009359538555145,0.05494518578052521,-0.057668592780828476,0.025099515914916992
1.2,0.15463490784168243,0.567329466342926,0.33649909496307373,0.0410592146217823,-0.06770720332860947,0.034226201474666595
1.208,0.15385368466377258,0.5785961747169495,0.36443087458610535,0.024253949522972107,-0.0783982053399086,0.04396948963403702
1.216,0.14830447733402252,0.5675545334815979,0.38419586420059204,0.006624475121498108,-0.08913958817720413,0.05406636372208595
1.224,0.13813406229019165,0.5356808304786682,0.3962140679359436,-0.00937645509839058,-0.09915175288915634,0.06370119750499725
1.232,0.12450350821018219,0.4859667718410492,0.4017407298088074,-0.021656066179275513,-0.10789406299591064,0.0711563304066658
1.24,0.10877268016338348,0.4228716790676117,0.40205255150794983,-0.030515339225530624,-0.11544450372457504,0.07513292133808136
1.248,0.0909966230392456,0.3518591523170471,0.40026044845581055,-0.037866197526454926,-0.12199810147285461,0.0757339596748352
1.256,0.07245466113090515,0.27755647897720337,0.3971746861934662,-0.04385976120829582,-0.1281929910182953,0.07371749728918076
1.264,0.051854148507118225,0.2046547532081604,0.3928886950016022,-0.04660783335566521,-0.134366974234581,0.06942318379878998
1.272,0.029946669936180115,0.13762669265270233,0.3866329789161682,-0.04560793563723564,-0.1401526778936386,0.0634123682975769
1.28,0.006829306483268738,0.08146003633737564,0.37613174319267273,-0.04303835332393646,-0.14546525478363037,0.05663024261593819
1.288,-0.016837820410728455,0.0394621267914772,0.36088621616363525,-0.040973883122205734,-0.15049272775650024,0.050057992339134216
1.296,-0.039537906646728516,0.013074910268187523,0.3420007824897766,-0.039005618542432785,-0.15481476485729218,0.044392671436071396
1.304,-0.06258207559585571,0.0018234587041661143,0.3183881640434265,-0.03505150228738785,-0.15770919620990753,0.039399437606334686
1.312,-0.08358696848154068,0.00798705592751503,0.28939253091812134,-0.028117993846535683,-0.15963537991046906,0.034730881452560425
1.32,-0.1030164584517479,0.028325116261839867,0.25637930631637573,-0.01924886181950569,-0.16216793656349182,0.030628426000475883
1.328,-0.12025406211614609,0.0623503103852272,0.21974462270736694,-0.010432402603328228,-0.1657368540763855,0.027052396908402443
1.336,-0.13539160788059235,0.10893063247203827,0.17996039986610413,-0.003020687960088253,-0.16951727867126465,0.02362404391169548
1.344,-0.14795520901679993,0.1667643040418625,0.13819025456905365,0.004768343176692724,-0.1732899397611618,0.01933489926159382
1.352,-0.15508988499641418,0.2326832264661789,0.0933782234787941,0.016243193298578262,-0.17811958491802216,0.012655764818191528
1.36,-0.15749797224998474,0.3028631806373596,0.04836631938815117,0.026384685188531876,-0.18413160741329193,0.003702016081660986
1.368,-0.15154039859771729,0.37085822224617004,0.005124181043356657,0.026998398825526237,-0.1911768615245819,-0.005013744812458754
1.376,-0.13942575454711914,0.435854971408844,-0.03448879346251488,0.020742615684866905,-0.20022794604301453,-0.01190155278891325
1.384,-0.12244553864002228,0.49580293893814087,-0.06850753724575043,0.015075381845235825,-0.21123458445072174,-0.017677968367934227
1.392,-0.1031334325671196,0.5527792572975159,-0.09593921899795532,0.01164676621556282,-0.2237226814031601,-0.022893637418746948
1.4,-0.0834684669971466,0.6117821335792542,-0.11735644191503525,0.008032478392124176,-0.23839089274406433,-0.027163641527295113
1.408,-0.06383143365383148,0.6761379837989807,-0.13423383235931396,0.0025167306885123253,-0.25730863213539124,-0.02892974764108658
1.416,-0.046700578182935715,0.7459612488746643,-0.149410218000412,-0.0024026697501540184,-0.2811566889286041,-0.027018047869205475
1.424,-0.03215428441762924,0.8216191530227661,-0.17003829777240753,-0.004755520261824131,-0.3044498860836029,-0.022997571155428886
1.432,-0.019192904233932495,0.898727536201477,-0.19708161056041718,-0.004869820084422827,-0.31926804780960083,-0.019109254702925682
1.44,-0.00455823540687561,0.9736253023147583,-0.22612428665161133,-0.00271207420155406,-0.32306644320487976,-0.015458696521818638
1.448,0.016446061432361603,1.0440531969070435,-0.2512316405773163,-1.2485310435295105e-05,-0.3205643594264984,-0.010020334273576736
1.456,0.04681128263473511,1.1101866960525513,-0.2673092186450958,0.00021686655236408114,-0.3182313144207001,-0.0013216970255598426
1.464,0.08298372477293015,1.1712990999221802,-0.2765500247478485,-0.0006212913431227207,-0.31730756163597107,0.0086298743262887
1.472,0.11913514882326126,1.22791588306427,-0.28322160243988037,0.002171164844185114,-0.31500354409217834,0.016227902844548225
1.48,0.15227669477462769,1.2782460451126099,-0.2912141680717468,0.009756549261510372,-0.3117382228374481,0.02097826451063156
1.488,0.18155503273010254,1.3250857591629028,-0.300729364156723,0.01910957135260105,-0.31179797649383545,0.026029832661151886
1.496,0.20414280891418457,1.3662844896316528,-0.31237897276878357,0.027091823518276215,-0.3159065544605255,0.03301183879375458
1.504,0.21628502011299133,1.3967705965042114,-0.3248318135738373,0.03136175870895386,-0.3186284303665161,0.039913490414619446
1.512,0.21569691598415375,1.415120244026184,-0.33716708421707153,0.0313442163169384,-0.31541791558265686,0.04460151866078377
1.52,0.20209726691246033,1.4225016832351685,-0.3468174338340759,0.02827688679099083,-0.3088488280773163,0.04777171462774277
1.528,0.1806890368461609,1.4226428270339966,-0.3491256833076477,0.02549823746085167,-0.30373817682266235,0.050782375037670135
1.536,0.15714164078235626,1.4186125993728638,-0.34113776683807373,0.02650623396039009,-0.29982441663742065,0.052799470722675323
1.544,0.13692964613437653,1.4122086763381958,-0.32433146238327026,0.027633458375930786,-0.29610708355903625,0.05312776938080788
1.552,0.1207512766122818,1.399664044380188,-0.3027115762233734,0.024371132254600525,-0.29484573006629944,0.05230521783232689
1.56,0.10685066133737564,1.3749810457229614,-0.28250327706336975,0.020838048309087753,-0.2960154414176941,0.049527768045663834
1.568,0.09530141949653625,1.3323966264724731,-0.26863181591033936,0.019294705241918564,-0.29712265729904175,0.04431851580739021
1.576,0.08335050195455551,1.2656699419021606,-0.2631743252277374,0.014765254221856594,-0.29830244183540344,0.0387914702296257
1.584,0.07185275852680206,1.172751545906067,-0.26354724168777466,0.006172573193907738,-0.3007418215274811,0.03452003002166748
1.592,0.061818867921829224,1.052601933479309,-0.2663278579711914,-0.0023669851943850517,-0.3039161264896393,0.030743418261408806
1.6,0.0553274005651474,0.9084759950637817,-0.26609134674072266,-0.008895811624825,-0.3065294921398163,0.027042726054787636
1.608,0.05324873328208923,0.7464724183082581,-0.26063117384910583,-0.013601891696453094,-0.30834901332855225,0.024651825428009033
1.616,0.05444449186325073,0.5708780884742737,-0.24883337318897247,-0.01754980906844139,-0.3106885254383087,0.025243818759918213
1.624,0.05562920868396759,0.38543131947517395,-0.2316669076681137,-0.02475702203810215,-0.31513530015945435,0.029785124585032463
1.632,0.05430116504430771,0.19371700286865234,-0.21266286075115204,-0.04074031859636307,-0.32143136858940125,0.037652768194675446
1.64,0.04889361560344696,-0.0017509676981717348,-0.19835492968559265,-0.06735596060752869,-0.3278375566005707,0.04674964398145676
1.648,0.03669562190771103,-0.19727711379528046,-0.1912967562675476,-0.10008502006530762,-0.3333672285079956,0.05499802157282829
1.656,0.018800891935825348,-0.3861475884914398,-0.19131401181221008,-0.13267439603805542,-0.3383015990257263,0.06115078553557396
1.664,-0.0006947144865989685,-0.5611420273780823,-0.19503717124462128,-0.1620212197303772,-0.34336185455322266,0.0642833262681961
1.672,-0.017947010695934296,-0.7169542908668518,-0.19725656509399414,-0.18645218014717102,-0.34950047731399536,0.06433341652154922
1.68,-0.027503184974193573,-0.8505145311355591,-0.1947421282529831,-0.20584625005722046,-0.35652950406074524,0.06252089142799377
1.688,-0.02910890430212021,-0.9638110399246216,-0.18857485055923462,-0.2237750142812729,-0.3626653552055359,0.06039305776357651
1.696,-0.023830071091651917,-1.0588542222976685,-0.18142317235469818,-0.24473586678504944,-0.3668716251850128,0.058701492846012115
1.704,-0.013988025486469269,-1.1370269060134888,-0.17846854031085968,-0.2688716948032379,-0.3701728284358978,0.05715164542198181
1.712,-0.0037859678268432617,-1.1973391771316528,-0.1834631711244583,-0.29172483086586,-0.3736702799797058,0.055149100720882416
1.72,0.0036997944116592407,-1.2363272905349731,-0.1954353004693985,-0.309251606464386,-0.37648487091064453,0.05234566330909729
1.728,0.008520349860191345,-1.2470580339431763,-0.20982840657234192,-0.32077115774154663,-0.37587422132492065,0.04786388576030731
1.736,0.009612485766410828,-1.2244082689285278,-0.2190946489572525,-0.32739758491516113,-0.3707025647163391,0.04058070480823517
1.744,0.003458939492702484,-1.1645833253860474,-0.21703222393989563,-0.32905954122543335,-0.3632563352584839,0.031222181394696236
1.752,-0.002615131437778473,-1.0667458772659302,-0.20365460216999054,-0.32220423221588135,-0.3559531569480896,0.021603526547551155
1.76,-0.004237115383148193,-0.9354754686355591,-0.18346469104290009,-0.3051770329475403,-0.34940433502197266,0.012188988737761974
1.768,0.003003731369972229,-0.7781974077224731,-0.16342628002166748,-0.28328099846839905,-0.3442397713661194,0.0025077052414417267
1.776,0.022464267909526825,-0.6052694916725159,-0.14605246484279633,-0.2642633616924286,-0.33940279483795166,-0.008194739930331707
1.784,0.04908590391278267,-0.4237700402736664,-0.1311819851398468,-0.2527480721473694,-0.33227506279945374,-0.020413296297192574
1.792,0.07918613404035568,-0.24088768661022186,-0.11623674631118774,-0.24760663509368896,-0.3245179057121277,-0.03214022517204285
1.8,0.10507229715585709,-0.06159022077918053,-0.09983440488576889,-0.24414066970348358,-0.3186301589012146,-0.04095367342233658
1.808,0.11983262747526169,0.11063671112060547,-0.08022228628396988,-0.24065253138542175,-0.31228992342948914,-0.04751547425985336
1.816,0.120615154504776,0.2718658745288849,-0.058623068034648895,-0.23800095915794373,-0.30484867095947266,-0.05339612811803818
1.824,0.11003383994102478,0.41770559549331665,-0.03688259422779083,-0.23679587244987488,-0.29736629128456116,-0.05886051058769226
1.832,0.09123075008392334,0.5409184098243713,-0.017043771222233772,-0.23936598002910614,-0.2901965081691742,-0.06347662955522537
1.84,0.06948183476924896,0.6323099732398987,-0.002991548739373684,-0.24693655967712402,-0.28526392579078674,-0.06732906401157379
1.848,0.04997440427541733,0.6888123154640198,0.005875270813703537,-0.25637510418891907,-0.2820645868778229,-0.07109986990690231
1.856,0.021214429289102554,0.7092247605323792,0.010178237222135067,-0.26472151279449463,-0.2781386077404022,-0.07385596632957458
1.864,-0.012767964042723179,0.6976252198219299,0.013074222952127457,-0.2708451747894287,-0.27374008297920227,-0.07383552938699722
1.872,-0.04611954838037491,0.6606436371803284,0.01869334653019905,-0.2736535668373108,-0.27067703008651733,-0.07070893049240112
1.88,-0.07427476346492767,0.602358877658844,0.027116216719150543,-0.27367275953292847,-0.27049508690834045,-0.064870186150074
1.888,-0.08557412773370743,0.5273934006690979,0.04280228912830353,-0.2720724046230316,-0.2735714912414551,-0.0561482273042202
1.896,-0.08349078893661499,0.4390564560890198,0.06684131920337677,-0.2687947154045105,-0.27851563692092896,-0.04542051628232002
1.904,-0.06652781367301941,0.34026244282722473,0.0972999781370163,-0.2640552520751953,-0.28434470295906067,-0.03467657044529915
1.912,-0.04168255999684334,0.2352161854505539,0.13147428631782532,-0.2581738233566284,-0.292331337928772,-0.02483714185655117
1.92,-0.018040016293525696,0.130558043718338,0.16508136689662933,-0.2508547306060791,-0.3006492257118225,-0.017452245578169823
1.928,-0.0020893290638923645,0.030745526775717735,0.19108843803405762,-0.24037180840969086,-0.30534523725509644,-0.013860835693776608
1.936,0.006932355463504791,-0.055961597710847855,0.21022993326187134,-0.2267685830593109,-0.3072400689125061,-0.012306137941777706
1.944,0.003067418932914734,-0.12329959124326706,0.22149507701396942,-0.2142466902732849,-0.3097263276576996,-0.009880974888801575
1.952,-0.014208883047103882,-0.17195415496826172,0.22545793652534485,-0.20438852906227112,-0.31660622358322144,-0.005106837023049593
1.96,-0.0354817733168602,-0.2023611068725586,0.2262142300605774,-0.19673657417297363,-0.3285059928894043,0.0006224195822142065
1.968,-0.06562179327011108,-0.21506595611572266,0.22391849756240845,-0.1931663155555725,-0.3414973318576813,0.006363112945109606
1.976,-0.09358060359954834,-0.21207046508789062,0.21703842282295227,-0.19106368720531464,-0.35381612181663513,0.014614257030189037
1.984,-0.12096788734197617,-0.1906442642211914,0.2062072902917862,-0.1835811734199524,-0.3657996654510498,0.025365160778164864
1.992,-0.14966772496700287,-0.15715979039669037,0.1893945187330246,-0.16902759671211243,-0.37774768471717834,0.0341319814324379
2.0,-0.1723727583885193,-0.11560343205928802,0.1664903610944748,-0.15357258915901184,-0.39071890711784363,0.037867359817028046
2.008,-0.17808297276496887,-0.0763225331902504,0.13833777606487274,-0.14528213441371918,-0.4027361273765564,0.03843989968299866
2.016,-0.15779761970043182,-0.04953096807003021,0.10398935526609421,-0.14727002382278442,-0.4108956754207611,0.040825821459293365
2.024,-0.11165740340948105,-0.03941916301846504,0.06793209910392761,-0.1549595445394516,-0.41612863540649414,0.04737817868590355
2.032,-0.05500039458274841,-0.04579639062285423,0.03343161940574646,-0.16383574903011322,-0.41986510157585144,0.056119244545698166
2.04,-0.007952365092933178,-0.06796742230653763,0.004407630767673254,-0.1730796843767166,-0.42180335521698,0.06549389660358429
2.048,0.0250422153621912,-0.10221578180789948,-0.016030749306082726,-0.18099001049995422,-0.4223547875881195,0.07481924444437027
2.056,0.04543560370802879,-0.14665605127811432,-0.028489189222455025,-0.18629112839698792,-0.42214235663414,0.08224578201770782
2.064,0.06266650557518005,-0.19588570296764374,-0.03436321020126343,-0.1884230673313141,-0.4220089316368103,0.08776954561471939
2.072,0.08272729814052582,-0.24738888442516327,-0.0325029157102108,-0.18498319387435913,-0.4238857924938202,0.09332852810621262
2.08,0.10624846816062927,-0.29714491963386536,-0.021205460652709007,-0.17600619792938232,-0.4284038841724396,0.09823630005121231
2.088,0.13561750948429108,-0.34452059864997864,-0.002129528671503067,-0.1684773713350296,-0.43414434790611267,0.1000162735581398
2.096,0.16505739092826843,-0.3881083130836487,0.02232503704726696,-0.16922172904014587,-0.4399440884590149,0.09844201058149338
2.104,0.18789145350456238,-0.43119245767593384,0.047407954931259155,-0.17525836825370789,-0.4453904628753662,0.09554342925548553
2.112,0.19874435663223267,-0.4695902466773987,0.06847590208053589,-0.18129190802574158,-0.4496501386165619,0.09295329451560974
2.12,0.20130455493927002,-0.5007172226905823,0.08310949802398682,-0.1845572292804718,-0.4531306326389313,0.09186861664056778
2.128,0.1958284080028534,-0.5230551362037659,0.09017094224691391,-0.18159525096416473,-0.4587700664997101,0.09394852072000504
2.136,0.18340390920639038,-0.5348902344703674,0.08916463702917099,-0.17465686798095703,-0.4684351980686188,0.09969232976436615
2.144,0.16541272401809692,-0.5364332795143127,0.07897812873125076,-0.1693802773952484,-0.4807604253292084,0.10771853476762772
2.152,0.13542179763317108,-0.527870237827301,0.06150210276246071,-0.16383880376815796,-0.49446433782577515,0.116554856300354
2.16,0.09433657675981522,-0.5104056000709534,0.04016172140836716,-0.15568330883979797,-0.5089213252067566,0.12518566846847534
2.168,0.04419939965009689,-0.49012666940689087,0.016523877158761024,-0.14832012355327606,-0.5221437811851501,0.13254375755786896
2.176,-0.002173833781853318,-0.46566396951675415,-0.0033419551327824593,-0.14294025301933289,-0.5311043858528137,0.13868635892868042
2.184,-0.042911648750305176,-0.4403143525123596,-0.017225604504346848,-0.13841727375984192,-0.5349258780479431,0.14521966874599457
2.192,-0.06667885929346085,-0.4152117371559143,-0.023684214800596237,-0.13606037199497223,-0.5369039177894592,0.15248700976371765
2.2,-0.07159940153360367,-0.3914700150489807,-0.02392685040831566,-0.13818754255771637,-0.5413300395011902,0.1592283546924591
2.208,-0.056606490164995193,-0.36794474720954895,-0.02288360893726349,-0.14263080060482025,-0.5469818711280823,0.1652143895626068
2.216,-0.027014276012778282,-0.3466635048389435,-0.02675136737525463,-0.14134110510349274,-0.549312174320221,0.17203567922115326
2.224,0.010767343454062939,-0.32393744587898254,-0.038351722061634064,-0.13136033713817596,-0.5465668439865112,0.1799587905406952
2.232,0.049175940454006195,-0.297362357378006,-0.05773103982210159,-0.11789529025554657,-0.54012131690979,0.18717767298221588
2.24,0.08468523621559143,-0.26726821064949036,-0.07904615998268127,-0.10304274410009384,-0.5315937995910645,0.19240829348564148
2.248,0.11357376724481583,-0.23437027633190155,-0.09726376086473465,-0.08398674428462982,-0.5206013321876526,0.19574883580207825
2.256,0.13607966899871826,-0.20130829513072968,-0.1074080616235733,-0.062356866896152496,-0.5065186023712158,0.19705751538276672
2.264,0.1528504192829132,-0.17395594716072083,-0.10856495052576065,-0.04368247836828232,-0.4905514419078827,0.19571933150291443
2.272,0.165949285030365,-0.15555670857429504,-0.09786287695169449,-0.03051643818616867,-0.4739116430282593,0.1915704905986786
2.28,0.17502523958683014,-0.14914610981941223,-0.08016621321439743,-0.021230123937129974,-0.45821860432624817,0.18601861596107483
2.288,0.18006691336631775,-0.15172484517097473,-0.05851607397198677,-0.010804124176502228,-0.44413918256759644,0.18140867352485657
2.296,0.17978143692016602,-0.1611051857471466,-0.036505382508039474,0.006973490118980408,-0.4292623698711395,0.17841275036334991
2.304,0.17637264728546143,-0.1746368706226349,-0.015309421345591545,0.032748736441135406,-0.4117962121963501,0.17526964843273163
2.312,0.1717052161693573,-0.1904154270887375,0.007709845434874296,0.06074808910489082,-0.39394646883010864,0.17031608521938324
2.32,0.16546215116977692,-0.2070360630750656,0.03216559812426567,0.08542939275503159,-0.3787981867790222,0.16261591017246246
2.328,0.15982428193092346,-0.22350887954235077,0.05726019665598869,0.1051776111125946,-0.36743131279945374,0.1517014056444168
2.336,0.1551380157470703,-0.24010947346687317,0.07859634608030319,0.12113919854164124,-0.36094510555267334,0.1385074257850647
2.344,0.1511625498533249,-0.25275614857673645,0.09159041941165924,0.13573573529720306,-0.36064332723617554,0.12550853192806244
2.352,0.15344595909118652,-0.2586365044116974,0.09573398530483246,0.15052998065948486,-0.3645809590816498,0.11382193118333817
2.36,0.161533921957016,-0.2559337913990021,0.09205997735261917,0.16501031816005707,-0.36743268370628357,0.10145675390958786
2.368,0.17501455545425415,-0.2436409294605255,0.08368509262800217,0.17593598365783691,-0.36533471941947937,0.08647415786981583
2.376,0.19030122458934784,-0.21924881637096405,0.07301802933216095,0.1812039464712143,-0.3573559820652008,0.07010678946971893
2.384,0.20438271760940552,-0.1834717094898224,0.06198342144489288,0.18649978935718536,-0.34425273537635803,0.05598542094230652
2.392,0.20994630455970764,-0.13688281178474426,0.05119161307811737,0.1975420117378235,-0.3290337920188904,0.04542010650038719
2.4,0.20269005000591278,-0.08351805061101913,0.039087649434804916,0.20926576852798462,-0.3139711320400238,0.03470323979854584
2.408,0.18744739890098572,-0.026893632486462593,0.0254257433116436,0.2131108045578003,-0.2974366545677185,0.02227802760899067
2.416,0.17766720056533813,0.028309812769293785,0.010439429432153702,0.2101893424987793,-0.2784275412559509,0.011985119432210922
2.424,0.18272800743579865,0.0776824876666069,-0.006147248670458794,0.20935270190238953,-0.25881075859069824,0.004916458390653133
2.432,0.20490343868732452,0.12016677856445312,-0.024885274469852448,0.2133219987154007,-0.23943710327148438,-0.002181409625336528
2.44,0.2463807761669159,0.1539316028356552,-0.04443306103348732,0.21758992969989777,-0.2191927284002304,-0.010729145258665085
2.448,0.2957930564880371,0.17110155522823334,-0.06544271111488342,0.21926644444465637,-0.198528453707695,-0.02066856063902378
2.456,0.3411412239074707,0.16495226323604584,-0.08669566363096237,0.2166430801153183,-0.179515078663826,-0.0341714546084404
2.464,0.37793809175491333,0.13646981120109558,-0.10961093008518219,0.20993639528751373,-0.1612762063741684,-0.05243770405650139
2.472,0.40080714225769043,0.08881279081106186,-0.13341091573238373,0.2038383185863495,-0.13812299072742462,-0.07007714360952377
2.48,0.41316211223602295,0.021479561924934387,-0.15366780757904053,0.20510509610176086,-0.10624619573354721,-0.08150344341993332
2.488,0.41366493701934814,-0.06376462429761887,-0.1663958579301834,0.21849022805690765,-0.06613058596849442,-0.08976099640130997
2.496,0.40216946601867676,-0.17138296365737915,-0.16427862644195557,0.2408721148967743,-0.019371602684259415,-0.09910845011472702
2.504,0.37181538343429565,-0.30715471506118774,-0.14022862911224365,0.2681235074996948,0.03135917708277702,-0.10845265537500381
2.512,0.3130328059196472,-0.4803858697414398,-0.09511033445596695,0.29911452531814575,0.0817563608288765,-0.11813830584287643
2.52,0.22292476892471313,-0.6960392594337463,-0.0411413311958313,0.32922035455703735,0.12566184997558594,-0.12986372411251068
2.528,0.10854512453079224,-0.9554034471511841,-0.0024629889521747828,0.3640974164009094,0.15595251321792603,-0.13903303444385529
2.536,-0.02180902287364006,-1.2620402574539185,-0.011217458173632622,0.4248839020729065,0.1684015989303589,-0.13746874034404755
2.544,-0.15875592827796936,-1.6170341968536377,-0.08598484098911285,0.5182176232337952,0.1652231365442276,-0.12405679374933243
2.552,-0.28773126006126404,-2.0258543491363525,-0.228550985455513,0.6204861998558044,0.1586335450410843,-0.10830626636743546
2.56,-0.40850406885147095,-2.49535870552063,-0.4138387441635132,0.7016339898109436,0.1661536544561386,-0.10162875801324844
2.568,-0.5256053805351257,-3.026577949523926,-0.5924756526947021,0.7547075748443604,0.19326640665531158,-0.10714257508516312
2.576,-0.6474696397781372,-3.608185291290283,-0.7149292826652527,0.7906695604324341,0.22165828943252563,-0.11938512325286865
2.584,-0.785318911075592,-4.216747283935547,-0.7449771165847778,0.8198665380477905,0.2211594432592392,-0.13050806522369385
2.592,-0.9404444098472595,-4.817497253417969,-0.6691421270370483,0.8490126132965088,0.17974118888378143,-0.13673628866672516
2.6,-1.1115648746490479,-5.370551586151123,-0.50211101770401,0.8847822546958923,0.11642221361398697,-0.14116357266902924
2.608,-1.293951392173767,-5.847503185272217,-0.2743809223175049,0.9241061806678772,0.057028185576200485,-0.1521165370941162
2.616,-1.4780097007751465,-6.234347343444824,-0.02370920591056347,0.9435243010520935,0.007121681235730648,-0.17794322967529297
2.624,-1.6569042205810547,-6.534524440765381,0.2104288935661316,0.9238183498382568,-0.045852355659008026,-0.2184215486049652
2.632,-1.8226969242095947,-6.760281085968018,0.3898269832134247,0.8880125880241394,-0.11365524679422379,-0.261109322309494
2.64,-1.969018578529358,-6.923742294311523,0.48923057317733765,0.8810610771179199,-0.19225193560123444,-0.29304662346839905
2.648,-2.0918705463409424,-7.031058311462402,0.4988640546798706,0.9180476665496826,-0.2705766558647156,-0.3109126687049866
2.656,-2.1840429306030273,-7.078812122344971,0.4268515706062317,0.9819118976593018,-0.347522109746933,-0.3139483630657196
2.664,-2.232421875,-7.056738376617432,0.28229349851608276,1.0599594116210938,-0.42242246866226196,-0.2976166903972626
2.672,-2.224092483520508,-6.945430755615234,0.07321525365114212,1.1568214893341064,-0.48060375452041626,-0.25785937905311584
2.68,-2.1428136825561523,-6.712987899780273,-0.19903847575187683,1.2846250534057617,-0.5038825869560242,-0.1942794919013977
2.688,-1.9814636707305908,-6.332614898681641,-0.535455584526062,1.445122480392456,-0.48750680685043335,-0.1108407974243164
2.696,-1.7453455924987793,-5.794198513031006,-0.9353958368301392,1.603967547416687,-0.44227510690689087,-0.01894652098417282
2.704,-1.4506213665008545,-5.104953289031982,-1.3888450860977173,1.6853883266448975,-0.3825249671936035,0.05961371958255768
2.712,-1.1262731552124023,-4.283114910125732,-1.878781795501709,1.6287076473236084,-0.30977198481559753,0.10070779174566269
2.72,-0.8079254627227783,-3.3477609157562256,-2.3780221939086914,1.46274733543396,-0.20786142349243164,0.09498272091150284
2.728,-0.5197416543960571,-2.312382698059082,-2.8408329486846924,1.288921594619751,-0.06599994003772736,0.05547236651182175
2.736,-0.26521897315979004,-1.1926463842391968,-3.2050368785858154,1.1854197978973389,0.09821333736181259,0.006025445181876421
2.744,-0.04137527942657471,-0.010755837894976139,-3.403870105743408,1.1460769176483154,0.2520643174648285,-0.038413017988204956
2.752,0.16967570781707764,1.178349256515503,-3.3879106044769287,1.0860803127288818,0.37689676880836487,-0.08607561886310577
2.76,0.38016462326049805,2.2808618545532227,-3.158052921295166,0.9243135452270508,0.4752897322177887,-0.1605757474899292
2.768,0.598246693611145,3.210538148880005,-2.7672083377838135,0.683580219745636,0.5530840158462524,-0.27105513215065
2.776,0.8281403183937073,3.9258615970611572,-2.2995834350585938,0.4748265743255615,0.60819411277771,-0.3928236961364746
2.784,1.067771077156067,4.4363861083984375,-1.8264833688735962,0.4012772738933563,0.6464822292327881,-0.48531585931777954
2.792,1.3026071786880493,4.790482044219971,-1.382162094116211,0.48959827423095703,0.6927927732467651,-0.5314742922782898
2.8,1.4947144985198975,5.033091068267822,-0.9621085524559021,0.6728180646896362,0.7729177474975586,-0.544991135597229
2.808,1.5969712734222412,5.179854869842529,-0.5473833680152893,0.8483126163482666,0.8872032761573792,-0.530616283416748
2.816,1.574798583984375,5.235631465911865,-0.11617401242256165,0.9620289206504822,1.0100252628326416,-0.4683358073234558
2.824,1.4336572885513306,5.200815677642822,0.3228926956653595,1.0065371990203857,1.120217204093933,-0.3480778932571411
2.832,1.2069824934005737,5.0997700691223145,0.7420638799667358,0.9773443937301636,1.2241556644439697,-0.18819409608840942
2.84,0.930719256401062,4.9765400886535645,1.095130205154419,0.8697975873947144,1.3398568630218506,-0.017801988869905472
2.848,0.6351072788238525,4.8706583976745605,1.3420073986053467,0.679766058921814,1.470511794090271,0.13563600182533264
2.856,0.33351171016693115,4.829521656036377,1.470203161239624,0.41349083185195923,1.5953242778778076,0.2491241842508316
2.864,-0.0004647970199584961,4.903669834136963,1.4989389181137085,0.10355602949857712,1.6800282001495361,0.31200018525123596
2.872,-0.36493980884552,5.117872714996338,1.4694949388504028,-0.19598011672496796,1.701870083808899,0.3355327546596527
2.88,-0.7276097536087036,5.469201564788818,1.4051023721694946,-0.40842631459236145,1.6648303270339966,0.3495405614376068
2.888,-1.0326859951019287,5.967916965484619,1.309396505355835,-0.4474872946739197,1.5751398801803589,0.3834711015224457
2.896,-1.167063593864441,6.61229133605957,1.1660637855529785,-0.23569315671920776,1.430417537689209,0.44890162348747253
2.904,-1.022686243057251,7.420961380004883,0.9664100408554077,0.28505757451057434,1.2801694869995117,0.5216364860534668
2.912,-0.5078011751174927,8.394411087036133,0.7078726887702942,1.0733165740966797,1.2600294351577759,0.5213971734046936
2.92,0.4076860845088959,9.464656829833984,0.36640989780426025,1.9150362014770508,1.4739347696304321,0.35109370946884155
2.928,1.6657297611236572,10.522123336791992,-0.08819043636322021,2.5513968467712402,1.9013779163360596,-0.0417872779071331
2.936,3.1036860942840576,11.377885818481445,-0.7239773869514465,2.855135440826416,2.4319844245910645,-0.6624516844749451
2.944,4.429358005523682,11.773608207702637,-1.690400242805481,2.7630817890167236,2.955857276916504,-1.4220874309539795
2.952,5.129234313964844,11.509142875671387,-3.0712428092956543,2.1164846420288086,3.4858720302581787,-2.08210825920105
2.96,4.732435703277588,10.441987037658691,-4.7937517166137695,0.7932247519493103,4.08399772644043,-2.3500418663024902
2.968,3.262831926345825,8.667841911315918,-6.546291351318359,-0.9207438230514526,4.606762409210205,-1.9947090148925781
2.976,0.940845251083374,6.507565498352051,-7.77667236328125,-2.3370864391326904,4.70369291305542,-0.9944013953208923
2.984,-1.6973204612731934,4.3887834548950195,-7.980179309844971,-2.9333152770996094,4.201760292053223,0.31769588589668274
2.992,-4.0426859855651855,2.736265182495117,-7.03049898147583,-2.718079090118408,3.298034429550171,1.4797073602676392
3.0,-5.598580837249756,1.8825981616973877,-5.2435994148254395,-2.096519708633423,2.2989251613616943,2.2767906188964844
3.008,-6.117393970489502,1.957909107208252,-3.2517478466033936,-1.373702049255371,1.3029637336730957,2.7705821990966797
3.016,-5.671714782714844,2.8782477378845215,-1.6528366804122925,-0.5496735572814941,0.35321781039237976,3.0815176963806152
3.024,-4.571746349334717,4.4464826583862305,-0.7202361226081848,0.2197260856628418,-0.31479716300964355,3.267275810241699
3.032,-3.2039270401000977,6.346067428588867,-0.39129945635795593,0.5916728973388672,-0.6014350652694702,3.338994026184082
3.04,-1.8699638843536377,8.235776901245117,-0.417817622423172,0.5182895660400391,-0.7750934958457947,3.2305777072906494
3.048,-0.6762648820877075,9.791742324829102,-0.5402243733406067,0.21501457691192627,-1.04757821559906,2.8643734455108643
3.056,0.47736817598342896,10.744327545166016,-0.6760976910591125,-0.20638680458068848,-1.311610221862793,2.363334894180298
3.064,1.598376750946045,10.998311996459961,-0.8050982356071472,-0.7245824933052063,-1.3831628561019897,1.952961802482605
3.072,2.5937089920043945,10.546697616577148,-0.9335383772850037,-1.1741405725479126,-1.2696291208267212,1.7033636569976807
3.08,3.492440938949585,9.558422088623047,-1.140010952949524,-1.3791853189468384,-1.0947191715240479,1.5754326581954956
3.088,4.23082160949707,8.250753402709961,-1.4392887353897095,-1.3869322538375854,-0.9183956384658813,1.5426472425460815
3.096,4.740564346313477,6.773290157318115,-1.7572225332260132,-1.4078737497329712,-0.7222232222557068,1.5805540084838867
3.104,4.933274269104004,5.202266693115234,-2.0154049396514893,-1.6002202033996582,-0.49934130907058716,1.6468027830123901
3.112,4.775716781616211,3.6488075256347656,-2.112513780593872,-1.919371485710144,-0.29691168665885925,1.7031457424163818
3.12,4.258578777313232,2.2075040340423584,-2.006141424179077,-2.175152540206909,-0.14259453117847443,1.722975492477417
3.128,3.487118721008301,0.9417454600334167,-1.780131220817566,-2.220442533493042,0.02310764789581299,1.681688904762268
3.136,2.576568841934204,-0.1287311315536499,-1.5508430004119873,-2.0869364738464355,0.25824835896492004,1.5739604234695435
3.144,1.6624915599822998,-1.0764535665512085,-1.4108020067214966,-1.9491782188415527,0.5465867519378662,1.4154359102249146
3.152,0.8501328229904175,-2.045438766479492,-1.3584662675857544,-1.900357961654663,0.8347891569137573,1.2330105304718018
3.16,0.21141910552978516,-3.2507131099700928,-1.2849751710891724,-1.9676100015640259,1.0665475130081177,1.0388075113296509
3.168,-0.19864633679389954,-4.846534252166748,-1.0524015426635742,-2.3123698234558105,1.1841621398925781,0.8417522311210632
3.176,-0.37582698464393616,-6.897849082946777,-0.5189782381057739,-2.9582631587982178,1.1786898374557495,0.6561387777328491
3.184,-0.2941996455192566,-9.311047554016113,0.3805266320705414,-3.611006259918213,1.112296223640442,0.4629790782928467
3.192,-0.009041965007781982,-11.80222225189209,1.5737274885177612,-3.9674649238586426,1.0567036867141724,0.2505446672439575
3.2,0.3779400587081909,-14.010536193847656,2.828375816345215,-3.8002805709838867,1.0635677576065063,0.010561950504779816
3.208,0.7691948413848877,-15.635475158691406,3.8662774562835693,-3.001560688018799,1.136968731880188,-0.31811198592185974
3.216,1.0777803659439087,-16.605878829956055,4.453663349151611,-1.8727442026138306,1.1709259748458862,-0.7366026639938354
3.224,1.2662824392318726,-16.99435806274414,4.515691757202148,-1.0550111532211304,1.0627689361572266,-1.053762435913086
3.232,1.353203535079956,-17.014860153198242,4.1782917976379395,-0.9121779203414917,0.8697413802146912,-1.0780510902404785
3.24,1.3930766582489014,-16.843242645263672,3.6276919841766357,-1.1960222721099854,0.6989485621452332,-0.8864598274230957
3.248,1.4320549964904785,-16.547639846801758,3.0639259815216064,-1.4055507183074951,0.5646317005157471,-0.7079392075538635
3.256,1.4780104160308838,-16.140798568725586,2.6215972900390625,-1.280668020248413,0.4490320384502411,-0.6729164123535156
3.264,1.4741684198379517,-15.584480285644531,2.3644795417785645,-0.884702205657959,0.35166046023368835,-0.7640515565872192
3.272,1.396148681640625,-14.877569198608398,2.3173372745513916,-0.39008569717407227,0.25806790590286255,-0.8824338316917419
3.28,1.1669400930404663,-14.031262397766113,2.4470407962799072,0.08184441924095154,0.16244344413280487,-0.9441797733306885
3.288,0.7942004799842834,-13.05314826965332,2.6979944705963135,0.49803584814071655,0.08602572232484818,-0.9386011362075806
3.296,0.2752472162246704,-11.970358848571777,3.022737503051758,0.8842360377311707,0.01644650101661682,-0.9080280661582947
3.304,-0.30922412872314453,-10.820820808410645,3.3491010665893555,1.2527635097503662,-0.08419043570756912,-0.8984212279319763
3.312,-0.9126076698303223,-9.647543907165527,3.6202757358551025,1.5683276653289795,-0.22392538189888,-0.9452109932899475
3.32,-1.4881551265716553,-8.464912414550781,3.7771120071411133,1.777294397354126,-0.3880331814289093,-1.0597853660583496
3.328,-1.9940972328186035,-7.324209213256836,3.8053598403930664,1.849494218826294,-0.5731073021888733,-1.2050422430038452
3.336,-2.350567102432251,-6.259809970855713,3.6812028884887695,1.7760692834854126,-0.7798188328742981,-1.3169728517532349
3.344,-2.4546024799346924,-5.289826393127441,3.4363362789154053,1.535954236984253,-1.0066148042678833,-1.3506172895431519
3.352,-2.269967794418335,-4.398991584777832,3.1335372924804688,1.128029227256775,-1.2509251832962036,-1.2965768575668335
3.36,-1.8567633628845215,-3.5608158111572266,2.8716883659362793,0.6639289855957031,-1.4617841243743896,-1.1785094738006592
3.368,-1.349892020225525,-2.704713821411133,2.727130651473999,0.28389042615890503,-1.5677708387374878,-1.0303373336791992
3.376,-0.9332804083824158,-1.8127588033676147,2.72322940826416,0.0543365478515625,-1.5722228288650513,-0.8834012746810913
3.384,-0.651668906211853,-0.8554418683052063,2.8336477279663086,-0.003607839345932007,-1.5357375144958496,-0.7628065943717957
3.392,-0.5560091733932495,0.1375173032283783,3.0103213787078857,0.03543376922607422,-1.4972548484802246,-0.6550890803337097
3.4,-0.4853549003601074,1.1301732063293457,3.236530303955078,0.03757399320602417,-1.4474163055419922,-0.5238651037216187
3.408,-0.40395236015319824,2.096839427947998,3.5035336017608643,0.018851906061172485,-1.372023105621338,-0.37650036811828613
3.416,-0.1711897850036621,2.9642176628112793,3.7661197185516357,0.0709773525595665,-1.2723442316055298,-0.25985661149024963
3.424,0.2228691577911377,3.6515920162200928,3.999474048614502,0.18478995561599731,-1.1376324892044067,-0.20304030179977417
3.432,0.7724645137786865,4.087623596191406,4.144182205200195,0.3259035050868988,-0.9649061560630798,-0.19488951563835144
3.44,1.3622581958770752,4.250465393066406,4.1803388595581055,0.5091284513473511,-0.7713508605957031,-0.20101121068000793
3.448,1.9279675483703613,4.19974946975708,4.10031270980835,0.7477318048477173,-0.5722337961196899,-0.19421426951885223
3.456,2.3699097633361816,4.008300304412842,3.9354312419891357,1.0429072380065918,-0.40601348876953125,-0.17589248716831207
3.464,2.6345574855804443,3.763465642929077,3.7303130626678467,1.354259967803955,-0.3090088665485382,-0.1656881868839264
3.472,2.699160575866699,3.459494113922119,3.5259342193603516,1.592595100402832,-0.2657078206539154,-0.1822139322757721
3.48,2.6334750652313232,3.1369690895080566,3.3443338871002197,1.7192623615264893,-0.24419328570365906,-0.23300710320472717
3.488,2.522533655166626,2.7885639667510986,3.1774964332580566,1.8371509313583374,-0.2558756172657013,-0.3205983340740204
3.496,2.494554042816162,2.4535629749298096,3.0190794467926025,2.0359747409820557,-0.324984610080719,-0.4358874261379242
3.504,2.52109956741333,2.177386522293091,2.8316829204559326,2.2778728008270264,-0.42725813388824463,-0.5337653160095215
3.512,2.604090690612793,2.005082368850708,2.6346123218536377,2.524390697479248,-0.5096701979637146,-0.5639752745628357
3.52,2.6407806873321533,1.9742634296417236,2.4501707553863525,2.7864341735839844,-0.54975426197052,-0.5221993327140808
3.528,2.62363862991333,2.074493646621704,2.2886343002319336,3.0435194969177246,-0.559296190738678,-0.43486613035202026
3.536,2.514350414276123,2.2880470752716064,2.174016237258911,3.243626117706299,-0.5628761053085327,-0.32688552141189575
3.544,2.3279871940612793,2.556960344314575,2.113593101501465,3.35489559173584,-0.5723451375961304,-0.21705766022205353
3.552,2.0465731620788574,2.8203632831573486,2.080151081085205,3.383786678314209,-0.5919860005378723,-0.12760253250598907
3.56,1.6795451641082764,3.0870203971862793,2.054110527038574,3.32570219039917,-0.6300727128982544,-0.06044335663318634
3.568,1.2357563972473145,3.375204563140869,2.018831253051758,3.165036201477051,-0.6887279152870178,0.01909128576517105
3.576,0.713535487651825,3.7327284812927246,1.9826414585113525,2.9059157371520996,-0.7667444944381714,0.14337363839149475
3.584,0.09293025732040405,4.165439128875732,1.9565051794052124,2.54707407951355,-0.8746283650398254,0.30517080426216125
3.592,-0.6358944773674011,4.639289379119873,1.9327281713485718,2.056809425354004,-1.0277130603790283,0.46870630979537964
3.6,-1.4466711282730103,5.055887222290039,1.872413158416748,1.432013988494873,-1.2299697399139404,0.6030299663543701
3.608,-2.2311594486236572,5.3107452392578125,1.725584864616394,0.7633809447288513,-1.460432767868042,0.7008108496665955
3.616,-2.8513453006744385,5.385349273681641,1.459130883216858,0.18933317065238953,-1.689108967781067,0.7691352963447571
3.624,-3.1390671730041504,5.342720985412598,1.0806984901428223,-0.17130225896835327,-1.9043514728546143,0.8087339401245117
3.632,-2.9577577114105225,5.289754867553711,0.6200757622718811,-0.22853416204452515,-2.1186163425445557,0.8062422275543213
3.64,-2.2479143142700195,5.320593357086182,0.10376254469156265,0.030226528644561768,-2.3401265144348145,0.7620016932487488
3.648,-1.0666719675064087,5.484424114227295,-0.43524882197380066,0.49322575330734253,-2.5422894954681396,0.7120440602302551
3.656,0.3849027752876282,5.731546878814697,-0.9537816047668457,0.9832421541213989,-2.65716290473938,0.684222936630249
3.664,1.8160145282745361,5.899995803833008,-1.410543441772461,1.299744725227356,-2.594729423522949,0.6672824621200562
3.672,2.9637036323547363,5.797930717468262,-1.7552516460418701,1.2266180515289307,-2.3216006755828857,0.6247126460075378
3.68,3.705620288848877,5.30561637878418,-1.941125512123108,0.7150442004203796,-1.9186766147613525,0.5162782669067383
3.688,4.056185245513916,4.481478691101074,-1.93893301486969,0.033664047718048096,-1.5248355865478516,0.3612123131752014
3.696,4.115477561950684,3.5426931381225586,-1.7328991889953613,-0.43347376585006714,-1.2168264389038086,0.24407468736171722
3.704,3.9729957580566406,2.752288579940796,-1.346388816833496,-0.5022854804992676,-0.9466820955276489,0.21507075428962708
3.712,3.6912455558776855,2.269582509994507,-0.841695249080658,-0.3059138357639313,-0.6568503379821777,0.24724340438842773
3.72,3.3182973861694336,2.093949317932129,-0.32374250888824463,-0.1267719268798828,-0.38951990008354187,0.2862046957015991
3.728,2.8935599327087402,2.1277542114257812,0.09417380392551422,-0.11448792368173599,-0.21961179375648499,0.3067269027233124
3.736,2.4630558490753174,2.2625885009765625,0.3202102482318878,-0.20959624648094177,-0.16503041982650757,0.32329779863357544
3.744,2.0442559719085693,2.424860954284668,0.3167124390602112,-0.29006388783454895,-0.18818144500255585,0.35935714840888977
3.752,1.6342267990112305,2.5702667236328125,0.09541267901659012,-0.2913319766521454,-0.2516957223415375,0.4263661801815033
3.76,1.2210280895233154,2.6873931884765625,-0.26681455969810486,-0.21024584770202637,-0.33536115288734436,0.5240508913993835
3.768,0.7948293685913086,2.766446113586426,-0.6708909869194031,-0.07729008793830872,-0.4090770483016968,0.6389179825782776
3.776,0.3636403977870941,2.777289390563965,-1.0491349697113037,0.053861260414123535,-0.44867557287216187,0.7479632496833801
3.784,-0.0410459041595459,2.6888716220855713,-1.3768492937088013,0.11910867691040039,-0.4556014835834503,0.8296144604682922
3.792,-0.3809223771095276,2.47295880317688,-1.6668918132781982,0.07248741388320923,-0.4295377731323242,0.867266833782196
3.8,-0.6298303604125977,2.1359786987304688,-1.944519281387329,-0.07861331105232239,-0.3520902991294861,0.8543738722801208
3.808,-0.7854689359664917,1.7280093431472778,-2.211484432220459,-0.28035518527030945,-0.2276974618434906,0.7999737858772278
3.816,-0.8664543032646179,1.317087173461914,-2.4429855346679688,-0.4800560474395752,-0.1109108105301857,0.7208881974220276
3.824,-0.9007015228271484,0.9672374129295349,-2.5965070724487305,-0.6425271034240723,-0.05829500034451485,0.6294966340065002
3.832,-0.9077214598655701,0.7180479764938354,-2.638021945953369,-0.744524359703064,-0.06799905747175217,0.5250609517097473
3.84,-0.9069920182228088,0.5748080015182495,-2.5591726303100586,-0.7837517261505127,-0.0889739915728569,0.3953215479850769
3.848,-0.9000284075737,0.5129241347312927,-2.3768434524536133,-0.7745240330696106,-0.0821412056684494,0.23019708693027496
3.856,-0.8892037868499756,0.4847697615623474,-2.1202280521392822,-0.7401520013809204,-0.05695638060569763,0.033340923488140106
3.864,-0.8654463887214661,0.44020935893058777,-1.8272490501403809,-0.7059526443481445,-0.046102866530418396,-0.17662709951400757
3.872,-0.8246781229972839,0.3483228385448456,-1.5334457159042358,-0.6796011328697205,-0.056022755801677704,-0.37262171506881714
3.88,-0.7723029255867004,0.2027597278356552,-1.2642369270324707,-0.6442515850067139,-0.06451351940631866,-0.5317245125770569
3.888,-0.7095044851303101,0.015294996090233326,-1.0327579975128174,-0.5837283730506897,-0.062288980931043625,-0.6445513367652893
3.896,-0.6414531469345093,-0.19215399026870728,-0.8417701721191406,-0.5087915658950806,-0.06884228438138962,-0.7124732732772827
3.904,-0.56703782081604,-0.3953457772731781,-0.6842817664146423,-0.43816685676574707,-0.10567701607942581,-0.7398213148117065
3.912,-0.48791810870170593,-0.5747423768043518,-0.5529481768608093,-0.37194550037384033,-0.17270492017269135,-0.7309705018997192
3.92,-0.41323667764663696,-0.7138558030128479,-0.4432881474494934,-0.3118492364883423,-0.2525249421596527,-0.6936758160591125
3.928,-0.35007572174072266,-0.8073779344558716,-0.3573935925960541,-0.2735840678215027,-0.32870933413505554,-0.6404687166213989
3.936,-0.305642306804657,-0.8614503145217896,-0.29423555731773376,-0.2746652364730835,-0.3937128484249115,-0.5853438973426819
3.944,-0.27993741631507874,-0.8938733339309692,-0.24072402715682983,-0.32630035281181335,-0.44420576095581055,-0.5409881472587585
3.952,-0.26369959115982056,-0.9328376054763794,-0.1706700623035431,-0.4275672137737274,-0.4842931926250458,-0.5158408284187317
3.96,-0.23338107764720917,-1.0083848237991333,-0.06398951262235641,-0.5685425400733948,-0.5274782776832581,-0.5116589665412903
3.968,-0.171327143907547,-1.1457854509353638,0.09347192943096161,-0.742981493473053,-0.5800958275794983,-0.5266063809394836
3.976,-0.05734728276729584,-1.3685160875320435,0.2948281466960907,-0.9450656175613403,-0.6397669315338135,-0.5564689636230469
3.984,0.11682312190532684,-1.6874735355377197,0.4876299202442169,-1.1533325910568237,-0.7090093493461609,-0.593988835811615
3.992,0.3342748284339905,-2.0921194553375244,0.5881254076957703,-1.3265109062194824,-0.7809139490127563,-0.633891224861145
4.0,0.5504138469696045,-2.547696828842163,0.5245515704154968,-1.4116182327270508,-0.8187881112098694,-0.6779389381408691
4.008,0.7087711691856384,-3.0047616958618164,0.27288562059402466,-1.373291015625,-0.7984168529510498,-0.7280079126358032
4.016,0.7614974975585938,-3.4065957069396973,-0.12503983080387115,-1.2366125583648682,-0.7781436443328857,-0.7731232643127441
4.024,0.6999450325965881,-3.7171473503112793,-0.576419472694397,-1.0650460720062256,-0.8474782705307007,-0.7891311645507812
4.032,0.5569664835929871,-3.9370319843292236,-0.9683682918548584,-0.8947418332099915,-1.0040868520736694,-0.7641308307647705
4.04,0.3880123198032379,-4.108306884765625,-1.2020083665847778,-0.7519392371177673,-1.18698251247406,-0.7166086435317993
4.048,0.2410869002342224,-4.286809921264648,-1.208476185798645,-0.6812253594398499,-1.383065938949585,-0.6768162250518799
4.056,0.13375017046928406,-4.5049824714660645,-0.962544858455658,-0.6839724183082581,-1.6037144660949707,-0.6585503220558167
4.064,0.05876946449279785,-4.758091926574707,-0.4867698848247528,-0.7027125954627991,-1.8328676223754883,-0.6531530022621155
4.072,0.004574701189994812,-5.005834579467773,0.13478362560272217,-0.695173978805542,-2.0466818809509277,-0.6439175009727478
4.08,-0.03698346018791199,-5.1809821128845215,0.7813316583633423,-0.6593882441520691,-2.2341253757476807,-0.6201331615447998
4.088,-0.05885845422744751,-5.214426517486572,1.3412352800369263,-0.6012957692146301,-2.398759365081787,-0.5763949751853943
4.096,-0.03306877613067627,-5.0491228103637695,1.7344621419906616,-0.5173180103302002,-2.5526058673858643,-0.5106490254402161
4.104,0.04373544454574585,-4.641025543212891,1.934130072593689,-0.40431034564971924,-2.700035810470581,-0.4279502332210541
4.112,0.1577972173690796,-4.005722522735596,1.9643754959106445,-0.26779475808143616,-2.836073637008667,-0.3369481563568115
4.12,0.270150363445282,-3.180804491043091,1.87183678150177,-0.11157762259244919,-2.9578239917755127,-0.23595011234283447
4.128,0.33747613430023193,-2.1680665016174316,1.7275092601776123,0.06696008890867233,-3.067467212677002,-0.11076877266168594
4.136,0.2502930164337158,-1.0443487167358398,1.5674513578414917,0.2509652376174927,-3.1801705360412598,0.043198466300964355
4.144,-0.03736388683319092,0.11339297145605087,1.3995897769927979,0.38896599411964417,-3.3208611011505127,0.1850096434354782
4.152,-0.5180183053016663,1.304368257522583,1.189322590827942,0.47206753492355347,-3.4908909797668457,0.23407667875289917
4.16,-1.0927032232284546,2.578643321990967,0.8786374926567078,0.6581713557243347,-3.650367259979248,0.16929714381694794
4.168,-1.623417615890503,3.955469846725464,0.4148278832435608,1.1788864135742188,-3.7798595428466797,0.10337689518928528
4.176,-2.0009303092956543,5.331023693084717,-0.22516568005084991,1.924521565437317,-3.9112284183502197,0.13279332220554352
4.184,-2.1730191707611084,6.442523956298828,-1.0147714614868164,2.3743162155151367,-4.078066349029541,0.2052905410528183
4.192,-2.149042844772339,6.968198776245117,-1.8946120738983154,2.2082319259643555,-4.263922691345215,0.25953587889671326
4.2,-1.9662938117980957,6.696615219116211,-2.7744100093841553,1.6280546188354492,-4.404374122619629,0.29418474435806274
4.208,-1.6600342988967896,5.674881458282471,-3.557725191116333,0.9896233081817627,-4.454270839691162,0.2784069776535034
4.216,-1.2723933458328247,4.2005615234375,-4.152621269226074,0.5108551383018494,-4.425503730773926,0.20573602616786957
4.224,-0.842055082321167,2.6390161514282227,-4.498791217803955,0.2619723677635193,-4.351909160614014,0.1559068113565445
4.232,-0.39812707901000977,1.2742650508880615,-4.590246677398682,0.19230571389198303,-4.266209125518799,0.2025046944618225
4.24,0.06089162826538086,0.30592119693756104,-4.414984703063965,0.19493836164474487,-4.18940544128418,0.327128142118454
4.248,0.4885448217391968,-0.25119632482528687,-4.0372514724731445,0.19680170714855194,-4.134578704833984,0.4559587240219116
4.256,0.8481965065002441,-0.504546582698822,-3.540358781814575,0.18853752315044403,-4.108402252197266,0.5394026041030884
4.264,1.0922157764434814,-0.5703195929527283,-3.019359827041626,0.19472412765026093,-4.085086822509766,0.5657720565795898
4.272,1.203124761581421,-0.5211986303329468,-2.5433640480041504,0.2393920123577118,-4.005073547363281,0.5345260500907898
4.28,1.1842098236083984,-0.3955949544906616,-2.1460323333740234,0.327517569065094,-3.844888687133789,0.4512697160243988
4.288,1.0607523918151855,-0.1873772293329239,-1.8095076084136963,0.4458090364933014,-3.649653911590576,0.33111250400543213
4.296,0.8878944516181946,0.1411598175764084,-1.5149980783462524,0.5845786333084106,-3.4740257263183594,0.201470747590065
4.304,0.7446525692939758,0.6392735242843628,-1.2569466829299927,0.7392590641975403,-3.3294034004211426,0.09451111406087875
4.312,0.6829394102096558,1.2902030944824219,-1.040992259979248,0.889621376991272,-3.177243232727051,0.029053667560219765
4.32,0.7144412994384766,2.0921592712402344,-0.9133226871490479,0.9952033162117004,-2.958923816680908,-0.008716459386050701
4.328,0.7927485108375549,2.9868431091308594,-0.9361853003501892,1.0144717693328857,-2.6724236011505127,-0.062166474759578705
4.336,0.8526450395584106,3.90922474861145,-1.189224123954773,0.9426625967025757,-2.3638932704925537,-0.15179701149463654
4.344,0.8310858011245728,4.802052021026611,-1.7371551990509033,0.826708197593689,-2.0375001430511475,-0.2338680624961853
4.352,0.7005908489227295,5.612866401672363,-2.546510696411133,0.7283651828765869,-1.6977121829986572,-0.2538738548755646
4.36,0.45564723014831543,6.294341564178467,-3.5113911628723145,0.6772195100784302,-1.4249833822250366,-0.20225001871585846
4.368,0.13141155242919922,6.792487621307373,-4.410970687866211,0.6384285688400269,-1.3161883354187012,-0.1813158541917801
4.376,-0.21515917778015137,7.019805431365967,-5.032260894775391,0.554829478263855,-1.3991867303848267,-0.3423840403556824
4.384,-0.49201536178588867,6.88998556137085,-5.206526756286621,0.42006057500839233,-1.625186800956726,-0.6849051713943481
4.392,-0.619988203048706,6.360787868499756,-4.900686740875244,0.26068761944770813,-1.910921335220337,-1.0892918109893799
4.4,-0.5843561887741089,5.443982124328613,-4.226062774658203,0.10611575841903687,-2.1643457412719727,-1.4427309036254883
4.408,-0.4183918237686157,4.216272354125977,-3.3981151580810547,-0.015510737895965576,-2.3166630268096924,-1.6463706493377686
4.416,-0.16514551639556885,2.7962913513183594,-2.598156690597534,-0.1047707200050354,-2.3580501079559326,-1.6911569833755493
4.424,0.09626555442810059,1.2609690427780151,-2.0046679973602295,-0.17632204294204712,-2.320934772491455,-1.6828218698501587
4.432,0.3290051221847534,-0.30283376574516296,-1.6661877632141113,-0.22297710180282593,-2.2446627616882324,-1.7328819036483765
4.44,0.4893789291381836,-1.803672194480896,-1.5575236082077026,-0.22727322578430176,-2.1574389934539795,-1.8829517364501953
4.448,0.5583826899528503,-3.2104432582855225,-1.6462892293930054,-0.17358112335205078,-2.0795960426330566,-2.0892927646636963
4.456,0.5345130562782288,-4.411892414093018,-1.87628173828125,-0.05155467987060547,-2.044933319091797,-2.2167065143585205
4.464,0.42708122730255127,-5.325431823730469,-2.1742496490478516,0.12715893983840942,-2.09652042388916,-2.0966603755950928
4.472,0.2578299045562744,-5.89628791809082,-2.525499105453491,0.3227127194404602,-2.256246566772461,-1.6642401218414307
4.48,0.06626808643341064,-6.1257100105285645,-2.9136722087860107,0.48486092686653137,-2.4821863174438477,-1.10818612575531
4.488,-0.10590839385986328,-6.067224502563477,-3.41654634475708,0.5891661643981934,-2.66740345954895,-0.819328248500824
4.496,-0.2067025899887085,-5.819336414337158,-4.045076847076416,0.662161111831665,-2.7780134677886963,-0.8690531849861145
4.504,-0.19176769256591797,-5.475729942321777,-4.754059314727783,0.7326465845108032,-2.901035785675049,-0.926932156085968
4.512,-0.035875558853149414,-5.091779708862305,-5.4830641746521,0.792850136756897,-3.0893266201019287,-0.8352810144424438
4.52,0.26238179206848145,-4.699065685272217,-6.106817722320557,0.829987108707428,-3.3251025676727295,-0.6811899542808533
4.528,0.6941063404083252,-4.303342819213867,-6.492916584014893,0.8415551781654358,-3.5869359970092773,-0.5263198018074036
4.536,1.2236056327819824,-3.8744800090789795,-6.619879245758057,0.8271595239639282,-3.863311767578125,-0.38674455881118774
4.544,1.83036208152771,-3.4028351306915283,-6.470981597900391,0.7914754152297974,-4.152644634246826,-0.2676781415939331
4.552,2.4772231578826904,-2.8370280265808105,-6.074326992034912,0.7465559840202332,-4.445460796356201,-0.1822652518749237
4.56,3.1477322578430176,-2.208045482635498,-5.532726764678955,0.693271279335022,-4.7364115715026855,-0.1139865517616272
4.568,3.835394859313965,-1.5262298583984375,-4.910261154174805,0.6228954792022705,-5.0189313888549805,-0.04560253396630287
4.576,4.54221248626709,-0.8119410276412964,-4.299864768981934,0.5380815267562866,-5.261343955993652,-0.025351407006382942
4.584,5.265181541442871,-0.08772830665111542,-3.7315824031829834,0.45923635363578796,-5.447018146514893,-0.0875149741768837
4.592,5.989089488983154,0.624014139175415,-3.1795225143432617,0.3978681266307831,-5.602180004119873,-0.18108761310577393
4.6,6.7035932540893555,1.3157352209091187,-2.6296472549438477,0.3402112126350403,-5.757232189178467,-0.26099517941474915
4.608,7.37531042098999,1.9752345085144043,-2.024963617324829,0.2740570306777954,-5.9186201095581055,-0.3380434215068817
4.616,7.9714860916137695,2.5744853019714355,-1.3366063833236694,0.21317526698112488,-6.0701823234558105,-0.4358598589897156
4.624,8.494572639465332,3.0925443172454834,-0.5854753255844116,0.1784633845090866,-6.201562404632568,-0.5708197355270386
4.632,8.912127494812012,3.4818551540374756,0.23808902502059937,0.171024352312088,-6.323781490325928,-0.7337716817855835
4.64,9.207794189453125,3.6882741451263428,1.1390345096588135,0.18501624464988708,-6.444441795349121,-0.9057525396347046
4.648,9.355708122253418,3.666177749633789,2.099377393722534,0.2232387363910675,-6.559545040130615,-1.0800232887268066
4.656,9.328145027160645,3.3805360794067383,3.1109275817871094,0.28586310148239136,-6.666437149047852,-1.2561460733413696
4.664,9.114109992980957,2.8287360668182373,4.139540672302246,0.36453354358673096,-6.760934352874756,-1.4311989545822144
4.672,8.736080169677734,2.049100875854492,5.138463020324707,0.4473154544830322,-6.840395450592041,-1.5983107089996338
4.68,8.193570137023926,1.1127214431762695,6.089158535003662,0.5251438617706299,-6.90427827835083,-1.7460068464279175
4.688,7.516224384307861,0.11312678456306458,6.957945346832275,0.5927662253379822,-6.955681324005127,-1.8672378063201904
4.696,6.70425271987915,-0.8553475737571716,7.728244781494141,0.6487904787063599,-7.001885414123535,-1.9647008180618286
4.704,5.75551700592041,-1.7054452896118164,8.377171516418457,0.6913790702819824,-7.05280065536499,-2.046066999435425
4.712,4.670464992523193,-2.3735029697418213,8.886259078979492,0.7145770788192749,-7.117642879486084,-2.120839834213257
4.72,3.4549176692962646,-2.8269717693328857,9.246545791625977,0.717759370803833,-7.199806213378906,-2.2019495964050293
4.728,2.150726318359375,-3.079174757003784,9.454660415649414,0.7175905704498291,-7.289070129394531,-2.29842472076416
4.736,0.8299331665039062,-3.183190107345581,9.525801658630371,0.7408614754676819,-7.36533784866333,-2.4047107696533203
4.744,-0.4229145050048828,-3.2182679176330566,9.487417221069336,0.8029879331588745,-7.417174339294434,-2.5042946338653564
4.752,-1.5313286781311035,-3.270301342010498,9.38994312286377,0.8982004523277283,-7.4504714012146,-2.581865072250366
4.76,-2.4503068923950195,-3.400582790374756,9.29741096496582,1.0101304054260254,-7.479345798492432,-2.628135919570923
4.768,-3.1813223361968994,-3.628993272781372,9.267051696777344,1.1201198101043701,-7.51598596572876,-2.636235475540161
4.776,-3.7597315311431885,-3.929278612136841,9.341445922851562,1.2080116271972656,-7.563586235046387,-2.601058006286621
4.784,-4.240006446838379,-4.242020130157471,9.535117149353027,1.256638765335083,-7.614116191864014,-2.523322105407715
4.792,-4.677984714508057,-4.483616828918457,9.832172393798828,1.2555286884307861,-7.654120922088623,-2.4120516777038574
4.8,-5.122230529785156,-4.560022354125977,10.184950828552246,1.1937706470489502,-7.6749773025512695,-2.2846994400024414
4.808,-5.6123552322387695,-4.385881423950195,10.520642280578613,1.0606930255889893,-7.680103778839111,-2.1649551391601562
4.816,-6.170072078704834,-3.9074606895446777,10.75588321685791,0.859654426574707,-7.6830010414123535,-2.0747299194335938
4.824,-6.7964863777160645,-3.1258387565612793,10.826302528381348,0.6157956719398499,-7.693528652191162,-2.021855354309082
4.832,-7.47767448425293,-2.1025679111480713,10.688797950744629,0.36783456802368164,-7.705752372741699,-1.9945333003997803
4.84,-8.191641807556152,-0.9508090019226074,10.322933197021484,0.14819467067718506,-7.705682754516602,-1.9743902683258057
4.848,-8.91028118133545,0.20050781965255737,9.729159355163574,-0.01841878890991211,-7.683882713317871,-1.9467514753341675
4.856,-9.599003791809082,1.2366359233856201,8.92746353149414,-0.10715687274932861,-7.6336164474487305,-1.8938400745391846
4.864,-10.212514877319336,2.092381238937378,7.968059062957764,-0.11161148548126221,-7.548469066619873,-1.8025012016296387
4.872,-10.703130722045898,2.7579429149627686,6.935204029083252,-0.059301137924194336,-7.429323196411133,-1.6852091550827026
4.88,-11.023262023925781,3.2653045654296875,5.916249752044678,0.004624068737030029,-7.288941860198975,-1.5756785869598389
4.888,-11.13723373413086,3.636113166809082,4.981817245483398,0.05151247978210449,-7.14406681060791,-1.4925442934036255
4.896,-11.019489288330078,3.8612544536590576,4.165761470794678,0.09305208921432495,-7.015028476715088,-1.4087966680526733
4.904,-10.671008110046387,3.89129900932312,3.479530096054077,0.1577494740486145,-6.9270195960998535,-1.27316153049469
4.912,-10.126309394836426,3.674975872039795,2.9196557998657227,0.24170315265655518,-6.888935565948486,-1.0655665397644043
4.92,-9.449357032775879,3.2004828453063965,2.475399971008301,0.3066226541996002,-6.881793975830078,-0.8166429996490479
4.928,-8.724729537963867,2.5106594562530518,2.12996506690979,0.318435937166214,-6.880099296569824,-0.5804629325866699
4.936,-8.032910346984863,1.6960622072219849,1.862297534942627,0.2705356478691101,-6.874664783477783,-0.40796515345573425
4.944,-7.434028625488281,0.8627060651779175,1.651659369468689,0.17982521653175354,-6.870824813842773,-0.3255050778388977
4.952,-6.9585371017456055,0.10661004483699799,1.4777004718780518,0.06888759881258011,-6.871487140655518,-0.32425740361213684
4.96,-6.612730026245117,-0.5050653219223022,1.3250216245651245,-0.04291871190071106,-6.875495910644531,-0.3784695863723755
4.968,-6.385102272033691,-0.945930004119873,1.1736561059951782,-0.13862338662147522,-6.883212566375732,-0.4666593670845032
4.976,-6.249885559082031,-1.222428798675537,1.006367802619934,-0.20504096150398254,-6.893771648406982,-0.57358717918396
4.984,-6.1810808181762695,-1.3655762672424316,0.8002801537513733,-0.235317200422287,-6.903869152069092,-0.6829723715782166
4.992,-6.149754047393799,-1.4093079566955566,0.5375462174415588,-0.23120921850204468,-6.906562805175781,-0.7789043188095093
5.0,-6.131847381591797,-1.3942409753799438,0.19547636806964874,-0.20049965381622314,-6.893832683563232,-0.8529236316680908
5.008,-6.097870826721191,-1.3492275476455688,-0.2338499277830124,-0.15072563290596008,-6.865031719207764,-0.9057538509368896
5.016,-6.019927024841309,-1.2934072017669678,-0.7352258563041687,-0.0852493941783905,-6.826089859008789,-0.9459065198898315
5.024,-5.880764007568359,-1.2392947673797607,-1.2765649557113647,-0.0061505138874053955,-6.781788349151611,-0.9811505675315857
5.032,-5.672919273376465,-1.1927984952926636,-1.8171578645706177,0.07929039001464844,-6.7314581871032715,-1.0101996660232544
5.04,-5.400359153747559,-1.152302622795105,-2.321617364883423,0.16099262237548828,-6.670816898345947,-1.027465581893921
5.048,-5.072151184082031,-1.106703758239746,-2.7639544010162354,0.23608747124671936,-6.59633207321167,-1.0333300828933716
5.056,-4.7025251388549805,-1.037247657775879,-3.123922109603882,0.3125205636024475,-6.508520603179932,-1.0350680351257324
5.064,-4.307528018951416,-0.9215412735939026,-3.385080575942993,0.39932453632354736,-6.4104156494140625,-1.0380187034606934
5.072,-3.910310983657837,-0.7497454285621643,-3.53358793258667,0.4968881607055664,-6.3048176765441895,-1.039381504058838
5.08,-3.5365538597106934,-0.5331870317459106,-3.568378448486328,0.5969753265380859,-6.197649955749512,-1.0294755697250366
5.088,-3.207587718963623,-0.3028307855129242,-3.503119707107544,0.6862031817436218,-6.095218181610107,-0.9978246688842773
5.096,-2.928493022918701,-0.10200127214193344,-3.367386817932129,0.7523215413093567,-5.998381614685059,-0.9410280585289001
5.104,-2.6935133934020996,0.028153354302048683,-3.1956493854522705,0.7926923036575317,-5.908082962036133,-0.867007315158844
5.112,-2.482454299926758,0.05640309676527977,-3.026750326156616,0.814612090587616,-5.828056812286377,-0.7914546728134155
5.12,-2.267821788787842,-0.03002651408314705,-2.8908843994140625,0.8278987407684326,-5.757533073425293,-0.7288525104522705
5.128,-2.0209336280822754,-0.22146999835968018,-2.8039281368255615,0.8408142328262329,-5.6916704177856445,-0.6855459809303284
5.136,-1.7267427444458008,-0.4914476275444031,-2.7638328075408936,0.8607723116874695,-5.629300594329834,-0.6584463119506836
5.144,-1.3848717212677002,-0.8011772632598877,-2.756829261779785,0.894554615020752,-5.570102214813232,-0.6400090456008911
5.152,-1.010014533996582,-1.1091625690460205,-2.7570769786834717,0.9446840286254883,-5.509130954742432,-0.624054491519928
5.16,-0.6296272277832031,-1.3819888830184937,-2.7395179271698,1.0051759481430054,-5.442230224609375,-0.6059375405311584
5.168,-0.27566230297088623,-1.598930835723877,-2.6874911785125732,1.0649994611740112,-5.371731281280518,-0.5810477137565613
5.176,0.029172301292419434,-1.7462067604064941,-2.5926427841186523,1.116990327835083,-5.303463935852051,-0.5469381213188171
5.184,0.2743798494338989,-1.8135638236999512,-2.449371814727783,1.164722204208374,-5.242204189300537,-0.5060152411460876
5.192,0.4560777544975281,-1.7977051734924316,-2.2619426250457764,1.2180356979370117,-5.1903228759765625,-0.46232590079307556
5.2,0.5762948393821716,-1.6964020729064941,-2.0395750999450684,1.2789576053619385,-5.146341323852539,-0.4166949987411499
5.208,0.6357609629631042,-1.515058994293213,-1.7952115535736084,1.339190125465393,-5.106637477874756,-0.36813288927078247
5.216,0.6392295956611633,-1.2616065740585327,-1.5418952703475952,1.3907392024993896,-5.068859100341797,-0.31776803731918335
5.224,0.5891121625900269,-0.9520991444587708,-1.2878034114837646,1.4295802116394043,-5.035630226135254,-0.26935821771621704
5.232,0.49353182315826416,-0.6038095355033875,-1.0301876068115234,1.4491143226623535,-5.014970302581787,-0.22720181941986084
5.24,0.36756187677383423,-0.23480522632598877,-0.7563706636428833,1.4417009353637695,-5.014496803283691,-0.194294273853302
5.248,0.20988212525844574,0.12860293686389923,-0.45949092507362366,1.4074673652648926,-5.034806728363037,-0.173328697681427
5.256,0.01878037303686142,0.4611683487892151,-0.15106922388076782,1.344057559967041,-5.069006443023682,-0.17055965960025787
5.264,-0.20592527091503143,0.7353859543800354,0.13696596026420593,1.2439167499542236,-5.10928201675415,-0.19797296822071075
5.272,-0.4575255811214447,0.9278995394706726,0.352433443069458,1.1154627799987793,-5.153087615966797,-0.26530590653419495
5.28,-0.7131906747817993,1.0399792194366455,0.4443160593509674,0.9995171427726746,-5.198802471160889,-0.36903858184814453
5.288,-0.9434301257133484,1.0985767841339111,0.3800947070121765,0.9562190771102905,-5.234302997589111,-0.4876767694950104
5.296,-1.1146329641342163,1.145686388015747,0.16271038353443146,1.0150213241577148,-5.242676258087158,-0.5909138917922974
5.304,-1.1890456676483154,1.213526964187622,-0.16900956630706787,1.1368072032928467,-5.221974849700928,-0.6664520502090454
5.312,-1.1406782865524292,1.3187867403030396,-0.550470769405365,1.2469091415405273,-5.184423923492432,-0.7337415218353271
5.32,-0.9570925831794739,1.453309178352356,-0.9212819933891296,1.3033872842788696,-5.145578384399414,-0.8181374669075012
5.328,-0.631982684135437,1.6034214496612549,-1.2309160232543945,1.312870979309082,-5.122422695159912,-0.9267715215682983
5.336,-0.1751919984817505,1.753170132637024,-1.4509339332580566,1.2956920862197876,-5.13584566116333,-1.061646819114685
5.344,0.3932720422744751,1.8991843461990356,-1.5618489980697632,1.2753076553344727,-5.204381942749023,-1.226274013519287
5.352,1.0419297218322754,2.051614761352539,-1.5373868942260742,1.2830371856689453,-5.321660041809082,-1.4069924354553223
5.36,1.7197856903076172,2.2228240966796875,-1.3480958938598633,1.3408310413360596,-5.456377983093262,-1.5741723775863647
5.368,2.3614935874938965,2.4129018783569336,-0.9736629128456116,1.4376362562179565,-5.580883502960205,-1.7119333744049072
5.376,2.900526523590088,2.596014976501465,-0.4115975499153137,1.5275181531906128,-5.676513671875,-1.8371326923370361
5.384,3.2849555015563965,2.7154674530029297,0.30430230498313904,1.5609130859375,-5.725221633911133,-1.9804686307907104
5.392,3.4843950271606445,2.713442802429199,1.0990266799926758,1.523269534111023,-5.717942714691162,-2.146554708480835
5.4,3.4930386543273926,2.5618393421173096,1.865641474723816,1.435378909111023,-5.664672374725342,-2.301666498184204
5.408,3.345317840576172,2.268890619277954,2.489107847213745,1.3212780952453613,-5.586483001708984,-2.405193328857422
5.416,3.1030540466308594,1.8685638904571533,2.8829705715179443,1.1914359331130981,-5.498528480529785,-2.4435136318206787
5.424,2.831545352935791,1.4000235795974731,3.008023738861084,1.0532981157302856,-5.416803359985352,-2.4309215545654297
5.432,2.573516368865967,0.8889152407646179,2.872967481613159,0.9197060465812683,-5.365010738372803,-2.3837122917175293
5.44,2.3345096111297607,0.34446531534194946,2.5232062339782715,0.8015649914741516,-5.352950572967529,-2.3018786907196045
5.448,2.086193323135376,-0.23401834070682526,2.0093610286712646,0.7014456987380981,-5.368173122406006,-2.181060314178467
5.456,1.7992472648620605,-0.8473235368728638,1.378676414489746,0.6163575649261475,-5.380879878997803,-2.0314555168151855
5.464,1.4654834270477295,-1.4832555055618286,0.6741111874580383,0.5430582165718079,-5.346808910369873,-1.8757917881011963
5.472,1.1058851480484009,-2.0950253009796143,-0.05732370540499687,0.48510193824768066,-5.229312896728516,-1.731507658958435
5.48,0.7483227252960205,-2.610612392425537,-0.7601344585418701,0.45640867948532104,-5.028201103210449,-1.5931446552276611
5.488,0.3924279510974884,-2.937314987182617,-1.3524740934371948,0.47062262892723083,-4.780856132507324,-1.4370709657669067
5.496,0.009710609912872314,-2.9856247901916504,-1.7655774354934692,0.5256524085998535,-4.534825325012207,-1.2503889799118042
5.504,-0.42934727668762207,-2.6924548149108887,-1.9717105627059937,0.6086007952690125,-4.320131778717041,-1.0342704057693481
5.512,-0.944733202457428,-2.037062883377075,-1.9926600456237793,0.7138659954071045,-4.140535831451416,-0.7723961472511292
5.52,-1.5174334049224854,-1.0854741334915161,-1.9073045253753662,0.8363989591598511,-3.9837729930877686,-0.46102654933929443
5.528,-2.0788869857788086,0.029891977086663246,-1.8202946186065674,0.9500086307525635,-3.826613664627075,-0.20753268897533417
5.536,-2.5222904682159424,1.124050259590149,-1.8443907499313354,1.027137041091919,-3.6210219860076904,-0.17659397423267365
5.544,-2.7611899375915527,2.0313303470611572,-2.068981409072876,1.0665884017944336,-3.330792188644409,-0.3702046573162079
5.552,-2.773501396179199,2.668642282485962,-2.533754587173462,1.0734443664550781,-3.0150201320648193,-0.5828629732131958
5.56,-2.624999761581421,3.073180675506592,-3.2225263118743896,1.0418829917907715,-2.7872314453125,-0.6102339029312134
5.568,-2.423400402069092,3.355177164077759,-4.066490173339844,0.968445897102356,-2.695425510406494,-0.38121771812438965
5.576,-2.257756471633911,3.613469362258911,-4.950161457061768,0.8600053191184998,-2.7061855792999268,0.04672161117196083
5.584,-2.1477370262145996,3.8995649814605713,-5.748389720916748,0.7338055372238159,-2.763801336288452,0.5118752717971802
5.592,-2.038971185684204,4.191126823425293,-6.359266757965088,0.6129279136657715,-2.839085817337036,0.8384421467781067
5.6,-1.8639631271362305,4.421018600463867,-6.702698707580566,0.5251587629318237,-2.9323348999023438,0.9364336729049683
5.608,-1.5881736278533936,4.5014238357543945,-6.755936145782471,0.502535343170166,-3.032484292984009,0.8098476529121399
5.616,-1.2129418849945068,4.367247581481934,-6.542003631591797,0.5599731802940369,-3.110745906829834,0.533764660358429
5.624,-0.7846081256866455,4.007485389709473,-6.106457233428955,0.6728536486625671,-3.162416696548462,0.2263767421245575
5.632,-0.3691120147705078,3.457625389099121,-5.526632785797119,0.7887793779373169,-3.212907314300537,-0.0067983525805175304
5.64,-0.020534992218017578,2.799546003341675,-4.880554676055908,0.8664374351501465,-3.273975372314453,-0.12773901224136353
5.648,0.2480618953704834,2.1210591793060303,-4.240180492401123,0.8967793583869934,-3.3343563079833984,-0.16228897869586945
5.656,0.45706355571746826,1.4906384944915771,-3.6585001945495605,0.8885486125946045,-3.3808584213256836,-0.15746049582958221
5.664,0.6395368576049805,0.942767858505249,-3.15682315826416,0.8494172096252441,-3.4109177589416504,-0.1424255222082138
5.672,0.8117980360984802,0.4873015880584717,-2.72098970413208,0.7868767976760864,-3.431723117828369,-0.122676782310009
5.68,0.9683611989021301,0.11494800448417664,-2.3132710456848145,0.7130153179168701,-3.4477648735046387,-0.09787457436323166
5.688,1.0722483396530151,-0.20112256705760956,-1.8828917741775513,0.6402063369750977,-3.4516046047210693,-0.07006414979696274
5.696,1.0957458019256592,-0.5032904744148254,-1.3937361240386963,0.5742015242576599,-3.4294121265411377,-0.03886490315198898
5.704,0.9660810232162476,-0.8042586445808411,-0.8227023482322693,0.5103951096534729,-3.3740997314453125,0.0016874225111678243
5.712,0.6510201692581177,-1.1049988269805908,-0.17471687495708466,0.44046729803085327,-3.288208484649658,0.05848906561732292
5.72,0.14442452788352966,-1.3958054780960083,0.5158563256263733,0.36366671323776245,-3.1730685234069824,0.12994520366191864
5.728,-0.5113228559494019,-1.6552907228469849,1.2026832103729248,0.29052621126174927,-3.0269381999969482,0.20243020355701447
5.736,-1.2294304370880127,-1.8656153678894043,1.8490595817565918,0.22547899186611176,-2.8638768196105957,0.2615022361278534
5.744,-1.9081422090530396,-2.014174699783325,2.432281970977783,0.15183869004249573,-2.731180191040039,0.29742324352264404
5.752,-2.4491372108459473,-2.101372003555298,2.9453015327453613,0.0713680163025856,-2.6461801528930664,0.2891991138458252
5.76,-2.7722246646881104,-2.1445934772491455,3.390873670578003,0.02607395499944687,-2.5580594539642334,0.200196772813797
5.768,-2.832573413848877,-2.1775190830230713,3.767707586288452,0.03543330356478691,-2.4250144958496094,0.01651216484606266
5.776,-2.6315102577209473,-2.2470672130584717,4.069007873535156,0.0691395103931427,-2.2448172569274902,-0.22849340736865997
5.784,-2.2199554443359375,-2.39996600151062,4.27437686920166,0.0966344028711319,-2.0239577293395996,-0.4838092625141144
5.792,-1.6859432458877563,-2.6702802181243896,4.359283447265625,0.11633265018463135,-1.7768999338150024,-0.7121913433074951
5.8,-1.1580673456192017,-3.050504207611084,4.2985615730285645,0.13616031408309937,-1.5224707126617432,-0.8880700469017029
5.808,-0.7154078483581543,-3.509626865386963,4.089051723480225,0.15045568346977234,-1.2809818983078003,-0.9924889206886292
5.816,-0.43468499183654785,-3.9593138694763184,3.755129337310791,0.13917115330696106,-1.0677978992462158,-1.0172518491744995
5.824,-0.3329974412918091,-4.2987823486328125,3.3519327640533447,0.0739404559135437,-0.8870734572410583,-0.9601497650146484
5.832,-0.3921825885772705,-4.435821533203125,2.9407711029052734,-0.06685584783554077,-0.7392064332962036,-0.8247644305229187
5.84,-0.5916770696640015,-4.283432483673096,2.5697150230407715,-0.2746243178844452,-0.6310792565345764,-0.6379674673080444
5.848,-0.9036824107170105,-3.7779176235198975,2.2833902835845947,-0.5170139074325562,-0.5675222277641296,-0.44731831550598145
5.856,-1.2968740463256836,-2.885944366455078,2.108553647994995,-0.7657040953636169,-0.5342955589294434,-0.29228442907333374
5.864,-1.736987829208374,-1.6168078184127808,2.0521669387817383,-1.0002875328063965,-0.5059675574302673,-0.19666343927383423
5.872,-2.1822190284729004,-0.018263457342982292,2.1119399070739746,-1.1863290071487427,-0.46524345874786377,-0.19607731699943542
5.88,-2.5681309700012207,1.7959657907485962,2.271719217300415,-1.2744190692901611,-0.3971600830554962,-0.34277984499931335
5.888,-2.808259963989258,3.6047792434692383,2.4958271980285645,-1.2234084606170654,-0.2658449709415436,-0.6622994542121887
5.896,-2.864126205444336,5.175058364868164,2.7158548831939697,-1.024356722831726,-0.03559144213795662,-1.1040631532669067
5.904,-2.769564151763916,6.344578266143799,2.833782911300659,-0.7311172485351562,0.22346548736095428,-1.5463989973068237
5.912,-2.626854658126831,7.067795276641846,2.7658324241638184,-0.49386030435562134,0.3500405251979828,-1.8268871307373047
5.92,-2.5504071712493896,7.403284549713135,2.4996914863586426,-0.4614828824996948,0.3174642026424408,-1.8075683116912842
5.928,-2.5794074535369873,7.459509372711182,2.0906519889831543,-0.5855085849761963,0.29757094383239746,-1.5096290111541748
5.936,-2.7039058208465576,7.347012042999268,1.6461061239242554,-0.6894721984863281,0.4171837866306305,-1.1089051961898804
5.944,-2.8858394622802734,7.151861667633057,1.262642741203308,-0.7132123708724976,0.6090028882026672,-0.7516661286354065
5.952,-3.110886573791504,6.955418109893799,0.9862351417541504,-0.7045057415962219,0.7455331683158875,-0.4804002046585083
5.96,-3.390178680419922,6.816172122955322,0.8267961740493774,-0.6840165257453918,0.7969149351119995,-0.29494187235832214
5.968,-3.7077951431274414,6.747204303741455,0.764609158039093,-0.6352077722549438,0.8264160752296448,-0.18831242620944977
5.976,-4.032536506652832,6.708860874176025,0.7607329487800598,-0.5545211434364319,0.8880361914634705,-0.1485472470521927
5.984,-4.33968448638916,6.641079425811768,0.7676562666893005,-0.4702715575695038,0.9724506139755249,-0.15946824848651886
5.992,-4.621673583984375,6.49856424331665,0.7468457818031311,-0.41106918454170227,1.06099534034729,-0.20421519875526428
6.0,-4.867105484008789,6.224585056304932,0.6775693893432617,-0.370123028755188,1.1639550924301147,-0.27682146430015564
6.008,-5.072528839111328,5.783644676208496,0.579035758972168,-0.3264927566051483,1.292833924293518,-0.3741596043109894
6.016,-5.213640213012695,5.171714782714844,0.47484245896339417,-0.2824353873729706,1.4391502141952515,-0.47823965549468994
6.024,-5.259540557861328,4.4096784591674805,0.4047005772590637,-0.25031107664108276,1.585669755935669,-0.5694373250007629
6.032,-5.189514636993408,3.5189571380615234,0.42393893003463745,-0.22402192652225494,1.7266215085983276,-0.6501067280769348
6.04,-4.979649066925049,2.5210607051849365,0.5687499642372131,-0.19390550255775452,1.8661651611328125,-0.7274233102798462
6.048,-4.629275321960449,1.4392372369766235,0.8377528786659241,-0.16446658968925476,1.9966028928756714,-0.7912206649780273
6.056,-4.157133102416992,0.30565881729125977,1.1722326278686523,-0.14061105251312256,2.0999860763549805,-0.8338792324066162
6.064,-3.5851025581359863,-0.83335942029953,1.4706521034240723,-0.11874914169311523,2.1717350482940674,-0.8692603707313538
6.072,-2.948011875152588,-1.926857829093933,1.6320774555206299,-0.08962300419807434,2.225069761276245,-0.9179189801216125
6.08,-2.265995502471924,-2.9395694732666016,1.5879415273666382,-0.046269774436950684,2.273714065551758,-0.9791613221168518
6.088,-1.5524929761886597,-3.8490145206451416,1.3224488496780396,0.010637283325195312,2.3212342262268066,-1.026008129119873
6.096,-0.8146101832389832,-4.655283451080322,0.8649616241455078,0.08262419700622559,2.3609936237335205,-1.039447546005249
6.104,-0.06141778826713562,-5.3725481033325195,0.2753731906414032,0.1746523380279541,2.3810088634490967,-1.0292229652404785
6.112,0.6931259632110596,-6.015148639678955,-0.39725470542907715,0.28173917531967163,2.3657617568969727,-1.0136784315109253
6.12,1.4123247861862183,-6.583160877227783,-1.1014151573181152,0.39233386516571045,2.2990291118621826,-1.003138780593872
6.128,2.0475218296051025,-7.06947660446167,-1.8015044927597046,0.5015259385108948,2.1731069087982178,-1.006948709487915
6.136,2.5463078022003174,-7.448909282684326,-2.4587717056274414,0.6085844039916992,1.9958546161651611,-1.0316194295883179
6.144,2.8822009563446045,-7.705320835113525,-3.030034303665161,0.7073392868041992,1.7878386974334717,-1.0643126964569092
6.152,3.0541985034942627,-7.828808784484863,-3.4714367389678955,0.7915089130401611,1.5752190351486206,-1.078883409500122
6.16,3.0924031734466553,-7.825336456298828,-3.7449796199798584,0.8629209995269775,1.3764865398406982,-1.0593996047973633
6.168,3.034550666809082,-7.711892604827881,-3.8335413932800293,0.9268605709075928,1.1951887607574463,-1.006847620010376
6.176,2.927574396133423,-7.518627643585205,-3.7467164993286133,0.9822381138801575,1.0274889469146729,-0.9322224259376526
6.184,2.808948278427124,-7.272104263305664,-3.5114967823028564,1.0223671197891235,0.8680433630943298,-0.8539763689041138
6.192,2.7079262733459473,-6.992095470428467,-3.170144557952881,1.040393590927124,0.7127209901809692,-0.7932800650596619
6.2,2.637707471847534,-6.6805100440979,-2.769458770751953,1.0340909957885742,0.5644315481185913,-0.7620894908905029
6.208,2.60284423828125,-6.326323986053467,-2.3592922687530518,1.007802963256836,0.42999014258384705,-0.7521070241928101
6.216,2.5922794342041016,-5.905483245849609,-1.9738712310791016,0.9664868712425232,0.3069475293159485,-0.7391151785850525
6.224,2.5874722003936768,-5.387502193450928,-1.6345640420913696,0.9087568521499634,0.17144376039505005,-0.7018519639968872
6.232,2.562448024749756,-4.736917018890381,-1.3403288125991821,0.8283964395523071,-0.013888601213693619,-0.6244961023330688
6.24,2.507664918899536,-3.9294416904449463,-1.0873056650161743,0.7229290008544922,-0.26433050632476807,-0.48004063963890076
6.248,2.4234535694122314,-2.947822093963623,-0.8656612634658813,0.6055651307106018,-0.5450807809829712,-0.24271456897258759
6.256,2.3316149711608887,-1.809150218963623,-0.684022843837738,0.5072616338729858,-0.793685793876648,0.06904221326112747
6.264,2.257148265838623,-0.5597708821296692,-0.5786533951759338,0.45847636461257935,-0.9738838076591492,0.38820022344589233
6.272,2.208484649658203,0.7455833554267883,-0.5757656693458557,0.4682421088218689,-1.0933336019515991,0.6472287178039551
6.28,2.1699306964874268,2.0525379180908203,-0.6852558255195618,0.5201634764671326,-1.1720079183578491,0.8162136673927307
6.288,2.1156718730926514,3.32940411567688,-0.8804208040237427,0.5766222476959229,-1.228692889213562,0.903802216053009
6.296,2.0045318603515625,4.58284854888916,-1.1080318689346313,0.597617506980896,-1.2874761819839478,0.9442083239555359
6.304,1.795930027961731,5.807855606079102,-1.3035659790039062,0.5725684762001038,-1.3585721254348755,0.9748664498329163
6.312,1.4821478128433228,6.965552806854248,-1.420363187789917,0.5274078845977783,-1.4297322034835815,1.0011919736862183
6.32,1.1064258813858032,7.969892501831055,-1.4508860111236572,0.5062210559844971,-1.4847757816314697,0.9689374566078186
6.328,0.718721866607666,8.732885360717773,-1.3926976919174194,0.5320043563842773,-1.528883934020996,0.8216118812561035
6.336,0.3777782618999481,9.225221633911133,-1.267690658569336,0.5704736113548279,-1.6051418781280518,0.5994144678115845
6.344,0.08512648940086365,9.485006332397461,-1.0814930200576782,0.5718453526496887,-1.7558050155639648,0.4103589355945587
6.352,-0.18010306358337402,9.586559295654297,-0.851474940776825,0.5362253189086914,-1.9697456359863281,0.31764402985572815
6.36,-0.44840335845947266,9.600866317749023,-0.5954665541648865,0.5081389546394348,-2.1956558227539062,0.2949807643890381
6.368,-0.7431566715240479,9.536027908325195,-0.3129298985004425,0.5241858959197998,-2.3897416591644287,0.27144089341163635
6.376,-1.0386948585510254,9.381757736206055,-0.03879232704639435,0.5720900893211365,-2.5314230918884277,0.2238701432943344
6.384,-1.3219244480133057,9.103742599487305,0.214848592877388,0.6133158802986145,-2.6145341396331787,0.19836445152759552
6.392,-1.5848140716552734,8.674850463867188,0.4449932277202606,0.6341789364814758,-2.6473307609558105,0.23048290610313416
6.4,-1.8162829875946045,8.079303741455078,0.6559849977493286,0.6439275741577148,-2.6513421535491943,0.3033004105091095
6.408,-1.9941426515579224,7.328508377075195,0.8550268411636353,0.6482492089271545,-2.6483864784240723,0.3793744742870331
6.416,-2.102375030517578,6.4469075202941895,1.053781509399414,0.6424074769020081,-2.6506142616271973,0.43543049693107605
6.424,-2.136715888977051,5.466548919677734,1.2683767080307007,0.6271626949310303,-2.657052755355835,0.45604604482650757
6.432,-2.1032729148864746,4.412942886352539,1.500593900680542,0.6046915054321289,-2.6668522357940674,0.4320048987865448
6.44,-2.0443968772888184,3.299886465072632,1.7578091621398926,0.5633317828178406,-2.685112476348877,0.37682652473449707
6.448,-1.9866297245025635,2.15079927444458,2.0275871753692627,0.503753125667572,-2.703550100326538,0.30754488706588745
6.456,-1.9487931728363037,0.9900593757629395,2.29365873336792,0.45232829451560974,-2.699453592300415,0.22602780163288116
6.464,-1.9350296258926392,-0.15044081211090088,2.5378551483154297,0.4345318675041199,-2.65653657913208,0.12798446416854858
6.472,-1.9400854110717773,-1.2387731075286865,2.7285099029541016,0.46434706449508667,-2.5706608295440674,0.0035027479752898216
6.48,-1.9747673273086548,-2.2762906551361084,2.846226215362549,0.5439409017562866,-2.447019338607788,-0.15538063645362854
6.488,-2.029587984085083,-3.2562499046325684,2.8622467517852783,0.6678540706634521,-2.2973554134368896,-0.3472141921520233
6.496,-2.098003625869751,-4.198426723480225,2.75683331489563,0.8276142477989197,-2.131058931350708,-0.5612496137619019
6.504,-2.166285753250122,-5.132189750671387,2.5334908962249756,1.005672812461853,-1.9410507678985596,-0.7700870633125305
6.512,-2.2143313884735107,-6.0794677734375,2.214869737625122,1.1847729682922363,-1.706865906715393,-0.936788022518158
6.52,-2.219209671020508,-7.052697658538818,1.841315746307373,1.361788272857666,-1.417633295059204,-1.0396698713302612
6.528,-2.1648592948913574,-8.04128360748291,1.4668638706207275,1.5299952030181885,-1.0886802673339844,-1.079323172569275
6.536,-2.0490520000457764,-9.021795272827148,1.1471257209777832,1.6685372591018677,-0.7574889659881592,-1.0709871053695679
6.544,-1.8907454013824463,-9.956972122192383,0.9176924228668213,1.7615829706192017,-0.45733582973480225,-1.0305278301239014
6.552,-1.7205768823623657,-10.806954383850098,0.7903465032577515,1.8104009628295898,-0.19595742225646973,-0.9658865928649902
6.56,-1.5797770023345947,-11.526745796203613,0.7493103742599487,1.8209996223449707,0.03769853338599205,-0.8835836052894592
6.568,-1.4966201782226562,-12.076085090637207,0.7615519762039185,1.779264211654663,0.25167733430862427,-0.7875602841377258
6.576,-1.4716932773590088,-12.415691375732422,0.7991330623626709,1.651461124420166,0.43834689259529114,-0.6753968000411987
6.584,-1.4809209108352661,-12.526291847229004,0.8516151309013367,1.4101488590240479,0.5786466598510742,-0.5446683764457703
6.592,-1.4690386056900024,-12.411968231201172,0.9186307787895203,1.0518723726272583,0.6542889475822449,-0.39603036642074585
6.6,-1.369694709777832,-12.092852592468262,1.0182809829711914,0.598725438117981,0.6601711511611938,-0.23082055151462555
6.608,-1.1386443376541138,-11.587772369384766,1.1831055879592896,0.08692682534456253,0.6163411736488342,-0.04454301297664642
6.616,-0.7723567485809326,-10.874107360839844,1.4551178216934204,-0.44113683700561523,0.5659060478210449,0.1668504774570465
6.624,-0.3308265209197998,-9.841105461120605,1.8798357248306274,-0.9358289241790771,0.5530393719673157,0.38628089427948
6.632,0.015990614891052246,-8.26092529296875,2.4728469848632812,-1.3562983274459839,0.6008361577987671,0.5815277099609375
6.64,0.17144763469696045,-6.0552191734313965,3.3105101585388184,-1.7054378986358643,0.6999660730361938,0.7438587546348572
6.648,0.06902194023132324,-2.98846697807312,4.38613224029541,-2.021589517593384,0.8094456791877747,0.9106171727180481
6.656,-0.35050296783447266,0.850012481212616,5.631211280822754,-2.2753396034240723,0.8845565319061279,1.1458569765090942
6.664,-0.929049015045166,5.06972599029541,6.955633640289307,-2.2439863681793213,0.9389763474464417,1.436673879623413
6.672,-1.335900068283081,8.985222816467285,8.205738067626953,-1.6008270978927612,1.0977975130081177,1.5576542615890503
6.68,-1.2781894207000732,11.830065727233887,9.14056396484375,-0.3360739052295685,1.5167735815048218,1.1050493717193604
6.688,-0.663517951965332,13.12394905090332,9.464381217956543,0.9090105295181274,2.1940648555755615,0.05495517700910568
6.696,0.25182533264160156,12.936014175415039,8.978421211242676,1.4149845838546753,2.816234827041626,-0.925910234451294
6.704,1.03193998336792,11.828999519348145,7.75341272354126,1.0533493757247925,3.0518689155578613,-1.240573525428772
6.712,1.3601279258728027,10.48213005065918,6.144175052642822,0.09090539813041687,2.9927072525024414,-0.8704426288604736
6.72,1.199650526046753,9.38629150390625,4.6532440185546875,-0.9832724928855896,2.922447919845581,-0.13799609243869781
6.728,0.7492905855178833,8.707252502441406,3.647900104522705,-1.602954626083374,2.9538726806640625,0.4903606176376343
6.736,0.2606900930404663,8.400299072265625,3.2323875427246094,-1.6040619611740112,3.081188917160034,0.712311863899231
6.744,-0.19759821891784668,8.428756713867188,3.2450501918792725,-1.2556862831115723,3.2440450191497803,0.595318078994751
6.752,-0.5755844116210938,8.578718185424805,3.5111026763916016,-0.856550931930542,3.386435031890869,0.38398388028144836
6.76,-0.8067641258239746,8.82590103149414,3.7979211807250977,-0.5292374491691589,3.505117893218994,0.25653502345085144
6.768,-0.9413620233535767,9.085601806640625,3.9554035663604736,-0.3043553829193115,3.6155643463134766,0.2542223334312439
6.776,-1.004366159439087,9.272300720214844,3.9297266006469727,-0.1930931806564331,3.7189629077911377,0.3430185616016388
6.784,-0.9712115526199341,9.315458297729492,3.72713303565979,-0.16826754808425903,3.8049230575561523,0.4731604754924774
6.792,-0.8416824340820312,9.138189315795898,3.400104284286499,-0.17101800441741943,3.869616746902466,0.5975867509841919
6.8,-0.6031539440155029,8.65972900390625,2.99812650680542,-0.13540160655975342,3.938079833984375,0.6703853011131287
6.808,-0.2697408199310303,7.833431720733643,2.565699577331543,-0.09132838249206543,4.038809776306152,0.64128577709198
6.816,0.12390756607055664,6.711008071899414,2.1482577323913574,-0.11869300901889801,4.137116432189941,0.5162786841392517
6.824,0.5338990092277527,5.3739752769470215,1.7640711069107056,-0.17853130400180817,4.168227672576904,0.37904492020606995
6.832,0.9246985912322998,3.9362082481384277,1.4292991161346436,-0.19463619589805603,4.120846748352051,0.28120702505111694
6.84,1.282010793685913,2.4965145587921143,1.1276443004608154,-0.1663314551115036,4.0298027992248535,0.20565158128738403
6.848,1.6187834739685059,1.1612178087234497,0.8071066737174988,-0.1093464195728302,3.9303321838378906,0.12253473699092865
6.856,1.928990364074707,-0.08250916004180908,0.4368595480918884,-0.032240238040685654,3.8377788066864014,0.013597612269222736
6.864,2.2341294288635254,-1.2248910665512085,-0.01026549655944109,0.07419183850288391,3.751131534576416,-0.13705399632453918
6.872,2.5489916801452637,-2.323488235473633,-0.5695099234580994,0.22351767122745514,3.665069580078125,-0.3479098677635193
6.88,2.8552446365356445,-3.4435336589813232,-1.2390908002853394,0.4098499119281769,3.5611624717712402,-0.634567379951477
6.888,3.089386463165283,-4.638239860534668,-1.982144832611084,0.6011320352554321,3.408323287963867,-1.0002427101135254
6.896,3.178575038909912,-5.913421154022217,-2.7215664386749268,0.7605414986610413,3.190095901489258,-1.4167546033859253
6.904,3.0691964626312256,-7.216339588165283,-3.3663032054901123,0.8987376689910889,2.9574713706970215,-1.7517938613891602
6.912,2.7633450031280518,-8.445669174194336,-3.8406829833984375,1.0429801940917969,2.7601206302642822,-1.889340877532959
6.92,2.3152658939361572,-9.49702262878418,-4.108213424682617,1.1649794578552246,2.5650811195373535,-1.9070390462875366
6.928,1.8085144758224487,-10.304323196411133,-4.185905933380127,1.230726718902588,2.343949794769287,-1.9336975812911987
6.936,1.3195059299468994,-10.865789413452148,-4.121478080749512,1.2416361570358276,2.1201138496398926,-2.00042986869812
6.944,0.8917890787124634,-11.220026016235352,-3.973677158355713,1.1997082233428955,1.9197900295257568,-2.092942476272583
6.952,0.5282068252563477,-11.42180061340332,-3.7877964973449707,1.1224873065948486,1.7530760765075684,-2.176673173904419
6.96,0.23646914958953857,-11.472131729125977,-3.629879951477051,1.03776216506958,1.5987552404403687,-2.2067413330078125
6.968,-0.023995041847229004,-11.409936904907227,-3.5236895084381104,0.9396876692771912,1.4354833364486694,-2.159641742706299
6.976,-0.2653772830963135,-11.234831809997559,-3.4966928958892822,0.8036777377128601,1.270934820175171,-2.051466703414917
6.984,-0.5028203725814819,-10.956768989562988,-3.550344228744507,0.6404761075973511,1.1185963153839111,-1.9016609191894531
6.992,-0.7414466142654419,-10.58812141418457,-3.6501266956329346,0.47479015588760376,0.9758799076080322,-1.7133890390396118
7.0,-0.974958062171936,-10.124594688415527,-3.7331955432891846,0.3126453161239624,0.8307896256446838,-1.4792519807815552
7.008,-1.1518254280090332,-9.527853965759277,-3.696709632873535,0.14630979299545288,0.6649211049079895,-1.1820414066314697
7.016,-1.1951920986175537,-8.695841789245605,-3.451138973236084,-0.034631311893463135,0.453582763671875,-0.8035234808921814
7.024,-1.0238481760025024,-7.473957538604736,-2.8769278526306152,-0.2312430441379547,0.17793245613574982,-0.330253928899765
7.032,-0.5818423628807068,-5.740385055541992,-1.9813084602355957,-0.42131102085113525,-0.1556069552898407,0.25612038373947144
7.04,0.22380539774894714,-3.3221449851989746,-0.849368155002594,-0.5627519488334656,-0.5229614973068237,0.958415150642395
7.048,1.3381811380386353,-0.23629674315452576,0.46722298860549927,-0.6061041355133057,-0.8953512907028198,1.6670689582824707
7.056,2.5814669132232666,3.1961731910705566,1.7141761779785156,-0.47812819480895996,-1.2000716924667358,2.078855514526367
7.064,3.7818446159362793,6.50297737121582,2.680943727493286,-0.08757162094116211,-1.281042456626892,1.792617917060852
7.072,4.837323188781738,9.076166152954102,3.1536614894866943,0.5821329355239868,-0.9891397356987,0.727397084236145
7.08,5.533703327178955,10.497541427612305,3.073256492614746,1.3032726049423218,-0.4314911961555481,-0.5188228487968445
7.088,5.652172565460205,10.74193000793457,2.562526226043701,1.6186038255691528,-0.038471389561891556,-1.0489306449890137
7.096,5.094569206237793,10.148811340332031,1.878478765487671,1.3188509941101074,-0.0353381484746933,-0.6352144479751587
7.104,3.997347354888916,9.220352172851562,1.2792282104492188,0.7194790840148926,-0.2166697084903717,0.19330456852912903
7.112,2.7167441844940186,8.411590576171875,0.9131348729133606,0.26075080037117004,-0.35343804955482483,0.9402467608451843
7.12,1.6513440608978271,7.968534469604492,0.7947078943252563,0.0845109224319458,-0.3758411407470703,1.3356072902679443
7.128,1.0205843448638916,7.9466552734375,0.8163188099861145,0.06688272953033447,-0.3309571444988251,1.2539701461791992
7.136,0.7995167970657349,8.268091201782227,0.9183058142662048,0.07958278059959412,-0.3093551695346832,0.857212245464325
7.144,0.7861272692680359,8.688013076782227,1.011825680732727,0.10775324702262878,-0.3328402638435364,0.39981499314308167
7.152,0.8589694499969482,9.050348281860352,1.0061368942260742,0.16736868023872375,-0.3952620029449463,0.0077011785469949245
7.16,0.9535417556762695,9.235212326049805,0.9795467853546143,0.2527105510234833,-0.48235487937927246,-0.28234195709228516
7.168,1.0108249187469482,9.123109817504883,0.9006263017654419,0.34084346890449524,-0.5731188654899597,-0.44239839911460876
7.176,0.9617274403572083,8.749834060668945,0.8116440773010254,0.40589192509651184,-0.6594427227973938,-0.46648409962654114
7.184,0.8498566150665283,8.184925079345703,0.7199655175209045,0.4320147931575775,-0.766693115234375,-0.37130406498908997
7.192,0.6874040365219116,7.495443344116211,0.6483348608016968,0.42234665155410767,-0.9335498809814453,-0.1688314974308014
7.2,0.4972129464149475,6.745838165283203,0.6090613007545471,0.39459550380706787,-1.1542657613754272,0.08469219505786896
7.208,0.32434970140457153,5.9712042808532715,0.6050655841827393,0.3760313391685486,-1.3592168092727661,0.27011096477508545
7.216,0.20679539442062378,5.158761501312256,0.621411919593811,0.38282468914985657,-1.483449101448059,0.28204911947250366
7.224,0.1616990864276886,4.287051677703857,0.665569007396698,0.41009634733200073,-1.517085075378418,0.11211657524108887
7.232,0.18914896249771118,3.3389134407043457,0.7568866610527039,0.4434996247291565,-1.4896929264068604,-0.13805733621120453
7.24,0.2639857232570648,2.329547166824341,0.9277817010879517,0.47451069951057434,-1.4304513931274414,-0.35196709632873535
7.248,0.3648306429386139,1.287186861038208,1.2006663084030151,0.5058048963546753,-1.346866488456726,-0.49161478877067566
7.256,0.47925227880477905,0.2225867658853531,1.567319631576538,0.5376087427139282,-1.2419825792312622,-0.5908175706863403
7.264,0.5810612440109253,-0.8583688735961914,1.994973063468933,0.5614615678787231,-1.1292074918746948,-0.6954248547554016
7.272,0.6519210338592529,-1.9685460329055786,2.439181089401245,0.5729495286941528,-1.0190006494522095,-0.8271852135658264
7.28,0.7016123533248901,-3.119708299636841,2.843811511993408,0.5753589868545532,-0.9122165441513062,-0.9904728531837463
7.288,0.7403662204742432,-4.319029808044434,3.162778377532959,0.5745711326599121,-0.806236207485199,-1.1800650358200073
7.296,0.7752361297607422,-5.546482563018799,3.3472893238067627,0.5757849216461182,-0.6953171491622925,-1.3808842897415161
7.304,0.8063091039657593,-6.762205123901367,3.377880811691284,0.5832363367080688,-0.5704889297485352,-1.5704036951065063
7.312,0.8325818777084351,-7.919373512268066,3.2649385929107666,0.6065685153007507,-0.42056038975715637,-1.7322027683258057
7.32,0.8467367887496948,-8.980131149291992,3.040820360183716,0.6651811599731445,-0.2340615838766098,-1.8636555671691895
7.328,0.8295502662658691,-9.919471740722656,2.75315260887146,0.7765271663665771,-0.00557011179625988,-1.968511939048767
7.336,0.7542981505393982,-10.720455169677734,2.4535653591156006,0.9384578466415405,0.25930097699165344,-2.0536422729492188
7.344,0.5991383790969849,-11.368568420410156,2.178776979446411,1.120629072189331,0.5392682552337646,-2.118777275085449
7.352,0.364460825920105,-11.850172996520996,1.9421119689941406,1.2750602960586548,0.802871823310852,-2.144970655441284
7.36,0.07206135988235474,-12.146190643310547,1.738350749015808,1.3583378791809082,1.021157145500183,-2.099700689315796
7.368,-0.23400717973709106,-12.239317893981934,1.5507228374481201,1.3462964296340942,1.1735395193099976,-1.9486240148544312
7.376,-0.5031129121780396,-12.125860214233398,1.37188720703125,1.2378504276275635,1.250637173652649,-1.6716910600662231
7.384,-0.6907379627227783,-11.813776969909668,1.211510419845581,1.0474445819854736,1.2495843172073364,-1.2753500938415527
7.392,-0.7371218800544739,-11.300652503967285,1.117061972618103,0.7929866313934326,1.1703424453735352,-0.7869402170181274
7.4,-0.5641080141067505,-10.54439640045166,1.1690806150436401,0.4946100115776062,1.023887276649475,-0.23897597193717957
7.408,-0.11815643310546875,-9.465538024902344,1.4773643016815186,0.1816774606704712,0.8388964533805847,0.3417469561100006
7.416,0.6040221452713013,-7.933126926422119,2.114201068878174,-0.1078195869922638,0.6576613783836365,0.934613823890686
7.424,1.6217385530471802,-5.850081443786621,3.157320022583008,-0.3360506296157837,0.520821750164032,1.5206005573272705
7.432,2.839369773864746,-3.159315347671509,4.547876358032227,-0.46696895360946655,0.44721299409866333,2.063032865524292
7.44,4.065350532531738,0.011381368152797222,6.123687267303467,-0.4533080458641052,0.4517538547515869,2.4361484050750732
7.448,5.13167142868042,3.309661626815796,7.616227626800537,-0.27111363410949707,0.611152708530426,2.364628314971924
7.456,6.019493103027344,6.209043979644775,8.598958969116211,-0.022837162017822266,1.045058012008667,1.6222950220108032
7.464,6.692990303039551,8.303943634033203,8.725071907043457,0.051183462142944336,1.721067190170288,0.4488687217235565
7.472,7.035261631011963,9.33615493774414,7.866862773895264,-0.14940539002418518,2.359267234802246,-0.4207451045513153
7.48,6.9431610107421875,9.320899963378906,6.177449703216553,-0.41037070751190186,2.7022740840911865,-0.5546661615371704
7.488,6.350918769836426,8.544517517089844,4.070027828216553,-0.5400820970535278,2.7971608638763428,-0.325040340423584
7.496,5.325364112854004,7.3984503746032715,2.0053977966308594,-0.5586382746696472,2.8520209789276123,-0.06947287917137146
7.504,4.074440002441406,6.217000484466553,0.30382969975471497,-0.5125781893730164,2.897517442703247,0.40391069650650024
7.512,2.844984531402588,5.191326141357422,-0.9420220851898193,-0.4374697804450989,2.8189749717712402,1.0316314697265625
7.52,1.8006541728973389,4.344758987426758,-1.7849141359329224,-0.34651079773902893,2.654071569442749,1.3803662061691284
7.528,0.9495772123336792,3.627276659011841,-2.359586238861084,-0.23212653398513794,2.531493902206421,1.3445507287979126
7.536,0.3070247173309326,2.9631452560424805,-2.731266736984253,-0.14061114192008972,2.4419429302215576,1.1493394374847412
7.544,-0.15086054801940918,2.3542728424072266,-2.9333481788635254,-0.10746434330940247,2.309931516647339,0.9581651091575623
7.552,-0.4905993938446045,1.829310417175293,-2.9430651664733887,-0.10230958461761475,2.1184628009796143,0.8060950040817261
7.56,-0.7768368721008301,1.4215011596679688,-2.6689655780792236,-0.08015045523643494,1.8953163623809814,0.6859385967254639
7.568,-0.9669835567474365,1.0920743942260742,-2.1300785541534424,-0.020076632499694824,1.6741068363189697,0.6068091988563538
7.576,-1.014577031135559,0.8893757462501526,-1.385424017906189,0.07259306311607361,1.4727462530136108,0.58416348695755
7.584,-0.9302096366882324,0.8361035585403442,-0.5141471028327942,0.1851782351732254,1.2988868951797485,0.6155360341072083
7.592,-0.70912766456604,0.8953449130058289,0.3660157024860382,0.3091062903404236,1.1661529541015625,0.6738396883010864
7.6,-0.3869205713272095,1.0402958393096924,1.1411389112472534,0.4321553707122803,1.09473717212677,0.7134037017822266
7.608,-0.019200026988983154,1.2292301654815674,1.7278283834457397,0.5282071828842163,1.0901803970336914,0.6989066004753113
7.616,0.3391183614730835,1.4169676303863525,2.100504159927368,0.5692641735076904,1.133419394493103,0.634467363357544
7.624,0.6572631001472473,1.5670522451400757,2.2788591384887695,0.5439873337745667,1.1928253173828125,0.5593171119689941
7.632,0.9116609692573547,1.6527408361434937,2.3199379444122314,0.4578462839126587,1.2384252548217773,0.5118153095245361
7.64,1.0915839672088623,1.6602548360824585,2.2834370136260986,0.33699092268943787,1.2620893716812134,0.49732425808906555
7.648,1.189894676208496,1.5871585607528687,2.2003188133239746,0.21966594457626343,1.2874318361282349,0.47975632548332214
7.656,1.2016041278839111,1.4736311435699463,2.0448403358459473,0.11736568808555603,1.3411155939102173,0.4019489586353302
7.664,1.1272839307785034,1.2893955707550049,1.8414520025253296,0.014036066830158234,1.4190930128097534,0.24109013378620148
7.672,0.988323450088501,1.0574198961257935,1.5534663200378418,-0.08788810670375824,1.4931261539459229,0.02858962118625641
7.68,0.8168011903762817,0.7693254351615906,1.1856542825698853,-0.1467110514640808,1.5430539846420288,-0.19076570868492126
7.688,0.6590694785118103,0.40323933959007263,0.7630785703659058,-0.1280447095632553,1.559532642364502,-0.3955146372318268
7.696,0.5698444247245789,-0.0718097910284996,0.32479918003082275,-0.08487412333488464,1.526610016822815,-0.5784069895744324
