Time [s],Acc_x [m/s^2],Acc_y [m/s^2],Acc_z [m/s^2],Gyro_x [1/s],Gyro_y [1/s],Gyro_z [1/s]
0.0,-0.2097180187702179,0.27903082966804504,-0.2298581451177597,0.01006828248500824,0.012200431898236275,-0.032631710171699524
0.008,-0.2034907042980194,0.28786566853523254,-0.22899849712848663,0.010684220120310783,0.009957698173820972,-0.028581606224179268
0.016,-0.19524380564689636,0.29651930928230286,-0.22796517610549927,0.011174188926815987,0.006822614464908838,-0.023556506261229515
0.024,-0.1852121502161026,0.303801566362381,-0.22632664442062378,0.011245155707001686,0.003291160101071,-0.01914134807884693
0.032,-0.1742522120475769,0.3086557686328888,-0.22388553619384766,0.010898394510149956,-0.0003679236979223788,-0.01636943779885769
0.04,-0.16392731666564941,0.3098430931568146,-0.22056953608989716,0.010302472859621048,-0.0041981590911746025,-0.01521508302539587
0.048,-0.155495747923851,0.30752089619636536,-0.21637006103992462,0.009619025513529778,-0.008134174160659313,-0.015280509367585182
0.056,-0.14971399307250977,0.3025694191455841,-0.2120659053325653,0.00887197908014059,-0.01185581460595131,-0.016156872734427452
0.064,-0.14618976414203644,0.2951975166797638,-0.20910018682479858,0.008030902594327927,-0.01528994645923376,-0.01723656803369522
0.072,-0.1436014324426651,0.28641608357429504,-0.20882895588874817,0.007198704406619072,-0.018706759437918663,-0.017931001260876656
0.08,-0.14005163311958313,0.2784328758716583,-0.21081893146038055,0.006518808659166098,-0.022165128961205482,-0.017899589613080025
0.088,-0.134803906083107,0.27369216084480286,-0.21385596692562103,0.0061898548156023026,-0.02515651099383831,-0.01736118271946907
0.096,-0.12790507078170776,0.27303603291511536,-0.2165953516960144,0.006378886289894581,-0.027148569002747536,-0.016782328486442566
0.104,-0.120162233710289,0.276274710893631,-0.2187669724225998,0.0070223333314061165,-0.028100304305553436,-0.01624210737645626
0.112,-0.11288251727819443,0.28211501240730286,-0.22013697028160095,0.008006945252418518,-0.028004014864563942,-0.01556282490491867
0.12,-0.10683445632457733,0.28917983174324036,-0.22038185596466064,0.009261312894523144,-0.026674479246139526,-0.014483640901744366
0.128,-0.10247061401605606,0.29584982991218567,-0.21990755200386047,0.010628332383930683,-0.024399153888225555,-0.012914936058223248
0.136,-0.09990820288658142,0.30124762654304504,-0.21908901631832123,0.011821254156529903,-0.021819623187184334,-0.011273247189819813
0.144,-0.09867723286151886,0.30530646443367004,-0.21869274973869324,0.012533512897789478,-0.019178936257958412,-0.00990874134004116
0.152,-0.09794159233570099,0.30761435627937317,-0.2196720838546753,0.01269759051501751,-0.016334032639861107,-0.008599902503192425
0.16,-0.09707512706518173,0.3084574043750763,-0.22192621231079102,0.012430557981133461,-0.01334291324019432,-0.007278209086507559
0.168,-0.09638632088899612,0.3090849220752716,-0.22503945231437683,0.011919112876057625,-0.010642179287970066,-0.006292612757533789
0.176,-0.0959184318780899,0.31018927693367004,-0.2285286784172058,0.01141782570630312,-0.008477604016661644,-0.005899371579289436
0.184,-0.09601757675409317,0.31099990010261536,-0.23248913884162903,0.011080257594585419,-0.006724919192492962,-0.006054211407899857
0.192,-0.09697359055280685,0.3111620247364044,-0.2362602800130844,0.010809549130499363,-0.0055010016076266766,-0.006500404793769121
0.2,-0.09874803572893143,0.3100614845752716,-0.239228755235672,0.01034129410982132,-0.005028401967138052,-0.007070931140333414
0.208,-0.10124091058969498,0.30692771077156067,-0.2404477745294571,0.009575864300131798,-0.00520669762045145,-0.007816542871296406
0.216,-0.10440187901258469,0.3016529381275177,-0.24011430144309998,0.008653629571199417,-0.0058147599920630455,-0.00877487100660801
0.224,-0.10801149159669876,0.2945909798145294,-0.23851235210895538,0.007572874892503023,-0.006572874262928963,-0.009924540296196938
0.232,-0.11188879609107971,0.287291556596756,-0.2362750768661499,0.006144349463284016,-0.007174405734986067,-0.011316446587443352
0.24,-0.11604202538728714,0.2802286446094513,-0.23423805832862854,0.004439679905772209,-0.007330409251153469,-0.013071670196950436
0.248,-0.12058839201927185,0.27396777272224426,-0.23261955380439758,0.0028363028541207314,-0.006674984470009804,-0.015149923972785473
0.256,-0.12525387108325958,0.2698412239551544,-0.23122712969779968,0.0015806611627340317,-0.005073818378150463,-0.01740245148539543
0.264,-0.12993264198303223,0.26796820759773254,-0.23013973236083984,0.0006069811061024666,-0.002841464476659894,-0.019590148702263832
0.272,-0.13430453836917877,0.2680559456348419,-0.22876036167144775,-0.00026389583945274353,-0.00038655014941468835,-0.021225355565547943
0.28,-0.13864824175834656,0.2703705132007599,-0.22693224251270294,-0.0010733483359217644,0.0021426754537969828,-0.021939639002084732
0.288,-0.14301210641860962,0.27447131276130676,-0.22448772192001343,-0.0018479153513908386,0.004800483118742704,-0.0217805877327919
0.296,-0.14750784635543823,0.27945998311042786,-0.22081853449344635,-0.002599707804620266,0.007542441599071026,-0.020846981555223465
0.304,-0.1522180736064911,0.2844868004322052,-0.216032475233078,-0.0030715418979525566,0.010165761224925518,-0.019175687804818153
0.312,-0.1569821536540985,0.2881164848804474,-0.21076925098896027,-0.0029901484958827496,0.012670017778873444,-0.017023487016558647
0.32,-0.16132628917694092,0.28991416096687317,-0.20603325963020325,-0.002421706449240446,0.0152981486171484,-0.014664353802800179
0.328,-0.16552811861038208,0.29017165303230286,-0.20256555080413818,-0.0017048106528818607,0.017956512048840523,-0.012093337252736092
0.336,-0.1696081906557083,0.28876593708992004,-0.2011481523513794,-0.0011781263165175915,0.020176328718662262,-0.009373879991471767
0.344,-0.17399057745933533,0.2865305244922638,-0.20143663883209229,-0.0009399089030921459,0.02163003757596016,-0.006792156957089901
0.352,-0.17925146222114563,0.28372862935066223,-0.20305094122886658,-0.0008296888554468751,0.02237996831536293,-0.004394948948174715
0.36,-0.1857239007949829,0.28014281392097473,-0.205231174826622,-0.0005385423428378999,0.022639619186520576,-0.002121732337400317
0.368,-0.19236283004283905,0.27710822224617004,-0.20699523389339447,-5.619898729491979e-06,0.022345639765262604,-0.00015890556096564978
0.376,-0.1989503651857376,0.274718314409256,-0.20778284966945648,0.0003271939931437373,0.021297534927725792,0.0013530810829252005
0.384,-0.20469997823238373,0.27297690510749817,-0.20708636939525604,0.0001753256656229496,0.019324610009789467,0.002419102005660534
0.392,-0.20889703929424286,0.2714844048023224,-0.2043817639350891,-2.910429611802101e-05,0.016307758167386055,0.0031710490584373474
0.4,-0.21119722723960876,0.26984503865242004,-0.19979682564735413,0.00035830168053507805,0.012574659660458565,0.0039347498677670956
0.408,-0.2118004858493805,0.26743414998054504,-0.19375215470790863,0.0014890549937263131,0.008744625374674797,0.005121638532727957
0.416,-0.2112555056810379,0.2641649544239044,-0.1867457926273346,0.003121674759313464,0.005057128146290779,0.007071661297231913
0.424,-0.21021771430969238,0.25942328572273254,-0.18086668848991394,0.005205533932894468,0.0013424005592241883,0.009686978533864021
0.432,-0.20856785774230957,0.2531767189502716,-0.17810969054698944,0.0079517662525177,-0.002680891426280141,0.012474225834012032
0.44,-0.20571565628051758,0.2460336983203888,-0.17935983836650848,0.011458950117230415,-0.007133997976779938,0.015110357664525509
0.448,-0.20074580609798431,0.23824790120124817,-0.18469181656837463,0.015598487108945847,-0.011818422004580498,0.017563264816999435
0.456,-0.19396141171455383,0.2303648293018341,-0.19301220774650574,0.020109282806515694,-0.01638769544661045,0.019963186234235764
0.464,-0.18650197982788086,0.22389128804206848,-0.20226319134235382,0.024809351190924644,-0.020409855991601944,0.022353896871209145
0.472,-0.17918939888477325,0.22037890553474426,-0.21048371493816376,0.029528485611081123,-0.023558352142572403,0.024425949901342392
0.48,-0.17219050228595734,0.22165778279304504,-0.21637685596942902,0.033980842679739,-0.025895828381180763,0.025964884087443352
0.488,-0.16546808183193207,0.22801879048347473,-0.2196883261203766,0.037913255393505096,-0.027700936421751976,0.027233287692070007
0.496,-0.15879404544830322,0.2381620705127716,-0.22135353088378906,0.041086144745349884,-0.02918081544339657,0.02844768576323986
0.504,-0.15164077281951904,0.24837400019168854,-0.22259676456451416,0.04312806949019432,-0.030444737523794174,0.029709309339523315
0.512,-0.14302152395248413,0.25553324818611145,-0.22400933504104614,0.04386863484978676,-0.03156149014830589,0.031264301389455795
0.52,-0.13171900808811188,0.25863173604011536,-0.22570540010929108,0.0436989963054657,-0.032607048749923706,0.03298744186758995
0.528,-0.11777245998382568,0.2587452232837677,-0.2269776314496994,0.04332605376839638,-0.03359747678041458,0.03429441899061203
0.536,-0.10282746702432632,0.25773146748542786,-0.2285378873348236,0.043287493288517,-0.03456980362534523,0.03465447202324867
0.544,-0.0896734669804573,0.2573681175708771,-0.2313210666179657,0.04371892288327217,-0.03549778833985329,0.033740244805812836
0.552,-0.08090770989656448,0.2588978111743927,-0.23554573953151703,0.044415008276700974,-0.036122601479291916,0.03147359564900398
0.56,-0.07736068964004517,0.26362133026123047,-0.2408139705657959,0.045107096433639526,-0.03621025010943413,0.028307534754276276
0.568,-0.07798474282026291,0.2720823287963867,-0.24544842541217804,0.04553579166531563,-0.03584086522459984,0.025473542511463165
0.576,-0.08022522926330566,0.2830018997192383,-0.24854934215545654,0.04544105753302574,-0.035448066890239716,0.02424236387014389
0.584,-0.0814095064997673,0.2927579879760742,-0.24981793761253357,0.04451631009578705,-0.035488322377204895,0.024719489738345146
0.592,-0.07991736382246017,0.2978687286376953,-0.24929478764533997,0.042536403983831406,-0.035694047808647156,0.025883439928293228
0.6,-0.07524099946022034,0.29674243927001953,-0.2480946034193039,0.0401524119079113,-0.035371217876672745,0.026684321463108063
0.608,-0.06826858222484589,0.2909975051879883,-0.2468131184577942,0.03877066820859909,-0.0344444178044796,0.02721826732158661
0.616,-0.059995152056217194,0.28390979766845703,-0.24657917022705078,0.03922068327665329,-0.033563531935214996,0.028637250885367393
0.624,-0.05161958932876587,0.2778005599975586,-0.24808743596076965,0.04147801548242569,-0.03315790370106697,0.031213797628879547
0.632,-0.04415193945169449,0.2739439010620117,-0.2517029941082001,0.04482072964310646,-0.03299758955836296,0.03343452513217926
0.64,-0.03783003240823746,0.27257823944091797,-0.25683000683784485,0.047939423471689224,-0.0326760895550251,0.0338604599237442
0.648,-0.03244416415691376,0.2734708786010742,-0.26212504506111145,0.049956902861595154,-0.03194038197398186,0.03251529112458229
0.656,-0.02702612429857254,0.2761077880859375,-0.26690158247947693,0.051072027534246445,-0.03098325990140438,0.030146248638629913
0.664,-0.020600438117980957,0.27989673614501953,-0.27076485753059387,0.051830511540174484,-0.030380068346858025,0.027374334633350372
0.672,-0.013187870383262634,0.28386592864990234,-0.27471598982810974,0.052448250353336334,-0.030424056574702263,0.02454892359673977
0.68,-0.00515379011631012,0.28736209869384766,-0.27839523553848267,0.05260482057929039,-0.030918771401047707,0.021764475852251053
0.688,0.003370121121406555,0.28958988189697266,-0.2813543975353241,0.051703646779060364,-0.03145487233996391,0.01878947764635086
0.696,0.011456847190856934,0.28949832916259766,-0.2836526036262512,0.04964865371584892,-0.03164258226752281,0.01517164334654808
0.704,0.017667248845100403,0.2873258590698242,-0.2848411500453949,0.04692626744508743,-0.03121207095682621,0.010482888668775558
0.712,0.020731166005134583,0.28397369384765625,-0.28530412912368774,0.04400257393717766,-0.02998819760978222,0.004488566890358925
0.72,0.01935170590877533,0.28051090240478516,-0.2853640019893646,0.04106515273451805,-0.027795851230621338,-0.0022458205930888653
0.728,0.013433903455734253,0.2786712646484375,-0.2851596474647522,0.03817273676395416,-0.02459022030234337,-0.008452720940113068
0.736,0.003283962607383728,0.27832698822021484,-0.2839204967021942,0.035574495792388916,-0.02067330665886402,-0.013510651886463165
0.744,-0.010423630475997925,0.2781333923339844,-0.2813721001148224,0.03361465036869049,-0.016352826729416847,-0.017744651064276695
0.752,-0.026964634656906128,0.27671337127685547,-0.27768340706825256,0.032383885234594345,-0.011565770953893661,-0.0213838592171669
0.76,-0.04593142867088318,0.2736978530883789,-0.2730182707309723,0.03176220506429672,-0.006075885146856308,-0.024168293923139572
0.768,-0.06592800468206406,0.26883792877197266,-0.26849618554115295,0.03168085962533951,1.8540593373472802e-05,-0.026037294417619705
0.776,-0.08530938625335693,0.2633485794067383,-0.26462674140930176,0.03205551952123642,0.006161028519272804,-0.027251234278082848
0.784,-0.10350997000932693,0.2585744857788086,-0.26257243752479553,0.03280177712440491,0.011813237331807613,-0.027776198461651802
0.792,-0.11985661089420319,0.25535014271736145,-0.2626015245914459,0.03395519405603409,0.016667913645505905,-0.02730569802224636
0.8,-0.13411247730255127,0.2545223534107208,-0.2637973427772522,0.03554303199052811,0.020481998100876808,-0.025623170658946037
0.808,-0.1471179574728012,0.2563228905200958,-0.26565685868263245,0.037537671625614166,0.023096976801753044,-0.022741785272955894
0.816,-0.1592233031988144,0.26075270771980286,-0.26712268590927124,0.03974783420562744,0.024464650079607964,-0.01897309347987175
0.824,-0.17064280807971954,0.26712992787361145,-0.2672148644924164,0.04153311252593994,0.024558372795581818,-0.01492212899029255
0.832,-0.18191973865032196,0.2736358940601349,-0.2651590406894684,0.04198294132947922,0.023571692407131195,-0.011338221840560436
0.84,-0.1929968297481537,0.2793760597705841,-0.2606176733970642,0.040988001972436905,0.021969890221953392,-0.008712454698979855
0.848,-0.20388685166835785,0.2835874855518341,-0.2540602385997772,0.039635851979255676,0.02006741613149643,-0.006867805030196905
0.856,-0.21322299540042877,0.2858324348926544,-0.24680525064468384,0.03878379613161087,0.017683591693639755,-0.004821544047445059
0.864,-0.21888110041618347,0.28606322407722473,-0.24043256044387817,0.0383797362446785,0.014293634332716465,-0.0014558677794411778
0.872,-0.2192763388156891,0.2848558723926544,-0.23631812632083893,0.03828214854001999,0.009716736152768135,0.0034076471347361803
0.88,-0.21299941837787628,0.2820625603199005,-0.23527348041534424,0.03844134137034416,0.004651297815144062,0.008873451501131058
0.888,-0.1995829939842224,0.277800589799881,-0.23632574081420898,0.03857069090008736,0.00012876096297986805,0.01391036156564951
0.896,-0.18081575632095337,0.2727709114551544,-0.2384069263935089,0.0383133739233017,-0.0031599504873156548,0.017938438802957535
0.904,-0.15883269906044006,0.26801684498786926,-0.2400384545326233,0.037501659244298935,-0.005021996796131134,0.02054399996995926
0.912,-0.13588091731071472,0.2646990120410919,-0.2406315803527832,0.036481767892837524,-0.005820250604301691,0.021623143926262856
0.92,-0.11438426375389099,0.2638864815235138,-0.23978042602539062,0.03589693084359169,-0.006080580875277519,0.021683696657419205
0.928,-0.09591826051473618,0.265746146440506,-0.23784217238426208,0.03586842864751816,-0.005924521014094353,0.02126220241189003
0.936,-0.08103872090578079,0.2702684700489044,-0.23603355884552002,0.035924091935157776,-0.005258274730294943,0.0206267349421978
0.944,-0.06941504776477814,0.2771310806274414,-0.23495209217071533,0.03556394577026367,-0.004250855650752783,0.020266039296984673
0.952,-0.058934926986694336,0.28620433807373047,-0.23475490510463715,0.03433976694941521,-0.003222943749278784,0.02075219713151455
0.96,-0.04716914892196655,0.29787540435791016,-0.234412282705307,0.03162301704287529,-0.00221166736446321,0.022297855466604233
0.968,-0.031634554266929626,0.3115072250366211,-0.23234260082244873,0.026890279725193977,-0.0008991510258056223,0.024696459993720055
0.976,-0.011283956468105316,0.3249521255493164,-0.2270730882883072,0.020009294152259827,0.0009612059220671654,0.027212753891944885
0.984,0.012476176023483276,0.33557987213134766,-0.21797773241996765,0.01081039011478424,0.0035274431575089693,0.028996018692851067
0.992,0.0375143364071846,0.3398714065551758,-0.20488876104354858,-0.0007915245369076729,0.0071285180747509,0.02969386801123619
1.0,0.06195903196930885,0.33446216583251953,-0.18784503638744354,-0.014217037707567215,0.01202249526977539,0.02912452071905136
1.008,0.0835254043340683,0.3170919418334961,-0.16750581562519073,-0.02821233868598938,0.01842820830643177,0.026747267693281174
1.016,0.10061684995889664,0.2881326675415039,-0.14404898881912231,-0.04116008058190346,0.026529770344495773,0.021991707384586334
1.024,0.1123131662607193,0.25102710723876953,-0.1190575361251831,-0.05148939788341522,0.03585187345743179,0.015031048096716404
1.032,0.1185636967420578,0.21227265894412994,-0.09441395848989487,-0.05802774429321289,0.045316435396671295,0.006751693785190582
1.04,0.119333416223526,0.17824077606201172,-0.07218053191900253,-0.060342978686094284,0.054054584354162216,-0.001980670727789402
1.048,0.11454445868730545,0.15454387664794922,-0.05453937500715256,-0.059083785861730576,0.061897337436676025,-0.010656595230102539
1.056,0.10399404168128967,0.14345836639404297,-0.04171561449766159,-0.055641017854213715,0.06919475644826889,-0.018947655335068703
1.064,0.08806490898132324,0.14380455017089844,-0.03275575116276741,-0.051283422857522964,0.07616955041885376,-0.026412853971123695
1.072,0.06787020713090897,0.15195941925048828,-0.02595042809844017,-0.046785805374383926,0.08258359134197235,-0.03218458592891693
1.08,0.04594708979129791,0.1630697399377823,-0.019520767033100128,-0.04212844371795654,0.08799103647470474,-0.03522912785410881
1.088,0.025774694979190826,0.1721792370080948,-0.012549309059977531,-0.03655000403523445,0.09199988842010498,-0.03509989753365517
1.096,0.01002881582826376,0.17745305597782135,-0.004969393368810415,-0.02940795011818409,0.09438762813806534,-0.032199691981077194
1.104,0.0002372806193307042,0.18000318109989166,0.0026804604567587376,-0.020163482055068016,0.09518007934093475,-0.02768661640584469
1.112,-0.0036085182800889015,0.1829099804162979,0.008771639317274094,-0.007818787358701229,0.09464989602565765,-0.02307015284895897
1.12,-0.0028675775974988937,0.18995192646980286,0.011557767167687416,0.008513407781720161,0.09318914264440536,-0.01944049820303917
1.128,0.00016774330288171768,0.20374968647956848,0.009861564263701439,0.028509583324193954,0.09104900807142258,-0.017552625387907028
1.136,0.0030147298239171505,0.22605231404304504,0.003911392297595739,0.050362154841423035,0.08851659297943115,-0.01821327768266201
1.144,0.0035307868383824825,0.25729086995124817,-0.00589618319645524,0.07184682786464691,0.08603301644325256,-0.02179715596139431
1.152,-0.0004747183993458748,0.2956438362598419,-0.0183862317353487,0.09146340936422348,0.08379758149385452,-0.027938762679696083
1.16,-0.010592461563646793,0.3379831612110138,-0.03291061148047447,0.10841847956180573,0.08167871087789536,-0.035674821585416794
1.168,-0.027214806526899338,0.3802958130836487,-0.04813726991415024,0.1221945658326149,0.07954861223697662,-0.04329841956496239
1.176,-0.049842000007629395,0.41930967569351196,-0.061939094215631485,0.13251976668834686,0.07736829668283463,-0.04887662082910538
1.184,-0.07608600705862045,0.4523363709449768,-0.07270079106092453,0.13917268812656403,0.07473719865083694,-0.051079630851745605
1.192,-0.10157503932714462,0.4780321717262268,-0.0792781338095665,0.1418730467557907,0.0707339271903038,-0.04898221418261528
1.2,-0.12160380184650421,0.4962168335914612,-0.08150017261505127,0.14071130752563477,0.06478232890367508,-0.041932761669158936
1.208,-0.13313353061676025,0.5074558854103088,-0.08058404922485352,0.13619789481163025,0.05706376954913139,-0.03033420816063881
1.216,-0.1346278190612793,0.5131044983863831,-0.07801508158445358,0.12904782593250275,0.04826072230935097,-0.01590115763247013
1.224,-0.12747208774089813,0.5144901871681213,-0.07528387755155563,0.1198495551943779,0.03931581974029541,-0.0009534684359095991
1.232,-0.11450570076704025,0.5121498703956604,-0.07169365882873535,0.10845104604959488,0.031000185757875443,0.012369487434625626
1.24,-0.09929056465625763,0.5052404999732971,-0.06520114839076996,0.09430528432130814,0.023814786225557327,0.02254294604063034
1.248,-0.08575227856636047,0.4924364686012268,-0.05328329652547836,0.07751479744911194,0.01796288974583149,0.028922155499458313
1.256,-0.07685688883066177,0.47280412912368774,-0.03445110097527504,0.058836668729782104,0.013063188642263412,0.03191402554512024
1.264,-0.07452445477247238,0.44677072763442993,-0.008836950175464153,0.0393674299120903,0.008452231995761395,0.03270236775279045
1.272,-0.07905206084251404,0.41630178689956665,0.02146286703646183,0.020653164014220238,0.003788670292124152,0.03249048814177513
1.28,-0.0882384181022644,0.38496309518814087,0.05340830981731415,0.00421980582177639,-0.001251737936399877,0.03237936645746231
1.288,-0.09856989979743958,0.356692373752594,0.08456241339445114,-0.008703581988811493,-0.007604734040796757,0.03360588103532791
1.296,-0.10669204592704773,0.33362871408462524,0.11321809887886047,-0.01683248206973076,-0.01618373394012451,0.03705854341387749
1.304,-0.10937860608100891,0.31420522928237915,0.13809487223625183,-0.019462041556835175,-0.026855839416384697,0.04238312691450119
1.312,-0.10493733733892441,0.29539114236831665,0.15920676290988922,-0.016987886279821396,-0.03873269259929657,0.048037026077508926
1.32,-0.09448079764842987,0.27462393045425415,0.1771116405725479,-0.009946245700120926,-0.051055602729320526,0.05236439406871796
1.328,-0.07942990958690643,0.2517462372779846,0.19210185110569,0.0017441865056753159,-0.06340019404888153,0.05409998819231987
1.336,-0.06217165291309357,0.2313585877418518,0.20390214025974274,0.018494965508580208,-0.07540654391050339,0.052491120994091034
1.344,-0.04512079805135727,0.22158247232437134,0.21224813163280487,0.04062739014625549,-0.08701934665441513,0.04775463789701462
1.352,-0.030150629580020905,0.23212341964244843,0.21642911434173584,0.06789661943912506,-0.09867570549249649,0.04047353193163872
1.36,-0.019511990249156952,0.26900583505630493,0.21431511640548706,0.09883521497249603,-0.11057984083890915,0.030605008825659752
1.368,-0.014965169131755829,0.33330637216567993,0.2036391645669937,0.1311071813106537,-0.12208930402994156,0.01794561743736267
1.376,-0.01773715764284134,0.42098912596702576,0.18224205076694489,0.1626387983560562,-0.13235241174697876,0.003150387667119503
1.384,-0.028866171836853027,0.5244093537330627,0.1499965339899063,0.19206774234771729,-0.14130030572414398,-0.012240404263138771
1.392,-0.048062942922115326,0.6354303956031799,0.10972623527050018,0.2187615931034088,-0.1494753360748291,-0.026603031903505325
1.4,-0.07388108223676682,0.7457695603370667,0.06512042880058289,0.24189677834510803,-0.15702971816062927,-0.03876576945185661
1.408,-0.10377417504787445,0.8488408327102661,0.02134156972169876,0.26002779603004456,-0.16384370625019073,-0.047803934663534164
1.416,-0.1338372528553009,0.9394351243972778,-0.01807491108775139,0.2729243338108063,-0.17011749744415283,-0.05297744646668434
1.424,-0.15979962050914764,1.0150901079177856,-0.052006520330905914,0.2826070785522461,-0.1763048619031906,-0.05436202883720398
1.432,-0.1785704791545868,1.0767461061477661,-0.08028509467840195,0.29177966713905334,-0.1827034205198288,-0.053142040967941284
1.44,-0.18834155797958374,1.1280699968338013,-0.10392270237207413,0.30190810561180115,-0.18917110562324524,-0.05074659734964371
1.448,-0.18988265097141266,1.1739856004714966,-0.12432374805212021,0.3127894401550293,-0.19529952108860016,-0.04808223992586136
1.456,-0.18657657504081726,1.2176285982131958,-0.14270630478858948,0.32364577054977417,-0.20064717531204224,-0.04587896913290024
1.464,-0.18260282278060913,1.2603713274002075,-0.159044086933136,0.33380764722824097,-0.20497825741767883,-0.044991087168455124
1.472,-0.1818605214357376,1.2994662523269653,-0.17220239341259003,0.34260767698287964,-0.20844048261642456,-0.04572152718901634
1.48,-0.18674026429653168,1.3292399644851685,-0.18127159774303436,0.3500966429710388,-0.2111242413520813,-0.047403063625097275
1.488,-0.19728206098079681,1.3429232835769653,-0.18653777241706848,0.3575846552848816,-0.2130759060382843,-0.048962827771902084
1.496,-0.2116643637418747,1.3342286348342896,-0.19096504151821136,0.3665356934070587,-0.21472489833831787,-0.04896530136466026
1.504,-0.2254595309495926,1.2998782396316528,-0.1977909505367279,0.3773742914199829,-0.2170063555240631,-0.04562046751379967
1.512,-0.23383893072605133,1.2389479875564575,-0.21136166155338287,0.38955622911453247,-0.22100777924060822,-0.0381137989461422
1.52,-0.2322610765695572,1.154922604560852,-0.23378320038318634,0.4024149477481842,-0.22710955142974854,-0.02734157256782055
1.528,-0.21727320551872253,1.0544558763504028,-0.2657078504562378,0.41563260555267334,-0.23462912440299988,-0.01514856331050396
1.536,-0.18835172057151794,0.9456483125686646,-0.30762314796447754,0.4287111759185791,-0.24246633052825928,-0.003419174812734127
1.544,-0.14737820625305176,0.8352900743484497,-0.35923072695732117,0.44045552611351013,-0.24958796799182892,0.006223320960998535
1.552,-0.0990704894065857,0.7276821732521057,-0.4195720851421356,0.44905346632003784,-0.2550352215766907,0.01252604927867651
1.56,-0.04929165542125702,0.6233797073364258,-0.4860920310020447,0.4524739384651184,-0.25812476873397827,0.014987601898610592
1.568,-0.004301697015762329,0.5189552307128906,-0.5554486513137817,0.4490962028503418,-0.2583834230899811,0.013907044194638729
1.576,0.030597567558288574,0.41060924530029297,-0.6226949095726013,0.4381137490272522,-0.2554396092891693,0.00990819837898016
1.584,0.05289793014526367,0.29491326212882996,-0.6825250387191772,0.4194948673248291,-0.24974220991134644,0.003826513886451721
1.592,0.06282910704612732,0.17058461904525757,-0.731218159198761,0.39450502395629883,-0.24271799623966217,-0.003055109642446041
1.6,0.06256389617919922,0.03873150423169136,-0.7658449411392212,0.36566072702407837,-0.23582470417022705,-0.008996201679110527
1.608,0.05503326654434204,-0.0978899896144867,-0.7856836318969727,0.3356208801269531,-0.22988656163215637,-0.012298849411308765
1.616,0.04365071654319763,-0.23492155969142914,-0.7920461297035217,0.3069034218788147,-0.22532324492931366,-0.012090814299881458
1.624,0.031239748001098633,-0.36708077788352966,-0.7881922125816345,0.2818553149700165,-0.22253960371017456,-0.008503969758749008
1.632,0.019353032112121582,-0.48904716968536377,-0.7778351306915283,0.2618741989135742,-0.22161146998405457,-0.0025011564139276743
1.64,0.008496254682540894,-0.5948611497879028,-0.7639346718788147,0.2470736801624298,-0.2219543159008026,0.004384871106594801
1.648,-0.0020164847373962402,-0.6790601015090942,-0.7484963536262512,0.23648887872695923,-0.22282016277313232,0.011101949028670788
1.656,-0.011771738529205322,-0.7383109331130981,-0.7319010496139526,0.22855180501937866,-0.22390642762184143,0.017480794340372086
1.664,-0.019973814487457275,-0.771105945110321,-0.7128361463546753,0.2214829921722412,-0.22519801557064056,0.023442041128873825
1.672,-0.026290327310562134,-0.7776328921318054,-0.6883872747421265,0.21374890208244324,-0.22664549946784973,0.02864299900829792
1.68,-0.031098127365112305,-0.7602168917655945,-0.6567309498786926,0.20489543676376343,-0.22841432690620422,0.03270506486296654
1.688,-0.03598317503929138,-0.7219477891921997,-0.616319477558136,0.19576117396354675,-0.23106612265110016,0.035305846482515335
1.696,-0.04282727837562561,-0.6667710542678833,-0.5668732523918152,0.18756622076034546,-0.23492127656936646,0.036451444029808044
1.704,-0.05301406979560852,-0.5996133089065552,-0.5105746388435364,0.1809011995792389,-0.2395896017551422,0.03698249161243439
1.712,-0.0661214292049408,-0.5251704454421997,-0.45087704062461853,0.17606064677238464,-0.24460150301456451,0.03838472068309784
1.72,-0.08061791956424713,-0.4459896981716156,-0.39132794737815857,0.1740701049566269,-0.25006070733070374,0.04155425727367401
1.728,-0.09502050280570984,-0.3605261445045471,-0.3355617821216583,0.17605963349342346,-0.2564206123352051,0.04617096483707428
1.736,-0.10824504494667053,-0.26521021127700806,-0.286195307970047,0.1819693148136139,-0.26355499029159546,0.05121143162250519
1.744,-0.11968858540058136,-0.1576118767261505,-0.24416561424732208,0.19080886244773865,-0.27066290378570557,0.05549461767077446
1.752,-0.12975940108299255,-0.03969670459628105,-0.20911024510860443,0.2010233849287033,-0.2771269679069519,0.05817422643303871
1.76,-0.13865125179290771,0.08165740966796875,-0.17925648391246796,0.2103627771139145,-0.28282231092453003,0.059173595160245895
1.768,-0.14679645001888275,0.19568350911140442,-0.1538764387369156,0.21696677803993225,-0.28785374760627747,0.05895010754466057
1.776,-0.15339824557304382,0.29184630513191223,-0.13249239325523376,0.22060427069664001,-0.2923790514469147,0.05828971788287163
1.784,-0.15793190896511078,0.3636179268360138,-0.11444748938083649,0.22223734855651855,-0.2968875467777252,0.05794595181941986
1.792,-0.16019517183303833,0.41079527139663696,-0.09973052889108658,0.22300857305526733,-0.3021262288093567,0.05802368372678757
1.8,-0.16016830503940582,0.43694597482681274,-0.08886296302080154,0.22384318709373474,-0.3080857992172241,0.057853348553180695
1.808,-0.15843328833580017,0.4482613205909729,-0.08123790472745895,0.2251584678888321,-0.31401926279067993,0.05619180202484131
1.816,-0.1566280722618103,0.45125776529312134,-0.07597668468952179,0.22667840123176575,-0.31948888301849365,0.05209316313266754
1.824,-0.15563377737998962,0.45095735788345337,-0.07239154726266861,0.22760581970214844,-0.3244173228740692,0.046049296855926514
1.832,-0.15631408989429474,0.44879060983657837,-0.06994368880987167,0.22720587253570557,-0.32876038551330566,0.039364371448755264
1.84,-0.15873900055885315,0.4460802674293518,-0.06787706911563873,0.22492676973342896,-0.33281204104423523,0.032664600759744644
1.848,-0.16125985980033875,0.4419737458229065,-0.06612738966941833,0.22004897892475128,-0.3368358016014099,0.02594815567135811
1.856,-0.16177701950073242,0.43480783700942993,-0.06379181891679764,0.2126883566379547,-0.3406229317188263,0.019468199461698532
1.864,-0.15882906317710876,0.4221048951148987,-0.05996021255850792,0.2039261758327484,-0.34400036931037903,0.013976547867059708
1.872,-0.15113210678100586,0.4015656113624573,-0.053910039365291595,0.19391363859176636,-0.3471790850162506,0.010006789118051529
1.88,-0.1399792581796646,0.3707886040210724,-0.04574209824204445,0.1824823021888733,-0.35013529658317566,0.007227982394397259
1.888,-0.12799854576587677,0.3270769417285919,-0.035822149366140366,0.17039093375205994,-0.3522137403488159,0.004848535172641277
1.896,-0.1175357848405838,0.26936057209968567,-0.024552369490265846,0.1575896441936493,-0.3527286946773529,0.0022964279633015394
1.904,-0.11057169735431671,0.1996651142835617,-0.011689769104123116,0.1434096395969391,-0.3517509996891022,-0.0005210461094975471
1.912,-0.108228400349617,0.12289812415838242,0.0033475717063993216,0.12932944297790527,-0.34999963641166687,-0.003282327903434634
1.92,-0.10997464507818222,0.044842734932899475,0.020956309512257576,0.1182190328836441,-0.3482931852340698,-0.005561698693782091
1.928,-0.11396272480487823,-0.02934645675122738,0.04136088863015175,0.11157900094985962,-0.34741106629371643,-0.006808281410485506
1.936,-0.11718405783176422,-0.09558486938476562,0.06329646706581116,0.11001761257648468,-0.34813132882118225,-0.006337479222565889
1.944,-0.11773595958948135,-0.15236949920654297,0.08409033715724945,0.11461640894412994,-0.3506030738353729,-0.00409159529954195
1.952,-0.11493579298257828,-0.1984434276819229,0.10042273998260498,0.12599718570709229,-0.3539641499519348,-0.0010235582012683153
1.96,-0.1089746356010437,-0.23205186426639557,0.1090334877371788,0.14321023225784302,-0.35688647627830505,0.002091804752126336
1.968,-0.10110961645841599,-0.2515430450439453,0.10716328024864197,0.16409790515899658,-0.35848507285118103,0.0052805934101343155
1.976,-0.09250705689191818,-0.2562685012817383,0.0931418165564537,0.18611356616020203,-0.3585887551307678,0.008581222966313362
1.984,-0.0839037150144577,-0.2471485286951065,0.0670914277434349,0.20637165009975433,-0.3573717772960663,0.011749977245926857
1.992,-0.07484615594148636,-0.22567464411258698,0.03238647058606148,0.22161656618118286,-0.35508057475090027,0.014833408407866955
2.0,-0.06540898978710175,-0.19431975483894348,-0.0057588862255215645,0.22976168990135193,-0.3520348072052002,0.018575699999928474
2.008,-0.05367495119571686,-0.15563108026981354,-0.04172984138131142,0.23128680884838104,-0.34850502014160156,0.023987475782632828
2.016,-0.036940060555934906,-0.11360646784305573,-0.07163383066654205,0.22787626087665558,-0.3445810079574585,0.031229745596647263
2.024,-0.013818640261888504,-0.07361985743045807,-0.09270032495260239,0.2200775146484375,-0.3397738039493561,0.039108503609895706
2.032,0.014883697032928467,-0.044107452034950256,-0.1045008972287178,0.20783814787864685,-0.3330736756324768,0.0458928681910038
2.04,0.04584607481956482,-0.03275873139500618,-0.10861115902662277,0.19288288056850433,-0.32395899295806885,0.05036715418100357
2.048,0.07481473684310913,-0.043591517955064774,-0.10820979624986649,0.1786455661058426,-0.31302711367607117,0.05214092135429382
2.056,0.09685944020748138,-0.07490064948797226,-0.1065443679690361,0.16781750321388245,-0.3013364374637604,0.05142516642808914
2.064,0.10917173326015472,-0.12031367421150208,-0.10560872405767441,0.16067036986351013,-0.28976714611053467,0.04836994782090187
2.072,0.11066677421331406,-0.17217066884040833,-0.10471771657466888,0.15550528466701508,-0.2791810929775238,0.04319433495402336
2.08,0.10253346711397171,-0.2243242710828781,-0.10065418481826782,0.15064680576324463,-0.2708015441894531,0.03700898215174675
2.088,0.08775369822978973,-0.2731238007545471,-0.09015195816755295,0.14582926034927368,-0.26572927832603455,0.03128722310066223
2.096,0.06871745735406876,-0.31673529744148254,-0.07004056870937347,0.14184284210205078,-0.26371484994888306,0.02637525461614132
2.104,0.04817283898591995,-0.3540849983692169,-0.03745648264884949,0.13979101181030273,-0.2630055844783783,0.021287770941853523
2.112,0.02634202316403389,-0.38392359018325806,0.007974507287144661,0.14073967933654785,-0.2617177665233612,0.01540945004671812
2.12,0.0029227230697870255,-0.40468794107437134,0.06396817415952682,0.14541073143482208,-0.25906994938850403,0.010060361586511135
2.128,-0.02186952903866768,-0.4155150055885315,0.1252284049987793,0.1541081815958023,-0.25556066632270813,0.0076293195597827435
2.136,-0.04757264256477356,-0.415892630815506,0.18529346585273743,0.1672344207763672,-0.25229379534721375,0.009576909244060516
2.144,-0.07348349690437317,-0.40729430317878723,0.2390926331281662,0.18489432334899902,-0.25001075863838196,0.015690550208091736
2.152,-0.0998949408531189,-0.39136412739753723,0.2843119502067566,0.20609906315803528,-0.2482195347547531,0.024384140968322754
2.16,-0.1275390386581421,-0.3692913055419922,0.3195881247520447,0.22946956753730774,-0.24562673270702362,0.03346579521894455
2.168,-0.15708521008491516,-0.3417978286743164,0.3446204960346222,0.2539369463920593,-0.24172063171863556,0.04130074381828308
2.176,-0.18863603472709656,-0.30966660380363464,0.3597383201122284,0.2787913680076599,-0.23731796443462372,0.047351621091365814
2.184,-0.2208893746137619,-0.27355000376701355,0.3655676543712616,0.3033692240715027,-0.23363302648067474,0.05210840329527855
2.192,-0.25152167677879333,-0.23436066508293152,0.3639349341392517,0.3264496624469757,-0.2315235584974289,0.0565863735973835
2.2,-0.27753111720085144,-0.19470497965812683,0.3575400710105896,0.3470202088356018,-0.23161157965660095,0.06150432303547859
2.208,-0.2961900532245636,-0.15753360092639923,0.34912651777267456,0.3648516535758972,-0.23428045213222504,0.06687620282173157
2.216,-0.30521509051322937,-0.12580199539661407,0.3413892984390259,0.3796447813510895,-0.2393752634525299,0.07241502404212952
2.224,-0.3036881983280182,-0.10260101407766342,0.3364245295524597,0.3915424942970276,-0.24649211764335632,0.07804067432880402
2.232,-0.29174259305000305,-0.09003730118274689,0.3359397351741791,0.4016653895378113,-0.25507116317749023,0.08382779359817505
2.24,-0.27090880274772644,-0.08848662674427032,0.3410698473453522,0.41056180000305176,-0.26419758796691895,0.08968256413936615
2.248,-0.24363157153129578,-0.09563156217336655,0.3511245846748352,0.41829735040664673,-0.27274683117866516,0.09539267420768738
2.256,-0.21245083212852478,-0.10793491452932358,0.3632010519504547,0.4260006546974182,-0.27966058254241943,0.10090690851211548
2.264,-0.17906567454338074,-0.1217784583568573,0.37441709637641907,0.4346413314342499,-0.28444722294807434,0.10651063174009323
2.272,-0.14387421309947968,-0.13228222727775574,0.38113388419151306,0.4434661269187927,-0.28744450211524963,0.11261028796434402
2.28,-0.10552482306957245,-0.13550278544425964,0.3803006112575531,0.45135653018951416,-0.28968143463134766,0.11927375942468643
2.288,-0.06274983286857605,-0.1283406913280487,0.3708556592464447,0.4581419825553894,-0.29245442152023315,0.1256253719329834
2.296,-0.014955252408981323,-0.10962866246700287,0.3522283434867859,0.4631531834602356,-0.29634419083595276,0.13004377484321594
2.304,0.03675121068954468,-0.0806579440832138,0.325492799282074,0.4643253684043884,-0.3008100986480713,0.1311796009540558
2.312,0.08984110504388809,-0.045817360281944275,0.29280173778533936,0.4601879119873047,-0.30473455786705017,0.12863700091838837
2.32,0.14165759086608887,-0.01112364698201418,0.2569505572319031,0.45115283131599426,-0.3071742057800293,0.1231606975197792
2.328,0.19038721919059753,0.017494207248091698,0.2204212248325348,0.43830880522727966,-0.3079466223716736,0.11638716608285904
2.336,0.23468175530433655,0.035813331604003906,0.18597561120986938,0.42263853549957275,-0.30716389417648315,0.1097492054104805
2.344,0.2749987244606018,0.0418243370950222,0.15675167739391327,0.4049955904483795,-0.30426934361457825,0.10417730361223221
2.352,0.31171754002571106,0.036119453608989716,0.13533879816532135,0.38637492060661316,-0.2983703017234802,0.10055089741945267
2.36,0.34437739849090576,0.0227041095495224,0.12298578768968582,0.3687652349472046,-0.28895896673202515,0.09888000041246414
2.368,0.37078016996383667,0.0075206574983894825,0.1178203672170639,0.354828417301178,-0.27599212527275085,0.09759224951267242
2.376,0.38780510425567627,-0.002758047077804804,0.11593769490718842,0.34634876251220703,-0.2603188455104828,0.09482050687074661
2.384,0.3931056261062622,-0.0009680009679868817,0.11223988234996796,0.34368422627449036,-0.24393980205059052,0.09007057547569275
2.392,0.3855701982975006,0.01733110286295414,0.10066935420036316,0.34590980410575867,-0.22907869517803192,0.08403328061103821
2.4,0.36512821912765503,0.05347345769405365,0.07825169712305069,0.35103321075439453,-0.21695829927921295,0.07697231322526932
2.408,0.33214521408081055,0.10406779497861862,0.04219111427664757,0.3562983274459839,-0.20768842101097107,0.06846291571855545
2.416,0.2877293825149536,0.1613740772008896,-0.007324303966015577,0.35857123136520386,-0.20132911205291748,0.058992646634578705
2.424,0.23439687490463257,0.21451568603515625,-0.06808888167142868,0.35532480478286743,-0.19833293557167053,0.05072980374097824
2.432,0.17603538930416107,0.2513437271118164,-0.13648216426372528,0.3452520966529846,-0.19871269166469574,0.04589004069566727
2.44,0.1170126348733902,0.2603130340576172,-0.20843586325645447,0.3278194069862366,-0.2012675255537033,0.0451049730181694
2.448,0.05966586619615555,0.23269367218017578,-0.27983036637306213,0.30315083265304565,-0.20375587046146393,0.0477336160838604
2.456,0.003699257969856262,0.1638631671667099,-0.3488691747188568,0.27212756872177124,-0.20370273292064667,0.053026873618364334
2.464,-0.05309191346168518,0.05379006639122963,-0.4166322946548462,0.23675745725631714,-0.19954775273799896,0.06079044193029404
2.472,-0.11430816352367401,-0.09274010360240936,-0.48632171750068665,0.20021644234657288,-0.19159315526485443,0.07099813967943192
2.48,-0.1827004998922348,-0.2681131958961487,-0.5621054768562317,0.16520527005195618,-0.18171824514865875,0.08298147469758987
2.488,-0.25995635986328125,-0.46435174345970154,-0.6474608778953552,0.13301128149032593,-0.1723141074180603,0.09518696367740631
2.496,-0.34788811206817627,-0.6747123003005981,-0.7459692358970642,0.10460647195577621,-0.16527239978313446,0.1052483543753624
2.504,-0.4474116563796997,-0.8922492861747742,-0.8593240976333618,0.08120525628328323,-0.16126306354999542,0.11059137433767319
2.512,-0.5577043890953064,-1.1085253953933716,-0.9852306842803955,0.06332171708345413,-0.16007183492183685,0.10968125611543655
2.52,-0.6754192113876343,-1.3150874376296997,-1.1190192699432373,0.048323605209589005,-0.16226017475128174,0.1031019538640976
2.528,-0.7930549383163452,-1.5057146549224854,-1.248915195465088,0.027917642146348953,-0.17046374082565308,0.09298708289861679
2.536,-0.8987579345703125,-1.6779940128326416,-1.3583000898361206,-0.009377442300319672,-0.1882091909646988,0.08066174387931824
2.544,-0.9801459312438965,-1.8299486637115479,-1.4299962520599365,-0.0707104504108429,-0.21719618141651154,0.06585241109132767
2.552,-1.0289978981018066,-1.957317590713501,-1.4547150135040283,-0.15250800549983978,-0.25528576970100403,0.04839475452899933
2.56,-1.0433369874954224,-2.054652452468872,-1.4349565505981445,-0.24099743366241455,-0.29595327377319336,0.02937164343893528
2.568,-1.0263930559158325,-2.116828680038452,-1.388137936592102,-0.32051271200180054,-0.33077389001846313,0.011540418490767479
2.576,-0.9824310541152954,-2.1390836238861084,-1.3420023918151855,-0.38027316331863403,-0.35428735613822937,-0.0006563639035448432
2.584,-0.9123440384864807,-2.1185715198516846,-1.3285719156265259,-0.41358625888824463,-0.36703088879585266,-0.0027793636545538902
2.592,-0.8109031319618225,-2.0564520359039307,-1.373155117034912,-0.41826415061950684,-0.3740968406200409,0.007203042507171631
2.6,-0.6687480807304382,-1.9593065977096558,-1.4898285865783691,-0.401303768157959,-0.3806966245174408,0.027419790625572205
2.608,-0.4806821346282959,-1.84015691280365,-1.680048942565918,-0.3778097629547119,-0.3884260952472687,0.051524415612220764
2.616,-0.2510906457901001,-1.7185500860214233,-1.9341304302215576,-0.36165088415145874,-0.39462772011756897,0.06991010904312134
2.624,0.0029985904693603516,-1.6154112815856934,-2.235618829727173,-0.3591555655002594,-0.39424848556518555,0.07322661578655243
2.632,0.2544541358947754,-1.5471014976501465,-2.568275213241577,-0.3713921308517456,-0.3822534680366516,0.056056439876556396
2.64,0.4732332229614258,-1.5217204093933105,-2.917602777481079,-0.3966847062110901,-0.3557535409927368,0.01811722107231617
2.648,0.6372359991073608,-1.5349823236465454,-3.2713143825531006,-0.43026554584503174,-0.3160310685634613,-0.03670681267976761
2.656,0.7362027168273926,-1.5659109354019165,-3.616403341293335,-0.4666668176651001,-0.2687579393386841,-0.10153177380561829
2.664,0.7712161540985107,-1.5747562646865845,-3.941619873046875,-0.5014001131057739,-0.2215648740530014,-0.16792263090610504
2.672,0.7560001611709595,-1.5127694606781006,-4.237397193908691,-0.5290675163269043,-0.18155142664909363,-0.2280694842338562
2.68,0.714303731918335,-1.3366791009902954,-4.497384071350098,-0.5446503758430481,-0.15359848737716675,-0.27653515338897705
2.688,0.6678590774536133,-1.0277000665664673,-4.7154011726379395,-0.5489857196807861,-0.1371881067752838,-0.3119678795337677
2.696,0.630194902420044,-0.6015182137489319,-4.884546279907227,-0.5525506138801575,-0.12436534464359283,-0.3373129367828369
2.704,0.613532543182373,-0.10793164372444153,-4.990670204162598,-0.5733252763748169,-0.10596132278442383,-0.3540671467781067
2.712,0.6356937885284424,0.3830876648426056,-5.012296676635742,-0.6292061805725098,-0.08360566198825836,-0.3561234176158905
2.72,0.7137928009033203,0.8018070459365845,-4.925395965576172,-0.7299913167953491,-0.06993099302053452,-0.3377551734447479
2.728,0.8540430068969727,1.0994421243667603,-4.7131452560424805,-0.8724977374076843,-0.07035341113805771,-0.3097687363624573
2.736,1.0419158935546875,1.2663027048110962,-4.375677585601807,-1.037467360496521,-0.07164177298545837,-0.2963249385356903
2.744,1.242796540260315,1.3364263772964478,-3.9336793422698975,-1.1935864686965942,-0.05587048828601837,-0.31179943680763245
2.752,1.4100356101989746,1.3720128536224365,-3.4202191829681396,-1.3150221109390259,-0.016616301611065865,-0.3523566424846649
2.76,1.5004079341888428,1.4413955211639404,-2.869499444961548,-1.3972747325897217,0.04468788579106331,-0.4110298454761505
2.768,1.4843759536743164,1.594033122062683,-2.307440996170044,-1.4535672664642334,0.12766563892364502,-0.4864901602268219
2.776,1.3460354804992676,1.8389959335327148,-1.7505711317062378,-1.5003743171691895,0.23187360167503357,-0.5759187936782837
2.784,1.0834165811538696,2.1368350982666016,-1.204047679901123,-1.552621603012085,0.3543582856655121,-0.6711081266403198
2.792,0.7076877951622009,2.4170334339141846,-0.6615028381347656,-1.6274975538253784,0.49343341588974,-0.7639379501342773
2.8,0.23550307750701904,2.6123363971710205,-0.11024770885705948,-1.7348861694335938,0.6518749594688416,-0.8491570353507996
2.808,-0.31925854086875916,2.6927616596221924,0.4560472071170807,-1.857841968536377,0.833433985710144,-0.9202357530593872
2.816,-0.9416050314903259,2.680957317352295,1.0280077457427979,-1.954329013824463,1.037068247795105,-0.9678106307983398
2.824,-1.6065828800201416,2.6412711143493652,1.5796395540237427,-1.9841797351837158,1.2545143365859985,-0.9847591519355774
2.832,-2.27677321434021,2.651715040206909,2.072706460952759,-1.9306130409240723,1.4710521697998047,-0.969904363155365
2.84,-2.9057562351226807,2.771775960922241,2.4680042266845703,-1.7975473403930664,1.668958306312561,-0.9267868399620056
2.848,-3.444077253341675,3.0213279724121094,2.7381691932678223,-1.6001496315002441,1.8338602781295776,-0.8612864017486572
2.856,-3.8481125831604004,3.3767261505126953,2.875335693359375,-1.366489052772522,1.9602476358413696,-0.7789870500564575
2.864,-4.086673259735107,3.7828378677368164,2.8934743404388428,-1.132580280303955,2.050769090652466,-0.6826643943786621
2.872,-4.1422553062438965,4.176423072814941,2.8200578689575195,-0.920405387878418,2.1096079349517822,-0.5722237825393677
2.88,-4.012166500091553,4.506015777587891,2.683434009552002,-0.7268228530883789,2.138155698776245,-0.4486915171146393
2.888,-3.711555004119873,4.737957000732422,2.503493070602417,-0.5394673347473145,2.138301134109497,-0.320538192987442
2.896,-3.274541139602661,4.854240417480469,2.288923501968384,-0.3554553687572479,2.1170496940612793,-0.20404265820980072
2.904,-2.748328685760498,4.851327896118164,2.0430455207824707,-0.17793963849544525,2.0841877460479736,-0.11369030177593231
2.912,-2.184260606765747,4.74491024017334,1.7670984268188477,-0.0018923301249742508,2.0465612411499023,-0.05344073846936226
2.92,-1.630067229270935,4.5671892166137695,1.4594461917877197,0.18361808359622955,2.0068469047546387,-0.019157230854034424
2.928,-1.1262465715408325,4.357009410858154,1.12041437625885,0.37981194257736206,1.9668505191802979,-0.006503675132989883
2.936,-0.7032685279846191,4.147627353668213,0.7592142224311829,0.5748239755630493,1.9298028945922852,-0.013777383603155613
2.944,-0.38035425543785095,3.9636473655700684,0.3948519825935364,0.7564176321029663,1.8986610174179077,-0.039215635508298874
2.952,-0.16300588846206665,3.82442045211792,0.04894532635807991,0.9218067526817322,1.8729013204574585,-0.07861904799938202
2.96,-0.0396394282579422,3.744260311126709,-0.2571488916873932,1.0749776363372803,1.8476064205169678,-0.1254015415906906
2.968,0.015399515628814697,3.727921962738037,-0.5022755265235901,1.2169249057769775,1.8164602518081665,-0.17114420235157013
2.976,0.03374052047729492,3.77144193649292,-0.6644931435585022,1.3407409191131592,1.775917887687683,-0.20698592066764832
2.984,0.04237595200538635,3.8662219047546387,-0.7231348752975464,1.4388058185577393,1.7268507480621338,-0.22697749733924866
2.992,0.05617237091064453,4.000463008880615,-0.6638050079345703,1.5119781494140625,1.6736923456192017,-0.23017536103725433
3.0,0.0773162841796875,4.151235103607178,-0.4796382784843445,1.5658575296401978,1.6206990480422974,-0.21749024093151093
3.008,0.10176722705364227,4.269694805145264,-0.17366449534893036,1.6008594036102295,1.5669678449630737,-0.1878371685743332
3.016,0.12773846089839935,4.277799129486084,0.23868447542190552,1.6114833354949951,1.505526065826416,-0.1398015022277832
3.024,0.16068202257156372,4.083536624908447,0.7295666933059692,1.5942041873931885,1.4272615909576416,-0.07527703791856766
3.032,0.21440082788467407,3.6134133338928223,1.2599406242370605,1.5559039115905762,1.3255016803741455,0.0006177217583172023
3.04,0.30769336223602295,2.845376491546631,1.780289888381958,1.5156219005584717,1.1974900960922241,0.08187892287969589
3.048,0.4624618887901306,1.8223975896835327,2.2375075817108154,1.4969708919525146,1.0428714752197266,0.1622886061668396
3.056,0.695392906665802,0.6405336856842041,2.587007522583008,1.518296718597412,0.863418459892273,0.23308514058589935
3.064,1.0086095333099365,-0.5787829160690308,2.7957520484924316,1.584763765335083,0.6659289002418518,0.2813592255115509
3.072,1.3823707103729248,-1.7284518480300903,2.848473072052002,1.6848089694976807,0.46380797028541565,0.29292571544647217
3.08,1.7749288082122803,-2.75140643119812,2.7514243125915527,1.794785976409912,0.2751120626926422,0.25785133242607117
3.088,2.1326920986175537,-3.649857997894287,2.527305841445923,1.8871982097625732,0.12033519148826599,0.17564572393894196
3.096,2.404411554336548,-4.46670389175415,2.207714080810547,1.939287781715393,0.01889386959373951,0.05903172865509987
3.104,2.558474540710449,-5.251229763031006,1.823919415473938,1.9458121061325073,-0.018701687455177307,-0.06791567802429199
3.112,2.5915474891662598,-6.025802135467529,1.40138578414917,1.9241960048675537,0.003258685115724802,-0.1787993311882019
3.12,2.528813362121582,-6.772213459014893,0.9586067795753479,1.8989553451538086,0.0685378909111023,-0.2549619674682617
3.128,2.4112579822540283,-7.429149150848389,0.5088830590248108,1.8854310512542725,0.1566000133752823,-0.29172489047050476
3.136,2.2762041091918945,-7.919816970825195,0.06940305978059769,1.889257788658142,0.2504715621471405,-0.2985306680202484
3.144,2.1428143978118896,-8.180030822753906,-0.33183422684669495,1.90541410446167,0.34329622983932495,-0.2905891239643097
3.152,2.00781512260437,-8.178421974182129,-0.6577422022819519,1.9153411388397217,0.43851447105407715,-0.27730274200439453
3.16,1.8519442081451416,-7.921594619750977,-0.8709833025932312,1.8977391719818115,0.5414779186248779,-0.25887709856033325
3.168,1.6501860618591309,-7.453444480895996,-0.9440987706184387,1.8454420566558838,0.6500629186630249,-0.2329002469778061
3.176,1.3832374811172485,-6.845283508300781,-0.8664629459381104,1.7635947465896606,0.7537974715232849,-0.19983801245689392
3.184,1.0422139167785645,-6.188417434692383,-0.6483786106109619,1.6522753238677979,0.8409517407417297,-0.16204293072223663
3.192,0.6305471658706665,-5.585901260375977,-0.3161372244358063,1.502596139907837,0.9043819308280945,-0.1206439882516861
3.2,0.1676798015832901,-5.132687568664551,0.09246347844600677,1.3105170726776123,0.9406402111053467,-0.07331914454698563
3.208,-0.309572696685791,-4.886664390563965,0.5344585180282593,1.0878052711486816,0.945358395576477,-0.01498521026223898
3.216,-0.7463777661323547,-4.847718238830566,0.9699522256851196,0.8589600920677185,0.9109728932380676,0.05895831063389778
3.224,-1.0752886533737183,-4.953948974609375,1.3711069822311401,0.6485450267791748,0.8293285965919495,0.1501942276954651
3.232,-1.2266011238098145,-5.102138519287109,1.7183912992477417,0.4738773703575134,0.6960775256156921,0.256336510181427
3.24,-1.1431788206100464,-5.170864105224609,2.006037473678589,0.3465954661369324,0.5134397745132446,0.36981701850891113
3.248,-0.7980542182922363,-5.0585432052612305,2.235771417617798,0.27352485060691833,0.2924593389034271,0.4762149155139923
3.256,-0.2087392807006836,-4.717249393463135,2.404576539993286,0.25246739387512207,0.054307542741298676,0.5548532009124756
3.264,0.5625124573707581,-4.184695243835449,2.5008506774902344,0.26716721057891846,-0.17337404191493988,0.5874031186103821
3.272,1.423093557357788,-3.5826640129089355,2.511744499206543,0.28971385955810547,-0.3631865978240967,0.568868100643158
3.28,2.2694764137268066,-3.067556858062744,2.4287538528442383,0.2902109920978546,-0.4929504096508026,0.5104715824127197
3.288,3.0070321559906006,-2.757493257522583,2.257204532623291,0.2552587687969208,-0.548918604850769,0.429874062538147
3.296,3.566415548324585,-2.675166368484497,2.0200321674346924,0.20838408172130585,-0.5281454920768738,0.3345220386981964
3.304,3.910212516784668,-2.7391347885131836,1.752648949623108,0.19365651905536652,-0.4397173225879669,0.22356083989143372
3.312,4.039495468139648,-2.8048624992370605,1.496788740158081,0.2290879487991333,-0.30515870451927185,0.1079886332154274
3.32,3.989656925201416,-2.724303722381592,1.297465205192566,0.29586178064346313,-0.15394926071166992,0.010675173252820969
3.328,3.812138795852661,-2.3918285369873047,1.1955784559249878,0.36684685945510864,-0.010133018717169762,-0.05517658591270447
3.336,3.550981044769287,-1.7643474340438843,1.2203395366668701,0.42476606369018555,0.11955861747264862,-0.09601706266403198
3.344,3.2294726371765137,-0.8632156848907471,1.3727190494537354,0.4614066183567047,0.24351240694522858,-0.12762758135795593
3.352,2.852353572845459,0.24307435750961304,1.6335079669952393,0.4732215404510498,0.37207677960395813,-0.15911495685577393
3.36,2.4222233295440674,1.4705907106399536,1.9699054956436157,0.46126341819763184,0.505700409412384,-0.1880347579717636
3.368,1.9525065422058105,2.751469850540161,2.3353681564331055,0.44008493423461914,0.6335574388504028,-0.21111445128917694
3.376,1.4694194793701172,4.035568714141846,2.6758317947387695,0.4368985593318939,0.7408307790756226,-0.23267892003059387
3.384,1.0045281648635864,5.268592357635498,2.940542459487915,0.46260184049606323,0.8176378011703491,-0.25562793016433716
3.392,0.5884937047958374,6.374580383300781,3.088880777359009,0.48788052797317505,0.8651010990142822,-0.27108708024024963
3.4,0.24004638195037842,7.254782199859619,3.1042838096618652,0.461843878030777,0.8942124843597412,-0.26615211367607117
3.408,-0.04194378852844238,7.819946765899658,3.003025531768799,0.3517201244831085,0.9180771708488464,-0.238668754696846
3.416,-0.2751075029373169,8.033279418945312,2.821741819381714,0.1631718873977661,0.9443074464797974,-0.19838543236255646
3.424,-0.47987663745880127,7.919893741607666,2.596527099609375,-0.06670278310775757,0.9700168967247009,-0.1560927778482437
3.432,-0.6715630292892456,7.5486836433410645,2.3544981479644775,-0.2930012345314026,0.9814706444740295,-0.11754792183637619
3.44,-0.8628897666931152,7.0116753578186035,2.115565776824951,-0.49066105484962463,0.9679078459739685,-0.08607929199934006
3.448,-1.0685139894485474,6.41001558303833,1.8957347869873047,-0.6590555310249329,0.938403308391571,-0.06459371000528336
3.456,-1.296750545501709,5.836780548095703,1.7032300233840942,-0.798385500907898,0.9095583558082581,-0.051537495106458664
3.464,-1.5417766571044922,5.370543479919434,1.536952257156372,-0.8997303247451782,0.8769258856773376,-0.03602008521556854
3.472,-1.78271484375,5.072263717651367,1.3851971626281738,-0.9593676924705505,0.8169847726821899,-0.004221759270876646
3.48,-1.9971461296081543,4.977509498596191,1.2236309051513672,-0.9818899035453796,0.7155519127845764,0.044979389756917953
3.488,-2.1774330139160156,5.080047607421875,1.029317021369934,-0.9737803936004639,0.5817662477493286,0.0970950499176979
3.496,-2.343696117401123,5.324978828430176,0.800288200378418,-0.9533165693283081,0.43757063150405884,0.13990694284439087
3.504,-2.5313236713409424,5.611891746520996,0.5557562708854675,-0.9604543447494507,0.3031715154647827,0.17827099561691284
3.512,-2.7596945762634277,5.802883148193359,0.325743168592453,-1.0398814678192139,0.18848656117916107,0.2293139398097992
3.52,-3.0108189582824707,5.751794815063477,0.13733288645744324,-1.2129905223846436,0.08505664765834808,0.3123277723789215
3.528,-3.2214841842651367,5.355085372924805,-0.0024612718261778355,-1.4656052589416504,-0.0353708378970623,0.4416530728340149
3.536,-3.2953362464904785,4.589044570922852,-0.11465197056531906,-1.7519279718399048,-0.2042747139930725,0.6158087253570557
3.544,-3.1337430477142334,3.5176732540130615,-0.23733597993850708,-2.009507179260254,-0.4340794086456299,0.8116761445999146
3.552,-2.6759793758392334,2.2747740745544434,-0.4033437669277191,-2.185450315475464,-0.7121292352676392,0.9969549179077148
3.56,-1.9272825717926025,1.0288164615631104,-0.6208878755569458,-2.259047269821167,-1.0098103284835815,1.1463662385940552
3.568,-0.9683252573013306,-0.05701447278261185,-0.8651735186576843,-2.2407145500183105,-1.2910406589508057,1.2402559518814087
3.576,0.04855012893676758,-0.8547060489654541,-1.0835493803024292,-2.153858184814453,-1.5149636268615723,1.2554569244384766
3.584,0.931786298751831,-1.2913421392440796,-1.21628999710083,-2.022139310836792,-1.6427617073059082,1.1720492839813232
3.592,1.5105671882629395,-1.3710073232650757,-1.227516770362854,-1.8688708543777466,-1.6575262546539307,0.998142659664154
3.6,1.7036879062652588,-1.1756967306137085,-1.1182146072387695,-1.7166638374328613,-1.5859190225601196,0.786011815071106
3.608,1.55464506149292,-0.8305962681770325,-0.9258671998977661,-1.578129529953003,-1.4948065280914307,0.6109596490859985
3.616,1.2086689472198486,-0.4520427882671356,-0.7102358341217041,-1.4481947422027588,-1.45467209815979,0.5235952734947205
3.624,0.841681718826294,-0.11169350892305374,-0.5285642147064209,-1.3124780654907227,-1.5006059408187866,0.5216341614723206
3.632,0.5861165523529053,0.17043869197368622,-0.4133854806423187,-1.1678416728973389,-1.6223574876785278,0.565214991569519
3.64,0.49389415979385376,0.41155338287353516,-0.3643536865711212,-1.0329887866973877,-1.781514048576355,0.6108481884002686
3.648,0.5443633794784546,0.6417417526245117,-0.356462687253952,-0.9313835501670837,-1.9394868612289429,0.632933497428894
3.656,0.6772404313087463,0.8817253708839417,-0.35734209418296814,-0.8694194555282593,-2.0770559310913086,0.6260020732879639
3.664,0.8250629305839539,1.1328258514404297,-0.3385471999645233,-0.8415993452072144,-2.19179105758667,0.5955038070678711
3.672,0.9395107626914978,1.3737249374389648,-0.2862977683544159,-0.8448430299758911,-2.28546404838562,0.550410807132721
3.68,1.0072585344314575,1.5710135698318481,-0.2007882446050644,-0.8734917640686035,-2.3616061210632324,0.5033454895019531
3.688,1.0417271852493286,1.6890288591384888,-0.09098336845636368,-0.9104710817337036,-2.4283065795898438,0.4690277576446533
3.696,1.0658643245697021,1.6998292207717896,0.032086990773677826,-0.9379317760467529,-2.49245285987854,0.45481041073799133
3.704,1.0958459377288818,1.5813466310501099,0.15831048786640167,-0.9511096477508545,-2.5509965419769287,0.4537789225578308
3.712,1.1278870105743408,1.3208255767822266,0.2842058539390564,-0.9519329071044922,-2.5924160480499268,0.451667457818985
3.72,1.1405560970306396,0.9274664521217346,0.4095311760902405,-0.9338587522506714,-2.6076161861419678,0.4402830898761749
3.728,1.1125670671463013,0.4453144371509552,0.5270029902458191,-0.8799806237220764,-2.597938299179077,0.4229363799095154
3.736,1.0348706245422363,-0.05225089564919472,0.6188649535179138,-0.7743414044380188,-2.5741255283355713,0.4093364477157593
3.744,0.9138081669807434,-0.48316866159439087,0.6643067002296448,-0.6137714982032776,-2.5499703884124756,0.4076053500175476
3.752,0.7637448906898499,-0.7838975191116333,0.6489646434783936,-0.41269776225090027,-2.5353853702545166,0.4184655547142029
3.76,0.5984253883361816,-0.9251929521560669,0.5743460059165955,-0.19930937886238098,-2.532716989517212,0.433898389339447
3.768,0.4230917990207672,-0.91517174243927,0.4542340636253357,-0.0024304836988449097,-2.5384411811828613,0.4424758553504944
3.776,0.2342410832643509,-0.790833592414856,0.3081492483615875,0.16261936724185944,-2.547683000564575,0.4376962184906006
3.784,0.027337104082107544,-0.6085444092750549,0.15420317649841309,0.2960001528263092,-2.5582010746002197,0.4226403832435608
3.792,-0.19205638766288757,-0.4312944710254669,0.004295499064028263,0.403038889169693,-2.572162389755249,0.4083942472934723
3.8,-0.40669435262680054,-0.3156547546386719,-0.13412348926067352,0.4851199984550476,-2.5946080684661865,0.40655189752578735
3.808,-0.595334529876709,-0.3002185821533203,-0.25709131360054016,0.5426161289215088,-2.628777265548706,0.42081183195114136
3.816,-0.7415037751197815,-0.3968687355518341,-0.3620087206363678,0.5826210975646973,-2.6722309589385986,0.4458681344985962
3.824,-0.8399530649185181,-0.5899239182472229,-0.45084118843078613,0.6170819401741028,-2.7181618213653564,0.4739510715007782
3.832,-0.8947699666023254,-0.8459550142288208,-0.5289634466171265,0.6548314690589905,-2.7610175609588623,0.5009678602218628
3.84,-0.9134939908981323,-1.12940514087677,-0.6022352576255798,0.6983727812767029,-2.8000104427337646,0.526129424571991
3.848,-0.9034430980682373,-1.4165593385696411,-0.6751098036766052,0.7452272176742554,-2.8368642330169678,0.5481178760528564
3.856,-0.8700231313705444,-1.696326494216919,-0.7490124106407166,0.7896217107772827,-2.8720271587371826,0.5638872981071472
3.864,-0.8188628554344177,-1.964601755142212,-0.8247564435005188,0.8261614441871643,-2.9044647216796875,0.5708866715431213
3.872,-0.7556867599487305,-2.2168962955474854,-0.9014110565185547,0.8545743227005005,-2.933776617050171,0.5689852237701416
3.88,-0.6849759817123413,-2.442946195602417,-0.9753881692886353,0.8779634833335876,-2.960939645767212,0.5597943067550659
3.888,-0.6095902919769287,-2.630150079727173,-1.0450935363769531,0.8970050811767578,-2.987229108810425,0.5449276566505432
3.896,-0.5302973985671997,-2.7695629596710205,-1.1091862916946411,0.9099169373512268,-3.0130348205566406,0.5249631404876709
3.904,-0.4470149278640747,-2.8611161708831787,-1.1706637144088745,0.916289210319519,-3.0373029708862305,0.4993821978569031
3.912,-0.3596004545688629,-2.9098589420318604,-1.2369346618652344,0.9183825850486755,-3.05794095993042,0.467831552028656
3.92,-0.2680590748786926,-2.9207727909088135,-1.3230608701705933,0.9204489588737488,-3.0731308460235596,0.4311998188495636
3.928,-0.1740320324897766,-2.8921139240264893,-1.4458321332931519,0.9282247424125671,-3.0818939208984375,0.39185887575149536
3.936,-0.08236753940582275,-2.8096985816955566,-1.6205087900161743,0.9477794766426086,-3.083564519882202,0.3533664643764496
3.944,0.002667248249053955,-2.6498589515686035,-1.856789469718933,0.9824017286300659,-3.078007936477661,0.31981760263442993
3.952,0.07983148097991943,-2.3902769088745117,-2.152470588684082,1.0282248258590698,-3.0673530101776123,0.296188622713089
3.96,0.15417909622192383,-2.02545166015625,-2.489685297012329,1.0716876983642578,-3.057520627975464,0.28823667764663696
3.968,0.23497366905212402,-1.5729613304138184,-2.8332841396331787,1.0930283069610596,-3.0564827919006348,0.29780566692352295
3.976,0.32859885692596436,-1.0712037086486816,-3.1416568756103516,1.0761961936950684,-3.0695159435272217,0.31704479455947876
3.984,0.4296053647994995,-0.5678696036338806,-3.379117965698242,1.0183591842651367,-3.0961718559265137,0.33016520738601685
3.992,0.5176650285720825,-0.10707510262727737,-3.5241432189941406,0.9297478795051575,-3.131153106689453,0.32130712270736694
4.0,0.5609828233718872,0.28095975518226624,-3.5799245834350586,0.8252320289611816,-3.1673452854156494,0.28100720047950745
4.008,0.5285147428512573,0.5856186747550964,-3.571535348892212,0.7190718650817871,-3.199042797088623,0.20995120704174042
4.016,0.40175437927246094,0.8128869533538818,-3.540846347808838,0.6243748664855957,-3.2251055240631104,0.12007240951061249
4.024,0.18198704719543457,0.9770897030830383,-3.5352416038513184,0.548770546913147,-3.2508270740509033,0.03055286407470703
4.032,-0.10412371158599854,1.0916917324066162,-3.5982563495635986,0.48834723234176636,-3.2866339683532715,-0.04065131023526192
4.04,-0.406591534614563,1.163130521774292,-3.7586658000946045,0.4313517212867737,-3.3443331718444824,-0.08301861584186554
4.048,-0.6622132062911987,1.191307783126831,-4.0210161209106445,0.368990421295166,-3.4336013793945312,-0.09227807074785233
4.056,-0.8038623332977295,1.1813476085662842,-4.36075496673584,0.29896360635757446,-3.56093168258667,-0.06762199103832245
4.064,-0.770413875579834,1.151747465133667,-4.72451114654541,0.22107252478599548,-3.7312936782836914,-0.01142106018960476
4.072,-0.5172996520996094,1.1365821361541748,-5.032462120056152,0.13511429727077484,-3.9503204822540283,0.07186233252286911
4.08,-0.03618645668029785,1.1795469522476196,-5.189385414123535,0.043600380420684814,-4.22203254699707,0.17534959316253662
4.088,0.6343212127685547,1.3235470056533813,-5.116236209869385,-0.04442717880010605,-4.539981842041016,0.2853298485279083
4.096,1.4107316732406616,1.5902849435806274,-4.78664493560791,-0.11109769344329834,-4.87837028503418,0.3810720443725586
4.104,2.181636333465576,1.9592186212539673,-4.248661994934082,-0.13427920639514923,-5.193190097808838,0.44165948033332825
4.112,2.843262195587158,2.3587100505828857,-3.619318962097168,-0.10273201763629913,-5.439215183258057,0.4507002830505371
4.12,3.339935064315796,2.677616834640503,-3.0339889526367188,-0.032451048493385315,-5.595388889312744,0.39920422434806824
4.128,3.677827835083008,2.7967755794525146,-2.5848782062530518,0.033822908997535706,-5.680290222167969,0.2932873070240021
4.136,3.9042367935180664,2.639665365219116,-2.2835519313812256,0.05004707723855972,-5.742368221282959,0.15868397057056427
4.144,4.0773468017578125,2.2123658657073975,-2.0701849460601807,-0.0028271060436964035,-5.828312873840332,0.031554579734802246
4.152,4.237255096435547,1.6036059856414795,-1.859234094619751,-0.10509108006954193,-5.9556732177734375,-0.05577077344059944
4.16,4.391732692718506,0.9411693811416626,-1.5893886089324951,-0.21532085537910461,-6.110330581665039,-0.08640897274017334
4.168,4.523386478424072,0.3382573425769806,-1.2543450593948364,-0.2954742908477783,-6.261944770812988,-0.07226540148258209
4.176,4.614130020141602,-0.1496128886938095,-0.90082848072052,-0.31782102584838867,-6.3806867599487305,-0.05063217878341675
4.184,4.657660484313965,-0.5303597450256348,-0.5922029614448547,-0.264657586812973,-6.449110984802246,-0.05294138193130493
4.192,4.658260822296143,-0.8364797234535217,-0.3687158524990082,-0.1371641606092453,-6.467911720275879,-0.08176203072071075
4.2,4.6247358322143555,-1.0698599815368652,-0.22290290892124176,0.039713695645332336,-6.453797817230225,-0.11521772295236588
4.208,4.554561614990234,-1.1829657554626465,-0.09188570827245712,0.22452986240386963,-6.430807113647461,-0.11914454400539398
4.216,4.418212890625,-1.0904879570007324,0.12177764624357224,0.37092888355255127,-6.418893337249756,-0.06498781591653824
4.224,4.155670166015625,-0.7044175863265991,0.5060295462608337,0.44443273544311523,-6.424648284912109,0.045315779745578766
4.232,3.699341297149658,0.02456168830394745,1.103650689125061,0.44104456901550293,-6.43740177154541,0.1787552386522293
4.24,3.0020499229431152,1.061985969543457,1.8958252668380737,0.3871833384037018,-6.431087970733643,0.29775357246398926
4.248,2.0552070140838623,2.2758686542510986,2.8092117309570312,0.31969955563545227,-6.373108386993408,0.36629995703697205
4.256,0.8971883058547974,3.4663379192352295,3.743596076965332,0.27014774084091187,-6.238094806671143,0.3404698669910431
4.264,-0.3966226577758789,4.423425674438477,4.597184658050537,0.26003384590148926,-6.017362594604492,0.19073942303657532
4.272,-1.7343766689300537,4.993239402770996,5.277281284332275,0.29942160844802856,-5.71574592590332,-0.062566377222538
4.28,-3.0146899223327637,5.119739055633545,5.694315433502197,0.3905635178089142,-5.338496208190918,-0.35201284289360046
4.288,-4.117912769317627,4.836780071258545,5.758952617645264,0.5355356335639954,-4.8815741539001465,-0.6009401082992554
4.296,-4.918368339538574,4.22230863571167,5.394482612609863,0.7352190613746643,-4.339333534240723,-0.7580370903015137
4.304,-5.318243026733398,3.366058588027954,4.562751770019531,0.9763695597648621,-3.7267608642578125,-0.8095148205757141
4.312,-5.276708126068115,2.3592700958251953,3.28836989402771,1.2230195999145508,-3.092799186706543,-0.772239625453949
4.32,-4.824235916137695,1.2837778329849243,1.6622053384780884,1.4271739721298218,-2.5032172203063965,-0.6757617592811584
4.328,-4.045919418334961,0.20424018800258636,-0.17824062705039978,1.5548017024993896,-2.0046591758728027,-0.5470857620239258
4.336,-3.052980661392212,-0.833616316318512,-2.076676368713379,1.6013338565826416,-1.6074692010879517,-0.4059492349624634
4.344,-1.9584802389144897,-1.788896083831787,-3.875966787338257,1.574183702468872,-1.3032848834991455,-0.2648288905620575
4.352,-0.863304853439331,-2.6147096157073975,-5.427598476409912,1.4644355773925781,-1.090592622756958,-0.13234402239322662
4.36,0.14594578742980957,-3.2581632137298584,-6.602454662322998,1.2501072883605957,-0.9762569665908813,-0.018745120614767075
4.368,1.0013134479522705,-3.6723053455352783,-7.309049606323242,0.9299715161323547,-0.9570615291595459,0.06572363525629044
4.376,1.6611571311950684,-3.835827589035034,-7.515134334564209,0.5439002513885498,-1.010792851448059,0.11760635673999786
4.384,2.1053311824798584,-3.7612226009368896,-7.25504732131958,0.15472300350666046,-1.1076992750167847,0.14088532328605652
4.392,2.3235111236572266,-3.488900899887085,-6.6166510581970215,-0.1850116103887558,-1.2249691486358643,0.14123599231243134
4.4,2.310793876647949,-3.0779244899749756,-5.714799880981445,-0.4483419954776764,-1.3495733737945557,0.12107674777507782
4.408,2.0750632286071777,-2.598381757736206,-4.670818328857422,-0.6285766363143921,-1.4724650382995605,0.07956692576408386
4.416,1.6441742181777954,-2.1170265674591064,-3.597158193588257,-0.7305335998535156,-1.5813095569610596,0.01726018451154232
4.424,1.0753343105316162,-1.684461236000061,-2.588486909866333,-0.767397403717041,-1.6583927869796753,-0.06035037711262703
4.432,0.4527454376220703,-1.3263391256332397,-1.7166496515274048,-0.7577239274978638,-1.6856749057769775,-0.14390741288661957
4.44,-0.12434300780296326,-1.040543794631958,-1.0314079523086548,-0.7194662094116211,-1.6512700319290161,-0.22221119701862335
4.448,-0.5630743503570557,-0.798493504524231,-0.5597801804542542,-0.666774570941925,-1.5539095401763916,-0.28498440980911255
4.456,-0.8036541938781738,-0.5536909103393555,-0.3034461736679077,-0.6124328970909119,-1.4064092636108398,-0.3288782835006714
4.464,-0.8350809812545776,-0.25987717509269714,-0.23953258991241455,-0.569105863571167,-1.2347456216812134,-0.3609468936920166
4.472,-0.6936360597610474,0.1056089848279953,-0.32742613554000854,-0.5420641303062439,-1.0689480304718018,-0.3934820890426636
4.48,-0.43996262550354004,0.5260363221168518,-0.5232844352722168,-0.5200044512748718,-0.9287453293800354,-0.43411925435066223
4.488,-0.12618032097816467,0.9456453919410706,-0.7946059703826904,-0.47945618629455566,-0.8150181174278259,-0.4794485867023468
4.496,0.22812315821647644,1.288071632385254,-1.125421166419983,-0.40184032917022705,-0.7157313227653503,-0.5171964764595032
4.504,0.6392645835876465,1.4828146696090698,-1.51236093044281,-0.28575700521469116,-0.6195988059043884,-0.5357892513275146
4.512,1.1404558420181274,1.4952181577682495,-1.9497004747390747,-0.14626844227313995,-0.5233820676803589,-0.532168447971344
4.52,1.7625184059143066,1.3422820568084717,-2.417987585067749,-0.008516296744346619,-0.43042513728141785,-0.5086032748222351
4.528,2.5085463523864746,1.0937801599502563,-2.8755810260772705,0.0975295752286911,-0.3499810993671417,-0.4655696451663971
4.536,3.3363451957702637,0.8528247475624084,-3.2532315254211426,0.14455348253250122,-0.3008429706096649,-0.40367013216018677
4.544,4.164563179016113,0.7161287069320679,-3.4697890281677246,0.12080702185630798,-0.3095068335533142,-0.32945725321769714
4.552,4.905895233154297,0.7287123799324036,-3.4603002071380615,0.041517943143844604,-0.39482295513153076,-0.2518084645271301
4.56,5.509341716766357,0.8646625280380249,-3.2031025886535645,-0.05076916515827179,-0.5453096032142639,-0.17178785800933838
4.568,5.9934401512146,1.0395435094833374,-2.7298619747161865,-0.10336033999919891,-0.71416836977005,-0.0819692388176918
4.576,6.439792633056641,1.1495336294174194,-2.113334894180298,-0.08283425867557526,-0.8467731475830078,0.021624650806188583
4.584,6.947144031524658,1.1242202520370483,-1.430789828300476,0.005492880940437317,-0.9142824411392212,0.13145962357521057
4.592,7.571654796600342,0.96633380651474,-0.7257746458053589,0.11955204606056213,-0.9271836280822754,0.23338811099529266
4.6,8.28980541229248,0.7470535039901733,0.008102983236312866,0.19957323372364044,-0.9308888912200928,0.31537458300590515
4.608,9.010601997375488,0.5574773550033569,0.8082552552223206,0.2042882740497589,-0.98267662525177,0.37074917554855347
4.616,9.627875328063965,0.44816914200782776,1.7067265510559082,0.1482573300600052,-1.112290382385254,0.3971768319606781
4.624,10.081046104431152,0.40254732966423035,2.6987905502319336,0.09776313602924347,-1.2984442710876465,0.4002259075641632
4.632,10.392486572265625,0.3505692481994629,3.737149715423584,0.11740058660507202,-1.487918496131897,0.39732998609542847
4.64,10.658020973205566,0.21701772511005402,4.753141403198242,0.22268618643283844,-1.6367393732070923,0.40494412183761597
4.648,10.991790771484375,-0.025027651339769363,5.701138496398926,0.37909263372421265,-1.736971139907837,0.4185960590839386
4.656,11.457986831665039,-0.3346513509750366,6.587858200073242,0.5277988910675049,-1.820867657661438,0.4110410213470459
4.664,12.035841941833496,-0.6276525259017944,7.4688873291015625,0.6150021553039551,-1.9484745264053345,0.3499605357646942
4.672,12.631007194519043,-0.8229745626449585,8.419726371765137,0.6211609840393066,-2.1785542964935303,0.2172742486000061
4.68,13.117316246032715,-0.8772652745246887,9.502908706665039,0.5735222101211548,-2.5342490673065186,0.01670914515852928
4.688,13.376504898071289,-0.8044617176055908,10.74946117401123,0.5230709314346313,-2.9930427074432373,-0.23314280807971954
4.696,13.31798267364502,-0.6727305054664612,12.155040740966797,0.5055679678916931,-3.517066478729248,-0.514061689376831
4.704,12.875088691711426,-0.57817542552948,13.691452026367188,0.5310146808624268,-4.088112831115723,-0.8170120120048523
4.712,11.989278793334961,-0.6249395608901978,15.319183349609375,0.6048135161399841,-4.706146717071533,-1.137014627456665
4.72,10.60407543182373,-0.908111035823822,16.98059844970703,0.7390354871749878,-5.371079921722412,-1.463578701019287
4.728,8.66493034362793,-1.5002195835113525,18.590625762939453,0.9396752119064331,-6.077699661254883,-1.77618408203125
4.736,6.1549601554870605,-2.4167370796203613,20.030038833618164,1.1949148178100586,-6.815852165222168,-2.0451061725616455
4.744,3.0896644592285156,-3.615706205368042,21.161945343017578,1.4757604598999023,-7.567415714263916,-2.2369651794433594
4.752,-0.44275951385498047,-4.9758687019348145,21.835220336914062,1.7421382665634155,-8.310152053833008,-2.325035333633423
4.76,-4.284091949462891,-6.335163593292236,21.939289093017578,1.947304606437683,-9.02916145324707,-2.2987539768218994
4.768,-8.226133346557617,-7.50060510635376,21.433168411254883,2.0327415466308594,-9.719420433044434,-2.1721513271331787
4.776,-12.03318977355957,-8.283565521240234,20.36763572692871,1.9299899339675903,-10.368189811706543,-2.000089645385742
4.784,-15.482404708862305,-8.555066108703613,18.893341064453125,1.6072065830230713,-10.934696197509766,-1.867475152015686
4.792,-18.41410255432129,-8.281774520874023,17.2365779876709,1.1165703535079956,-11.357466697692871,-1.8384021520614624
4.8,-20.791419982910156,-7.532715797424316,15.616541862487793,0.5712866187095642,-11.597906112670898,-1.9082605838775635
4.808,-22.693065643310547,-6.4381303787231445,14.165505409240723,0.06329846382141113,-11.697920799255371,-2.0316812992095947
4.816,-24.25273895263672,-5.126627445220947,12.892849922180176,-0.3714756369590759,-11.752447128295898,-2.190329074859619
4.824,-25.583118438720703,-3.6927998065948486,11.706254959106445,-0.7191712260246277,-11.810324668884277,-2.3822765350341797
4.832,-26.724655151367188,-2.2093286514282227,10.471516609191895,-0.9684898257255554,-11.857584953308105,-2.5798115730285645
4.84,-27.651700973510742,-0.7663946151733398,9.059121131896973,-1.123129963874817,-11.881590843200684,-2.731388568878174
4.848,-28.290203094482422,0.5256768465042114,7.393134117126465,-1.200034260749817,-11.890166282653809,-2.7880923748016357
4.856,-28.579212188720703,1.5550004243850708,5.445619583129883,-1.2087466716766357,-11.882567405700684,-2.7432987689971924
4.864,-28.46673583984375,2.269227981567383,3.2534172534942627,-1.1582350730895996,-11.844688415527344,-2.639235496520996
4.872,-27.941974639892578,2.6760051250457764,0.9101584553718567,-1.0725915431976318,-11.766823768615723,-2.5332283973693848
4.88,-27.035663604736328,2.835890293121338,-1.4656254053115845,-0.9757787585258484,-11.64698314666748,-2.4604530334472656
4.888,-25.80170440673828,2.8333139419555664,-3.7604892253875732,-0.8779765963554382,-11.489206314086914,-2.424078941345215
4.896,-24.301170349121094,2.742269277572632,-5.886066913604736,-0.7793842554092407,-11.302441596984863,-2.4093000888824463
4.904,-22.600738525390625,2.6150689125061035,-7.777071952819824,-0.678497850894928,-11.097550392150879,-2.400566339492798
4.912,-20.758543014526367,2.480672836303711,-9.399714469909668,-0.5766124725341797,-10.884284973144531,-2.3859143257141113
4.92,-18.820598602294922,2.3500754833221436,-10.744305610656738,-0.47832226753234863,-10.67049789428711,-2.3564531803131104
4.928,-16.822093963623047,2.2235054969787598,-11.813674926757812,-0.3879070281982422,-10.46187686920166,-2.3100178241729736
4.936,-14.7914457321167,2.097254991531372,-12.618754386901855,-0.306157648563385,-10.261378288269043,-2.2507688999176025
4.944,-12.755077362060547,1.9659796953201294,-13.172574996948242,-0.23290449380874634,-10.068501472473145,-2.1827809810638428
4.952,-10.742483139038086,1.8212288618087769,-13.486719131469727,-0.16934967041015625,-9.878540992736816,-2.1079342365264893
4.96,-8.787147521972656,1.6493518352508545,-13.573674201965332,-0.11636048555374146,-9.684235572814941,-2.0278592109680176
4.968,-6.924040794372559,1.4358515739440918,-13.449225425720215,-0.07314515113830566,-9.479668617248535,-1.9438778162002563
4.976,-5.185893535614014,1.1713947057724,-13.135660171508789,-0.03705543279647827,-9.26294231414795,-1.8563891649246216
4.984,-3.59647798538208,0.8570806980133057,-12.665008544921875,-0.002554595470428467,-9.036266326904297,-1.7670756578445435
4.992,-2.165360450744629,0.5068227052688599,-12.074207305908203,0.03792881965637207,-8.804500579833984,-1.6801215410232544
5.0,-0.8900151252746582,0.14833644032478333,-11.400625228881836,0.09035277366638184,-8.572236061096191,-1.6002188920974731
5.008,0.23948287963867188,-0.18180373311042786,-10.674674987792969,0.15743929147720337,-8.34072494506836,-1.5309345722198486
5.016,1.234055519104004,-0.44615182280540466,-9.920766830444336,0.23930221796035767,-8.107136726379395,-1.4742825031280518
5.024,2.101186990737915,-0.6118364930152893,-9.154703140258789,0.3335546851158142,-7.8671441078186035,-1.4301012754440308
5.032,2.84311842918396,-0.6562462449073792,-8.388056755065918,0.4351302981376648,-7.617469787597656,-1.3961725234985352
5.04,3.458430051803589,-0.573123037815094,-7.62758731842041,0.5362865924835205,-7.355255603790283,-1.369733214378357
5.048,3.945704936981201,-0.3764829933643341,-6.878152370452881,0.6270930171012878,-7.077263355255127,-1.3482621908187866
5.056,4.305638313293457,-0.0978507474064827,-6.143793106079102,0.6970332860946655,-6.781630992889404,-1.3288867473602295
5.064,4.543046474456787,0.2213221937417984,-5.427976131439209,0.7385269999504089,-6.469814777374268,-1.3083466291427612
5.072,4.670438289642334,0.5397627353668213,-4.735702037811279,0.7500603795051575,-6.14628791809082,-1.2839876413345337
5.08,4.706944465637207,0.8238376379013062,-4.073505878448486,0.7349700927734375,-5.817397594451904,-1.2543195486068726
5.088,4.674916744232178,1.0524619817733765,-3.4452476501464844,0.6973539590835571,-5.489806175231934,-1.2192087173461914
5.096,4.593067169189453,1.216437816619873,-2.8544604778289795,0.640617311000824,-5.166992664337158,-1.1798995733261108
5.104,4.4748616218566895,1.3128933906555176,-2.305101156234741,0.5677425265312195,-4.84685754776001,-1.1376570463180542
5.112,4.328068733215332,1.3399044275283813,-1.8039543628692627,0.48005834221839905,-4.524767875671387,-1.0913394689559937
5.12,4.159560203552246,1.2944332361221313,-1.3564403057098389,0.3759651184082031,-4.199273109436035,-1.0368374586105347
5.128,3.9810714721679688,1.1769587993621826,-0.9649403095245361,0.25435715913772583,-3.874886989593506,-0.969274640083313
5.136,3.809047222137451,0.9986979961395264,-0.6262054443359375,0.1220998466014862,-3.559330701828003,-0.8851298689842224
5.144,3.656956195831299,0.784013569355011,-0.33316388726234436,-0.005723148584365845,-3.257852077484131,-0.7831608057022095
5.152,3.5306930541992188,0.5657498836517334,-0.08095388859510422,-0.11571452021598816,-2.9700863361358643,-0.6655502319335938
5.16,3.424921751022339,0.37676218152046204,0.12811867892742157,-0.20273517072200775,-2.69171404838562,-0.5380033850669861
5.168,3.327573299407959,0.24062708020210266,0.28613319993019104,-0.2674208879470825,-2.418954849243164,-0.4081317186355591
5.176,3.2223310470581055,0.16723230481147766,0.38477566838264465,-0.312623530626297,-2.1518959999084473,-0.2847251296043396
5.184,3.0950236320495605,0.1554277390241623,0.41938427090644836,-0.3432541787624359,-1.8939379453659058,-0.17768993973731995
5.192,2.937819480895996,0.19535334408283234,0.3913096487522125,-0.3645838499069214,-1.649765968322754,-0.09533409774303436
5.2,2.752035617828369,0.27098068594932556,0.3107750713825226,-0.37842434644699097,-1.4248263835906982,-0.04023032635450363
5.208,2.5478034019470215,0.3651007115840912,0.19592837989330292,-0.3841326832771301,-1.225380778312683,-0.009425756521522999
5.216,2.340538501739502,0.4621542692184448,0.06730788201093674,-0.3834243416786194,-1.0564666986465454,0.0013067058753222227
5.224,2.1457087993621826,0.5492323637008667,-0.05681496113538742,-0.3801623582839966,-0.9186185598373413,-0.004132380243390799
5.232,1.9725849628448486,0.6227158308029175,-0.16112570464611053,-0.3758959472179413,-0.8080167770385742,-0.02046438306570053
5.24,1.820344090461731,0.6905983686447144,-0.23833563923835754,-0.3684217929840088,-0.7196465730667114,-0.04053470119833946
5.248,1.6783502101898193,0.7688130736351013,-0.28889837861061096,-0.3543437719345093,-0.6486436128616333,-0.05698921158909798
5.256,1.5301885604858398,0.871818482875824,-0.3164925277233124,-0.33395838737487793,-0.59087073802948,-0.06494411081075668
5.264,1.3634116649627686,0.9988136291503906,-0.3241041302680969,-0.31501442193984985,-0.5470908880233765,-0.06422623246908188
5.272,1.1744120121002197,1.129023551940918,-0.31399744749069214,-0.30807143449783325,-0.5250260233879089,-0.059556376188993454
5.28,0.969684898853302,1.2274856567382812,-0.2908138930797577,-0.3181501626968384,-0.5312753319740295,-0.05770358815789223
5.288,0.7583665251731873,1.26165771484375,-0.2630029022693634,-0.3428994417190552,-0.5631402134895325,-0.06204632669687271
5.296,0.5455440282821655,1.2219438552856445,-0.24260076880455017,-0.3728395402431488,-0.6133581399917603,-0.06747165322303772
5.304,0.33423835039138794,1.1320525407791138,-0.2434280514717102,-0.3927985429763794,-0.6805589199066162,-0.06103891879320145
5.312,0.12568384408950806,1.039460301399231,-0.2792762517929077,-0.39161166548728943,-0.7720568180084229,-0.029354678466916084
5.32,-0.07718341052532196,0.9969750642776489,-0.3595777750015259,-0.3716185688972473,-0.8974601030349731,0.03419582173228264
5.328,-0.2720606327056885,1.0465813875198364,-0.4959350824356079,-0.3476967215538025,-1.0617555379867554,0.1273667961359024
5.336,-0.4588485360145569,1.2030431032180786,-0.70586758852005,-0.33779269456863403,-1.2644405364990234,0.24069693684577942
5.344,-0.6530846953392029,1.4619876146316528,-1.0104881525039673,-0.3527229130268097,-1.5031787157058716,0.36022740602493286
5.352,-0.8593693971633911,1.795269250869751,-1.4153618812561035,-0.39509984850883484,-1.7767137289047241,0.46702679991722107
5.36,-1.0738725662231445,2.1579744815826416,-1.9248096942901611,-0.46381592750549316,-2.085155487060547,0.5363368988037109
5.368,-1.2791450023651123,2.4835376739501953,-2.538792371749878,-0.5567191243171692,-2.4277350902557373,0.5464339256286621
5.376,-1.4426991939544678,2.6897974014282227,-3.2385690212249756,-0.6731898188591003,-2.8009166717529297,0.48818448185920715
5.384,-1.5130971670150757,2.706801414489746,-3.9853317737579346,-0.8113236427307129,-3.2026522159576416,0.3623664081096649
5.392,-1.4398337602615356,2.497756004333496,-4.729004859924316,-0.9431540966033936,-3.6362712383270264,0.1669939011335373
5.4,-1.196866750717163,2.0675647258758545,-5.425418853759766,-1.017089605331421,-4.092933177947998,-0.0947154238820076
5.408,-0.7975914478302002,1.4716230630874634,-6.036560535430908,-1.0089010000228882,-4.536561489105225,-0.4015437960624695
5.416,-0.28534960746765137,0.8196702599525452,-6.52371883392334,-0.9341755509376526,-4.938127517700195,-0.7262774109840393
5.424,0.28343796730041504,0.2586473226547241,-6.839386940002441,-0.8065496683120728,-5.314913272857666,-1.0340209007263184
5.432,0.8569018840789795,-0.06918403506278992,-6.925706386566162,-0.6231427192687988,-5.704137325286865,-1.2819198369979858
5.44,1.3941049575805664,-0.07688212394714355,-6.736299514770508,-0.3915727138519287,-6.110141754150391,-1.4585700035095215
5.448,1.8682339191436768,0.22331742942333221,-6.255566596984863,-0.14300066232681274,-6.499326705932617,-1.5993226766586304
5.456,2.2502808570861816,0.7291845083236694,-5.521184921264648,0.09070372581481934,-6.833479881286621,-1.746181845664978
5.464,2.5093135833740234,1.2863783836364746,-4.58856725692749,0.2932282090187073,-7.089723587036133,-1.9140671491622925
5.472,2.6167120933532715,1.75736403465271,-3.528747797012329,0.4620078206062317,-7.2582316398620605,-2.0952908992767334
5.48,2.5551681518554688,2.056281805038452,-2.4249751567840576,0.6025509834289551,-7.33516263961792,-2.272618055343628
5.488,2.315964937210083,2.143808364868164,-1.3605607748031616,0.7213611006736755,-7.320101261138916,-2.427217721939087
5.496,1.9063904285430908,2.020937919616699,-0.40645360946655273,0.8210178017616272,-7.217685222625732,-2.547888994216919
5.504,1.3498038053512573,1.7231894731521606,0.3846474289894104,0.9019937515258789,-7.037508487701416,-2.6334431171417236
5.512,0.6803480386734009,1.3078118562698364,0.9800024032592773,0.9660753607749939,-6.791501998901367,-2.6804990768432617
5.52,-0.060208022594451904,0.8440811634063721,1.3694162368774414,1.0147780179977417,-6.492214202880859,-2.675481081008911
5.528,-0.8228039741516113,0.40084388852119446,1.5678565502166748,1.0448336601257324,-6.152080535888672,-2.6088931560516357
5.536,-1.5604288578033447,0.031939778476953506,1.614048957824707,1.0481433868408203,-5.783224105834961,-2.4896790981292725
5.544,-2.235413074493408,-0.23068495094776154,1.5684071779251099,1.0164413452148438,-5.397942543029785,-2.3365228176116943
5.552,-2.827991008758545,-0.3749310076236725,1.4972689151763916,0.9456952810287476,-5.007646560668945,-2.1651604175567627
5.56,-3.33273983001709,-0.4054018557071686,1.4526625871658325,0.8404752016067505,-4.618545055389404,-1.9880880117416382
5.568,-3.7497777938842773,-0.34681186079978943,1.4610497951507568,0.7173368334770203,-4.22827672958374,-1.8167210817337036
5.576,-4.081905841827393,-0.24183325469493866,1.5176403522491455,0.6011179685592651,-3.829552412033081,-1.6608318090438843
5.584,-4.330057144165039,-0.14050912857055664,1.5937103033065796,0.5132033228874207,-3.4193146228790283,-1.5246728658676147
5.592,-4.492081165313721,-0.08239982277154922,1.6568231582641602,0.4612289071083069,-3.0051021575927734,-1.4024263620376587
5.6,-4.5670976638793945,-0.08882948756217957,1.6868013143539429,0.43996191024780273,-2.6030259132385254,-1.2829031944274902
5.608,-4.560489654541016,-0.1642136424779892,1.6794545650482178,0.4403107166290283,-2.2307584285736084,-1.1585791110992432
5.616,-4.479973793029785,-0.2997269630432129,1.6399877071380615,0.45738157629966736,-1.9007912874221802,-1.0265066623687744
5.624,-4.334539890289307,-0.4799371361732483,1.575424313545227,0.4924021363258362,-1.6158825159072876,-0.8843300938606262
5.632,-4.1312456130981445,-0.6899629235267639,1.488988995552063,0.5468035936355591,-1.3715269565582275,-0.7300669550895691
5.64,-3.8726863861083984,-0.920630156993866,1.381684422492981,0.6159735321998596,-1.1633191108703613,-0.5650038123130798
5.648,-3.563053607940674,-1.1682841777801514,1.2537963390350342,0.6908021569252014,-0.9892905950546265,-0.39484846591949463
5.656,-3.2098605632781982,-1.4319055080413818,1.110641360282898,0.7630962133407593,-0.8473273515701294,-0.22759868204593658
5.664,-2.8305888175964355,-1.7047117948532104,0.9607458710670471,0.827372670173645,-0.7339348793029785,-0.0702643096446991
5.672,-2.449821949005127,-1.9678268432617188,0.8189589381217957,0.8789767026901245,-0.6456805467605591,0.0710633248090744
5.68,-2.0978474617004395,-2.1903438568115234,0.7065731287002563,0.9127391576766968,-0.581173300743103,0.19001860916614532
5.688,-1.8031634092330933,-2.3367085456848145,0.6502700448036194,0.9236917495727539,-0.5413649082183838,0.2847376763820648
5.696,-1.5828841924667358,-2.377737045288086,0.6719973087310791,0.9099928736686707,-0.5259519815444946,0.3621930480003357
5.704,-1.435978651046753,-2.305065631866455,0.7790002822875977,0.877356767654419,-0.5276032090187073,0.43257272243499756
5.712,-1.3439123630523682,-2.143932342529297,0.9560431838035583,0.8398925065994263,-0.5310611128807068,0.49917447566986084
5.72,-1.2840195894241333,-1.9523792266845703,1.1664409637451172,0.8153045773506165,-0.5192614197731018,0.5524284839630127
5.728,-1.2433395385742188,-1.7938623428344727,1.3648395538330078,0.8169248700141907,-0.48167604207992554,0.5742189288139343
5.736,-1.2233325242996216,-1.7026395797729492,1.5144864320755005,0.8464922904968262,-0.4200113117694855,0.5531354546546936
5.744,-1.2367247343063354,-1.668858528137207,1.5970478057861328,0.8947036266326904,-0.3467046022415161,0.4962097704410553
5.752,-1.2944791316986084,-1.6562280654907227,1.6098095178604126,0.9515758752822876,-0.27497830986976624,0.4226216673851013
5.76,-1.400946855545044,-1.6300544738769531,1.5551131963729858,1.0146843194961548,-0.20956610143184662,0.3467549681663513
5.768,-1.551169753074646,-1.5763540267944336,1.434675931930542,1.0845777988433838,-0.14856193959712982,0.2732335031032562
5.776,-1.7321112155914307,-1.4986752271652222,1.2489228248596191,1.15415620803833,-0.09226413816213608,0.20860956609249115
5.784,-1.9257210493087769,-1.4023102521896362,1.0072351694107056,1.2058112621307373,-0.047316938638687134,0.16853982210159302
5.792,-2.113673448562622,-1.2826536893844604,0.7327948808670044,1.2197436094284058,-0.022888803854584694,0.16886836290359497
5.8,-2.2798256874084473,-1.130217432975769,0.4619874656200409,1.1849734783172607,-0.02456100843846798,0.21400174498558044
5.808,-2.416679620742798,-0.9379233121871948,0.23432087898254395,1.103135347366333,-0.05141402408480644,0.29649001359939575
5.816,-2.5276553630828857,-0.7007015347480774,0.0837877169251442,0.9852010011672974,-0.09669214487075806,0.4035913050174713
5.824,-2.6247353553771973,-0.41453537344932556,0.03281969949603081,0.8462940454483032,-0.14999952912330627,0.5202081203460693
5.832,-2.728393077850342,-0.07239034026861191,0.0887225791811943,0.7005020976066589,-0.20061692595481873,0.6289399862289429
5.84,-2.8629627227783203,0.3397705852985382,0.24790064990520477,0.5575595498085022,-0.24171827733516693,0.7139924764633179
5.848,-3.0502967834472656,0.8424028754234314,0.499479740858078,0.4240294396877289,-0.2715143859386444,0.7681176066398621
5.856,-3.302180290222168,1.450310230255127,0.8241186738014221,0.3075770139694214,-0.2900402843952179,0.7956051230430603
5.864,-3.611764907836914,2.1557681560516357,1.1915861368179321,0.21998900175094604,-0.2951344847679138,0.8081020712852478
5.872,-3.9540905952453613,2.918843984603882,1.5594810247421265,0.1747303009033203,-0.2803853750228882,0.8162634968757629
5.88,-4.292201042175293,3.6747522354125977,1.8798887729644775,0.17863062024116516,-0.23806259036064148,0.8247987627983093
5.888,-4.587181091308594,4.356853485107422,2.111649990081787,0.22483506798744202,-0.16658367216587067,0.8346920013427734
5.896,-4.8072309494018555,4.920915603637695,2.232276201248169,0.2949775755405426,-0.074892058968544,0.8478149175643921
5.904,-4.934067726135254,5.356839179992676,2.2409000396728516,0.3679546117782593,0.02073593996465206,0.8681555390357971
5.912,-4.964102745056152,5.682506561279297,2.156446695327759,0.42770805954933167,0.10389065742492676,0.8985596895217896
5.92,-4.903026580810547,5.927430152893066,2.0093958377838135,0.4670029580593109,0.1630527675151825,0.9373509883880615
5.928,-4.762971878051758,6.116583347320557,1.8305323123931885,0.487271249294281,0.1931084841489792,0.978804349899292
5.936,-4.5571208000183105,6.260420322418213,1.6444942951202393,0.49516141414642334,0.19520370662212372,1.0160962343215942
5.944,-4.295990943908691,6.353064060211182,1.4670730829238892,0.49746692180633545,0.17509643733501434,1.043440341949463
5.952,-3.9872007369995117,6.374943256378174,1.3081222772598267,0.4965410828590393,0.13923592865467072,1.055944561958313
5.96,-3.63712739944458,6.2954487800598145,1.1771137714385986,0.490631103515625,0.09141528606414795,1.047684907913208
5.968,-3.2544586658477783,6.078741550445557,1.082948923110962,0.4791364371776581,0.034459855407476425,1.0101532936096191
5.976,-2.85261869430542,5.693342208862305,1.0329933166503906,0.4655097424983978,-0.02592717483639717,0.9343648552894592
5.984,-2.4498536586761475,5.12354850769043,1.0297939777374268,0.4545016884803772,-0.08190146088600159,0.816576361656189
5.992,-2.065077543258667,4.373804092407227,1.0681700706481934,0.4505346715450287,-0.12656666338443756,0.6618868708610535
6.0,-1.7124581336975098,3.462589979171753,1.1331255435943604,0.460673987865448,-0.1547379046678543,0.4815736413002014
6.008,-1.39774489402771,2.4121813774108887,1.1972661018371582,0.4955444931983948,-0.16159316897392273,0.2875828444957733
6.016,-1.1175616979599,1.2408174276351929,1.223680853843689,0.5634723901748657,-0.14197058975696564,0.08992210030555725
6.024,-0.8670300245285034,-0.03551466390490532,1.173965573310852,0.6635240316390991,-0.09391508996486664,-0.10285766422748566
6.032,-0.6412003040313721,-1.387582778930664,1.0221214294433594,0.7847616672515869,-0.023713471367955208,-0.28162819147109985
6.04,-0.44092899560928345,-2.7628390789031982,0.7629013657569885,0.9106786251068115,0.05416439473628998,-0.43335428833961487
6.048,-0.27019184827804565,-4.083878517150879,0.4157840609550476,1.0237624645233154,0.12232134491205215,-0.5414130687713623
6.056,-0.12794457376003265,-5.264199733734131,0.018299123272299767,1.1089375019073486,0.1667037010192871,-0.5923578143119812
6.064,-0.006448864936828613,-6.232335090637207,-0.38898882269859314,1.156768560409546,0.18104062974452972,-0.5834424495697021
6.072,0.10716509819030762,-6.950755596160889,-0.7763311266899109,1.1653732061386108,0.1686435043811798,-0.5261589288711548
6.08,0.22668665647506714,-7.417815208435059,-1.129198670387268,1.1396692991256714,0.13899362087249756,-0.44200822710990906
6.088,0.3614422082901001,-7.656749725341797,-1.4450592994689941,1.0887666940689087,0.0988791435956955,-0.3496934473514557
6.096,0.5152889490127563,-7.699578762054443,-1.7253403663635254,1.0211164951324463,0.04760422557592392,-0.2569752037525177
6.104,0.683073878288269,-7.569353103637695,-1.9673528671264648,0.9419524669647217,-0.018454493954777718,-0.16581130027770996
6.112,0.8537235856056213,-7.2748637199401855,-2.15596342086792,0.854860782623291,-0.10111257433891296,-0.0787375420331955
6.12,1.011765718460083,-6.816568851470947,-2.265622138977051,0.7608550786972046,-0.20296430587768555,0.0023872312158346176
6.128,1.1421172618865967,-6.202886581420898,-2.27101993560791,0.6592042446136475,-0.32841429114341736,0.07662098854780197
6.136,1.2337133884429932,-5.4662885665893555,-2.1590216159820557,0.5557240843772888,-0.47509193420410156,0.13959208130836487
6.144,1.2845051288604736,-4.666187763214111,-1.9403231143951416,0.4666135907173157,-0.6270126700401306,0.18228282034397125
6.152,1.2977675199508667,-3.876230478286743,-1.6551376581192017,0.4093928337097168,-0.7608300447463989,0.1954231858253479
6.16,1.277976393699646,-3.1561925411224365,-1.3577195405960083,0.39099910855293274,-0.8577399253845215,0.17376498878002167
6.168,1.2240699529647827,-2.525113582611084,-1.0949057340621948,0.4042305052280426,-0.9109197854995728,0.11820020526647568
6.176,1.1348358392715454,-1.9605196714401245,-0.8862251043319702,0.4321656823158264,-0.9278087615966797,0.03876490145921707
6.184,1.0107537508010864,-1.4205105304718018,-0.7293373346328735,0.45852041244506836,-0.9232967495918274,-0.04607800394296646
6.192,0.8584886789321899,-0.8780357837677002,-0.6139520406723022,0.477087140083313,-0.9042096734046936,-0.12086275219917297
6.2,0.6865168213844299,-0.3352166414260864,-0.531973659992218,0.48835843801498413,-0.8643322587013245,-0.1845080405473709
6.208,0.4987426698207855,0.1825055480003357,-0.4732591509819031,0.48810380697250366,-0.798886239528656,-0.24770216643810272
6.216,0.29159167408943176,0.6465387344360352,-0.4242841303348541,0.4660085439682007,-0.7181617617607117,-0.31849488615989685
6.224,0.056248828768730164,1.0448123216629028,-0.3689660429954529,0.41809582710266113,-0.6395050287246704,-0.3925979435443878
6.232,-0.2157866507768631,1.3902827501296997,-0.2934567332267761,0.3564154803752899,-0.5673360228538513,-0.45934972167015076
6.24,-0.526498556137085,1.7176144123077393,-0.19556941092014313,0.2993609607219696,-0.49198687076568604,-0.5111985802650452
6.248,-0.8723978996276855,2.073845148086548,-0.0832144245505333,0.25297629833221436,-0.40915602445602417,-0.5438979268074036
6.256,-1.2412530183792114,2.5046675205230713,0.03454869985580444,0.20991294085979462,-0.32677850127220154,-0.5540104508399963
6.264,-1.610759973526001,3.03714919090271,0.14577502012252808,0.1653805524110794,-0.25083687901496887,-0.5394130945205688
6.272,-1.948317527770996,3.6637685298919678,0.23310460150241852,0.12455981969833374,-0.17643921077251434,-0.49855855107307434
6.28,-2.224891185760498,4.348531246185303,0.27262601256370544,0.09537898004055023,-0.09377267956733704,-0.4308752119541168
6.288,-2.424497365951538,5.047143459320068,0.25235819816589355,0.07877296209335327,0.000961615121923387,-0.341592937707901
6.296,-2.549471378326416,5.725306987762451,0.18405887484550476,0.06474413722753525,0.09765082597732544,-0.24037910997867584
6.304,-2.617931365966797,6.359367370605469,0.09991030395030975,0.03973405808210373,0.1776377260684967,-0.13482391834259033
6.312,-2.655099391937256,6.925691604614258,0.0354309007525444,0.00022175349295139313,0.23048341274261475,-0.03247304633259773
6.32,-2.68595814704895,7.391950607299805,0.01661352999508381,-0.04322582855820656,0.26151570677757263,0.05485100299119949
6.328,-2.7256922721862793,7.717718124389648,0.05116673931479454,-0.07585468888282776,0.28229591250419617,0.11703367531299591
6.336,-2.779881000518799,7.865543365478516,0.13090620934963226,-0.09025809913873672,0.2988068461418152,0.15404562652111053
6.344,-2.842768430709839,7.810789585113525,0.24093171954154968,-0.08724259585142136,0.31087779998779297,0.17422524094581604
6.352,-2.898634195327759,7.544619083404541,0.3656080365180969,-0.06889332085847855,0.31849586963653564,0.18590207397937775
6.36,-2.9308271408081055,7.0705342292785645,0.4882773160934448,-0.03536447137594223,0.3247098922729492,0.19276420772075653
6.368,-2.926501512527466,6.4018235206604,0.5974087119102478,0.012368418276309967,0.3336438238620758,0.19500958919525146
6.376,-2.8783836364746094,5.561429977416992,0.6873111128807068,0.07101960480213165,0.3478477895259857,0.19169296324253082
6.384,-2.783060073852539,4.576478958129883,0.7547064423561096,0.13736124336719513,0.3679211437702179,0.18171426653862
6.392,-2.6396641731262207,3.4742839336395264,0.7956486344337463,0.20975065231323242,0.39461350440979004,0.1636117696762085
6.4,-2.449432373046875,2.280017375946045,0.8032552599906921,0.28667742013931274,0.4292095899581909,0.1359105259180069
6.408,-2.214462995529175,1.0176271200180054,0.7674430012702942,0.36484992504119873,0.4705180823802948,0.1006494015455246
6.416,-1.9372220039367676,-0.28856736421585083,0.678141713142395,0.4408927261829376,0.5149779915809631,0.06442612409591675
6.424,-1.623290777206421,-1.6120425462722778,0.5292063355445862,0.513593852519989,0.5603264570236206,0.03266575187444687
6.432,-1.2872450351715088,-2.9213314056396484,0.32452863454818726,0.5802042484283447,0.6049302816390991,0.005260539706796408
6.44,-0.9517077803611755,-4.175210475921631,0.08476675301790237,0.632307231426239,0.6440857648849487,-0.02079792134463787
6.448,-0.6449949145317078,-5.320216655731201,-0.15209856629371643,0.6585460901260376,0.6696117520332336,-0.04582489654421806
6.456,-0.3895456790924072,-6.2943115234375,-0.3383687138557434,0.65049147605896,0.6721516251564026,-0.0636078491806984
6.464,-0.19409941136837006,-7.038976192474365,-0.43051469326019287,0.60812908411026,0.6466825008392334,-0.06361542642116547
6.472,-0.049269527196884155,-7.514169216156006,-0.40960758924484253,0.5432261228561401,0.5985437631607056,-0.03750010207295418
6.48,0.06688057631254196,-7.710236072540283,-0.288810670375824,0.4767880439758301,0.5411603450775146,0.017986243590712547
6.488,0.18101051449775696,-7.650920391082764,-0.10836884379386902,0.4306041896343231,0.4888174831867218,0.10005329549312592
6.496,0.31294718384742737,-7.3865966796875,0.08065329492092133,0.417530357837677,0.4527829587459564,0.1956763118505478
6.504,0.46674981713294983,-6.983084678649902,0.23801526427268982,0.436334490776062,0.43805110454559326,0.2826971709728241
6.512,0.6285847425460815,-6.504890441894531,0.3467938303947449,0.4767894744873047,0.4423193633556366,0.33963316679000854
6.52,0.7725151181221008,-6.001007080078125,0.4149705171585083,0.5299246907234192,0.4613338112831116,0.35394448041915894
6.528,0.8730566501617432,-5.499563694000244,0.46725279092788696,0.5898430347442627,0.4922727048397064,0.32465946674346924
6.536,0.9127060174942017,-5.009365081787109,0.530545711517334,0.6480768322944641,0.5307380557060242,0.2623720169067383
6.544,0.8884260654449463,-4.52480936050415,0.6227010488510132,0.6935123205184937,0.5700567960739136,0.18638360500335693
6.552,0.8130168318748474,-4.0337724685668945,0.7493560314178467,0.7192174196243286,0.6051661968231201,0.11950318515300751
6.56,0.7115140557289124,-3.5329055786132812,0.8983715176582336,0.7266713380813599,0.6362578868865967,0.08130629360675812
6.568,0.6097767949104309,-3.032236099243164,1.04698646068573,0.7219717502593994,0.6697521805763245,0.07687994092702866
6.576,0.5184391140937805,-2.5469863414764404,1.17913818359375,0.705009400844574,0.7129532098770142,0.08878012746572495
6.584,0.43251273036003113,-2.0832083225250244,1.2990691661834717,0.6627991199493408,0.7623266577720642,0.09139826893806458
6.592,0.3455039858818054,-1.6286202669143677,1.4279706478118896,0.5811535716056824,0.8008937239646912,0.07962437719106674
6.6,0.2677709460258484,-1.157155990600586,1.5775457620620728,0.466155081987381,0.8167909383773804,0.07788614183664322
6.608,0.22940868139266968,-0.6402243971824646,1.7328087091445923,0.3466871678829193,0.819706916809082,0.12134229391813278
6.616,0.26297450065612793,-0.05434499308466911,1.86466646194458,0.24825063347816467,0.8303598761558533,0.2282087355852127
6.624,0.36991608142852783,0.6339380145072937,1.9690276384353638,0.1639389991760254,0.8559513092041016,0.3845749497413635
6.632,0.5221890211105347,1.4824650287628174,2.08914852142334,0.05961635708808899,0.8797807097434998,0.5554416179656982
6.64,0.6534697413444519,2.536604404449463,2.3109171390533447,-0.08513179421424866,0.8807373046875,0.7079191207885742
6.648,0.7094557285308838,3.822894811630249,2.6938016414642334,-0.2479870617389679,0.8630002737045288,0.8227620124816895
6.656,0.6683443784713745,5.299975872039795,3.225236177444458,-0.38308262825012207,0.861404538154602,0.892632007598877
6.664,0.5387818813323975,6.83739709854126,3.8193957805633545,-0.46230775117874146,0.9198176264762878,0.9082040786743164
6.672,0.33786463737487793,8.234176635742188,4.36296272277832,-0.4785481095314026,1.0537140369415283,0.8479201793670654
6.68,0.07511615753173828,9.285781860351562,4.775781631469727,-0.42270052433013916,1.2172234058380127,0.6894603371620178
6.688,-0.24466419219970703,9.869489669799805,5.036190032958984,-0.3155498504638672,1.3481290340423584,0.44355955719947815
6.696,-0.6069755554199219,9.990792274475098,5.166037559509277,-0.2159389853477478,1.4340852499008179,0.17409436404705048
6.704,-0.975801944732666,9.765242576599121,5.1971330642700195,-0.14732015132904053,1.4942418336868286,-0.04034840315580368
6.712,-1.302037239074707,9.352509498596191,5.144786834716797,-0.08141463994979858,1.5444939136505127,-0.16368485987186432
6.72,-1.5421005487442017,8.885037422180176,5.006068229675293,0.007857747375965118,1.5946365594863892,-0.20902611315250397
6.728,-1.6708898544311523,8.428956031799316,4.7712721824646,0.12038102000951767,1.6442261934280396,-0.20757772028446198
6.736,-1.6889296770095825,7.991669178009033,4.445019721984863,0.23842166364192963,1.6853357553482056,-0.18254418671131134
6.744,-1.597379446029663,7.561050891876221,4.038129806518555,0.3425550162792206,1.7099637985229492,-0.1451723575592041
6.752,-1.4125460386276245,7.094248294830322,3.574937343597412,0.42116641998291016,1.7171504497528076,-0.10159573704004288
6.76,-1.1526598930358887,6.549597263336182,3.0692155361175537,0.47308605909347534,1.7152072191238403,-0.058874938637018204
6.768,-0.8375023007392883,5.889959335327148,2.5201361179351807,0.5036567449569702,1.7178800106048584,-0.027757961302995682
6.776,-0.4879847764968872,5.08681058883667,1.9167732000350952,0.5172845125198364,1.7348493337631226,-0.02040817029774189
6.784,-0.12965500354766846,4.115520000457764,1.2467601299285889,0.512826144695282,1.764695405960083,-0.04338444769382477
6.792,0.21056871116161346,2.9604170322418213,0.5065112709999084,0.48578038811683655,1.7990111112594604,-0.09455890208482742
6.8,0.5093549489974976,1.621665120124817,-0.29360052943229675,0.433611124753952,1.8295941352844238,-0.16655407845973969
6.808,0.7464151978492737,0.1205500140786171,-1.1283752918243408,0.36007159948349,1.8473806381225586,-0.25071635842323303
6.816,0.9089503288269043,-1.4952396154403687,-1.9604122638702393,0.27731090784072876,1.8371617794036865,-0.33795166015625
6.824,0.995035707950592,-3.1501691341400146,-2.744560718536377,0.200175940990448,1.7813494205474854,-0.4172559678554535
6.832,1.0147286653518677,-4.741042137145996,-3.4301059246063232,0.1252347230911255,1.6803796291351318,-0.4739302694797516
6.84,0.9881778955459595,-6.1515092849731445,-3.9647624492645264,0.023549914360046387,1.5576835870742798,-0.49207958579063416
6.848,0.9409971237182617,-7.275010108947754,-4.300624847412109,-0.12420153617858887,1.430333137512207,-0.4658305048942566
6.856,0.8965892791748047,-8.039034843444824,-4.403884410858154,-0.3001379668712616,1.2923942804336548,-0.4066599905490875
6.864,0.8712764978408813,-8.424546241760254,-4.271519660949707,-0.466484010219574,1.1341058015823364,-0.3350042998790741
6.872,0.8719104528427124,-8.470932006835938,-3.9413723945617676,-0.5936416387557983,0.9619249701499939,-0.2696954011917114
6.88,0.8958001136779785,-8.269173622131348,-3.4940261840820312,-0.6728625893592834,0.7964919209480286,-0.22385269403457642
6.888,0.9344138503074646,-7.9375081062316895,-3.0352790355682373,-0.7110797762870789,0.658577024936676,-0.2039649486541748
6.896,0.9716855883598328,-7.590610980987549,-2.659743309020996,-0.7208706736564636,0.5605865120887756,-0.21198223531246185
6.904,0.9907428026199341,-7.303310394287109,-2.4150807857513428,-0.7201452851295471,0.5021403431892395,-0.24618898332118988
6.912,0.9785690903663635,-7.083071708679199,-2.279615879058838,-0.7319327592849731,0.4670599400997162,-0.2991989850997925
6.92,0.9263572096824646,-6.86715841293335,-2.170023202896118,-0.7740582823753357,0.43050041794776917,-0.35870063304901123
6.928,0.8334225416183472,-6.545360565185547,-1.973303198814392,-0.8472058773040771,0.3752654492855072,-0.413089394569397
6.936,0.7145580053329468,-6.01092004776001,-1.5990267992019653,-0.9358509182929993,0.29974088072776794,-0.45476704835891724
6.944,0.5893226861953735,-5.207272052764893,-1.0201650857925415,-1.020430564880371,0.21158085763454437,-0.4767549932003021
6.952,0.4796101450920105,-4.1535115242004395,-0.27953535318374634,-1.0862147808074951,0.12398037314414978,-0.4737182855606079
6.96,0.40985050797462463,-2.942192792892456,0.5256410241127014,-1.1237608194351196,0.059505756944417953,-0.44988030195236206
6.968,0.39075765013694763,-1.7087393999099731,1.2751727104187012,-1.1311795711517334,0.043049540370702744,-0.42046114802360535
6.976,0.4150487184524536,-0.5827884078025818,1.871633529663086,-1.1177101135253906,0.08585700392723083,-0.4051018953323364
6.984,0.4678742289543152,0.3566820025444031,2.270429849624634,-1.099535346031189,0.1788855791091919,-0.4215179979801178
6.992,0.5308169722557068,1.0956642627716064,2.4738616943359375,-1.088690996170044,0.29674020409584045,-0.4747962951660156
7.0,0.5892372727394104,1.6728891134262085,2.5120303630828857,-1.0811965465545654,0.411676287651062,-0.5474201440811157
7.008,0.6405619382858276,2.1447176933288574,2.4280428886413574,-1.0597695112228394,0.5143159627914429,-0.6174354553222656
7.016,0.6811203360557556,2.542445659637451,2.259918451309204,-1.0168381929397583,0.6127291321754456,-0.6850929856300354
7.024,0.692764401435852,2.8683362007141113,2.0577828884124756,-0.9683933854103088,0.7081003785133362,-0.7637665271759033
7.032,0.6547351479530334,3.1237263679504395,1.8977633714675903,-0.9390237331390381,0.7871365547180176,-0.8596193194389343
7.04,0.5581669807434082,3.3366429805755615,1.866050124168396,-0.9389605522155762,0.8326709270477295,-0.965319812297821
7.048,0.41482412815093994,3.556731939315796,2.010591983795166,-0.9508011341094971,0.8322588205337524,-1.0569113492965698
7.056,0.24736285209655762,3.8332669734954834,2.3034961223602295,-0.9277164340019226,0.7951613664627075,-1.1133828163146973
7.064,0.07731807231903076,4.201725482940674,2.6490235328674316,-0.8182841539382935,0.7548831105232239,-1.1399993896484375
7.072,-0.07002627849578857,4.673744201660156,2.9236392974853516,-0.607231855392456,0.7348790168762207,-1.1460646390914917
7.08,-0.17889082431793213,5.227964401245117,3.0199146270751953,-0.32724419236183167,0.730969250202179,-1.1232331991195679
7.088,-0.25053679943084717,5.813732147216797,2.8873963356018066,-0.033828914165496826,0.7364391088485718,-1.071816086769104
7.096,-0.29387426376342773,6.36343240737915,2.548614740371704,0.22295674681663513,0.7548137903213501,-1.0154305696487427
7.104,-0.3234962821006775,6.804420471191406,2.083130121231079,0.40756240487098694,0.7807473540306091,-0.9703361988067627
7.112,-0.3550942540168762,7.081548690795898,1.6003161668777466,0.49852684140205383,0.7934351563453674,-0.9263984560966492
7.12,-0.3871435225009918,7.171085357666016,1.2160392999649048,0.49401986598968506,0.7767323851585388,-0.8686136603355408
7.128,-0.40555188059806824,7.070377349853516,1.0092624425888062,0.41617971658706665,0.7324482798576355,-0.797709047794342
7.136,-0.40071943402290344,6.786832809448242,1.0031081438064575,0.3019096255302429,0.6722718477249146,-0.7230455279350281
7.144,-0.3705749809741974,6.331388473510742,1.169303059577942,0.18610426783561707,0.6066912412643433,-0.650333821773529
7.152,-0.3158475160598755,5.715963840484619,1.4488928318023682,0.09110315144062042,0.543265163898468,-0.5842669606208801
7.16,-0.24505901336669922,4.950168132781982,1.7714507579803467,0.026214659214019775,0.48853474855422974,-0.5331313014030457
7.168,-0.17140913009643555,4.039719104766846,2.0728397369384766,-0.007758483290672302,0.447176456451416,-0.5041062235832214
7.176,-0.1113290786743164,2.995077610015869,2.307626247406006,-0.013645648956298828,0.42010772228240967,-0.497314453125
7.184,-0.07601273059844971,1.838090419769287,2.450495481491089,0.005433887243270874,0.4056611657142639,-0.5080790519714355
7.192,-0.07265591621398926,0.5966389775276184,2.490269899368286,0.046727702021598816,0.4012352526187897,-0.5327023863792419
7.2,-0.10733604431152344,-0.7000978589057922,2.4225053787231445,0.10774111747741699,0.40291038155555725,-0.5681946873664856
7.208,-0.18524622917175293,-2.0241260528564453,2.2448198795318604,0.18692705035209656,0.4062897264957428,-0.6097052097320557
7.216,-0.30783408880233765,-3.3439066410064697,1.9589413404464722,0.28314805030822754,0.4083769619464874,-0.6518166065216064
7.224,-0.4709738492965698,-4.617194652557373,1.5740903615951538,0.39275360107421875,0.4069502353668213,-0.6893709301948547
7.232,-0.6595428586006165,-5.782755374908447,1.1166045665740967,0.5068187713623047,0.39824751019477844,-0.7147977352142334
7.24,-0.8420462608337402,-6.764257907867432,0.6298278570175171,0.6112274527549744,0.3756186366081238,-0.7149944305419922
7.248,-0.9767357110977173,-7.488278388977051,0.16755348443984985,0.6901118159294128,0.33290815353393555,-0.6759077310562134
7.256,-1.030597448348999,-7.91689395904541,-0.2239023596048355,0.7334868907928467,0.2726597189903259,-0.5972757339477539
7.264,-0.9968205094337463,-8.066329956054688,-0.5177966356277466,0.7437387704849243,0.2091943472623825,-0.5030881762504578
7.272,-0.902184784412384,-7.998205184936523,-0.7050775289535522,0.7299177050590515,0.15883250534534454,-0.42824622988700867
7.28,-0.7885125875473022,-7.787433624267578,-0.7879398465156555,0.6982780694961548,0.12702904641628265,-0.3910376727581024
7.288,-0.6903457641601562,-7.491226673126221,-0.7710422277450562,0.6535328030586243,0.10760985314846039,-0.3836851716041565
7.296,-0.6224571466445923,-7.128926753997803,-0.6595677733421326,0.6045064330101013,0.09258650243282318,-0.38605302572250366
7.304,-0.5757135152816772,-6.677114486694336,-0.45349350571632385,0.5627155303955078,0.07901619374752045,-0.3789670765399933
7.312,-0.5158460140228271,-6.09420919418335,-0.15489941835403442,0.5347490906715393,0.06833963841199875,-0.3476383686065674
7.32,-0.40274691581726074,-5.345233917236328,0.22487176954746246,0.5182926058769226,0.06254449486732483,-0.28236931562423706
7.328,-0.21177420020103455,-4.417462348937988,0.6641665101051331,0.506202220916748,0.061857786029577255,-0.1803770214319229
7.336,0.07196611166000366,-3.3329477310180664,1.130308985710144,0.4920721650123596,0.06424102932214737,-0.04584815353155136
7.344,0.44838404655456543,-2.15547776222229,1.566659688949585,0.475197434425354,0.0647423192858696,0.11472568660974503
7.352,0.8812174797058105,-0.9979314804077148,1.882897973060608,0.4684551954269409,0.06156761199235916,0.29140961170196533
7.36,1.2977380752563477,0.006701542064547539,1.9799208641052246,0.4952352046966553,0.07166562229394913,0.45476630330085754
7.368,1.6202166080474854,0.7539626955986023,1.8003156185150146,0.5581042170524597,0.12513919174671173,0.5609183311462402
7.376,1.8034321069717407,1.2107707262039185,1.3633211851119995,0.6158261299133301,0.22140130400657654,0.6033361554145813
7.384,1.849158763885498,1.4284048080444336,0.7748701572418213,0.6157912611961365,0.3131326735019684,0.632575273513794
7.392,1.805281400680542,1.513428807258606,0.18807345628738403,0.5440762042999268,0.360270619392395,0.6906723976135254
7.4,1.7309656143188477,1.5694009065628052,-0.2709273099899292,0.42929399013519287,0.37025541067123413,0.7648419737815857
7.408,1.6575661897659302,1.6566858291625977,-0.5464760065078735,0.309822142124176,0.3709145486354828,0.8259992003440857
7.416,1.5844745635986328,1.8013105392456055,-0.6363092660903931,0.2088077962398529,0.37841343879699707,0.8667703866958618
7.424,1.5101847648620605,2.00830078125,-0.5653315782546997,0.12850964069366455,0.3968690037727356,0.892130970954895
7.432,1.4396216869354248,2.2665529251098633,-0.3767746388912201,0.05977019667625427,0.42269381880760193,0.9070813059806824
7.44,1.3630497455596924,2.5435056686401367,-0.12697291374206543,0.00017955899238586426,0.4509046971797943,0.9139126539230347
7.448,1.2635809183120728,2.7904293537139893,0.13619396090507507,-0.0465797483921051,0.48420393466949463,0.9060226082801819
7.456,1.136608600616455,2.9683315753936768,0.3896254599094391,-0.08863869309425354,0.5213850140571594,0.8750867247581482
7.464,0.9918118715286255,3.0630993843078613,0.6376034021377563,-0.14101043343544006,0.5417912006378174,0.8287111520767212
7.472,0.8477214574813843,3.092078685760498,0.9040440917015076,-0.20398083329200745,0.5230581760406494,0.7842227816581726
7.48,0.7262299060821533,3.0940003395080566,1.214780569076538,-0.2633157968521118,0.46640148758888245,0.7458418011665344
7.488,0.6420716047286987,3.09950590133667,1.5720669031143188,-0.3064889907836914,0.38975730538368225,0.7022392749786377
7.496,0.5865508913993835,3.1126363277435303,1.9502229690551758,-0.3285486698150635,0.3087449073791504,0.6421715617179871
7.504,0.5375193953514099,3.1148431301116943,2.31209659576416,-0.3293449878692627,0.23345158994197845,0.5626977682113647
7.512,0.47447872161865234,3.0749728679656982,2.6175949573516846,-0.31242331862449646,0.17168815433979034,0.46869727969169617
7.52,0.3828134536743164,2.9604544639587402,2.825247049331665,-0.28338170051574707,0.12935496866703033,0.37159696221351624
7.528,0.25407683849334717,2.7521023750305176,2.9035017490386963,-0.24714012444019318,0.11002708971500397,0.28678056597709656
7.536,0.09597384929656982,2.450679302215576,2.837388753890991,-0.20730096101760864,0.1146654561161995,0.22815914452075958
7.544,-0.07404065132141113,2.076354503631592,2.6285862922668457,-0.16724897921085358,0.14118115603923798,0.2025763988494873
7.552,-0.2356024980545044,1.6578211784362793,2.2915384769439697,-0.131207674741745,0.1832357794046402,0.20910194516181946
7.56,-0.37179797887802124,1.22299325466156,1.853538990020752,-0.10363328456878662,0.23092731833457947,0.24140891432762146
7.568,-0.47306153178215027,0.79481440782547,1.3503155708312988,-0.08744301646947861,0.27531784772872925,0.2888217270374298
7.576,-0.5356459617614746,0.38978689908981323,0.8172387480735779,-0.08405685424804688,0.3102308511734009,0.34050115942955017
7.584,-0.5621038675308228,0.02008350007236004,0.2875320315361023,-0.0945461243391037,0.3301389217376709,0.3902360498905182
7.592,-0.5563095808029175,-0.30171775817871094,-0.20959560573101044,-0.11917810142040253,0.3302077054977417,0.43458011746406555
7.6,-0.5225977897644043,-0.5591869950294495,-0.650335967540741,-0.1562635600566864,0.30755993723869324,0.4704861342906952
7.608,-0.46091267466545105,-0.735082745552063,-1.0159008502960205,-0.20254725217819214,0.2618473470211029,0.4963829517364502
7.616,-0.37288257479667664,-0.8163005709648132,-1.294352650642395,-0.2560325562953949,0.19603389501571655,0.5124358534812927
7.624,-0.26186180114746094,-0.7963783740997314,-1.4722503423690796,-0.3190149664878845,0.11604081094264984,0.5190770626068115
7.632,-0.12791907787322998,-0.6765128970146179,-1.5345548391342163,-0.39663249254226685,0.028185658156871796,0.5164675116539001
7.64,0.02723759412765503,-0.45950430631637573,-1.4617323875427246,-0.4913439154624939,-0.06303088366985321,0.5068325996398926
7.648,0.2046402096748352,-0.1520148664712906,-1.235127568244934,-0.6008155345916748,-0.15418224036693573,0.4954700469970703
7.656,0.39931178092956543,0.2268456667661667,-0.8448730707168579,-0.7214516401290894,-0.23994992673397064,0.485453337430954
7.664,0.5928428173065186,0.6380453109741211,-0.30105674266815186,-0.8501650094985962,-0.3107156753540039,0.47096124291419983
7.672,0.7578191161155701,1.0263339281082153,0.3630768358707428,-0.980271577835083,-0.355018675327301,0.44026651978492737
7.68,0.8591439723968506,1.3255149126052856,1.0871946811676025,-1.0993911027908325,-0.36305540800094604,0.3850545287132263
7.688,0.863490104675293,1.471106767654419,1.790831446647644,-1.1933236122131348,-0.3265986442565918,0.30462753772735596
