Time [s],Acc_x [m/s^2],Acc_y [m/s^2],Acc_z [m/s^2],Gyro_x [1/s],Gyro_y [1/s],Gyro_z [1/s]
0.0,-0.044851139187812805,0.25854969024658203,0.11983530223369598,0.00012902403250336647,0.0011959566036239266,0.008930863812565804
0.05,-0.048489511013031006,0.25756168365478516,0.12070635706186295,0.00013010064139962196,0.0011946491431444883,0.008931022137403488
0.1,-0.03141237050294876,0.2339181900024414,0.10524249076843262,0.0006535099819302559,-0.001701634144410491,0.009251013398170471
0.15,0.010858098044991493,0.18760395050048828,0.0691806972026825,0.002049647271633148,-0.009235227480530739,0.011079670861363411
0.2,-0.015553638339042664,0.20923805236816406,0.09707764536142349,0.0010899053886532784,-0.005420191213488579,0.01285429298877716
0.25,-0.00189107283949852,0.16776466369628906,0.10950758308172226,-0.0003533712588250637,-0.0030350300949066877,0.011271494440734386
0.3,-0.0063211508095264435,0.22067737579345703,0.07972685247659683,0.00024955393746495247,-0.00221094093285501,0.013150211423635483
0.35,-0.0029315873980522156,0.20359134674072266,0.05333825573325157,0.0015289094299077988,0.0012546086218208075,0.012574000284075737
0.4,-0.007605237886309624,0.20970726013183594,0.06453236937522888,0.0013010329566895962,0.00022338330745697021,0.010656238533556461
0.45,0.0002196691930294037,0.2282094955444336,0.09856710582971573,-0.002515292726457119,0.007369824685156345,0.006137702614068985
0.5,0.010066889226436615,0.20431232452392578,0.05379603058099747,-0.003969620913267136,0.003133937017992139,0.004722450859844685
0.55,-0.0032402300275862217,0.16471576690673828,0.0007516497280448675,0.0016311882063746452,-0.006910242605954409,0.006761291995644569
0.6,-0.011033490300178528,0.16838359832763672,0.04799394682049751,-0.0009986839722841978,-0.0045156050473451614,0.005338154733181
0.65,0.0019410941749811172,0.1795492172241211,0.049254875630140305,-0.0035648616030812263,0.0016974280588328838,0.001745928660966456
0.7,-0.004967089742422104,0.1620779037475586,0.10234062373638153,-0.0039690593257546425,0.005451502278447151,0.001815423252992332
0.75,-0.030349448323249817,0.1789102554321289,0.12114650011062622,-0.008695326745510101,0.006778739392757416,-0.0036753504537045956
0.8,0.044029027223587036,0.22831153869628906,0.13181307911872864,-0.011375967413187027,0.0021424887236207724,-0.0037918034940958023
0.85,0.0055873822420835495,0.19608020782470703,0.06546515226364136,-0.011507522314786911,0.006595286075025797,-0.003052376676350832
0.9,-0.008116194978356361,0.2001638412475586,0.06144537776708603,-0.012888314202427864,0.015423494391143322,-0.004288523457944393
0.95,0.012553010135889053,0.23741722106933594,0.08750228583812714,-0.01369005348533392,0.014196304604411125,-0.003583364188671112
1.0,0.012675818055868149,0.21244430541992188,0.12517504394054413,-0.015916138887405396,0.016803914681077003,-0.0031717391684651375
1.05,-0.0018259268254041672,0.19445133209228516,0.05041680485010147,-0.018235856667160988,0.02433967776596546,-0.004396651405841112
1.1,-0.012837862595915794,0.2054424285888672,0.05720319598913193,-0.019888484850525856,0.03466392308473587,-0.009468663483858109
1.15,-0.0689438134431839,0.20493316650390625,0.10306505858898163,-0.01773999258875847,0.045173950493335724,-0.012683716602623463
1.2,-0.084056057035923,0.20559215545654297,0.0874958261847496,-0.00787832960486412,0.03359164670109749,-0.0035866443067789078
1.25,-0.08215779066085815,0.16652965545654297,0.0276855006814003,-0.006272586062550545,0.019900746643543243,0.009442189708352089
1.3,-0.09496387839317322,0.20269489288330078,-0.005957309156656265,-0.013676708564162254,0.03558678179979324,0.0009840214625000954
1.35,-0.04467391595244408,0.21640777587890625,-0.09873004257678986,-0.018342915922403336,0.04090591147542,-0.0058844685554504395
1.4,-0.04132790490984917,0.16331005096435547,-0.1307176947593689,-0.02957380935549736,0.05815192312002182,-0.020035967230796814
1.45,-0.011809855699539185,0.17827701568603516,-0.17443746328353882,-0.03358743339776993,0.07400945574045181,-0.03372783586382866
1.5,0.02656838297843933,0.26108741760253906,-0.1826537847518921,-0.029807256534695625,0.0923447236418724,-0.03334503248333931
1.55,0.06650128960609436,0.30411815643310547,-0.1960640698671341,-0.03066425770521164,0.13832919299602509,-0.026950478553771973
1.6,0.12473936378955841,0.3278207778930664,-0.22752806544303894,-0.034596532583236694,0.18981941044330597,-0.014393854886293411
1.65,0.0919041708111763,0.27806758880615234,-0.2628459930419922,-0.0380941666662693,0.25421345233917236,-0.0013819634914398193
1.7,0.03774728626012802,0.2166910171508789,-0.24215993285179138,-0.036413077265024185,0.3333459496498108,0.007965118624269962
1.75,-0.02858012169599533,0.22481346130371094,-0.26562002301216125,-0.029168730601668358,0.3930742144584656,0.028635643422603607
1.8,-0.0417114794254303,0.25571632385253906,-0.35751408338546753,-0.0189361609518528,0.44010600447654724,0.050650544464588165
1.85,0.013993218541145325,0.1588602066040039,-0.2943051755428314,-0.002266591414809227,0.5147948265075684,0.05360230803489685
1.9,0.06965111941099167,0.1487140655517578,-0.3159594237804413,0.02184045873582363,0.5927023887634277,0.06760241091251373
1.95,0.1224253922700882,0.4075288772583008,-0.3308839201927185,0.022214487195014954,0.6842367053031921,0.09454676508903503
2.0,0.046812862157821655,0.45140743255615234,-0.1252666711807251,-0.022025249898433685,0.8406721353530884,0.0920230969786644
2.05,-0.006599724292755127,0.29033851623535156,0.13894382119178772,-0.06896491348743439,0.9722235798835754,0.0926271304488182
2.1,0.1178504228591919,0.07469463348388672,0.35824155807495117,-0.09637351334095001,1.0263726711273193,0.11228793114423752
2.15,0.20041045546531677,0.048003196716308594,0.5382303595542908,-0.11670875549316406,1.0553629398345947,0.1366068720817566
2.2,-0.04506099224090576,0.1871318817138672,0.6889320611953735,-0.13900154829025269,1.12923264503479,0.13764283061027527
2.25,-0.12159350514411926,0.19458675384521484,0.8564662337303162,-0.14818286895751953,1.2066121101379395,0.11166799813508987
2.3,-0.007978707551956177,-0.09291267395019531,0.9583394527435303,-0.13545918464660645,1.201102614402771,0.09401652216911316
2.35,0.1145956814289093,-0.2851877212524414,0.9454818964004517,-0.15860435366630554,1.1183336973190308,0.06627517938613892
2.4,0.23928767442703247,-0.1406717300415039,0.80211341381073,-0.20030520856380463,1.0139909982681274,0.029766052961349487
2.45,0.008662581443786621,0.29950904846191406,0.7522909641265869,-0.2008741796016693,0.9441197514533997,0.008703872561454773
2.5,-0.19208908081054688,0.46491146087646484,0.8281527757644653,-0.14967675507068634,0.8719232678413391,0.011648528277873993
2.55,0.11756585538387299,0.26789379119873047,0.601067841053009,-0.05512756481766701,0.7555697560310364,0.016523629426956177
2.6,0.1811874657869339,0.621638298034668,0.21330572664737701,0.0703713670372963,0.5911040306091309,0.02892644703388214
2.65,0.2553779184818268,0.7647781372070312,-0.033984266221523285,0.16681250929832458,0.49483510851860046,0.040194448083639145
2.7,-0.132062628865242,0.03814220428466797,0.3094989061355591,0.3611840307712555,0.40804624557495117,0.1261790692806244
2.75,-0.8171669244766235,-0.3728446960449219,0.5689858794212341,0.6515982747077942,0.19088104367256165,0.21305443346500397
2.8,-0.802378237247467,0.25591564178466797,0.13820332288742065,0.845608115196228,0.005727320909500122,0.1157580018043518
2.85,-0.6814785599708557,0.5949001312255859,-0.1450357437133789,0.8445614576339722,0.06927573680877686,-0.07536369562149048
2.9,-0.5085909366607666,0.4589710235595703,-0.10495465993881226,0.8127062320709229,0.22562405467033386,-0.2155628502368927
2.95,-0.3140268921852112,0.5590810775756836,0.39432424306869507,0.7978249788284302,0.32348716259002686,-0.22721630334854126
3.0,-0.3588796854019165,0.2283191680908203,0.8703235387802124,0.8258885145187378,0.33053961396217346,-0.1379220187664032
3.05,-0.34150081872940063,0.15446186065673828,0.8378947973251343,0.9175016283988953,0.2126150131225586,-0.09286636114120483
3.1,-0.18153609335422516,0.4319648742675781,0.3395824134349823,0.9790543913841248,0.15121816098690033,-0.05971020460128784
3.15,0.5469475388526917,0.014253616333007812,-0.09827481210231781,0.9408801794052124,0.4675118625164032,0.034164369106292725
3.2,1.0938845872879028,-0.905303955078125,0.023920655250549316,0.9161117076873779,0.8050547242164612,0.12557655572891235
3.25,0.7452122569084167,-0.9174118041992188,0.07084587216377258,1.006381869316101,0.5162266492843628,0.042482733726501465
3.3,0.573756217956543,-0.18874263763427734,-0.6795358657836914,1.0238559246063232,0.03750285506248474,-0.12813210487365723
3.35,0.5602231621742249,0.06546306610107422,-0.9064115881919861,0.9182471632957458,-0.054162874817848206,-0.10555121302604675
3.4,0.5329402685165405,-0.29163360595703125,-0.6304321885108948,0.7848050594329834,-0.010408461093902588,-0.007021546363830566
3.45,0.532555878162384,-0.3396625518798828,-0.5207399129867554,0.6793437600135803,-0.09571069478988647,0.017061293125152588
3.5,0.3647174537181854,-0.1516122817993164,-0.48640206456184387,0.6199556589126587,-0.1822313815355301,0.019582301378250122
3.55,0.05363850295543671,-0.06019020080566406,-0.440695583820343,0.5939129590988159,-0.2028370499610901,0.01335403323173523
3.6,-0.2527264654636383,0.07136344909667969,-0.35101789236068726,0.5741547346115112,-0.18265417218208313,-0.033124297857284546
3.65,-0.27237311005592346,0.2997474670410156,-0.15037016570568085,0.5106368660926819,-0.09684283286333084,-0.05328589677810669
3.7,-0.06797033548355103,0.3307209014892578,0.12048188596963882,0.4054042100906372,0.006161745637655258,-0.02220246195793152
3.75,-0.07254624366760254,0.28460693359375,0.44774290919303894,0.3538398742675781,0.007893955335021019,-0.014229193329811096
3.8,-0.13598141074180603,0.29325103759765625,0.43885383009910583,0.3238195478916168,-0.07771913707256317,-0.05541647970676422
3.85,-0.16534611582756042,0.3050117492675781,0.2998424470424652,0.24391591548919678,-0.13898885250091553,-0.07445953041315079
3.9,-0.1889471709728241,0.3840818405151367,0.17772150039672852,0.1553700566291809,-0.16136129200458527,-0.06392162293195724
3.95,-0.11759048700332642,0.661952018737793,0.06915602087974548,0.06667954474687576,-0.1539655327796936,-0.0668422132730484
4.0,-0.012780489400029182,0.8779277801513672,0.0502048097550869,-0.018581373617053032,-0.11653077602386475,-0.061489228159189224
4.05,-0.015055090188980103,0.8297710418701172,-0.009782647714018822,-0.07201118767261505,-0.0971996858716011,-0.039255835115909576
4.1,-0.08202286064624786,0.6413631439208984,-0.14558760821819305,-0.1109113097190857,-0.09610678255558014,-0.028050173074007034
4.15,-0.08820324391126633,0.37825489044189453,-0.19302846491336823,-0.1710570752620697,-0.06124705448746681,-0.006815142929553986
4.2,-0.004198167473077774,0.20949745178222656,-0.03523518890142441,-0.23948714137077332,-0.01112072542309761,0.0024320781230926514
4.25,0.035755738615989685,0.15151214599609375,0.14764946699142456,-0.2948063910007477,0.004387689754366875,-0.026389770209789276
4.3,0.032643117010593414,0.14912796020507812,0.2404559850692749,-0.33098819851875305,-0.010525302961468697,-0.06072067469358444
4.35,-0.005193620920181274,0.12767887115478516,0.3733903467655182,-0.34394335746765137,-0.017907345667481422,-0.06612759083509445
4.4,-0.11105203628540039,0.02418231964111328,0.627109169960022,-0.33926260471343994,0.01319405809044838,-0.035163551568984985
4.45,-0.18321451544761658,-0.06518840789794922,0.9669315218925476,-0.28968197107315063,0.04030221700668335,0.0030852854251861572
4.5,-0.23319026827812195,-0.19092082977294922,1.1796284914016724,-0.18467432260513306,0.03012898564338684,0.040879808366298676
4.55,-0.28194522857666016,-0.273406982421875,1.1753172874450684,-0.05999940261244774,-0.011924896389245987,0.06870917975902557
4.6,-0.23152515292167664,-0.3862581253051758,1.1797714233398438,0.047147590667009354,-0.03692750632762909,0.10769152641296387
4.65,-0.20541861653327942,-0.5842819213867188,1.12856125831604,0.16185936331748962,-0.05804765224456787,0.13377472758293152
4.7,-0.25148138403892517,-0.6923427581787109,1.0373344421386719,0.3108881711959839,-0.08696921169757843,0.10740720480680466
4.75,-0.2960878610610962,-0.5067062377929688,0.9694012999534607,0.4470106363296509,-0.07352299243211746,0.046458899974823
4.8,-0.26316219568252563,-0.1514759063720703,0.92149817943573,0.5186198949813843,-0.006791457533836365,0.009256735444068909
4.85,-0.10016357898712158,0.02275848388671875,0.7548419237136841,0.5490787029266357,0.012583974748849869,-0.013572275638580322
4.9,0.02674052119255066,0.04367256164550781,0.44370442628860474,0.5771090388298035,-0.04135463014245033,-0.05178752541542053
4.95,-0.011838398873806,-0.006968498229980469,0.19905567169189453,0.5850021839141846,-0.04440107196569443,-0.047602295875549316
5.0,-0.11867333948612213,-0.017322540283203125,0.023132961243391037,0.5533825755119324,0.010572614148259163,-0.03032425045967102
5.05,-0.21932631731033325,0.0877981185913086,-0.14533208310604095,0.47574472427368164,0.03293350711464882,-0.047240808606147766
5.1,-0.17010703682899475,0.4460630416870117,-0.26838746666908264,0.3575599789619446,0.0234067402780056,-0.10305085778236389
5.15,0.0026735588908195496,0.6917324066162109,-0.20572221279144287,0.2243415266275406,0.0484306663274765,-0.12864729762077332
5.2,0.05170512944459915,0.6738996505737305,-0.170048788189888,0.1341223418712616,0.030788494274020195,-0.13607282936573029
5.25,-0.03925217688083649,0.6733884811401367,-0.42255860567092896,0.07009910047054291,-0.054213013499975204,-0.1669311672449112
5.3,0.009651362895965576,0.7803115844726562,-0.5792831182479858,-0.05090419203042984,-0.07817910611629486,-0.15508431196212769
5.35,0.07057128846645355,0.8694572448730469,-0.4779369533061981,-0.235991969704628,-0.03830025717616081,-0.0948917418718338
5.4,0.0791703313589096,0.8887844085693359,-0.24895495176315308,-0.41033267974853516,-0.016499167308211327,-0.044229134917259216
5.45,0.06403336673974991,0.776942253112793,-0.2519770562648773,-0.5157822370529175,-0.07395238429307938,-0.02334149181842804
5.5,-0.010287687182426453,0.44295787811279297,-0.4579830765724182,-0.5949315428733826,-0.1480587124824524,-0.006408274173736572
5.55,0.04410557448863983,0.22840023040771484,-0.5303202867507935,-0.7089142799377441,-0.12918107211589813,0.012575507164001465
5.6,-0.0023055970668792725,0.14162635803222656,-0.388058602809906,-0.8811577558517456,-0.038646988570690155,0.035182297229766846
5.65,-0.19087950885295868,-0.1373453140258789,-0.269807368516922,-1.0113800764083862,-0.007684193551540375,0.03461959958076477
5.7,-0.27286285161972046,-0.3731727600097656,-0.034169912338256836,-1.040621280670166,0.006000161170959473,0.021773099899291992
5.75,-0.18436312675476074,-0.4894580841064453,0.3652702569961548,-1.0111749172210693,0.09358249604701996,0.015333116054534912
5.8,-0.11694711446762085,-0.5448122024536133,0.726033627986908,-0.8879454135894775,0.15637317299842834,0.002186983823776245
5.85,-0.26264795660972595,-0.6170310974121094,1.0108295679092407,-0.6784942746162415,0.13455967605113983,0.002583235502243042
5.9,-0.44313880801200867,-0.4031496047973633,1.1254318952560425,-0.46526727080345154,0.05766674131155014,-0.013749837875366211
5.95,-0.30357256531715393,-0.07159233093261719,1.0654895305633545,-0.25108247995376587,0.042211033403873444,-0.017896614968776703
6.0,-0.13927924633026123,0.004532814025878906,1.0790358781814575,-0.005807279609143734,0.0810634195804596,-0.0011784839443862438
6.05,-0.20007988810539246,0.051407814025878906,1.1157296895980835,0.22786369919776917,0.06541673839092255,-0.008795291185379028
6.1,-0.3259905278682709,-0.10223865509033203,1.0494766235351562,0.40795397758483887,0.06329937279224396,-0.015318602323532104
6.15,-0.26365727186203003,-0.0189361572265625,0.9506446123123169,0.5305970907211304,0.11396956443786621,-0.020825877785682678
6.2,-0.22094061970710754,-0.15661907196044922,1.079620122909546,0.6217407584190369,0.226999431848526,-0.0041956305503845215
6.25,-0.33088186383247375,-0.5654115676879883,1.088460922241211,0.7308660745620728,0.25480780005455017,-0.0389629602432251
6.3,-0.3556157350540161,-0.8386917114257812,0.6139880418777466,0.760784387588501,0.1931152492761612,-0.13975518941879272
6.35,-0.1693265736103058,-0.5764236450195312,0.1104060560464859,0.6795496940612793,0.1765676885843277,-0.21943511068820953
6.4,0.15376250445842743,0.13979530334472656,0.017109446227550507,0.5461389422416687,0.2352469563484192,-0.25706058740615845
6.45,0.10338366031646729,1.0677471160888672,0.03965017572045326,0.4356916546821594,0.20839662849903107,-0.2892819941043854
6.5,-0.24629546701908112,1.638564109802246,-0.31930285692214966,0.3387244641780853,0.08164650946855545,-0.26245373487472534
6.55,-0.4092977046966553,1.701643943786621,-0.5817707777023315,0.15254345536231995,0.09535221755504608,-0.10744962841272354
6.6,-0.02070474624633789,1.4219789505004883,-0.5824761390686035,-0.11086820811033249,0.2745836079120636,0.10797949880361557
6.65,0.15821290016174316,0.8283901214599609,-0.3771970868110657,-0.345020592212677,0.369449645280838,0.2603118419647217
6.7,-0.04350234568119049,0.07417869567871094,-0.4111074209213257,-0.5031850934028625,0.2454502284526825,0.2939121723175049
6.75,-0.09418034553527832,-0.11051559448242188,-0.8056793212890625,-0.6380454897880554,0.0512579120695591,0.2434370070695877
6.8,0.024756312370300293,-0.2377481460571289,-0.6760442852973938,-0.810257613658905,0.12376758456230164,0.30517104268074036
6.85,0.35985067486763,-0.3511343002319336,-0.3615174889564514,-0.9088545441627502,0.2514505088329315,0.33625292778015137
6.9,0.507011353969574,-0.17130565643310547,-0.15326744318008423,-0.8902084827423096,0.18479213118553162,0.26554107666015625
6.95,0.4784550964832306,-0.2656288146972656,-0.21926575899124146,-0.8730124235153198,0.06607340276241302,0.2265082597732544
7.0,0.4315979778766632,-0.5245809555053711,-0.35717183351516724,-0.8829178810119629,-0.0179528146982193,0.19408276677131653
7.05,0.38812586665153503,-0.4946136474609375,-0.3356550335884094,-0.916210949420929,-0.022671252489089966,0.15588244795799255
7.1,0.3724328577518463,-0.1459484100341797,-0.2344137728214264,-0.9573286771774292,0.004960373044013977,0.13272666931152344
7.15,0.34130915999412537,0.12433719635009766,-0.21056784689426422,-0.8837215900421143,-0.011339187622070312,0.11741235852241516
7.2,0.19629432260990143,-0.16559505462646484,-0.20782677829265594,-0.6959298849105835,-0.03308102488517761,0.10307466983795166
7.25,-0.12496206164360046,0.1620922088623047,0.079105444252491,-0.524086594581604,-0.0036898255348205566,0.06605304777622223
7.3,-0.25690746307373047,0.355926513671875,0.28065672516822815,-0.4265514612197876,0.1585719883441925,0.0008928477764129639
7.35,-0.2508622407913208,0.0518035888671875,0.38012784719467163,-0.2758002281188965,0.24902771413326263,-0.05183205008506775
7.4,-0.1673402637243271,-0.11656761169433594,0.6316383481025696,-0.13109704852104187,0.248891219496727,-0.05040767788887024
7.45,-0.003023803234100342,0.13512325286865234,0.8344022035598755,-0.07976777106523514,0.27333641052246094,-0.06420611590147018
7.5,0.16190043091773987,0.6033382415771484,0.8316458463668823,-0.0033506378531455994,0.29607659578323364,-0.10779303312301636
7.55,0.2495402693748474,0.7139558792114258,0.9209458827972412,0.13025975227355957,0.22127023339271545,-0.07959257066249847
7.6,0.12630891799926758,0.44570064544677734,1.0841329097747803,0.2707344889640808,-0.010536886751651764,0.01643834263086319
7.65,0.008082002401351929,0.21613788604736328,0.840705156326294,0.3591849207878113,-0.26415127515792847,0.06485970318317413
7.7,-0.15529118478298187,0.12525177001953125,0.622791051864624,0.37785637378692627,-0.3161274790763855,0.06998442113399506
7.75,-0.23767288029193878,0.022507667541503906,0.6463975310325623,0.38245007395744324,-0.25907790660858154,0.07748793065547943
7.8,-0.204471617937088,0.06251239776611328,0.6777219772338867,0.4259766936302185,-0.27571022510528564,0.06229737401008606
7.85,-0.3288498520851135,-0.07546234130859375,0.5643803477287292,0.4983553886413574,-0.31937167048454285,0.028914496302604675
7.9,-0.30610954761505127,-0.16078948974609375,0.28309720754623413,0.5883762836456299,-0.38272958993911743,-0.03484177589416504
7.95,-0.32717934250831604,-0.15282058715820312,0.16628023982048035,0.6441470384597778,-0.3460366129875183,-0.07311505079269409
8.0,-0.21094809472560883,-0.13785171508789062,-0.007137097418308258,0.693121075630188,-0.30140188336372375,-0.10907921195030212
8.05,-0.05818610638380051,-0.11997509002685547,-0.0013633333146572113,0.750298798084259,-0.2543109953403473,-0.11168032884597778
8.1,-0.1568116694688797,-0.042278289794921875,0.014610998332500458,0.7906254529953003,-0.2436060905456543,-0.10571259260177612
8.15,-0.13471950590610504,0.2001190185546875,-0.32585203647613525,0.785189151763916,-0.277924507856369,-0.11890900135040283
8.2,-0.0744246244430542,0.4645662307739258,-0.5945312976837158,0.7036009430885315,-0.23999029397964478,-0.09778204560279846
8.25,0.058878153562545776,0.6109600067138672,-0.667992889881134,0.5729967951774597,-0.12776729464530945,-0.05327162146568298
8.3,0.257676899433136,0.4448356628417969,-0.568938136100769,0.47816216945648193,-0.003430604934692383,0.003234878182411194
8.35,0.3334552049636841,0.10867881774902344,-0.411042183637619,0.4649946987628937,0.04976910352706909,0.038105398416519165
8.4,0.1340603232383728,-0.0033121109008789062,-0.39148837327957153,0.4539567232131958,0.013440273702144623,0.029766589403152466
8.45,0.1081746518611908,0.1594219207763672,-0.5983973145484924,0.3390517234802246,-0.027444716542959213,-0.001703709363937378
8.5,0.19933779537677765,0.32024097442626953,-0.7555980086326599,0.17006482183933258,0.008281953632831573,0.005559012293815613
8.55,0.3405839800834656,0.2576932907104492,-0.8208131790161133,0.049818769097328186,0.029801921918988228,0.026308659464120865
8.6,0.5503402352333069,0.20874500274658203,-0.8196150660514832,-0.0325307622551918,0.04016686975955963,0.03331436961889267
8.65,0.6091665625572205,0.2725334167480469,-0.6602156162261963,-0.10985596477985382,0.08338727056980133,0.053323931992053986
8.7,0.28805917501449585,0.2583961486816406,-0.5872547030448914,-0.19527721405029297,0.05944342538714409,0.0552668571472168
8.75,0.1617787778377533,0.27776145935058594,-0.603750467300415,-0.30620625615119934,-0.02230416238307953,0.01897309720516205
8.8,0.08681991696357727,-0.0007410049438476562,-0.43798935413360596,-0.4486902952194214,-0.03193505480885506,0.023671165108680725
8.85,0.1282675862312317,-0.004723548889160156,-0.3304814398288727,-0.6049442887306213,-0.0361441969871521,0.019475877285003662
8.9,0.12330850213766098,0.029087066650390625,-0.1680484116077423,-0.7479120492935181,-0.009075954556465149,0.046309322118759155
8.95,0.10375197231769562,0.0674448013305664,0.0351228266954422,-0.8187781572341919,-0.007921814918518066,0.056331366300582886
9.0,-0.09476141631603241,0.09732818603515625,0.2035130262374878,-0.7935266494750977,-0.053379595279693604,0.04945918917655945
9.05,-0.1818472295999527,0.05928325653076172,0.30252811312675476,-0.7298324704170227,-0.0814003050327301,0.063457190990448
9.1,-0.31789708137512207,-0.08181953430175781,0.5628490447998047,-0.6205105781555176,-0.0360591784119606,0.10471129417419434
9.15,-0.2719377875328064,-0.08822345733642578,0.6156371831893921,-0.45227497816085815,-0.06613598763942719,0.08806946873664856
9.2,-0.22888433933258057,0.14355754852294922,0.5938817858695984,-0.30469679832458496,-0.06674493849277496,0.04838022589683533
9.25,-0.06627461314201355,0.3770179748535156,0.6638764142990112,-0.23375868797302246,0.016212880611419678,0.033767372369766235
9.3,0.05610117316246033,0.5097789764404297,0.8299492597579956,-0.14756140112876892,0.03446706756949425,0.06656403839588165
9.35,-0.03483888506889343,0.26383113861083984,0.9175435304641724,0.024766284972429276,-0.08042097836732864,0.14425572752952576
9.4,-0.21733854711055756,0.03525066375732422,0.40462425351142883,0.21268896758556366,-0.29027122259140015,0.15371283888816833
9.45,-0.16852077841758728,-0.1353778839111328,0.000639110803604126,0.2974835932254791,-0.30411458015441895,0.1345469057559967
9.5,-0.03925551846623421,-0.034562110900878906,0.14053621888160706,0.3291313648223877,-0.11770422756671906,0.11034738272428513
9.55,-0.014688536524772644,0.18575477600097656,0.38999152183532715,0.4067848324775696,-0.02819725126028061,0.06815041601657867
9.6,0.04888339340686798,0.27677440643310547,0.41765397787094116,0.4832283854484558,-0.09714382886886597,0.020233795046806335
9.65,0.07621611654758453,0.12564754486083984,0.31354546546936035,0.5178647041320801,-0.1614176332950592,-0.024670854210853577
9.7,-0.43234583735466003,-0.0053920745849609375,0.29125621914863586,0.5144320726394653,-0.17621050775051117,-0.038984671235084534
9.75,-0.8069723844528198,0.3604412078857422,0.13129961490631104,0.4403899013996124,-0.18264128267765045,-0.06120574474334717
9.8,-0.4069189727306366,0.5835866928100586,0.0531298965215683,0.3169121742248535,0.013409636914730072,-0.06676796078681946
9.85,0.14336110651493073,0.1427316665649414,0.36149394512176514,0.2654646337032318,0.31190016865730286,-0.007391691207885742
9.9,0.32115525007247925,-0.31530284881591797,0.5615216493606567,0.3427927494049072,0.26917728781700134,-0.020278379321098328
9.95,0.2637478709220886,-0.7985210418701172,0.2872443199157715,0.49702632427215576,0.09518621116876602,-0.11120094358921051
10.0,-0.2955065667629242,-0.5295810699462891,-0.17146432399749756,0.625923216342926,-0.07465518265962601,-0.24059991538524628
10.05,-0.4734334945678711,0.06595039367675781,-0.5810966491699219,0.5823793411254883,-0.052755504846572876,-0.343421071767807
10.1,-0.10787010192871094,0.5395431518554688,-0.7359889149665833,0.45466554164886475,0.11101331561803818,-0.32920119166374207
10.15,0.21545174717903137,0.5548915863037109,-0.3849400281906128,0.28914278745651245,0.3124478757381439,-0.2037736475467682
10.2,0.2733611464500427,0.4720029830932617,-0.12483464181423187,0.23223449289798737,0.31282249093055725,-0.13695037364959717
10.25,0.2823096513748169,0.4620475769042969,-0.4715808033943176,0.22171416878700256,0.1515565812587738,-0.16547240316867828
10.3,0.30000078678131104,0.467041015625,-0.7177497148513794,0.17121410369873047,0.11850076168775558,-0.12300001084804535
10.35,0.38436681032180786,0.3217935562133789,-0.6915199756622314,0.04435247182846069,0.2516920864582062,-0.013929490000009537
10.4,0.607064962387085,0.3156404495239258,-0.721238374710083,-0.05656357854604721,0.34492745995521545,0.05906440690159798
10.45,0.6336162686347961,0.11524486541748047,-0.44265222549438477,-0.0816410556435585,0.31834113597869873,0.08659819513559341
10.5,0.3915521502494812,-0.47830677032470703,-0.018438860774040222,-0.045195192098617554,0.28218555450439453,0.1219186931848526
10.55,0.2683863639831543,-0.44265270233154297,0.021287918090820312,-0.001008652150630951,0.14054863154888153,0.043086662888526917
10.6,0.47719430923461914,-0.37532615661621094,-0.283092200756073,-0.003264383412897587,0.026585424318909645,-0.014610353857278824
10.65,0.6338904500007629,-0.2871980667114258,-0.4910281300544739,4.965066909790039e-05,-0.10349182784557343,-0.06883524358272552
10.7,0.5981700420379639,-0.2059926986694336,-0.7718423008918762,0.017274614423513412,-0.22857938706874847,-0.10668225586414337
10.75,0.5098727941513062,-0.02028656005859375,-0.983706533908844,0.038881707936525345,-0.30044275522232056,-0.07799383997917175
10.8,0.29381880164146423,0.2570934295654297,-1.0829229354858398,0.03616183251142502,-0.3027297854423523,-0.06931202113628387
10.85,0.25703996419906616,0.7056989669799805,-1.1207948923110962,-0.03811584413051605,-0.24997131526470184,-0.056074339896440506
10.9,-0.040883153676986694,0.7168741226196289,-0.7272874116897583,-0.1808798611164093,-0.12247330695390701,0.03147193789482117
10.95,-0.18752606213092804,0.9432706832885742,-0.40560078620910645,-0.27181512117385864,-0.03715202212333679,0.053404636681079865
11.0,0.1449192464351654,0.485931396484375,-0.5551112294197083,-0.3598371744155884,0.0641079843044281,0.13960859179496765
11.05,-0.11161807179450989,-0.13318920135498047,0.3699489235877991,-0.4262506365776062,0.16936339437961578,0.2730165123939514
11.1,-0.24873578548431396,-0.24128437042236328,0.9032961130142212,-0.48125094175338745,0.13761445879936218,0.2471255660057068
11.15,-0.08495426177978516,-0.09065723419189453,0.7574968338012695,-0.5359325408935547,0.025199994444847107,0.14946255087852478
11.2,-0.13817420601844788,-0.14861774444580078,0.8445334434509277,-0.5697048306465149,-0.02267969399690628,0.12132766842842102
11.25,-0.005530238151550293,-0.2873849868774414,1.0992134809494019,-0.6101740598678589,0.011899612843990326,0.11871127784252167
11.3,-0.054611921310424805,-0.04355430603027344,1.3045892715454102,-0.5852330923080444,-0.021112345159053802,0.06310302019119263
11.35,-0.21719315648078918,0.16335010528564453,0.9461063146591187,-0.476478636264801,-0.17204242944717407,-0.01849175989627838
11.4,-0.5663423538208008,0.09288883209228516,0.7559722065925598,-0.3509579598903656,-0.253293514251709,-0.019711270928382874
11.45,-0.6581982374191284,0.38449573516845703,0.5611464977264404,-0.28288906812667847,-0.2202051877975464,0.014433369040489197
11.5,-0.3963000178337097,0.5780010223388672,0.5778036713600159,-0.2595542371273041,-0.021100159734487534,0.06751231104135513
11.55,0.27995842695236206,0.4713869094848633,0.5332200527191162,-0.18014654517173767,0.133487269282341,0.06832871586084366
11.6,0.14764443039894104,-0.25817012786865234,0.7429797649383545,0.020527057349681854,0.015215414576232433,0.07310578227043152
11.65,-0.09913815557956696,-0.19485759735107422,0.6046756505966187,0.1530831754207611,-0.18771107494831085,0.06018522381782532
11.7,-0.17187322676181793,-0.07799530029296875,-0.09131164848804474,0.20968589186668396,-0.3058852553367615,-0.02604854851961136
11.75,-0.13237160444259644,0.16649627685546875,-0.013415355235338211,0.2707674503326416,-0.21101269125938416,-0.04316457360982895
11.8,-0.12689439952373505,-0.025041580200195312,0.1747051179409027,0.344579815864563,-0.07200071960687637,-0.00442466139793396
11.85,0.004593268036842346,-0.10264205932617188,0.43910473585128784,0.4915075898170471,-0.047813959419727325,0.010216563940048218
11.9,-0.038990169763565063,-0.15975093841552734,0.6082684397697449,0.6987797617912292,-0.0385284349322319,0.013199597597122192
11.95,-0.04354807734489441,-0.181304931640625,0.3815988004207611,0.8037725687026978,-0.12834294140338898,-0.05995100736618042
12.0,0.06784199178218842,-0.31319236755371094,0.11717385053634644,0.8389211893081665,-0.14418065547943115,-0.10029593110084534
12.05,-0.04173007979989052,-0.10062122344970703,-0.020796220749616623,0.8184019923210144,-0.1403893530368805,-0.16024509072303772
12.1,-0.034615788608789444,-0.11049938201904297,-0.0465390719473362,0.7647736072540283,-0.05619310960173607,-0.1494235098361969
12.15,0.0859903022646904,-0.024766921997070312,-0.13567598164081573,0.751937985420227,-0.08979615569114685,-0.20253071188926697
12.2,0.050350598990917206,0.16115379333496094,-0.2781749963760376,0.6620225310325623,-0.09193062037229538,-0.22484059631824493
12.25,-0.0023053884506225586,0.4159564971923828,-0.6048868298530579,0.5328183770179749,-0.0884842723608017,-0.24820612370967865
12.3,0.09923070669174194,0.6236038208007812,-0.6578776836395264,0.367255300283432,-0.008146056905388832,-0.23900829255580902
12.35,0.0555671826004982,0.565943717956543,-0.25794094800949097,0.2121044546365738,0.14296896755695343,-0.15012070536613464
12.4,0.11048868298530579,0.47959423065185547,-0.4312143325805664,0.10714048892259598,0.16437014937400818,-0.1263909786939621
12.45,0.08711642026901245,0.5858154296875,-0.4590774476528168,0.038613736629486084,0.1583586037158966,-0.11182361841201782
12.5,0.0853201299905777,0.5322799682617188,-0.4943111538887024,-0.1226000189781189,0.20700539648532867,-0.044213924556970596
12.55,0.08650866150856018,0.39569091796875,-0.8415011167526245,-0.28311729431152344,0.16409941017627716,-0.03160899877548218
12.6,0.1578267365694046,0.4283027648925781,-0.6181936860084534,-0.3459991216659546,0.2159387171268463,0.03452286124229431
12.65,0.22250701487064362,0.009572029113769531,-0.34912803769111633,-0.4311230778694153,0.3097905218601227,0.17608223855495453
12.7,0.11946126073598862,-0.17196083068847656,-0.17643636465072632,-0.412452757358551,0.19966043531894684,0.16687700152397156
12.75,0.026736333966255188,0.21416187286376953,-0.3191746771335602,-0.3813275694847107,0.026751305907964706,0.10734979808330536
12.8,0.12415468692779541,0.2852640151977539,-0.7159529328346252,-0.47626328468322754,0.0061319321393966675,0.13582244515419006
12.85,0.22177736461162567,0.2310638427734375,-0.43206655979156494,-0.48674657940864563,0.09042283147573471,0.24308821558952332
12.9,0.36717259883880615,-0.08360576629638672,-0.22650428116321564,-0.5143687129020691,0.13354724645614624,0.31206393241882324
12.95,0.3624078631401062,-0.13470935821533203,-0.024829328060150146,-0.48688220977783203,0.05717800185084343,0.25171929597854614
13.0,0.32129257917404175,-0.1069784164428711,-0.0619371235370636,-0.47020721435546875,-0.01642317697405815,0.18631884455680847
13.05,0.12020036578178406,-0.11355400085449219,-0.04641709849238396,-0.5310639142990112,-0.009569235146045685,0.15940502285957336
13.1,0.1627548784017563,-0.12141036987304688,0.13339219987392426,-0.586993396282196,0.055672019720077515,0.15473350882530212
13.15,0.020624130964279175,-0.29018688201904297,0.5250141620635986,-0.5140479803085327,0.056817226111888885,0.1376938819885254
13.2,-0.07876980304718018,0.21586894989013672,0.6399168968200684,-0.43308937549591064,-0.035790182650089264,0.07334361970424652
13.25,0.1300189048051834,0.6058244705200195,0.4633401036262512,-0.39948147535324097,-0.07660771906375885,0.07448208332061768
13.3,-0.014080256223678589,0.45516204833984375,0.4900544583797455,-0.3227461576461792,-0.07753283530473709,0.12623661756515503
13.35,-0.07960672676563263,0.35915088653564453,0.22033238410949707,-0.19625285267829895,-0.14244136214256287,0.1525266170501709
13.4,-0.2729188799858093,0.26189708709716797,0.06818372011184692,-0.16010206937789917,-0.14301688969135284,0.1812181919813156
13.45,-0.055066995322704315,0.26933860778808594,-0.25362300872802734,-0.10825993120670319,-0.06734219193458557,0.18488407135009766
13.5,0.03946291655302048,0.19582462310791016,-0.228689044713974,-0.04702950268983841,0.07558580487966537,0.22153443098068237
13.55,0.0550897978246212,-0.11506271362304688,-0.06364911794662476,-0.018516145646572113,0.1827685385942459,0.25993987917900085
13.6,0.02733294665813446,-0.19854736328125,0.09523432701826096,0.022433891892433167,0.20048436522483826,0.2327851951122284
13.65,0.037965256720781326,-0.18121814727783203,-0.07506285607814789,0.0069599151611328125,0.17975693941116333,0.14724388718605042
13.7,0.0023386776447296143,0.02528858184814453,-0.05085332319140434,-0.07268648594617844,0.19292733073234558,0.06825031340122223
13.75,0.21713031828403473,0.057158470153808594,0.06129979342222214,-0.16063648462295532,0.21963158249855042,0.04119536653161049
13.8,0.1439230740070343,-0.11637496948242188,0.30478107929229736,-0.19363266229629517,0.20199811458587646,0.023004889488220215
13.85,0.14879663288593292,-0.04731464385986328,0.284523606300354,-0.2113734930753708,0.10326619446277618,-0.03787420690059662
13.9,0.06423317641019821,-0.07201671600341797,0.05137631297111511,-0.26169493794441223,0.0036575347185134888,-0.08228661864995956
13.95,0.01697542890906334,0.0728912353515625,0.030327165499329567,-0.35723745822906494,-0.011445991694927216,-0.09659187495708466
14.0,0.15837666392326355,0.042507171630859375,0.18907803297042847,-0.46864861249923706,-0.00895071029663086,-0.09595388174057007
14.05,0.23229750990867615,0.050377845764160156,0.1569046825170517,-0.5139070749282837,-0.07476004958152771,-0.11382807791233063
14.1,0.15389248728752136,0.13520431518554688,0.1464708149433136,-0.5358395576477051,-0.1564519703388214,-0.10713355243206024
14.15,0.05896006524562836,0.037741661071777344,0.09969222545623779,-0.5430653691291809,-0.24729880690574646,-0.11003424227237701
14.2,0.07647331058979034,0.024333953857421875,-0.06326039880514145,-0.541366696357727,-0.3154557943344116,-0.13245539367198944
14.25,-0.06400585174560547,0.056914329528808594,-0.08265522122383118,-0.5433119535446167,-0.3014746904373169,-0.15823474526405334
14.3,0.05059991404414177,0.20893287658691406,-0.07850731909275055,-0.5025344491004944,-0.29897555708885193,-0.19422537088394165
14.35,0.013674221932888031,0.23620891571044922,0.19754540920257568,-0.4509003460407257,-0.2362806797027588,-0.21646521985530853
14.4,0.1414252519607544,0.4451446533203125,0.45750826597213745,-0.38796114921569824,-0.22883322834968567,-0.21300311386585236
14.45,0.057133376598358154,0.3421335220336914,0.5875765681266785,-0.2983647584915161,-0.3340088129043579,-0.20978541672229767
14.5,-0.1724669337272644,0.15058135986328125,0.5627988576889038,-0.20388655364513397,-0.554794192314148,-0.16398876905441284
14.55,-0.5153878927230835,0.23044776916503906,0.09360826015472412,-0.18290787935256958,-0.7878605723381042,-0.10574706643819809
14.6,-0.6681960821151733,0.32718944549560547,-0.3856319487094879,-0.2421581894159317,-0.7458965182304382,-0.05862830579280853
14.65,-0.6136806011199951,0.2650613784790039,-0.38710224628448486,-0.27475810050964355,-0.48850634694099426,-0.06817065924406052
14.7,-0.3905906677246094,0.26476192474365234,-0.4174708425998688,-0.2291312962770462,-0.27329006791114807,-0.08384695649147034
14.75,-0.20556774735450745,0.4514913558959961,-0.33054402470588684,-0.17043621838092804,-0.11025428026914597,-0.06285199522972107
14.8,-0.1400560736656189,0.32504940032958984,-0.21210137009620667,-0.0968523919582367,0.005628429353237152,-0.0011241957545280457
14.85,-0.3488169312477112,0.3011283874511719,-0.07803922891616821,-0.03987736627459526,0.09252461045980453,0.07078851014375687
14.9,-0.35795825719833374,0.5565862655639648,-0.003771647810935974,-0.017406418919563293,0.17764168977737427,0.12389665096998215
14.95,-0.205093652009964,1.0057306289672852,-0.10648776590824127,0.0243992879986763,0.3282358646392822,0.1491512507200241
15.0,-0.02636590600013733,1.4352636337280273,0.052923813462257385,0.09993427991867065,0.5408337712287903,0.19728800654411316
15.05,0.2266012281179428,1.2534065246582031,0.2628973722457886,0.22119072079658508,0.6714891791343689,0.29250285029411316
15.1,0.6221845149993896,0.1821880340576172,-0.12867331504821777,0.34241220355033875,0.5874096155166626,0.3878125548362732
15.15,0.38010555505752563,-0.6136255264282227,-0.26482194662094116,0.3183467984199524,0.3785996735095978,0.4024971127510071
15.2,0.38056403398513794,-0.5969486236572266,-0.935743510723114,0.2776385247707367,0.18327175080776215,0.2898225784301758
15.25,0.5830553770065308,0.1016082763671875,-1.3927608728408813,0.1990709751844406,0.17723357677459717,0.1244310736656189
15.3,1.2253437042236328,0.2364501953125,-0.5957833528518677,0.03545216843485832,0.4821949303150177,0.0772780179977417
15.35,1.1726961135864258,-0.5538129806518555,0.9962641000747681,0.05430353060364723,0.3502175509929657,0.059168219566345215
15.4,1.24720299243927,-0.3872385025024414,0.8299547433853149,-0.05663374811410904,-0.07429450750350952,0.044899649918079376
15.45,0.9675738215446472,-0.6638803482055664,0.637947142124176,-0.28011831641197205,-0.2816293239593506,0.1104326844215393
15.5,0.7709330320358276,-0.8368215560913086,0.31400153040885925,-0.46303319931030273,-0.42273056507110596,0.06547264754772186
15.55,0.6845539808273315,-0.6875028610229492,-0.03455796837806702,-0.4822033941745758,-0.5823177099227905,-0.10504795610904694
15.6,0.841838002204895,-0.15380191802978516,-0.8560045957565308,-0.47862496972084045,-0.5573086142539978,-0.16603288054466248
15.65,0.48724162578582764,0.40016841888427734,-0.8200107216835022,-0.45495718717575073,-0.2893487811088562,-0.13049039244651794
15.7,-0.46135658025741577,0.9872722625732422,-0.22010932862758636,-0.3579237163066864,0.04771532118320465,-0.1638173758983612
15.75,-0.18836018443107605,-0.3266420364379883,0.008893832564353943,-0.13268250226974487,0.26578575372695923,-0.3194465637207031
15.8,-0.14895740151405334,-0.16790103912353516,-0.1998251974582672,0.10355004668235779,0.09570010006427765,-0.3949192762374878
15.85,-0.09774704277515411,0.7949752807617188,-0.5643049478530884,0.1305466890335083,-0.02661941945552826,-0.40198957920074463
15.9,-0.5565707087516785,1.0509672164916992,-0.38036689162254333,0.12203105539083481,-0.07770626246929169,-0.3408103883266449
15.95,-1.1467695236206055,0.9888401031494141,-0.6590077877044678,0.2028505504131317,-0.5039762854576111,-0.15207593142986298
16.0,-1.2139548063278198,1.3010778427124023,-1.155682921409607,0.09195899963378906,-0.5450212359428406,0.03916478902101517
16.05,-0.919455349445343,0.8080911636352539,-0.9477105140686035,-0.07698816806077957,0.006695386953651905,0.07062403857707977
16.1,-0.7675374150276184,0.13512229919433594,-0.4527766704559326,-0.06767278909683228,0.29094332456588745,0.05191642791032791
16.15,-0.8255375027656555,-0.3412466049194336,-0.4223490357398987,0.030123617500066757,0.2770148515701294,0.09535518288612366
16.2,-1.2167131900787354,-0.43698978424072266,-0.39777493476867676,0.07714086771011353,0.28723692893981934,0.1327727735042572
16.25,-1.2455955743789673,0.4605226516723633,-0.9904497861862183,0.026042792946100235,0.37704378366470337,0.08976808935403824
16.3,-0.5249223709106445,0.6970596313476562,-1.2887523174285889,-0.13432426750659943,0.8743244409561157,-0.03490685299038887
16.35,0.6599000692367554,0.5442438125610352,-0.38286876678466797,-0.16617831587791443,1.48914635181427,-0.10899116843938828
16.4,1.4670575857162476,0.09125328063964844,0.7749914526939392,-0.01863410323858261,1.4407577514648438,-0.08073262870311737
16.45,1.3063071966171265,0.11818408966064453,0.4664895236492157,0.11820948868989944,0.6735460758209229,0.08878239244222641
16.5,0.6484587788581848,-0.04065227508544922,-0.37979942560195923,0.06738478690385818,0.2200399488210678,0.20187100768089294
16.55,0.41277632117271423,-0.09075260162353516,-0.8818403482437134,-0.07943037152290344,0.22900155186653137,0.1636362075805664
16.6,0.6115586757659912,-0.1204366683959961,-0.7479286789894104,-0.21244856715202332,0.39535078406333923,0.11288397014141083
16.65,0.83465576171875,-0.10634136199951172,-0.31525206565856934,-0.2645851969718933,0.45634379982948303,0.1029643788933754
16.7,0.7777364253997803,0.03733253479003906,-0.09503945708274841,-0.22046570479869843,0.3303743898868561,0.136115163564682
16.75,0.6433703899383545,-0.2148904800415039,0.12214553356170654,-0.1940011978149414,0.23070891201496124,0.16517144441604614
16.8,0.6444851160049438,0.4529857635498047,0.7690979838371277,-0.20935854315757751,0.18600444495677948,0.1809455007314682
16.85,1.3074091672897339,0.8517780303955078,1.3343929052352905,-0.2858027219772339,0.03053934872150421,0.06996087729930878
16.9,1.269482970237732,0.18021583557128906,0.5996077060699463,-0.2750991880893707,-0.4507003724575043,-0.08410150557756424
16.95,0.5949586629867554,0.5405750274658203,0.6507135629653931,-0.3757615089416504,-0.7771905064582825,0.15922145545482635
17.0,0.18219752609729767,0.8087005615234375,0.26277750730514526,-0.6334385275840759,-0.8449677228927612,0.4382006824016571
17.05,0.07098731398582458,0.4431486129760742,0.13366131484508514,-0.6751141548156738,-0.8938496112823486,0.42804840207099915
17.1,0.10917007923126221,-0.06963253021240234,-0.3127571642398834,-0.43501901626586914,-0.9806920289993286,0.2965838313102722
17.15,0.13554376363754272,-0.057926177978515625,-0.3983035385608673,-0.19457373023033142,-0.9408244490623474,0.2043779492378235
17.2,-0.12372934818267822,0.10490703582763672,-0.011471971869468689,-0.09775696694850922,-0.7911781072616577,0.12430978566408157
17.25,-0.12734673917293549,0.12639522552490234,-0.15795665979385376,-0.06233268976211548,-0.7740206122398376,0.040562354028224945
17.3,-0.05858305096626282,0.01930713653564453,-0.42005035281181335,-0.05648118257522583,-0.7387751936912537,-0.009032441303133965
17.35,0.017707616090774536,0.1407318115234375,-0.3891584575176239,-0.043858882039785385,-0.5723842978477478,-0.023399513214826584
17.4,-0.07295337319374084,0.28539180755615234,-0.13767337799072266,0.013622624799609184,-0.4494859576225281,-0.024723753333091736
17.45,-0.10822080075740814,0.18422412872314453,-0.15368615090847015,0.015288548544049263,-0.40601080656051636,-0.034193865954875946
17.5,-0.06262434273958206,0.15396881103515625,-0.1921914964914322,0.008870713412761688,-0.32087358832359314,-0.05788976699113846
17.55,-0.06808462738990784,0.2515850067138672,-0.06037583574652672,0.03556737303733826,-0.20904386043548584,-0.06146081164479256
17.6,-0.287643700838089,-0.010428428649902344,-0.05734124034643173,0.12004546821117401,-0.22241315245628357,-0.030739549547433853
17.65,-0.18281207978725433,0.12673377990722656,-0.5640076398849487,0.1831464320421219,-0.1961662471294403,-0.07061059027910233
17.7,0.06739664077758789,0.6222000122070312,-0.5449780225753784,0.13601453602313995,0.06858029961585999,-0.117356076836586
17.75,-0.1527421474456787,0.6038570404052734,0.14082872867584229,0.14853110909461975,0.20745611190795898,-0.01884392648935318
17.8,-0.4081808030605316,0.31526756286621094,0.763914167881012,0.22318243980407715,0.04689069092273712,0.07609982043504715
17.85,-0.2177470475435257,0.19761371612548828,0.5859915614128113,0.11438167095184326,-0.11055077612400055,0.03982800990343094
17.9,-0.01860319823026657,0.35629940032958984,0.13527990877628326,-0.02453700080513954,-0.15358439087867737,0.009037730284035206
17.95,-0.10854260623455048,0.3248567581176758,-0.1565880924463272,-0.007494885474443436,-0.20975103974342346,0.0472012534737587
18.0,-0.1844199150800705,0.2077465057373047,-0.4537907838821411,0.07256577908992767,-0.15855561196804047,0.07568540424108505
18.05,-0.0958566665649414,0.3607912063598633,-0.4545412063598633,0.06601526588201523,0.08275098353624344,0.06286506354808807
18.1,-0.24425804615020752,0.27320003509521484,0.3122212588787079,0.05661743879318237,0.2641257643699646,0.0951688140630722
18.15,-0.34115973114967346,-0.035468101501464844,0.3992988169193268,0.10795724391937256,0.19308894872665405,0.11397543549537659
18.2,-0.13830022513866425,0.10675525665283203,0.33041173219680786,0.09856796264648438,0.2148914635181427,0.07436873018741608
18.25,-0.10423559695482254,0.1659860610961914,0.3127794861793518,0.10080695897340775,0.22343645989894867,0.10124799609184265
18.3,-0.17511866986751556,0.14256763458251953,0.20683863759040833,0.13441629707813263,0.19469225406646729,0.11072320491075516
18.35,0.07958221435546875,0.14699077606201172,-0.02965729311108589,0.08372090756893158,0.24502919614315033,0.1045326292514801
18.4,-0.05799202620983124,0.09233379364013672,0.5815163850784302,0.07037171721458435,0.2883147597312927,0.1286584734916687
18.45,0.09681046009063721,0.19161224365234375,0.508317232131958,0.10071806609630585,0.16456931829452515,0.13122709095478058
18.5,0.18801873922348022,0.1968994140625,-0.058633483946323395,0.0857589989900589,0.13651694357395172,0.07296857982873917
18.55,0.4393971264362335,0.28612327575683594,-0.8086073398590088,0.0269018542021513,0.3046487867832184,0.008741079829633236
18.6,0.010554298758506775,0.1971902847290039,0.39529871940612793,-0.052283480763435364,0.5140836834907532,0.06670080870389938
18.65,-0.2631373703479767,-0.01845264434814453,0.3397255539894104,-0.016905713826417923,0.2927953600883484,0.12448592483997345
18.7,-0.07630208134651184,0.004641532897949219,0.1938905417919159,-0.10453864932060242,0.27730849385261536,0.03451801836490631
18.75,0.04216279089450836,0.20355796813964844,0.2189961075782776,-0.25288569927215576,0.3489123284816742,-0.00811711698770523
18.8,0.05341865122318268,0.49118804931640625,-0.3664557635784149,-0.2392285168170929,0.2966654598712921,0.012247279286384583
18.85,0.012077391147613525,0.2551755905151367,-1.084341287612915,-0.185993954539299,0.3801787197589874,0.04297167807817459
18.9,-0.08976960182189941,-0.10113811492919922,-1.136713981628418,-0.09911753237247467,0.6950672268867493,0.02884175255894661
18.95,-0.12494868040084839,0.39783477783203125,-0.7445781230926514,0.046959251165390015,1.00278639793396,-0.01849774830043316
19.0,-0.2827121615409851,0.00824737548828125,0.02741873264312744,0.23115696012973785,1.0477805137634277,-0.024181008338928223
19.05,-0.3675147294998169,-0.30213069915771484,0.17120616137981415,0.384002685546875,0.8965414762496948,-0.1159164309501648
19.1,-0.441284716129303,-0.27723217010498047,0.2938471734523773,0.31686732172966003,0.9700809717178345,-0.28268054127693176
19.15,-0.18828433752059937,0.17109298706054688,0.5112258195877075,0.15523335337638855,1.1328308582305908,-0.3882220983505249
19.2,0.26979658007621765,0.6035394668579102,0.8083114624023438,0.09011165797710419,1.1526787281036377,-0.40208518505096436
19.25,0.5724924206733704,0.9020204544067383,0.9187558889389038,0.13715146481990814,0.9506638050079346,-0.36561524868011475
19.3,0.664992094039917,0.5808706283569336,0.9318695664405823,0.14608100056648254,0.6497991681098938,-0.2464200258255005
19.35,0.27974551916122437,0.166473388671875,0.7052538394927979,0.07208975404500961,0.3677864074707031,-0.08456793427467346
19.4,-0.07595345377922058,-0.15866661071777344,0.40910229086875916,-0.06823612749576569,0.22574792802333832,0.04090353101491928
19.45,-0.06547804176807404,-0.0946950912475586,0.2534686326980591,-0.22426852583885193,0.2827138304710388,0.05461156368255615
19.5,0.19526636600494385,0.2886619567871094,0.1563073992729187,-0.2777673304080963,0.34491968154907227,-0.010374173521995544
19.55,0.32627782225608826,0.5604085922241211,0.1428644061088562,-0.17385227978229523,0.28680312633514404,-0.06035999208688736
19.6,0.35896438360214233,0.49929332733154297,0.276824027299881,0.00017065554857254028,0.17870287597179413,-0.046768918633461
19.65,0.19783827662467957,0.32763004302978516,0.4161546230316162,0.08162190020084381,0.09454545378684998,-0.012300562113523483
19.7,0.07250945270061493,0.24876880645751953,0.3887992799282074,0.06603989005088806,0.048340581357479095,-0.0019468143582344055
19.75,0.1073523461818695,0.3596477508544922,0.34797489643096924,0.05762225389480591,0.020999763160943985,-0.010327022522687912
19.8,0.23111680150032043,0.3455934524536133,0.37488096952438354,0.07927459478378296,0.0031328722834587097,-0.011317253112792969
19.85,0.20577183365821838,0.3578329086303711,0.3337815999984741,0.12760135531425476,-0.05818167328834534,-0.006890781223773956
19.9,0.12181726843118668,0.38564300537109375,0.20328368246555328,0.167169451713562,-0.1196851134300232,-0.005587533116340637
19.95,0.03645846247673035,0.34536170959472656,0.07801774144172668,0.21129071712493896,-0.1527290791273117,-0.023669421672821045
20.0,0.003696950152516365,0.29093265533447266,0.059392377734184265,0.26191043853759766,-0.14975140988826752,-0.05414699763059616
20.05,0.0019486695528030396,0.15594005584716797,0.17451313138008118,0.2861329913139343,-0.12103359401226044,-0.06145421415567398
20.1,-0.07498597353696823,0.09456253051757812,0.26998811960220337,0.27667373418807983,-0.11920338124036789,-0.04588799923658371
20.15,-0.05492405965924263,0.12825870513916016,0.1761101484298706,0.24187707901000977,-0.1257137805223465,-0.03549011051654816
20.2,-0.050422098487615585,0.18660354614257812,0.12403251230716705,0.22265151143074036,-0.13043658435344696,-0.039156705141067505
20.25,-0.04143107309937477,0.17633724212646484,0.08071812987327576,0.23301732540130615,-0.1461479663848877,-0.04637634754180908
20.3,-0.04704887047410011,0.1846485137939453,0.12378240376710892,0.24208158254623413,-0.1481047123670578,-0.04387158900499344
20.35,-0.0822959616780281,0.1377429962158203,0.11998909711837769,0.23079243302345276,-0.14127720892429352,-0.03630965203046799
20.4,-0.11221781373023987,0.02824878692626953,0.09026593714952469,0.194673091173172,-0.1411081850528717,-0.022186845541000366
20.45,-0.15341439843177795,0.013905525207519531,0.08912104368209839,0.14340394735336304,-0.14121581614017487,-0.011595204472541809
20.5,-0.16323040425777435,0.10987472534179688,0.041993431746959686,0.08863317966461182,-0.12223273515701294,-0.013833235949277878
20.55,-0.0690944641828537,0.10303211212158203,0.018142566084861755,0.06253384798765182,-0.08684919774532318,-0.019753385335206985
20.6,-0.09589836001396179,0.07809257507324219,0.02069539576768875,0.07251673936843872,-0.0711464136838913,-0.02998606115579605
20.65,-0.19903016090393066,0.04407691955566406,0.06530395895242691,0.06868062913417816,-0.0412156842648983,-0.033136576414108276
20.7,-0.2094261348247528,0.09886837005615234,0.14831064641475677,0.02589099295437336,0.00979640893638134,-0.027393130585551262
20.75,-0.07876139134168625,0.17669963836669922,0.17215383052825928,-0.014370639808475971,0.037431251257658005,-0.024469248950481415
20.8,-0.015362679958343506,0.20044612884521484,0.16203242540359497,-0.03360994905233383,0.04300045222043991,-0.015219911932945251
20.85,-0.08119245618581772,0.16042232513427734,0.23586371541023254,-0.04867996275424957,0.04247766360640526,0.003549925982952118
20.9,-0.13202901184558868,0.14362239837646484,0.22591909766197205,-0.06313233822584152,0.040078189224004745,0.01255698874592781
20.95,-0.09314005076885223,0.11378002166748047,0.17981596291065216,-0.0756693035364151,0.04992363601922989,0.012306906282901764
21.0,-0.05925562232732773,0.1310415267944336,0.19649994373321533,-0.08497478067874908,0.06858589500188828,0.009629137814044952
21.05,-0.02581966668367386,0.1492605209350586,0.19086140394210815,-0.0901421457529068,0.08020831644535065,0.00842120498418808
21.1,-0.05545816570520401,0.14498233795166016,0.18295800685882568,-0.0942734032869339,0.08239622414112091,0.012746389955282211
21.15,-0.03250052034854889,0.15271472930908203,0.1973302662372589,-0.10453252494335175,0.08136974275112152,0.013209465891122818
21.2,0.011946447193622589,0.13256072998046875,0.18620482087135315,-0.11957983672618866,0.07484501600265503,0.011094707995653152
21.25,-0.05349982529878616,0.1438121795654297,0.1795395165681839,-0.1288045197725296,0.07347141206264496,0.00609884038567543
21.3,-0.0392790362238884,0.14552021026611328,0.22318223118782043,-0.12513068318367004,0.07947045564651489,-0.001423366367816925
21.35,-0.048173993825912476,0.17702388763427734,0.33867061138153076,-0.11622932553291321,0.08917856216430664,-0.012550383806228638
21.4,-0.03703303635120392,0.23424625396728516,0.34337425231933594,-0.10143503546714783,0.07899609953165054,-0.020644232630729675
21.45,-0.02429737150669098,0.24704647064208984,0.3589250147342682,-0.08764561265707016,0.06286095082759857,-0.021884066984057426
21.5,-0.04864084720611572,0.23282146453857422,0.33656197786331177,-0.07594078779220581,0.037676192820072174,-0.025027776136994362
21.55,-0.10155989974737167,0.25457000732421875,0.2341405302286148,-0.06941211223602295,0.02026689611375332,-0.027515387162566185
21.6,-0.09073172509670258,0.24648094177246094,0.1811857968568802,-0.06608298420906067,0.028572985902428627,-0.020918505266308784
21.65,-0.07855704426765442,0.22068309783935547,0.16849318146705627,-0.05412493646144867,0.035398948937654495,-0.013532925397157669
21.7,-0.06742259860038757,0.1812286376953125,0.12573467195034027,-0.04403158277273178,0.024895893409848213,-0.007639661431312561
21.75,-0.09865276515483856,0.18660354614257812,0.1231720894575119,-0.04210991784930229,0.014082511886954308,-0.0013492684811353683
21.8,-0.1146329939365387,0.16107463836669922,0.10254272818565369,-0.04100087285041809,0.0043420493602752686,-0.0022171325981616974
21.85,-0.09197675436735153,0.14875030517578125,0.11365994065999985,-0.04640687257051468,0.00363229401409626,-0.008747480809688568
21.9,-0.12587577104568481,0.17175769805908203,0.21575042605400085,-0.05578342825174332,0.01404910534620285,-0.017704617232084274
21.95,-0.14335200190544128,0.21138763427734375,0.23960882425308228,-0.053878456354141235,0.012608500197529793,-0.031626056879758835
22.0,-0.10913319885730743,0.23530960083007812,0.17379988729953766,-0.04598958045244217,0.0089865205809474,-0.0403321199119091
22.05,-0.12876412272453308,0.2160501480102539,0.09007183462381363,-0.0407906174659729,-0.009261044673621655,-0.03901172801852226
22.1,-0.1561899483203888,0.2498607635498047,0.08228099346160889,-0.04363744705915451,-0.01603449136018753,-0.029289361089468002
22.15,-0.12698137760162354,0.3268604278564453,0.12161288410425186,-0.042280908674001694,0.01184826996177435,-0.01761181652545929
22.2,-0.06463125348091125,0.3480100631713867,0.17709980905056,-0.015310141257941723,0.033184606581926346,-0.007875777781009674
22.25,-0.053237274289131165,0.2713460922241211,0.24367345869541168,0.021026035770773888,0.008969572372734547,0.0036754892207682133
22.3,-0.12783950567245483,0.236297607421875,0.24425527453422546,0.03894035145640373,-0.022398926317691803,0.006404658779501915
22.35,-0.13659346103668213,0.1871786117553711,0.1601353883743286,0.031241748481988907,-0.022834287956357002,-0.0008171740919351578
22.4,-0.11902684718370438,0.10045051574707031,0.051641859114170074,0.024002162739634514,-0.03659219667315483,-0.012894704937934875
22.45,-0.19410815834999084,0.12260150909423828,-0.03769673407077789,0.0286902766674757,-0.04475164785981178,-0.0223821010440588
22.5,-0.23465393483638763,0.06978988647460938,-0.06162487715482712,0.02325826697051525,0.0024804137647151947,-0.03073279559612274
22.55,-0.2221217155456543,0.17276382446289062,0.017718754708766937,0.009384839795529842,0.0632152259349823,-0.041431017220020294
22.6,-0.06610167771577835,0.5206441879272461,0.11348927766084671,-0.0004461519420146942,0.12790672481060028,-0.03537020832300186
22.65,0.22569875419139862,0.8687543869018555,0.3300893306732178,0.019306236878037453,0.18427561223506927,-0.0016483189538121223
22.7,0.2243703305721283,0.9774351119995117,0.49919265508651733,0.12393835932016373,0.09944797307252884,0.062492456287145615
22.75,-0.011338740587234497,0.8231296539306641,0.6264457702636719,0.2891444265842438,-0.024794191122055054,0.13605095446109772
22.8,-0.0373268723487854,0.6335105895996094,0.8431264162063599,0.4223581552505493,-0.025762051343917847,0.15811783075332642
22.85,0.02661728858947754,0.4721240997314453,0.9365963339805603,0.5133715271949768,-0.049335479736328125,0.12592412531375885
22.9,0.026439160108566284,0.20584964752197266,0.8242751359939575,0.5839272737503052,-0.1795922815799713,0.10572445392608643
22.95,-0.09595173597335815,-0.16502666473388672,0.5231009721755981,0.6197550892829895,-0.3522663116455078,0.09998728334903717
23.0,-0.2995987832546234,-0.3662300109863281,0.16072940826416016,0.607947826385498,-0.4452483057975769,0.08406591415405273
23.05,-0.4085739850997925,-0.2823152542114258,-0.11623308062553406,0.5259740352630615,-0.3844360113143921,0.05715624988079071
23.1,-0.3645719289779663,-0.12977313995361328,-0.2955433130264282,0.4179689586162567,-0.23727980256080627,0.023031756281852722
23.15,-0.21879225969314575,-0.09660816192626953,-0.30348336696624756,0.356084406375885,-0.10987190157175064,-0.002358049154281616
23.2,-0.1819869428873062,-0.13798236846923828,-0.19644276797771454,0.321980744600296,-0.03017989546060562,-0.009794935584068298
23.25,-0.14940756559371948,-0.1702413558959961,-0.1712786704301834,0.26050427556037903,0.021419845521450043,-0.01314862072467804
23.3,-0.0457426942884922,-0.1250619888305664,-0.11391767859458923,0.16718485951423645,0.08370015770196915,-0.02297551929950714
23.35,0.07322439551353455,-0.0031976699829101562,0.07251802831888199,0.07975104451179504,0.14728188514709473,-0.03354945778846741
23.4,0.12905213236808777,0.12063121795654297,0.32311373949050903,0.023390723392367363,0.1505621075630188,-0.039223819971084595
23.45,0.11965315043926239,0.17914676666259766,0.40931791067123413,0.0034088175743818283,0.09368965774774551,-0.04285196587443352
23.5,0.08958829939365387,0.243011474609375,0.4201098084449768,-0.008080024272203445,0.028704840689897537,-0.04281887412071228
23.55,0.06879903376102448,0.2294473648071289,0.4143025875091553,-0.023887943476438522,-0.006108952686190605,-0.029794566333293915
23.6,0.03851903975009918,0.29325389862060547,0.3290922939777374,-0.02765054628252983,-0.037776172161102295,-0.02367626689374447
23.65,-0.00878220796585083,0.35970115661621094,0.25171083211898804,-0.01678372547030449,-0.05125059187412262,-0.016668835654854774
23.7,-0.07557295262813568,0.27686595916748047,0.24356865882873535,0.0012851485516875982,-0.04347572475671768,-0.0018256285693496466
23.75,-0.1354553997516632,0.2243356704711914,0.25128090381622314,0.01863138936460018,-0.05415187403559685,0.009793569333851337
23.8,-0.154035285115242,0.22280311584472656,0.2446923553943634,0.021190449595451355,-0.05723943933844566,0.024113088846206665
23.85,-0.15376637876033783,0.23450851440429688,0.2555873692035675,0.02791149541735649,-0.047305524349212646,0.0347793884575367
23.9,-0.12316907942295074,0.19038677215576172,0.26143884658813477,0.050374407321214676,-0.05025027319788933,0.039887744933366776
23.95,-0.15991201996803284,0.101715087890625,0.3306109309196472,0.05934128165245056,-0.05035405978560448,0.04090585559606552
24.0,-0.18234586715698242,0.029756546020507812,0.26157769560813904,0.052779536694288254,-0.06557721644639969,0.024990634992718697
24.05,-0.2099432498216629,-0.01623058319091797,0.16713720560073853,0.03789488226175308,-0.07979576289653778,0.005947989411652088
24.1,-0.22550970315933228,0.04679393768310547,0.15008632838726044,0.013331662863492966,-0.06893802434206009,-0.0037414967082440853
24.15,-0.1799381971359253,0.16974163055419922,0.13644078373908997,-0.012034888379275799,-0.03802809864282608,-0.008235134184360504
24.2,-0.15224871039390564,0.1706094741821289,0.12941262125968933,-0.02983255684375763,-0.0012777354568243027,-0.0008721994236111641
24.25,-0.14694252610206604,0.1951007843017578,0.14716818928718567,-0.03673920780420303,0.01800212264060974,0.007759380154311657
24.3,-0.116672083735466,0.20918941497802734,0.17470721900463104,-0.04479828104376793,0.046027038246393204,0.018529433757066727
24.35,-0.09025539457798004,0.17332935333251953,0.22708876430988312,-0.0474342405796051,0.06629102677106857,0.027328835800290108
24.4,-0.12046913057565689,0.13320350646972656,0.239773228764534,-0.04280789941549301,0.05479483678936958,0.022057563066482544
24.45,-0.11627564579248428,0.16038227081298828,0.22582444548606873,-0.04991057515144348,0.05276446416974068,0.015998607501387596
24.5,-0.06757573783397675,0.20598506927490234,0.21888168156147003,-0.05676322430372238,0.06276962906122208,0.011394375935196877
24.55,-0.061068095266819,0.17716026306152344,0.23386014997959137,-0.042520008981227875,0.04889807105064392,0.003593709319829941
24.6,-0.09989051520824432,0.09544849395751953,0.24763992428779602,-0.024871747940778732,0.027551772072911263,-0.0025888262316584587
24.65,-0.11250893026590347,0.14261627197265625,0.20736762881278992,-0.02424769476056099,0.01890525221824646,-0.008599817752838135
24.7,-0.122869573533535,0.2464609146118164,0.21180814504623413,-0.031698696315288544,0.021227121353149414,-0.012614425271749496
24.75,-0.09317832440137863,0.2746315002441406,0.21279041469097137,-0.025003202259540558,0.019209109246730804,-0.01322245690971613
24.8,-0.07079753279685974,0.27959156036376953,0.17486141622066498,-0.005862537771463394,0.012722649611532688,-0.005945911630988121
24.85,-0.05152164399623871,0.20803546905517578,0.1812642514705658,0.01560636144131422,0.00941454991698265,0.005567011423408985
24.9,-0.049821119755506516,0.15213775634765625,0.16305312514305115,0.022433187812566757,0.014406353235244751,0.007314110174775124
24.95,-0.00845973938703537,0.2087259292602539,0.19256258010864258,0.01948963850736618,0.013505587354302406,0.002870050258934498
25.0,0.03596332669258118,0.31189441680908203,0.24826087057590485,0.027679020538926125,-0.005500049330294132,0.004934497177600861
25.05,-0.008427426218986511,0.2884511947631836,0.22355449199676514,0.044339921325445175,-0.04759201779961586,0.011562969535589218
25.1,-0.05899061635136604,0.17943477630615234,0.19250798225402832,0.06784766167402267,-0.09404055029153824,0.012158166617155075
25.15,-0.06825375556945801,0.0946502685546875,0.157194584608078,0.06128449738025665,-0.12060241401195526,0.009737994521856308
25.2,-0.14161348342895508,0.03791236877441406,0.044715214520692825,0.02184126526117325,-0.13248096406459808,0.002614835277199745
25.25,-0.12364587932825089,0.004693031311035156,-0.10127922892570496,-0.028547244146466255,-0.11351418495178223,-0.006117229349911213
25.3,0.03006831556558609,-0.07727718353271484,-0.06805203855037689,-0.06171877309679985,-0.059141844511032104,-0.0218197014182806
25.35,0.045114919543266296,-0.1180105209350586,0.04261906445026398,-0.09844879806041718,-0.04005615785717964,-0.0394047312438488
25.4,0.08127482980489731,-0.1655426025390625,0.14087055623531342,-0.1778993308544159,-0.05956434831023216,-0.05365222319960594
25.45,0.06270042061805725,-0.06604385375976562,0.060394518077373505,-0.2531370222568512,-0.1164402887225151,-0.08175699412822723
25.5,0.06923104077577591,0.1627521514892578,0.07460454851388931,-0.31516188383102417,-0.14940497279167175,-0.08865134418010712
25.55,0.0740867629647255,0.28287220001220703,0.2840523421764374,-0.3189970850944519,-0.1393025517463684,-0.08172808587551117
25.6,0.13924145698547363,0.39800548553466797,0.37860411405563354,-0.2689268887042999,-0.16196012496948242,-0.08357325941324234
25.65,0.26901018619537354,0.3947019577026367,0.5018898844718933,-0.21173328161239624,-0.25663071870803833,-0.08322279155254364
25.7,0.36127969622612,0.32022571563720703,0.6496852040290833,-0.16569752991199493,-0.39764195680618286,-0.08252091705799103
25.75,0.3228408992290497,0.2345752716064453,0.8096902966499329,-0.15303969383239746,-0.5464568734169006,-0.07961499691009521
25.8,0.09684216976165771,0.23410415649414062,0.8019511103630066,-0.15942224860191345,-0.7568775415420532,-0.07125130295753479
25.85,-0.19901740550994873,0.23283863067626953,0.4216468632221222,-0.17733652889728546,-0.9890291690826416,-0.07398776710033417
25.9,-0.3517913222312927,0.17440128326416016,-0.033639565110206604,-0.1895836740732193,-1.0837935209274292,-0.09598850458860397
25.95,-0.3491121530532837,0.12788963317871094,-0.28486692905426025,-0.16557055711746216,-1.0299538373947144,-0.13085928559303284
26.0,-0.39882346987724304,0.1908702850341797,-0.34173330664634705,-0.12447771430015564,-0.91087806224823,-0.16178296506404877
26.05,-0.4330921471118927,0.30280494689941406,-0.5837730169296265,-0.07780322432518005,-0.7790007591247559,-0.17528221011161804
26.1,-0.40871724486351013,0.3089265823364258,-0.6195145845413208,-0.0753013864159584,-0.5617803335189819,-0.16400453448295593
26.15,-0.4506060779094696,0.34404754638671875,-0.44150310754776,-0.08443781733512878,-0.3574449121952057,-0.132471963763237
26.2,-0.48566490411758423,0.40887928009033203,-0.3567098379135132,-0.0844804048538208,-0.20529401302337646,-0.09522950649261475
26.25,-0.4794420897960663,0.38830089569091797,-0.25701621174812317,-0.056418079882860184,-0.06363282352685928,-0.06393503397703171
26.3,-0.4375194311141968,0.39504146575927734,-0.11184863746166229,0.007274206727743149,0.07933344691991806,-0.041121505200862885
26.35,-0.39179667830467224,0.4832134246826172,-0.0581640750169754,0.0701441839337349,0.1800597906112671,-0.00657268613576889
26.4,-0.41438838839530945,0.5857744216918945,-0.05865776538848877,0.10325910151004791,0.27053165435791016,0.04332569241523743
26.45,-0.4292293190956116,0.4841947555541992,0.03500121831893921,0.10778946429491043,0.3682122826576233,0.0989060178399086
26.5,-0.42235976457595825,0.30794525146484375,0.06691670417785645,0.08681691437959671,0.45890796184539795,0.1407698392868042
26.55,-0.35675525665283203,0.18988513946533203,0.08106677234172821,0.058623142540454865,0.5519559979438782,0.16324123740196228
26.6,-0.3334847092628479,0.14193058013916016,0.12039733678102493,0.06440242379903793,0.6165210604667664,0.16883748769760132
26.65,-0.26393818855285645,0.03122997283935547,0.2001754343509674,0.09697183221578598,0.6715877056121826,0.1561843454837799
26.7,-0.20847347378730774,0.02204132080078125,0.3150229752063751,0.12865643203258514,0.7409112453460693,0.12910878658294678
26.75,-0.0023209601640701294,0.052196502685546875,0.4800262451171875,0.13767169415950775,0.7953813672065735,0.10236856341362
26.8,0.166023388504982,0.14316749572753906,0.5978952646255493,0.12886004149913788,0.7585634589195251,0.09853582829236984
26.85,0.3435649871826172,0.12455463409423828,0.6488651037216187,0.0877656489610672,0.6754907369613647,0.11823448538780212
26.9,0.40246444940567017,0.1256723403930664,0.6968472003936768,0.04005512222647667,0.568590521812439,0.12732431292533875
26.95,0.40386825799942017,0.0850830078125,0.650288462638855,0.009779132902622223,0.4336114525794983,0.1296224296092987
27.0,0.3922727108001709,-0.020951271057128906,0.5606933236122131,-0.018535640090703964,0.31319373846054077,0.12814605236053467
27.05,0.3464089632034302,0.11494922637939453,0.4630454182624817,-0.03706717863678932,0.1942325234413147,0.10210788995027542
27.1,0.30846545100212097,0.11664009094238281,0.2610031068325043,-0.03462306037545204,0.0771956741809845,0.07867850363254547
27.15,0.18105468153953552,0.20092296600341797,0.09026594460010529,-0.015736013650894165,-0.016454150900244713,0.06476137787103653
27.2,0.07635456323623657,0.14594364166259766,0.00394841656088829,-0.01028568297624588,-0.03990360349416733,0.055560335516929626
27.25,0.04036925733089447,0.1615743637084961,0.01797940954566002,-0.02322431281208992,-0.01357201300561428,0.04484850540757179
27.3,0.04491395503282547,0.19268226623535156,-0.053063638508319855,-0.02664264291524887,-0.009291213937103748,0.0375879742205143
27.35,-0.020219925791025162,0.14702892303466797,-0.1057317927479744,-0.019241096451878548,-0.019467825070023537,0.02621787041425705
27.4,-0.16303478181362152,0.1728658676147461,-0.09401796013116837,-0.01709822192788124,-0.012803683057427406,0.01080549880862236
27.45,-0.14685872197151184,0.2199230194091797,-0.03954732045531273,-0.02239164337515831,0.022449180483818054,0.005458632484078407
27.5,-0.07336887717247009,0.1935100555419922,0.026626501232385635,-0.017263665795326233,0.051856741309165955,0.004115889314562082
27.55,-0.026347637176513672,0.2685823440551758,0.10609900206327438,-0.016930878162384033,0.059579674154520035,0.010225947946310043
27.6,-0.04742652177810669,0.2354421615600586,0.06842110306024551,0.0006979396566748619,0.029081666842103004,0.008399665355682373
27.65,-0.10617692768573761,0.220855712890625,0.055915962904691696,0.01018483191728592,0.012540329247713089,0.0018473770469427109
27.7,-0.15078182518482208,0.16668987274169922,0.0794268324971199,0.008576465770602226,0.03027833253145218,0.003412093035876751
27.75,-0.2305799126625061,0.21199989318847656,0.038490571081638336,0.006893029902130365,0.025913482531905174,0.006645279470831156
27.8,-0.1634194254875183,0.1701374053955078,-0.0007045567035675049,-0.01331343688070774,0.025001609697937965,0.008241547271609306
27.85,-0.0977577194571495,0.1850299835205078,0.01030309870839119,-0.03507959470152855,0.050093792378902435,0.011346293613314629
27.9,0.02685755491256714,0.22320175170898438,0.0866810530424118,-0.042159415781497955,0.07558675855398178,0.022121386602520943
27.95,-0.09693975001573563,0.20658016204833984,0.07773196697235107,-0.012968515045940876,0.0677555501461029,0.020343778654932976
28.0,-0.12953513860702515,0.18905353546142578,0.09949798882007599,0.0046685002744197845,0.06665853410959244,0.02366137132048607
28.05,-0.147780641913414,0.1796112060546875,0.02575007826089859,-0.008881345391273499,0.06754042208194733,0.029975738376379013
28.1,-0.07809773087501526,0.2768278121948242,0.050239402800798416,-0.03101745992898941,0.09173234552145004,0.032460711896419525
28.15,0.02852429822087288,0.30330467224121094,0.14209946990013123,-0.03496590256690979,0.12610115110874176,0.040634918957948685
28.2,-0.024334900081157684,0.2008991241455078,0.14524000883102417,0.010513154789805412,0.0946727842092514,0.041203491389751434
28.25,-0.08147092908620834,0.10360145568847656,0.16119062900543213,0.02154790610074997,0.07692587375640869,0.04180430993437767
28.3,-0.10966351628303528,0.04116344451904297,0.2240234613418579,-0.002253076061606407,0.08715477585792542,0.033564724028110504
28.35,-0.06321844458580017,0.0977487564086914,0.1488434374332428,-0.027773289009928703,0.07216402888298035,0.024707568809390068
28.4,-0.05347778648138046,0.23856067657470703,0.09207218140363693,-0.03587941452860832,0.07588746398687363,0.0186886228621006
28.45,-0.023923475295305252,0.2801647186279297,0.08396856486797333,-0.02069317176938057,0.09633992612361908,0.020617837086319923
28.5,-0.09469198435544968,0.17625904083251953,0.09404455870389938,-0.012112386524677277,0.1052495539188385,0.022808780893683434
28.55,-0.06272296607494354,0.2682971954345703,0.13939227163791656,-0.014546805992722511,0.12425371259450912,0.019325021654367447
28.6,0.036894720047712326,0.26506710052490234,0.14481115341186523,-0.010136973112821579,0.1333833485841751,0.009275468066334724
28.65,0.10272528231143951,0.1936502456665039,0.17090173065662384,0.012216765433549881,0.12480147927999496,0.002238735556602478
28.7,0.046322837471961975,0.1308135986328125,0.17922675609588623,0.01792495884001255,0.10471512377262115,0.012145093642175198
28.75,-0.016882281750440598,0.14155292510986328,0.09530800580978394,-0.013479246757924557,0.0994744747877121,0.02037922665476799
28.8,0.09286022186279297,0.24130725860595703,0.11807159334421158,-0.04006040468811989,0.11493609100580215,0.022880777716636658
28.85,0.20755553245544434,0.2677907943725586,0.08598697185516357,-0.020997675135731697,0.09111685305833817,0.028283488005399704
28.9,0.024386435747146606,0.2215404510498047,0.14876163005828857,0.008629589341580868,0.0509803369641304,0.03340441733598709
28.95,-0.006486840546131134,0.11227130889892578,0.1640586256980896,0.01144177746027708,0.04361138120293617,0.028684286400675774
29.0,0.044349536299705505,0.16185379028320312,0.22377099096775055,-0.011165622621774673,0.04927824065089226,0.021187974140048027
29.05,0.04434145987033844,0.23015499114990234,0.1880863606929779,-0.011373884044587612,0.012724244967103004,0.009228751994669437
29.1,0.04065694659948349,0.24087047576904297,0.092522531747818,0.0028006995562464,-0.021736368536949158,0.0070336610078811646
29.15,-0.0006981282494962215,0.18877696990966797,0.012446459382772446,0.00018361606635153294,-0.0328984297811985,0.007575960364192724
29.2,-0.06678111851215363,0.19522857666015625,0.022207871079444885,-0.01349322497844696,-0.006164474878460169,0.013870922848582268
29.25,-0.07615309953689575,0.16335105895996094,0.027952296659350395,-0.013464458286762238,0.013337936252355576,0.00943373516201973
29.3,-0.013375189155340195,0.15011024475097656,0.1007121354341507,-0.003255878109484911,0.020378902554512024,0.002722423058003187
29.35,-0.09549647569656372,0.15015697479248047,0.16178898513317108,0.00113155716098845,0.008198732510209084,0.007092868909239769
29.4,-0.05850411579012871,0.22698211669921875,0.11268432438373566,-0.002342496532946825,0.0013101508375257254,0.0006745885475538671
29.45,-0.056793827563524246,0.22300148010253906,0.07509944587945938,-0.012612642720341682,0.01049848087131977,0.0004057944752275944
29.5,-0.024003297090530396,0.2064676284790039,0.10084494948387146,-0.008140595629811287,0.017070306465029716,2.8928741812705994e-05
29.55,-0.03357025235891342,0.17277145385742188,0.12627319991588593,0.00763519573956728,0.005935140419751406,-0.004218908026814461
29.6,-0.058880943804979324,0.23123741149902344,0.12071768194437027,0.01551742758601904,0.004820023197680712,-0.012317036278545856
29.65,-0.10095013678073883,0.21478557586669922,0.14402735233306885,0.008883262053132057,0.017750583589076996,-0.018564831465482712
29.7,-0.08810795843601227,0.15956401824951172,0.09609578549861908,0.012152886018157005,-0.01932390034198761,-0.009197542443871498
29.75,-0.1489151120185852,0.16772937774658203,0.134651780128479,-0.013756731525063515,-0.01505464781075716,0.0001790616661310196
29.8,-0.08969573676586151,0.20185279846191406,0.01813112571835518,-0.01855224184691906,-0.006701508071273565,-0.0017289519309997559
29.85,-0.12228754907846451,0.17084789276123047,-0.025753390043973923,-0.008861761540174484,0.004592605866491795,0.002901615109294653
29.9,-0.09736242890357971,0.20260047912597656,0.07219213247299194,-0.019239064306020737,0.04687981307506561,0.00847129337489605
29.95,-0.018159683793783188,0.1646566390991211,0.1345793604850769,-0.021203674376010895,0.05210864916443825,0.004859570413827896
30.0,-0.07574248313903809,0.10323619842529297,0.08017534017562866,-0.014552216976881027,0.03641294687986374,0.010263138450682163
30.05,-0.06039802357554436,0.040653228759765625,0.19541685283184052,-0.031125614419579506,0.046064380556344986,0.013222889974713326
30.1,-0.08942059427499771,0.12352275848388672,0.10541503131389618,-0.03859554976224899,0.0270090252161026,-0.012106780894100666
30.15,-0.011450139805674553,0.1941394805908203,0.012440720573067665,-0.041828811168670654,0.029133524745702744,-0.026606719940900803
30.2,-0.015371330082416534,0.39575672149658203,0.007949309423565865,-0.035681094974279404,0.04687775298953056,-0.025601757690310478
30.25,0.08931480348110199,0.4316902160644531,0.07529094070196152,-0.02111930586397648,0.07311653345823288,-0.016350917518138885
30.3,0.02063007652759552,0.2476043701171875,0.19201256334781647,0.011931229382753372,0.03193427249789238,0.011670161038637161
30.35,0.008932903409004211,0.08506011962890625,0.2587723731994629,0.009148579090833664,-7.467460818588734e-05,0.04322975501418114
30.4,0.0317353829741478,0.15062618255615234,0.19274887442588806,-0.013706720434129238,-0.0006681694649159908,0.02682064287364483
30.45,0.01601404696702957,0.1902332305908203,0.13394027948379517,-0.030866455286741257,-0.012245867401361465,0.0027306033298373222
30.5,0.010695314034819603,0.3064231872558594,-0.022315986454486847,-0.005292064510285854,-0.0819590762257576,-0.000164741650223732
30.55,-0.08872605115175247,0.21800899505615234,-0.0934751108288765,0.009637744165956974,-0.08356907963752747,0.01379852183163166
30.6,-0.1409207284450531,0.1806173324584961,-0.08584579825401306,0.005560344085097313,-0.03723515570163727,0.012885259464383125
30.65,-0.061849839985370636,0.09761238098144531,0.03719450160861015,0.008260850794613361,0.02216321974992752,0.005867481231689453
30.7,-0.1467505693435669,0.1116647720336914,0.1612117886543274,-0.007636230438947678,0.057697705924510956,0.001294582849368453
30.75,-0.05497361347079277,0.18517398834228516,0.07664477825164795,-0.021673860028386116,0.05202589929103851,-0.014660365879535675
30.8,0.10894366353750229,0.3158388137817383,0.07556477934122086,-0.03768068552017212,0.04859699681401253,-0.02747291699051857
30.85,-0.043477363884449005,0.22332191467285156,0.020198065787553787,-0.01715615950524807,0.00697360560297966,-0.018440743908286095
30.9,-0.1309061497449875,0.1865253448486328,-0.0002646148204803467,-0.012474369257688522,-0.00011048279702663422,-0.004891242831945419
30.95,-0.06333784759044647,0.1755838394165039,0.05957924574613571,-0.02933473512530327,0.05214080214500427,-0.004990111105144024
31.0,-0.043983202427625656,0.23200607299804688,0.16959287226200104,-0.03076040744781494,0.075626902282238,-0.016249943524599075
31.05,-0.052543796598911285,0.1918201446533203,0.21137017011642456,-0.015510434284806252,0.043969474732875824,-0.01655762642621994
31.1,0.003344029188156128,0.20027732849121094,0.14042013883590698,0.002583695575594902,0.018444092944264412,-0.02385655790567398
31.15,-0.0630062147974968,0.2675800323486328,0.11046400666236877,-0.0025427965447306633,0.014646051451563835,-0.025670547038316727
31.2,-0.1250731199979782,0.13336181640625,0.013548742979764938,-0.001110287383198738,-0.0014547193422913551,-0.02568981610238552
31.25,-0.19668731093406677,0.17528915405273438,-0.006516121327877045,0.005111096426844597,0.008230337873101234,-0.03128183260560036
31.3,-0.21194782853126526,0.19812297821044922,0.12023931741714478,0.0026907892897725105,0.05859572812914848,-0.025248827412724495
31.35,-0.18437416851520538,0.1916656494140625,0.1133042424917221,0.006145881488919258,0.07071812450885773,-0.0246508177369833
31.4,-0.02258528396487236,0.2355184555053711,0.1553252637386322,-0.0008248090744018555,0.08431918174028397,-0.022108912467956543
31.45,0.010304860770702362,0.19477272033691406,0.1801920235157013,0.004478187300264835,0.06564123928546906,-0.019714148715138435
31.5,-0.007795155048370361,0.30298805236816406,0.20364214479923248,0.027995515614748,0.038665905594825745,-0.02518058754503727
31.55,-0.01006750762462616,0.17730140686035156,0.2555704414844513,0.04040984809398651,0.0379054918885231,-0.025381658226251602
31.6,0.12605999410152435,0.1120138168334961,0.31614217162132263,0.04579070582985878,0.008671569637954235,-0.028227604925632477
31.65,0.11486315727233887,0.2320566177368164,0.21059688925743103,0.04365445673465729,-0.035258058458566666,-0.04171563684940338
31.7,0.005858317017555237,0.2611227035522461,0.1432117223739624,0.04222789406776428,-0.051026903092861176,-0.043882016092538834
31.75,0.004048246890306473,0.2864799499511719,0.12759271264076233,0.054149046540260315,-0.06857294589281082,-0.03969462215900421
31.8,-0.06838303804397583,0.17535877227783203,0.019204866141080856,0.0646725594997406,-0.08800680935382843,-0.03316812217235565
31.85,-0.0638388991355896,0.18570518493652344,0.07445570081472397,0.050032563507556915,-0.0685824304819107,-0.03106164000928402
31.9,-0.11585335433483124,0.22305679321289062,0.013973623514175415,0.03602997958660126,-0.04049507901072502,-0.032190389931201935
31.95,-0.04421178251504898,0.1775674819946289,0.04253997281193733,0.05413408949971199,-0.028880121186375618,-0.0359431616961956
32.0,-0.0061833541840314865,0.20509052276611328,0.07010641694068909,0.07608470320701599,-0.008519832044839859,-0.046590834856033325
32.05,-0.013835892081260681,0.2564411163330078,0.12442398071289062,0.07513486593961716,0.01585683785378933,-0.04699086770415306
32.1,0.043210048228502274,0.2396383285522461,0.1363271176815033,0.08104798197746277,-0.004870284348726273,-0.040318846702575684
32.15,0.06637261807918549,0.2710905075073242,0.13218601047992706,0.08685308694839478,-0.03335490822792053,-0.026725925505161285
32.2,-0.10791608691215515,0.21225261688232422,0.18281146883964539,0.08866500109434128,-0.04164346307516098,-0.01595504954457283
32.25,-0.057447485625743866,0.15946102142333984,0.08954169601202011,0.08597926795482635,-0.06529094278812408,-0.021879155188798904
32.3,-0.030916262418031693,0.11061573028564453,-0.018820516765117645,0.06497824937105179,-0.04624003916978836,-0.02127000130712986
32.35,-0.06794798374176025,0.1450977325439453,0.021275192499160767,0.04624068737030029,-0.011148195713758469,-0.018618594855070114
32.4,0.10086939483880997,0.1507091522216797,0.04805922135710716,0.054302461445331573,0.008894521743059158,-0.028442781418561935
32.45,0.06732068210840225,0.12755775451660156,0.13799166679382324,0.06678910553455353,-0.010542156174778938,-0.028273185715079308
32.5,-0.029095057398080826,0.14681339263916016,0.14747877418994904,0.046614862978458405,-0.03277304023504257,-0.01645851694047451
32.55,-0.0060165077447891235,0.1224966049194336,0.04314696788787842,0.012067248113453388,-0.041822873055934906,-0.01390013750642538
32.6,0.053071703761816025,0.07749462127685547,-0.058436039835214615,-0.007652520202100277,-0.03103889897465706,-0.012880824506282806
32.65,0.09638787806034088,0.28489017486572266,0.007985483855009079,-0.0066405185498297215,0.007064499892294407,-0.015397344715893269
32.7,0.035765934735536575,0.26165103912353516,0.14237408339977264,0.017589136958122253,0.015368840657174587,-0.010883231647312641
32.75,0.06785089522600174,0.13302898406982422,0.23656275868415833,0.018071666359901428,-0.008386014960706234,0.002967825625091791
32.8,-0.02117180824279785,0.18892574310302734,0.23758333921432495,-0.009341765195131302,-0.0309720728546381,0.0071214307099580765
32.85,-0.001575816422700882,0.22154808044433594,0.11122693121433258,-0.03983954340219498,-0.05708097666501999,0.01809091866016388
32.9,-0.10482586175203323,0.1806478500366211,-0.07181698083877563,-0.03154785558581352,-0.11582113802433014,0.0160936638712883
32.95,-0.18044130504131317,0.09145545959472656,-0.0930330827832222,-0.02358173578977585,-0.09186258912086487,0.006493899039924145
33.0,-0.047910187393426895,0.1224813461303711,0.029277119785547256,-0.012365587055683136,0.0010053860023617744,-0.003256544005125761
33.05,-0.001108407974243164,0.1125946044921875,0.26338091492652893,0.020843662321567535,0.040209926664829254,-0.03713357821106911
33.1,-0.046354278922080994,0.0778818130493164,0.26540428400039673,0.043662045150995255,-0.0011404231190681458,-0.05806852504611015
33.15,0.04084644466638565,0.020720481872558594,0.22336143255233765,0.0029753856360912323,-0.052868179976940155,-0.06938634812831879
33.2,-0.016004405915737152,0.04995250701904297,0.17922937870025635,-0.050927795469760895,-0.10285145044326782,-0.07519024610519409
33.25,0.0005882307887077332,0.2140064239501953,0.18524771928787231,-0.09600838273763657,-0.10398811846971512,-0.08268960565328598
33.3,0.09804454445838928,0.2477245330810547,0.22476962208747864,-0.07251434028148651,-0.12269224226474762,-0.08464282006025314
33.35,0.010576516389846802,0.28930091857910156,0.36616790294647217,-0.02803957276046276,-0.17959418892860413,-0.08423693478107452
33.4,0.04478605091571808,0.16618824005126953,0.5020537376403809,-0.001907944679260254,-0.2249584197998047,-0.09155277907848358
33.45,-0.047496482729911804,0.1362447738647461,0.4624595046043396,0.003375336527824402,-0.31627610325813293,-0.11303551495075226
33.5,-0.13491226732730865,0.14518451690673828,0.2843376696109772,-0.03664840757846832,-0.4100552797317505,-0.11108174920082092
33.55,-0.07454553991556168,0.3815765380859375,-0.021547799929976463,-0.05003809183835983,-0.4571453630924225,-0.11259731650352478
33.6,-0.12314754724502563,0.3923330307006836,-0.11383666098117828,-0.0018155202269554138,-0.44679874181747437,-0.101380854845047
33.65,-0.17080050706863403,0.20809364318847656,-0.048144686967134476,0.09627054631710052,-0.39441752433776855,-0.08708185702562332
33.7,-0.17428791522979736,0.2143726348876953,0.0367632731795311,0.1637827455997467,-0.3029910922050476,-0.09802615642547607
33.75,-0.06469042599201202,0.3635587692260742,0.19509562849998474,0.17267543077468872,-0.19391708076000214,-0.11238742619752884
33.8,0.08560750633478165,0.5178985595703125,0.28390562534332275,0.18032023310661316,-0.16811145842075348,-0.09844185411930084
33.85,0.014050140976905823,0.43949413299560547,0.4692515730857849,0.25350719690322876,-0.23212067782878876,-0.06770511716604233
33.9,-0.16653123497962952,0.37581443786621094,0.0543198324739933,0.303398072719574,-0.4176638424396515,-0.028411418199539185
33.95,-0.12921789288520813,0.18326473236083984,0.024273160845041275,0.28775787353515625,-0.4089660942554474,-0.0012980252504348755
34.0,-0.08465290814638138,0.14210987091064453,-0.11696264147758484,0.2796671688556671,-0.3934464752674103,-0.008025750517845154
34.05,-0.0583239421248436,0.17624187469482422,-0.23961582779884338,0.26866084337234497,-0.38456475734710693,0.0006841868162155151
34.1,-0.051902055740356445,0.10562705993652344,-0.33794960379600525,0.27944135665893555,-0.35407644510269165,0.0060338228940963745
34.15,-0.013518571853637695,0.0561370849609375,-0.31004852056503296,0.2835058271884918,-0.2541906535625458,-0.008883804082870483
34.2,0.02007289230823517,0.0503997802734375,-0.1937071830034256,0.26418912410736084,-0.1600426286458969,-0.021550431847572327
34.25,-0.0269274041056633,0.025345802307128906,-0.17539285123348236,0.2631511092185974,-0.11481579393148422,-0.0359349250793457
34.3,-0.06369537115097046,0.10206794738769531,-0.19162505865097046,0.23674319684505463,-0.08185625821352005,-0.05270862579345703
34.35,-0.03389520198106766,0.011410713195800781,-0.034800946712493896,0.1813310980796814,0.0038842856884002686,-0.05568096041679382
34.4,-0.08101273328065872,0.10194110870361328,0.026545751839876175,0.14429545402526855,0.027528105303645134,-0.06832388043403625
34.45,-0.185906320810318,0.1489248275756836,0.07145925611257553,0.09879997372627258,0.039922963827848434,-0.0791654884815216
34.5,-0.1322127878665924,0.29048824310302734,-0.068909652531147,0.04507880657911301,0.05260835587978363,-0.08012723922729492
34.55,-0.019201893359422684,0.2673788070678711,-0.128927543759346,-0.0008475519716739655,0.10672896355390549,-0.05347377061843872
34.6,0.05575177073478699,0.3006916046142578,-0.16117751598358154,-0.012915946543216705,0.16466666758060455,-0.028306828811764717
34.65,0.05929501727223396,0.24983882904052734,-0.028057055547833443,0.004615910816937685,0.22776931524276733,0.005023124627768993
34.7,-0.02061723731458187,0.21295547485351562,0.0827317014336586,0.04000663012266159,0.2675867974758148,0.03352614492177963
34.75,-0.04077157378196716,0.20785045623779297,0.23566603660583496,0.05491047352552414,0.29807987809181213,0.05184144899249077
34.8,-0.10149285197257996,0.15674114227294922,0.23091751337051392,0.03316640108823776,0.2930048406124115,0.059891410171985626
34.85,-0.05452698469161987,0.10720157623291016,0.3405437171459198,0.008733324706554413,0.30442577600479126,0.061824265867471695
34.9,0.03747884929180145,0.07001399993896484,0.39565309882164,-0.004832159727811813,0.307565838098526,0.049241721630096436
34.95,0.08352096378803253,0.08864021301269531,0.3936692476272583,-0.005562508478760719,0.26904258131980896,0.028153449296951294
35.0,0.03999549150466919,0.14084625244140625,0.37029939889907837,-0.013779099099338055,0.18069057166576385,0.012505099177360535
35.05,0.05083252489566803,0.1779193878173828,0.2681347131729126,-0.03069130890071392,0.10278581827878952,0.005020763725042343
35.1,0.01941390335559845,0.233978271484375,0.19285371899604797,-0.044999994337558746,0.08897530287504196,0.011656779795885086
35.15,0.008078955113887787,0.3079500198364258,0.1401892602443695,-0.05340275168418884,0.1053343191742897,0.027655944228172302
35.2,0.019725292921066284,0.34441661834716797,0.1251211315393448,-0.03212155029177666,0.10874553769826889,0.046667102724313736
35.25,0.04667331278324127,0.30858421325683594,0.2698984742164612,-0.000696718692779541,0.13774679601192474,0.07126432657241821
35.3,0.03270880877971649,0.24150371551513672,0.35555344820022583,0.03542587161064148,0.11809617280960083,0.071094810962677
35.35,0.14405575394630432,0.08248424530029297,0.18050502240657806,0.05870874226093292,0.013300078921020031,0.05042432248592377
35.4,0.09786885231733322,-0.013205528259277344,0.009878292679786682,0.034443896263837814,-0.04188266396522522,0.042745109647512436
35.45,0.15134859085083008,0.06714057922363281,-0.06928315758705139,0.028635751456022263,-0.023670557886362076,0.025906160473823547
35.5,0.2551853060722351,0.13124847412109375,-0.11665597558021545,0.038935545831918716,0.0117721576243639,0.0014354605227708817
35.55,0.328200101852417,0.050955772399902344,-0.17025575041770935,0.04586123675107956,0.007821681909263134,-0.038391001522541046
35.6,0.2384272962808609,-0.11819648742675781,-0.19864650070667267,-0.0016306973993778229,0.002668507397174835,-0.06320708245038986
35.65,0.21556295454502106,-0.17195415496826172,-0.17307879030704498,-0.1009831503033638,0.02731679007411003,-0.06982997804880142
35.7,0.32648324966430664,-0.1276397705078125,-0.0413782000541687,-0.17578554153442383,0.07589657604694366,-0.08865082263946533
35.75,0.37379059195518494,0.03801441192626953,0.2057013213634491,-0.17155051231384277,0.05780530348420143,-0.14994554221630096
35.8,0.2568662464618683,0.1938648223876953,0.19236436486244202,-0.13417558372020721,-0.051099881529808044,-0.20048093795776367
35.85,0.230178102850914,0.41474151611328125,0.20740906894207,-0.1093294695019722,-0.11740058660507202,-0.22604259848594666
35.9,0.5171587467193604,0.4807300567626953,0.23712217807769775,-0.11185750365257263,-0.16045033931732178,-0.18808844685554504
35.95,0.7865440249443054,0.2975912094116211,0.4236644506454468,-0.14808472990989685,-0.2197488248348236,-0.07763145864009857
36.0,0.7830661535263062,0.1749887466430664,0.6136316061019897,-0.2320558726787567,-0.35599151253700256,0.037705451250076294
36.05,0.43001359701156616,0.20272445678710938,0.6848859786987305,-0.3403574824333191,-0.5638173818588257,0.09138795733451843
36.1,0.02309073507785797,0.12267780303955078,0.43558958172798157,-0.42334413528442383,-0.748249888420105,0.09975384175777435
36.15,-0.13949105143547058,-0.20213794708251953,0.12284873425960541,-0.47277259826660156,-0.818597674369812,0.06175337731838226
36.2,-0.2077341228723526,-0.06115531921386719,-0.16917546093463898,-0.4730742573738098,-0.8621065616607666,-0.00022739171981811523
36.25,-0.1605578511953354,0.23588848114013672,-0.4812660813331604,-0.45306888222694397,-0.8236643075942993,-0.04837672412395477
36.3,-0.1721048355102539,0.15635204315185547,-0.5312480330467224,-0.3652888238430023,-0.744785487651825,-0.06756675243377686
36.35,-0.3156755566596985,-0.06297492980957031,-0.295328825712204,-0.24510392546653748,-0.6254746913909912,-0.051939956843853
36.4,-0.36530452966690063,-0.011670112609863281,-0.038239434361457825,-0.18261340260505676,-0.4856814742088318,-0.03971368819475174
36.45,-0.4020482301712036,-0.08285140991210938,0.22184579074382782,-0.13734589517116547,-0.4200458526611328,-0.04666793346405029
36.5,-0.671862006187439,-0.035007476806640625,0.30942365527153015,-0.08283600956201553,-0.46811559796333313,-0.05822024866938591
36.55,-1.0311206579208374,0.4063224792480469,0.047731637954711914,-0.05778379365801811,-0.5797600150108337,-0.06289355456829071
36.6,-1.0060408115386963,0.928380012512207,-0.5116623640060425,-0.0882384404540062,-0.5866590738296509,-0.08669450134038925
36.65,-0.5052536129951477,0.8476772308349609,-0.8479720950126648,-0.13986462354660034,-0.3905419111251831,-0.13376401364803314
36.7,-0.12283606827259064,0.6917228698730469,-0.4486319422721863,-0.12899433076381683,-0.1368691772222519,-0.15853452682495117
36.75,0.10700225830078125,0.41929149627685547,-0.243996262550354,-0.025242436677217484,-0.09680818021297455,-0.12631472945213318
36.8,0.14878275990486145,0.3593168258666992,-0.4896601736545563,0.1367047131061554,-0.2107129544019699,-0.05008317530155182
36.85,0.06490761041641235,0.34703731536865234,-0.70096755027771,0.27709221839904785,-0.19431163370609283,-0.010649040341377258
36.9,-0.12921534478664398,0.09052181243896484,-0.5866438150405884,0.3491406738758087,-0.03621858358383179,-0.0110912024974823
36.95,-0.34615716338157654,-0.12997722625732422,-0.38415998220443726,0.37751835584640503,0.07032562792301178,0.006381496787071228
37.0,-0.6188201308250427,-0.12709331512451172,-0.45113831758499146,0.3620321452617645,0.10406354814767838,0.022179141640663147
37.05,-0.7587670087814331,0.07815265655517578,-0.7853575348854065,0.30267173051834106,0.16317790746688843,0.018475577235221863
37.1,-0.6161587238311768,0.38381290435791016,-0.9182102680206299,0.20189908146858215,0.35471847653388977,0.0284205824136734
37.15,-0.44344624876976013,0.3734006881713867,-0.5827875733375549,0.1255689114332199,0.6694771647453308,0.03591400757431984
37.2,-0.42836350202560425,0.2116069793701172,-0.05840173363685608,0.09983290731906891,0.8477599620819092,0.05512674152851105
37.25,-0.45981186628341675,0.04458141326904297,0.10945726931095123,0.06544171273708344,0.8238115310668945,0.09075775742530823
37.3,-0.5866265296936035,0.028184890747070312,0.05696481466293335,0.008838232606649399,0.759627103805542,0.1323872059583664
37.35,-0.5360262393951416,0.2410564422607422,0.022841021418571472,-0.060464195907115936,0.7661312818527222,0.18291205167770386
37.4,-0.3504565358161926,0.5184135437011719,0.21535728871822357,-0.10642591118812561,0.8210436105728149,0.2154926210641861
37.45,0.1702633947134018,0.8062314987182617,0.26457202434539795,-0.054184988141059875,0.7461087703704834,0.18687953054904938
37.5,0.8020235896110535,0.3019723892211914,0.27116626501083374,0.09547219425439835,0.5857311487197876,0.1370241791009903
37.55,0.9501298666000366,-0.6017827987670898,0.4850081205368042,0.3071855902671814,0.35091274976730347,0.16336190700531006
37.6,0.7844827175140381,0.46215343475341797,0.723739504814148,0.40392646193504333,0.12485137581825256,0.2115296572446823
37.65,1.135852336883545,2.0391292572021484,0.6259118914604187,0.3282213509082794,0.10755514353513718,0.11407279223203659
37.7,1.4970976114273071,0.699681282043457,0.8087174296379089,0.31077590584754944,0.14867131412029266,0.047153957188129425
37.75,0.9944205284118652,-0.7668428421020508,1.4384546279907227,0.2439589947462082,-0.12191618978977203,0.18702131509780884
37.8,0.7237489223480225,-1.257491111755371,0.845718264579773,-0.05081654340028763,-0.38217979669570923,0.29708215594291687
37.85,0.605251669883728,-0.7824831008911133,0.35766464471817017,-0.3227207660675049,-0.3855673670768738,0.22618332505226135
37.9,0.7009464502334595,-0.2047586441040039,-0.1816287636756897,-0.49122464656829834,-0.29688042402267456,0.0655321478843689
37.95,0.7190174460411072,0.18392181396484375,-0.7313777804374695,-0.5055682063102722,-0.3107452988624573,-0.01907527446746826
38.0,0.6461997628211975,0.2380533218383789,-1.1166622638702393,-0.47369384765625,-0.23749953508377075,-0.01800583302974701
38.05,0.6784050464630127,0.21406173706054688,-1.361020565032959,-0.37445735931396484,-0.03982292115688324,0.00028884410858154297
38.1,0.7277541756629944,0.315277099609375,-1.1384178400039673,-0.27323347330093384,0.2506239712238312,0.022345326840877533
38.15,0.6454576253890991,0.44249725341796875,-0.43323421478271484,-0.21487629413604736,0.471858948469162,0.04249703884124756
38.2,0.40683144330978394,0.6208095550537109,0.3863949477672577,-0.16154544055461884,0.44663092494010925,0.05811250954866409
38.25,0.06245425343513489,0.4014120101928711,0.9557176232337952,-0.06925810873508453,0.25231000781059265,0.04949212819337845
38.3,-0.11490440368652344,-0.405426025390625,1.4198603630065918,0.007185726892203093,0.1099441796541214,-0.00881179515272379
38.35,-0.225328266620636,-0.5263423919677734,1.4641538858413696,0.025919482111930847,-0.011304978281259537,-0.11881367862224579
38.4,-0.4117332398891449,0.20970821380615234,1.245673656463623,-0.011402897536754608,-0.099646657705307,-0.18889859318733215
38.45,-0.7612404823303223,0.7279863357543945,1.0090025663375854,-0.0016454234719276428,-0.23870915174484253,-0.1629568636417389
38.5,-1.0249295234680176,0.5137453079223633,0.7263756394386292,0.0529046505689621,-0.36710435152053833,-0.08959072083234787
38.55,-1.3704628944396973,-0.0033025741577148438,0.5109773278236389,0.05019862949848175,-0.38798239827156067,-0.022467875853180885
38.6,-1.6716995239257812,-0.07328224182128906,0.17001676559448242,-0.050063010305166245,-0.33682936429977417,0.021490056067705154
38.65,-1.60221529006958,0.042418479919433594,-0.19425255060195923,-0.20359072089195251,-0.1286795735359192,0.030004233121871948
38.7,-0.9736803770065308,0.5472936630249023,-0.5303447246551514,-0.33455806970596313,0.21391741931438446,0.00677548348903656
38.75,0.00858578085899353,0.944951057434082,-0.49576231837272644,-0.3766050636768341,0.6335486173629761,-0.05573223531246185
38.8,0.7714139223098755,0.5763683319091797,0.16748297214508057,-0.21916450560092926,0.7510874271392822,-0.05929119139909744
38.85,0.6676392555236816,0.49961090087890625,0.41152530908584595,0.021547555923461914,0.3830522894859314,0.11730177700519562
38.9,0.04470091313123703,0.11847400665283203,-0.058765657246112823,0.10251699388027191,0.14082710444927216,0.23599888384342194
38.95,-0.0953037440776825,-0.22015094757080078,-0.3242771625518799,0.08284291625022888,0.21346108615398407,0.16384752094745636
39.0,0.06995069235563278,-0.07157421112060547,-0.26241210103034973,-0.012035712599754333,0.4091559946537018,0.05642213672399521
39.05,0.4311261475086212,0.2955026626586914,-0.1481923609972,-0.048570819199085236,0.4848030209541321,-0.017744120210409164
39.1,0.6942572593688965,0.5022802352905273,-0.08351767063140869,0.06421101093292236,0.3834655284881592,-0.02876215986907482
39.15,0.7253413200378418,0.3309011459350586,0.027872949838638306,0.20188429951667786,0.2606598734855652,0.011603675782680511
39.2,0.6362288594245911,0.2186126708984375,0.05610975623130798,0.2522115111351013,0.15924738347530365,0.03667594492435455
39.25,0.6200243830680847,0.17459583282470703,-0.031899839639663696,0.20447367429733276,0.07886966317892075,0.0315939262509346
39.3,0.5880565643310547,0.04234600067138672,-0.14174054563045502,0.13808804750442505,0.017637968063354492,0.01431240513920784
39.35,0.4797050952911377,0.03138542175292969,-0.28055042028427124,0.08499769866466522,-0.03396277874708176,0.006100580096244812
39.4,0.36607682704925537,0.12578678131103516,-0.38313087821006775,0.05465659499168396,-0.01864904724061489,0.012474926188588142
39.45,0.2829662561416626,0.15930461883544922,-0.43598610162734985,0.0571691133081913,0.016378549858927727,0.0068243276327848434
39.5,0.278769314289093,0.057509422302246094,-0.34062036871910095,0.07210217416286469,0.08556583523750305,0.0005795396864414215
39.55,0.3251538872718811,-0.0008001327514648438,-0.12202496826648712,0.05198574811220169,0.17202982306480408,-0.004545098170638084
39.6,0.39480769634246826,0.07935047149658203,0.024460837244987488,0.02536727301776409,0.19451211392879486,-0.025338735431432724
39.65,0.4326150119304657,0.14583396911621094,0.08366510272026062,0.024230901151895523,0.1273804008960724,-0.04516703635454178
39.7,0.3323308527469635,0.15159893035888672,0.034927040338516235,0.024876566603779793,0.025289062410593033,-0.0397944338619709
39.75,0.21930423378944397,0.13090801239013672,-0.09933129698038101,0.00697081396356225,-0.04506952315568924,-0.01842820644378662
39.8,0.1594599187374115,0.12160682678222656,-0.13762184977531433,-0.031225983053445816,-0.06002587452530861,-0.00920139905065298
39.85,0.12124315649271011,0.1470327377319336,-0.19151097536087036,-0.06486935168504715,-0.05242533981800079,-0.018552064895629883
39.9,0.12362639605998993,0.2315196990966797,-0.2622073292732239,-0.07469893246889114,-0.025388585403561592,-0.026357781141996384
39.95,0.11899441480636597,0.2767057418823242,-0.187887042760849,-0.057378385215997696,0.015451887622475624,-0.027597159147262573
40.0,0.14938893914222717,0.2302112579345703,-0.10598452389240265,-0.03399280458688736,0.033264439553022385,-0.02097952924668789
40.05,0.10204757004976273,0.1720142364501953,-0.10070013999938965,-0.031468626111745834,0.02268039807677269,-0.0131320646032691
40.1,0.04598657041788101,0.15875244140625,-0.16042350232601166,-0.053054049611091614,0.01948615163564682,-0.012690696865320206
40.15,0.07290134578943253,0.1612873077392578,-0.16133391857147217,-0.08062884211540222,0.04659927636384964,-0.010955069214105606
40.2,0.13159967958927155,0.20258617401123047,-0.1897091567516327,-0.08309406042098999,0.06048211082816124,-0.00899425521492958
40.25,0.12724606692790985,0.17941570281982422,-0.18982113897800446,-0.07183337211608887,0.08041678369045258,-0.006136542186141014
40.3,0.08592120558023453,0.15321636199951172,-0.1363675445318222,-0.06662207096815109,0.10242293775081635,-0.007215714082121849
40.35,0.07729961723089218,0.17589664459228516,-0.10903706401586533,-0.07580062747001648,0.11111810803413391,-0.014907564967870712
40.4,0.12945988774299622,0.24022865295410156,-0.08388210088014603,-0.08747608959674835,0.1170765608549118,-0.014683235436677933
40.45,0.16562378406524658,0.2958707809448242,-0.0461653396487236,-0.0853235274553299,0.11454968899488449,-0.008622456341981888
40.5,0.20643368363380432,0.27469730377197266,-0.023870714008808136,-0.07165925949811935,0.08949524909257889,0.002428453415632248
40.55,0.14820249378681183,0.23203754425048828,-0.02885938063263893,-0.06700913608074188,0.05627737194299698,0.02450243942439556
40.6,0.06649664789438248,0.18042469024658203,-0.0554685965180397,-0.06961284577846527,0.03514556586742401,0.03493528813123703
40.65,0.12950506806373596,0.18430042266845703,-0.0658850371837616,-0.07471517473459244,0.03291470557451248,0.0275262538343668
40.7,0.15072521567344666,0.1824626922607422,-0.07151331007480621,-0.07760872691869736,0.025399943813681602,0.02352040633559227
40.75,0.08999636024236679,0.08822917938232422,-0.0967789962887764,-0.0702662467956543,0.01312645897269249,0.016471339389681816
40.8,0.06972230225801468,0.09775829315185547,-0.12151950597763062,-0.06290622800588608,0.021256081759929657,-0.003624679520726204
40.85,0.1291440725326538,0.17488574981689453,-0.08034595847129822,-0.06537939608097076,0.05650412291288376,-0.019619153812527657
40.9,0.19644415378570557,0.26320457458496094,-0.008469633758068085,-0.07132334262132645,0.07997877895832062,-0.028725478798151016
40.95,0.18465471267700195,0.3157033920288086,-0.016832664608955383,-0.06257879734039307,0.03766912966966629,-0.03328995034098625
41.0,0.12834328413009644,0.2704448699951172,-0.026248715817928314,-0.051159411668777466,0.0006691813468933105,-0.023404356092214584
41.05,0.11889000982046127,0.19110393524169922,-0.014532536268234253,-0.05138060450553894,0.004082798957824707,-0.021813400089740753
41.1,0.1425076723098755,0.21797466278076172,-0.038970109075307846,-0.04251156747341156,-0.007209421135485172,-0.03218420222401619
41.15,0.09123876690864563,0.2641763687133789,-0.022108126431703568,-0.02717694640159607,-0.01652335748076439,-0.03420572727918625
41.2,0.07293316721916199,0.2836465835571289,-0.10946038365364075,-0.0039168111979961395,-0.010059284046292305,-0.04123739153146744
41.25,0.12782059609889984,0.2961435317993164,-0.17758101224899292,0.01735338568687439,0.007307643070816994,-0.03975073993206024
41.3,0.12761549651622772,0.2575349807739258,-0.06794583797454834,0.031184492632746696,0.015166319906711578,-0.01918206736445427
41.35,0.10852792859077454,0.23690223693847656,-0.023607123643159866,0.04818880558013916,0.0001280512660741806,-0.006388843059539795
41.4,0.12429472804069519,0.26015758514404297,-0.010648917406797409,0.05553973838686943,-0.0032793376594781876,0.0033294353634119034
41.45,0.1511240005493164,0.26366710662841797,0.04138095676898956,0.05514882504940033,-0.023459747433662415,0.01578640751540661
41.5,0.15867193043231964,0.24270153045654297,0.08172111213207245,0.05586298182606697,-0.06027963012456894,0.025407426059246063
41.55,0.17868347465991974,0.21979904174804688,0.09798341989517212,0.0486985482275486,-0.08306580036878586,0.03125718981027603
41.6,0.15677757561206818,0.18416118621826172,0.10715888440608978,0.038878992199897766,-0.11274270713329315,0.03503463417291641
41.65,0.09415724873542786,0.14478302001953125,0.06921063363552094,0.03524218127131462,-0.15957586467266083,0.04333852231502533
41.7,0.07574060559272766,0.10822391510009766,0.014885321259498596,0.02222808450460434,-0.17836062610149384,0.03556755930185318
41.75,0.08293202519416809,0.13907337188720703,-0.007485058158636093,0.011616315692663193,-0.17633377015590668,0.013492253609001637
41.8,0.00978919118642807,0.19755268096923828,-0.01142125017940998,0.005096103064715862,-0.1857534497976303,0.005734284874051809
41.85,-0.028807172551751137,0.13154888153076172,-0.05269159749150276,0.0014082628767937422,-0.19681988656520844,0.004058972932398319
41.9,-0.01277092844247818,0.1302928924560547,-0.09958048164844513,-0.0072828312404453754,-0.1911800503730774,-0.0020098534878343344
41.95,-0.049649376422166824,0.12402057647705078,-0.15666741132736206,-0.02625833824276924,-0.1708562672138214,-0.006751202046871185
42.0,-0.10787998884916306,0.1564798355102539,-0.24114978313446045,-0.04146522283554077,-0.1422272026538849,-0.011630699038505554
42.05,-0.08376455307006836,0.19791507720947266,-0.26445272564888,-0.052519336342811584,-0.09319611638784409,-0.011250738054513931
42.1,-0.08144128322601318,0.20651531219482422,-0.2472461760044098,-0.05622619763016701,-0.04700171947479248,-0.010004740208387375
42.15,-0.06418847292661667,0.2406768798828125,-0.23232895135879517,-0.05604696646332741,-0.004664449021220207,-0.006403591483831406
42.2,-0.008903160691261292,0.2503690719604492,-0.1651950478553772,-0.05307171493768692,0.04295351728796959,0.003344070166349411
42.25,-0.0030198395252227783,0.2358684539794922,-0.1578892320394516,-0.047310251742601395,0.06712786853313446,0.009953249245882034
42.3,-0.02052827551960945,0.1866159439086914,-0.12423735857009888,-0.041400011628866196,0.09230241179466248,0.013144876807928085
42.35,0.01831984519958496,0.1620492935180664,-0.09610699117183685,-0.03292745724320412,0.11255989968776703,0.005663525313138962
42.4,0.03809279575943947,0.19887638092041016,-0.012268676422536373,-0.019093727692961693,0.11962485313415527,-0.0025000981986522675
42.45,0.06350832432508469,0.24727535247802734,0.06512413173913956,-0.013899274170398712,0.1107502281665802,-0.0003068922087550163
42.5,0.11134219169616699,0.24574947357177734,0.04882160574197769,-0.018206799402832985,0.08827101439237595,0.00417369743809104
42.55,0.1087518259882927,0.19602012634277344,0.030959486961364746,-0.016974439844489098,0.059699393808841705,0.011685024946928024
42.6,0.03192587196826935,0.21479415893554688,0.011598033830523491,-0.007716487627476454,0.03431615233421326,0.019470972940325737
42.65,0.02679942548274994,0.24303340911865234,-0.03871278837323189,0.005374548025429249,0.021803369745612144,0.015382124111056328
42.7,0.04472935199737549,0.26349353790283203,-0.040048763155937195,0.016368862241506577,0.022650210186839104,0.004206268582493067
42.75,0.11737678945064545,0.25854969024658203,-0.0008862316608428955,0.028695862740278244,0.030743658542633057,-0.0078020477667450905
42.8,0.1311398148536682,0.31377601623535156,0.014522254467010498,0.05402563512325287,0.013704575598239899,-0.014130067080259323
42.85,0.04699704051017761,0.3119802474975586,0.005785107612609863,0.08555974066257477,-0.028142934665083885,0.000344693660736084
42.9,-0.007877804338932037,0.2572288513183594,-0.035268038511276245,0.10057864338159561,-0.057465847581624985,0.01515820249915123
42.95,0.060732755810022354,0.23699092864990234,0.01611023023724556,0.10162393748760223,-0.05806317925453186,0.0267675518989563
43.0,0.04122059419751167,0.23076725006103516,0.11956977844238281,0.10142742097377777,-0.0803075060248375,0.04289786517620087
43.05,0.05486862733960152,0.1410379409790039,0.070888951420784,0.09386911988258362,-0.11531439423561096,0.05302949249744415
43.1,0.13015055656433105,0.12715911865234375,-0.030270114541053772,0.08435381948947906,-0.14256460964679718,0.049438416957855225
43.15,0.0773443877696991,0.10126018524169922,-0.029054732993245125,0.07512615621089935,-0.16068391501903534,0.037691228091716766
43.2,-0.027042225003242493,0.0050258636474609375,-0.1739315241575241,0.06625669449567795,-0.1842975616455078,0.017536092549562454
43.25,-0.05362425744533539,-0.03862285614013672,-0.35386621952056885,0.04666329547762871,-0.16778303682804108,-0.006778961047530174
43.3,-0.07441592216491699,0.04455280303955078,-0.38158077001571655,0.013524144887924194,-0.07996445894241333,-0.03442467376589775
43.35,-0.07588029652833939,0.1565408706665039,-0.24365095794200897,0.007883286103606224,0.03797835484147072,-0.05620136857032776
43.4,-0.01676599308848381,0.2256612777709961,0.013195132836699486,0.023098483681678772,0.10897567123174667,-0.05371129512786865
43.45,0.00048464536666870117,0.23146915435791016,0.1927046775817871,0.03394405543804169,0.11895915120840073,-0.0406082458794117
43.5,-0.13236606121063232,0.30922698974609375,0.16764536499977112,0.029388584196567535,0.09195183962583542,-0.03379730135202408
43.55,-0.2600421905517578,0.2614574432373047,0.18737585842609406,0.035584207624197006,0.1097922995686531,-0.0360039547085762
43.6,-0.3081957697868347,0.17786026000976562,0.1304592788219452,0.060960084199905396,0.11181291937828064,-0.03768473118543625
43.65,-0.2807309031486511,0.3627138137817383,0.09996325522661209,0.08248066902160645,0.1429518461227417,-0.03355168551206589
43.7,-0.1796078383922577,0.47339534759521484,0.23600022494792938,0.13792575895786285,0.20480018854141235,-0.04905717074871063
43.75,-0.12143111228942871,0.5434064865112305,0.18160349130630493,0.24464093148708344,0.19235415756702423,-0.05111170560121536
43.8,-0.22345387935638428,0.5199956893920898,0.15604227781295776,0.3373985290527344,0.14640465378761292,-0.025349289178848267
43.85,-0.16084925830364227,0.5394210815429688,0.14224132895469666,0.3851814270019531,0.19526243209838867,-0.00557456910610199
43.9,0.1706256866455078,0.4244565963745117,0.0540197417140007,0.4237128496170044,0.3064270615577698,0.009054675698280334
43.95,0.6633862853050232,0.18574142456054688,-0.13440731167793274,0.45997154712677,0.3226407468318939,0.024953052401542664
44.0,0.9537231922149658,-0.07612895965576172,-0.31215932965278625,0.4603447914123535,0.2210277020931244,0.033045828342437744
44.05,1.0718666315078735,-0.24008560180664062,-0.5374943017959595,0.38904857635498047,0.04537519812583923,0.004510313272476196
44.1,1.0581536293029785,-0.4276313781738281,-0.7883169054985046,0.2672276496887207,-0.09320983290672302,-0.016810551285743713
44.15,1.0955488681793213,-0.47583961486816406,-0.5537844300270081,0.09736208617687225,-0.11201383173465729,0.02441835217177868
44.2,1.2863576412200928,-0.3231830596923828,-0.2432355284690857,-0.07561370730400085,-0.08716429024934769,0.056119684129953384
44.25,1.3048431873321533,-0.12378787994384766,-0.16106998920440674,-0.1744064837694168,-0.1837407350540161,0.03386775404214859
44.3,1.0029261112213135,0.24302291870117188,-0.3643939793109894,-0.18600702285766602,-0.4020286202430725,0.008582256734371185
44.35,0.5353587865829468,0.44101619720458984,-0.5450636148452759,-0.14148780703544617,-0.5369535088539124,0.001344822347164154
44.4,-0.0822538435459137,0.7260370254516602,-0.4079071283340454,-0.06985142827033997,-0.6073529720306396,-0.0008172541856765747
44.45,-0.4933816194534302,0.2034912109375,-0.22650790214538574,-0.00042277388274669647,-0.5823727250099182,0.022198308259248734
44.5,-0.5225908756256104,-0.21187973022460938,0.025508970022201538,0.012024199590086937,-0.413039892911911,0.07065710425376892
44.55,-0.4532894194126129,0.04502391815185547,0.4026663899421692,-0.06877157092094421,-0.17842578887939453,0.0809272900223732
44.6,-0.3204993009567261,0.39658260345458984,0.6637908220291138,-0.07512772083282471,-0.08806100487709045,0.04650368541479111
44.65,-0.269756942987442,0.5277729034423828,0.92679762840271,-0.003033693879842758,-0.15601743757724762,0.03911488130688667
44.7,-0.41416168212890625,0.45757389068603516,0.8678078651428223,0.05949865281581879,-0.2860548794269562,0.050177015364170074
44.75,-0.599983811378479,0.17669296264648438,0.5968695282936096,0.08986025303602219,-0.37016382813453674,0.045888982713222504
44.8,-0.7487416863441467,-0.08556079864501953,0.4939558207988739,0.08318381011486053,-0.35945266485214233,0.0412316620349884
44.85,-0.8849936127662659,-0.19007205963134766,0.29138070344924927,0.05747975409030914,-0.3224918246269226,0.0035369209945201874
44.9,-0.8267505168914795,-0.10794544219970703,0.10582077503204346,0.032518766820430756,-0.22555871307849884,-0.04795809090137482
44.95,-0.4323996305465698,-0.14626693725585938,-0.04158654808998108,-0.0137796550989151,-0.04460635036230087,-0.09010730683803558
45.0,-0.05748317018151283,0.6028575897216797,0.06786923110485077,-0.04614567011594772,0.08084149658679962,-0.08445122092962265
45.05,0.256219744682312,0.7905502319335938,0.11608411371707916,-0.015027353540062904,0.13202208280563354,-0.05693652853369713
45.1,0.4366430938243866,0.5290307998657227,0.14015668630599976,0.08342111855745316,0.055180393159389496,-0.013160143047571182
45.15,0.20781531929969788,0.05886268615722656,0.16194584965705872,0.10957890748977661,-0.032583802938461304,0.06362202018499374
45.2,-0.0015351474285125732,-0.0007772445678710938,-0.07567677646875381,0.08910548686981201,-0.08301595598459244,0.07921698689460754
45.25,-0.0007864534854888916,0.09458351135253906,-0.23058846592903137,0.024132177233695984,-0.030125491321086884,0.04486200958490372
45.3,0.11038265377283096,0.03567218780517578,-0.2874637246131897,-0.028377225622534752,0.02523934096097946,-0.0007638325914740562
45.35,0.18142850697040558,0.003985404968261719,-0.24827317893505096,-0.05212434381246567,0.03929484635591507,-0.014834624715149403
45.4,0.21442340314388275,0.09307670593261719,-0.17195558547973633,-0.10602395236492157,0.07432205975055695,-0.004168037325143814
45.45,0.20183220505714417,0.15386486053466797,-0.07680267095565796,-0.15790316462516785,0.11899201571941376,-0.006584614515304565
45.5,0.20919078588485718,0.06721782684326172,0.02307666838169098,-0.1953979730606079,0.11314691603183746,-0.00661507248878479
45.55,0.1211913526058197,-0.013186454772949219,0.02729174494743347,-0.22362898290157318,0.05986667424440384,-0.010435551404953003
45.6,0.08656293898820877,0.1206207275390625,-0.08511816710233688,-0.2417774796485901,0.018292151391506195,-0.03925313055515289
45.65,0.06694751977920532,0.2607574462890625,-0.10156179219484329,-0.23846174776554108,0.015359997749328613,-0.0646519735455513
45.7,0.05910792201757431,0.2979440689086914,-0.009598294273018837,-0.21254806220531464,0.04778116196393967,-0.07117660343647003
45.75,0.08656342327594757,0.29692745208740234,0.062054894864559174,-0.16289997100830078,0.05078907310962677,-0.061691250652074814
45.8,0.06543895602226257,0.30739784240722656,0.09449209272861481,-0.12098199129104614,0.02774127572774887,-0.042573146522045135
45.85,0.0861998200416565,0.3019266128540039,0.16005657613277435,-0.09926944971084595,0.031019803136587143,-0.03138212859630585
45.9,0.10635031014680862,0.25519847869873047,0.05237776041030884,-0.05512848496437073,-0.043093241751194,-0.03801494091749191
45.95,0.005241565406322479,0.2696075439453125,-0.08881193399429321,-0.012507637031376362,-0.09297078847885132,-0.03362245112657547
46.0,0.011845036409795284,0.2293224334716797,-0.003271976485848427,-0.014237262308597565,-0.03343136981129646,-0.028341680765151978
46.05,0.04257604479789734,0.21657085418701172,0.07134062051773071,-0.007145299576222897,-0.0001188900787383318,-0.024560045450925827
46.1,-0.014064284041523933,0.1890869140625,0.08376438170671463,0.017000025138258934,-0.03360997885465622,-0.016841867938637733
46.15,-0.08747147023677826,0.16131305694580078,0.010248560458421707,0.02752002701163292,-0.06666898727416992,-0.022837702184915543
46.2,-0.0437573604285717,0.22396564483642578,0.0453917421400547,0.024229079484939575,-0.03943288326263428,-0.03239724412560463
46.25,0.0160807054489851,0.2558145523071289,-0.018929995596408844,0.012130044400691986,-0.05527028441429138,-0.04942033812403679
46.3,0.04443267732858658,0.27164363861083984,-0.08842815458774567,0.006875200197100639,-0.05290406569838524,-0.04174310341477394
46.35,-0.0170307494699955,0.2503509521484375,-0.09618822485208511,0.00996341835707426,-0.03065663017332554,-0.030779212713241577
46.4,-0.0296165868639946,0.15826702117919922,-0.08766093105077744,0.027875857427716255,0.0042509837076067924,-0.03158463165163994
46.45,0.028805851936340332,0.12427139282226562,-0.10012423992156982,0.031084680929780006,0.0362623892724514,-0.04530994966626167
46.5,-0.006477817893028259,0.1755533218383789,-0.13780361413955688,0.029430072754621506,0.07197966426610947,-0.06398161500692368
46.55,0.17366351187229156,0.19883251190185547,-0.08699803054332733,0.029649315401911736,0.09115526080131531,-0.07820522785186768
46.6,0.1956343948841095,0.17369937896728516,0.033765360713005066,0.028165390715003014,0.08488598465919495,-0.07381648570299149
46.65,0.15413855016231537,0.13260555267333984,0.024774469435214996,0.016636556014418602,0.07650002092123032,-0.05910639092326164
46.7,0.2076425552368164,0.1927938461303711,0.009647302329540253,-0.0008840970695018768,0.06354770064353943,-0.041320670396089554
46.75,0.10233578085899353,0.24967479705810547,0.026325851678848267,-0.012331658974289894,0.037816017866134644,-0.025610554963350296
46.8,0.047618165612220764,0.20683002471923828,-0.046352826058864594,-0.015281563624739647,-0.001069340854883194,-0.018415542319417
46.85,0.029183967038989067,0.17269229888916016,-0.09755933284759521,-0.02547053061425686,-0.012256711721420288,-0.016894452273845673
46.9,0.10670505464076996,0.11781883239746094,-0.139566108584404,-0.0517687052488327,0.010273095220327377,-0.015846913680434227
46.95,0.07000744342803955,0.13670730590820312,-0.1021411269903183,-0.06719665974378586,-0.0009206123650074005,-0.02133195661008358
47.0,0.052482206374406815,0.18750953674316406,-0.06164780631661415,-0.070028156042099,-0.004540078341960907,-0.026027146726846695
47.05,0.05855529010295868,0.12410449981689453,-0.04703621193766594,-0.064548559486866,0.003316551446914673,-0.017249595373868942
