Time [s],Acc_x [m/s^2],Acc_y [m/s^2],Acc_z [m/s^2],Gyro_x [1/s],Gyro_y [1/s],Gyro_z [1/s]
0.0,-0.0027124129701405764,0.0820465087890625,-0.00387507863342762,-0.007573257200419903,0.012373059056699276,0.005291451700031757
0.05,-0.005418540444225073,0.0829935073852539,-0.006399444304406643,-0.007573150098323822,0.012373039498925209,0.0052916519343853
0.1,-0.013990587554872036,0.10596942901611328,0.013031262904405594,-0.0054934388026595116,0.012901870533823967,0.003044308163225651
0.15,-0.015680912882089615,0.13488483428955078,0.0788373351097107,-0.0030950668733567,0.012376164086163044,-0.002878734841942787
0.2,0.009818833321332932,0.06874656677246094,0.08331846445798874,-0.01092342846095562,0.009734384715557098,0.0016662217676639557
0.25,-0.04613577574491501,0.1269969940185547,0.033844441175460815,-0.004878240171819925,0.018160365521907806,0.008700525388121605
0.3,-0.04652498662471771,0.10508441925048828,0.06358639150857925,-0.009146603755652905,0.015784619376063347,0.007393592037260532
0.35,-0.05745948851108551,0.09661293029785156,0.07135181128978729,-0.002189642284065485,0.018853409215807915,0.005375670734792948
0.4,-0.04922172427177429,0.15006256103515625,0.050815679132938385,5.638971924781799e-05,0.01898624747991562,0.005068263970315456
0.45,-0.04279434308409691,0.17285823822021484,0.03686579689383507,-0.0025367322377860546,0.017258821055293083,0.0034930258989334106
0.5,-0.06204637512564659,0.12543869018554688,0.09452830255031586,-0.005685992538928986,0.0175182968378067,-0.0013370387023314834
0.55,-0.010052945464849472,0.06295394897460938,0.08556360751390457,-0.015579767525196075,0.017320450395345688,-0.006566254887729883
0.6,-0.04637959226965904,0.07358646392822266,0.017376258969306946,-0.011280053295195103,0.02695322595536709,-0.004223037511110306
0.65,-0.09271569550037384,0.1500720977783203,0.06677896529436111,-0.005957912188023329,0.028257204219698906,-0.0044999816454946995
0.7,-0.09585144370794296,0.1041412353515625,0.12299134582281113,-0.007651875261217356,0.021780909970402718,-0.007307425606995821
0.75,-0.06862340867519379,0.09503555297851562,0.07244405895471573,-0.006975704804062843,0.015544150024652481,-0.007901259697973728
0.8,-0.029251210391521454,0.13014698028564453,0.06856589764356613,-0.01003547478467226,0.00865254458039999,-0.005868995096534491
0.85,0.03332413733005524,0.14822101593017578,0.053187571465969086,-0.012668690644204617,0.011263792403042316,-0.009098279289901257
0.9,-0.02545916847884655,0.1284027099609375,0.03315412998199463,-0.012991821393370628,0.027798166498541832,-0.010523390024900436
0.95,-0.047118622809648514,0.10947036743164062,0.015599964186549187,-0.023280028253793716,0.03384244441986084,-0.016769500449299812
1.0,-0.07054698467254639,0.09753608703613281,0.0018007606267929077,-0.01662960648536682,0.02974371239542961,-0.017149820923805237
1.05,-0.06930805742740631,0.10756397247314453,0.043886274099349976,-0.015241382643580437,0.03214072436094284,-0.014798520132899284
1.1,-0.022343536838889122,0.1125478744506836,0.006911334581673145,-0.016903866082429886,0.039845384657382965,-0.01951204240322113
1.15,-0.017680302262306213,0.11304283142089844,-0.002979754004627466,-0.018005309626460075,0.04746466875076294,-0.020479325205087662
1.2,-0.04978490248322487,0.06652259826660156,0.04391295462846756,-0.018052764236927032,0.048594020307064056,-0.015936490148305893
1.25,0.030939389020204544,0.1013174057006836,0.03585615009069443,-0.023719023913145065,0.0478905513882637,-0.004051215015351772
1.3,-0.03534064441919327,0.21314430236816406,0.009302772581577301,-0.022963035851716995,0.07422727346420288,0.004377175122499466
1.35,-0.09812045097351074,0.23430252075195312,0.01587454229593277,-0.0419381707906723,0.09482505172491074,-0.012887992896139622
1.4,-0.0013153909239917994,0.17888641357421875,8.58812709338963e-05,-0.05859242007136345,0.11233016848564148,-0.05719071626663208
1.45,0.10735572129487991,0.14847755432128906,-0.08261684328317642,-0.06401780992746353,0.13872721791267395,-0.09243457019329071
1.5,0.2505291700363159,0.11841297149658203,-0.10314860939979553,-0.06947524100542068,0.1632208377122879,-0.10463402420282364
1.55,0.34875425696372986,0.19359970092773438,-0.05997908115386963,-0.05757838487625122,0.1943739950656891,-0.09463506937026978
1.6,0.3858739137649536,0.36084938049316406,0.08367528021335602,-0.06272280961275101,0.24512290954589844,-0.07767079770565033
1.65,0.32457634806632996,0.5326395034790039,0.17401884496212006,-0.10328423231840134,0.3301668167114258,-0.08287447690963745
1.7,0.271231472492218,0.5245466232299805,0.11622513830661774,-0.2410319745540619,0.3683430850505829,-0.0826219990849495
1.75,0.32871168851852417,0.477813720703125,-0.07838217914104462,-0.5327540636062622,0.31514883041381836,0.015556365251541138
1.8,0.4262763261795044,0.4954681396484375,-0.17653325200080872,-0.7688854932785034,0.3055456280708313,0.12193623185157776
1.85,0.24014025926589966,1.5579776763916016,0.07430841028690338,-0.8826167583465576,0.3569466173648834,0.2130880355834961
1.9,0.04627623036503792,2.2121620178222656,-0.07246767729520798,-1.5113615989685059,0.21259284019470215,0.5128564238548279
1.95,0.19053809344768524,1.1563444137573242,-0.5974546670913696,-2.385702610015869,-0.030308008193969727,0.9011989235877991
2.0,0.40863141417503357,0.37790966033935547,-0.5505608320236206,-2.630096435546875,-0.008434951305389404,1.0260286331176758
2.05,0.3567140996456146,0.03195381164550781,-0.44953617453575134,-2.4952797889709473,0.20594608783721924,0.9969614744186401
2.1,0.3320833444595337,-0.3826560974121094,-0.29418477416038513,-2.3245582580566406,0.41900575160980225,0.9585803151130676
2.15,0.23687946796417236,-0.6026878356933594,-0.12115811556577682,-2.1252286434173584,0.6240857839584351,0.944668710231781
2.2,-0.18679769337177277,-0.5713491439819336,-0.1199837252497673,-1.935042381286621,0.8400111198425293,1.0092318058013916
2.25,-0.7493996620178223,-0.3904132843017578,-0.08296316862106323,-1.7335175275802612,1.0410304069519043,1.1171072721481323
2.3,-0.9963154792785645,-0.3097038269042969,0.22126305103302002,-1.54035222530365,1.1107971668243408,1.0646109580993652
2.35,-1.021514654159546,-0.1499319076538086,0.07569417357444763,-1.4015432596206665,0.9657427072525024,0.9278460741043091
2.4,-1.028884768486023,-0.37140941619873047,0.08523786067962646,-1.3864219188690186,0.7473106980323792,0.8917896747589111
2.45,-0.8601967096328735,-0.7777929306030273,0.43753793835639954,-1.2941787242889404,0.523113489151001,0.8479443192481995
2.5,-0.5433129072189331,-1.0170879364013672,0.4373130202293396,-0.8946642875671387,0.3522108793258667,0.6989914774894714
2.55,-0.6597257256507874,-0.8561935424804688,0.05230548977851868,-0.37711188197135925,0.24257789552211761,0.3779129981994629
2.6,-0.8821627497673035,-0.41768360137939453,-0.4125412106513977,-0.13563591241836548,0.10879716277122498,0.30114105343818665
2.65,-0.4246372878551483,-0.7194280624389648,-0.3946242332458496,-0.05720345675945282,-0.03267465531826019,0.5478254556655884
2.7,-0.2868015766143799,-1.3828277587890625,-0.21792545914649963,0.25072264671325684,-0.2615286111831665,0.4833425283432007
2.75,-0.3839465379714966,-1.2645940780639648,-0.12463735789060593,0.4978533983230591,-0.3264685571193695,0.5632933378219604
2.8,-0.579567551612854,-0.6351785659790039,0.11425195634365082,0.6138006448745728,-0.11974798887968063,0.6510133147239685
2.85,-0.8658532500267029,0.5937185287475586,-0.4242613613605499,0.9921382069587708,-0.027914464473724365,0.31848517060279846
2.9,-0.8585627675056458,0.8705596923828125,-0.7181271314620972,1.0359259843826294,-0.03641936182975769,0.2122797966003418
2.95,-0.9060189723968506,0.08439922332763672,-0.06909716129302979,0.797126054763794,-0.09045161306858063,0.317179799079895
3.0,-0.43350082635879517,-0.24878311157226562,0.1991858333349228,0.7741250395774841,-0.29664573073387146,0.593960702419281
3.05,0.004871010780334473,-0.1445913314819336,0.27929967641830444,0.8228750824928284,-0.27977898716926575,0.7836751937866211
3.1,0.24693022668361664,-0.010808944702148438,0.10659636557102203,0.9157851934432983,-0.12754346430301666,0.7133656144142151
3.15,1.0891095399856567,-0.15518474578857422,-0.3504493236541748,0.9572402834892273,0.003040492534637451,0.653182327747345
3.2,0.9036853313446045,-0.6016817092895508,-0.5139017105102539,1.0065499544143677,0.3291979432106018,0.3001601994037628
3.25,0.05556502938270569,-0.38741207122802734,-0.6891313791275024,1.060667872428894,0.37996846437454224,0.0865926444530487
3.3,0.0968339741230011,0.5262718200683594,-0.7775532007217407,0.9828751087188721,0.09613975882530212,0.2421177625656128
3.35,0.005281984806060791,0.7574586868286133,-0.6077091693878174,0.8405032157897949,0.003280133008956909,0.17026880383491516
3.4,0.060474544763565063,0.24656105041503906,-0.4807923436164856,0.6758654117584229,-0.052948206663131714,0.07421737909317017
3.45,0.38753029704093933,0.04054069519042969,-0.47635263204574585,0.566285252571106,-0.2254389524459839,0.08495210111141205
3.5,0.4302007555961609,0.016312599182128906,-0.4999634921550751,0.5255187749862671,-0.28084811568260193,0.07872499525547028
3.55,0.13491544127464294,0.23351573944091797,-0.4895322322845459,0.5221572518348694,-0.2025701105594635,0.07059341669082642
3.6,-0.18721234798431396,0.4497652053833008,-0.24703162908554077,0.4788442850112915,-0.11716365069150925,0.07502022385597229
3.65,-0.4985758662223816,0.5436210632324219,0.04974007606506348,0.3958122730255127,-0.010771289467811584,0.05041743814945221
3.7,-0.5796862840652466,0.5953559875488281,0.18266665935516357,0.3202465772628784,0.01880088448524475,0.0035764724016189575
3.75,-0.5071308612823486,0.40213584899902344,0.337702214717865,0.2506881058216095,-0.04841012507677078,-0.034175947308540344
3.8,-0.4080251455307007,0.46572208404541016,0.4321730434894562,0.25348609685897827,-0.12291928380727768,-0.04057866334915161
3.85,-0.35358503460884094,0.7489423751831055,0.38260042667388916,0.22971758246421814,-0.15666894614696503,-0.04848223924636841
3.9,-0.3348493278026581,0.8994979858398438,0.2859351933002472,0.11825177818536758,-0.14709919691085815,-0.0694972574710846
3.95,-0.25637468695640564,0.9867916107177734,0.1483679711818695,0.003271963447332382,-0.12679608166217804,-0.08699466288089752
4.0,-0.18319684267044067,1.0131893157958984,-0.03221677243709564,-0.06159859150648117,-0.11356937140226364,-0.10659599304199219
4.05,-0.04564475640654564,0.9336872100830078,-0.16140100359916687,-0.08463850617408752,-0.12821713089942932,-0.10696443915367126
4.1,0.019285663962364197,0.8186435699462891,-0.14649127423763275,-0.11897258460521698,-0.1208745688199997,-0.09379200637340546
4.15,-0.04404941946268082,0.6066684722900391,-0.11849439144134521,-0.1826304942369461,-0.05837135761976242,-0.10013715922832489
4.2,-0.17646972835063934,0.3434791564941406,-0.12383420020341873,-0.24721942842006683,0.0041496530175209045,-0.12180181592702866
4.25,-0.24463018774986267,0.3163433074951172,-0.0826120674610138,-0.2778894007205963,-0.0018461495637893677,-0.14327186346054077
4.3,-0.21464592218399048,0.3130979537963867,-0.032832808792591095,-0.29182949662208557,-0.04133687913417816,-0.17174461483955383
4.35,-0.08973684161901474,0.09333133697509766,0.048676371574401855,-0.30377402901649475,-0.06880123913288116,-0.1874372810125351
4.4,-0.12960931658744812,-0.19744300842285156,0.14522181451320648,-0.27813154458999634,-0.05517403781414032,-0.184037446975708
4.45,-0.3273407220840454,-0.42870235443115234,0.24506284296512604,-0.19074833393096924,-0.03745720535516739,-0.15448126196861267
4.5,-0.29543641209602356,-0.4788675308227539,0.413662850856781,-0.07612578570842743,-0.0844254344701767,-0.09075397998094559
4.55,-0.21892718970775604,-0.5126056671142578,0.5791205763816833,0.0243622325360775,-0.13313865661621094,-0.02591375820338726
4.6,-0.12735244631767273,-0.5319643020629883,0.6226695775985718,0.10969982296228409,-0.14670272171497345,0.029884330928325653
4.65,0.013871043920516968,-0.7115182876586914,0.538482666015625,0.16868150234222412,-0.13022145628929138,0.07532255351543427
4.7,-0.09053356945514679,-0.9165534973144531,0.4074867367744446,0.2536507248878479,-0.06258364021778107,0.11302025616168976
4.75,-0.4439391493797302,-0.5856485366821289,0.34280356764793396,0.4039113521575928,0.040137067437171936,0.14756666123867035
4.8,-0.6623578667640686,0.06909561157226562,0.38312065601348877,0.5336870551109314,0.06820502877235413,0.16226795315742493
4.85,-0.4957098662853241,0.5663518905639648,0.43331676721572876,0.5597830414772034,-0.0012498348951339722,0.11985103785991669
4.9,0.16177210211753845,0.33505821228027344,0.3839204013347626,0.4727369546890259,-0.08872059732675552,0.07203441858291626
4.95,0.545853316783905,0.009879112243652344,0.1905665248632431,0.43130412697792053,-0.043970897793769836,0.06933537125587463
5.0,0.10904120653867722,0.1442861557006836,-0.004414539784193039,0.44798505306243896,0.11748908460140228,0.12460704147815704
5.05,-0.5681675672531128,0.5767011642456055,-0.061762645840644836,0.4274270236492157,0.20034494996070862,0.15935423970222473
5.1,-0.8020437359809875,1.0452423095703125,-0.10707330703735352,0.33305907249450684,0.16282464563846588,0.09792950004339218
5.15,-0.5281155705451965,1.0590143203735352,-0.28053605556488037,0.21052619814872742,0.08693133294582367,-0.039340369403362274
5.2,-0.06045810878276825,0.8883504867553711,-0.32288670539855957,0.14171621203422546,-0.027706295251846313,-0.1432897299528122
5.25,0.3659389615058899,0.9104499816894531,-0.024800583720207214,0.08553926646709442,-0.13294430077075958,-0.15730488300323486
5.3,0.2472379356622696,1.0953035354614258,0.1397818922996521,0.003988005220890045,-0.07412073761224747,-0.12119705975055695
5.35,0.046628132462501526,1.174860954284668,0.02679377608001232,-0.12214178591966629,0.03309359773993492,-0.13318170607089996
5.4,-0.08247373253107071,1.1652936935424805,-0.09659003466367722,-0.2186841070652008,0.09943442791700363,-0.23594285547733307
5.45,-0.12867920100688934,1.2205448150634766,-0.17231833934783936,-0.2965937852859497,0.012023508548736572,-0.2944434881210327
5.5,0.2628076672554016,0.9197597503662109,-0.13610519468784332,-0.47620365023612976,-0.182021364569664,-0.21729853749275208
5.55,0.24438829720020294,0.589569091796875,-0.11063292622566223,-0.6275383234024048,-0.1251516044139862,-0.1906137764453888
5.6,-0.1454070508480072,0.7434854507446289,-0.18435633182525635,-0.7179727554321289,-0.027331829071044922,-0.262661337852478
5.65,0.07662131637334824,0.4239358901977539,-0.24405087530612946,-0.8923034071922302,-0.1260841190814972,-0.2550574839115143
5.7,0.3442659378051758,-0.3626241683959961,-0.19866175949573517,-1.0066897869110107,-0.08165290951728821,-0.2023998498916626
5.75,0.018736280500888824,-0.7588109970092773,-0.25988978147506714,-0.9125678539276123,0.09815579652786255,-0.20059359073638916
5.8,-0.1921875774860382,-1.054245948791504,-0.21503831446170807,-0.760066032409668,0.12538620829582214,-0.18515577912330627
5.85,-0.23548701405525208,-1.3128976821899414,0.009845256805419922,-0.5770770907402039,0.06561197340488434,-0.12294942140579224
5.9,-0.27593880891799927,-1.0602750778198242,0.18240579962730408,-0.3646180331707001,0.022390007972717285,-0.018720433115959167
5.95,-0.21408028900623322,-0.5707149505615234,0.2399439811706543,-0.14237380027770996,0.04507485032081604,0.07201553881168365
6.0,-0.2895320951938629,-0.5222005844116211,0.33767014741897583,0.07477729022502899,0.0929257795214653,0.054099053144454956
6.05,-0.10699115693569183,-0.48954105377197266,0.5145547389984131,0.2577151358127594,0.0583057627081871,0.08813779056072235
6.1,-0.09350857138633728,-0.36530303955078125,0.6589124798774719,0.41145479679107666,0.11363624036312103,0.1399534046649933
6.15,-0.28753429651260376,-0.25726318359375,0.6124227046966553,0.5222076177597046,0.24910886585712433,0.15573549270629883
6.2,-0.5467797517776489,-0.3419532775878906,0.6005761027336121,0.6141787171363831,0.33664846420288086,0.14081379771232605
6.25,-0.8405321836471558,-0.42495059967041016,0.717341959476471,0.6945239901542664,0.36595770716667175,0.12169715762138367
6.3,-0.7273833155632019,-0.2520456314086914,0.6825966238975525,0.6873493790626526,0.3094789385795593,0.09570494294166565
6.35,-0.39869987964630127,-0.14398479461669922,0.31796151399612427,0.5878154039382935,0.3148714005947113,0.017914146184921265
6.4,-0.32596009969711304,0.40135765075683594,-0.018371552228927612,0.5527061223983765,0.3931487798690796,-0.09025490283966064
6.45,-0.5408353805541992,1.6510744094848633,0.11199399828910828,0.5711460113525391,0.3082280158996582,-0.16361625492572784
6.5,-0.07831422984600067,2.2992753982543945,0.5023018717765808,0.420259952545166,0.03868269920349121,-0.09915630519390106
6.55,0.36408960819244385,2.1597728729248047,0.5929120182991028,0.1656947284936905,0.03700925037264824,-0.016151562333106995
6.6,-0.031316086649894714,1.9419288635253906,0.3623068928718567,-0.0573594756424427,0.2945369482040405,-0.01683809980750084
6.65,-0.1659756451845169,1.2976408004760742,0.09322506189346313,-0.297262579202652,0.29445528984069824,-0.04898863285779953
6.7,0.08343169093132019,0.7148618698120117,-0.03025909885764122,-0.49838197231292725,0.08523325622081757,-0.019453436136245728
6.75,0.467348575592041,0.3494682312011719,-0.30521732568740845,-0.6870293617248535,-0.02083006501197815,0.04593583941459656
6.8,0.32884812355041504,0.00626373291015625,-0.5935547947883606,-0.8081531524658203,0.14112254977226257,0.03632107377052307
6.85,-0.38548970222473145,-0.035511016845703125,-0.8060370087623596,-0.766939640045166,0.30463653802871704,-0.13203096389770508
6.9,-0.3168429136276245,-0.15201663970947266,-0.5431888103485107,-0.7715482711791992,0.09266906976699829,-0.13129818439483643
6.95,0.18306104838848114,0.05455493927001953,-0.2946951389312744,-0.7825937271118164,-0.22282347083091736,-0.03452596068382263
7.0,0.649988055229187,0.03771686553955078,-0.19446228444576263,-0.8486562371253967,-0.33887478709220886,0.012201905250549316
7.05,0.9316174387931824,-0.14748191833496094,-0.2947024703025818,-0.9386719465255737,-0.30032315850257874,0.026163816452026367
7.1,0.9558767080307007,-0.25475502014160156,-0.4972037971019745,-0.9349331855773926,-0.17667609453201294,-0.006129831075668335
7.15,0.8612185716629028,-0.4050006866455078,-0.6418049335479736,-0.833925187587738,-0.06379324197769165,-0.009663373231887817
7.2,0.5878959894180298,-0.8279542922973633,-0.5317268371582031,-0.6982431411743164,0.04140162467956543,-0.00295102596282959
7.25,0.2552284002304077,-0.7254877090454102,-0.23379281163215637,-0.5056696534156799,0.16309529542922974,-0.001210331916809082
7.3,-0.16307586431503296,-0.023782730102539062,-0.11517123132944107,-0.2729702591896057,0.3033927083015442,-0.03713226318359375
7.35,-0.6324836611747742,-0.24557781219482422,0.10912653803825378,-0.18559357523918152,0.39512521028518677,-0.12544408440589905
7.4,-0.5584042072296143,-0.751774787902832,0.35766106843948364,-0.13769760727882385,0.3235340118408203,-0.10204710811376572
7.45,-0.5874656438827515,-0.5262126922607422,0.43445736169815063,0.004664864391088486,0.2722287178039551,-0.10109038650989532
7.5,-0.8299636840820312,-0.0076351165771484375,0.39953115582466125,0.20138126611709595,0.2411157786846161,-0.1963421106338501
7.55,-0.9019724130630493,0.2682008743286133,0.5048882961273193,0.3276747763156891,0.03704953193664551,-0.17827698588371277
7.6,-0.41922301054000854,0.2773408889770508,0.7525207996368408,0.34967419505119324,-0.2778717279434204,0.044027432799339294
7.65,0.21520274877548218,0.39569950103759766,0.6958906650543213,0.3475596606731415,-0.45211261510849,0.20658202469348907
7.7,0.300187349319458,0.1229543685913086,0.7049272060394287,0.31371474266052246,-0.3508462905883789,0.19902878999710083
7.75,-0.09083686769008636,-0.20403385162353516,0.49361661076545715,0.31948786973953247,-0.19442376494407654,0.13800087571144104
7.8,-0.4696996212005615,-0.3012819290161133,0.3028644323348999,0.36676132678985596,-0.14636202156543732,0.14039525389671326
7.85,-0.463654100894928,-0.07320117950439453,0.06114290654659271,0.44998833537101746,-0.20059558749198914,0.17232663929462433
7.9,-0.33866873383522034,-0.15155696868896484,-0.04560078680515289,0.4860888719558716,-0.22597071528434753,0.1695283055305481
7.95,-0.15559673309326172,-0.14283370971679688,-0.07669658213853836,0.5256911516189575,-0.2178952395915985,0.14093135297298431
8.0,0.08904168009757996,-0.22728538513183594,-0.12211190909147263,0.5592221617698669,-0.17798060178756714,0.1195414811372757
8.05,0.0296621136367321,-0.3690958023071289,-0.041038088500499725,0.6103585958480835,-0.12610577046871185,0.10025499761104584
8.1,-0.03934090584516525,0.03404045104980469,-0.04424797743558884,0.7081746459007263,-0.12178516387939453,0.14604021608829498
8.15,-0.03998288884758949,0.7345924377441406,0.005364913493394852,0.7396889925003052,-0.1309831291437149,0.191135972738266
8.2,0.15542668104171753,1.042724609375,0.02831052616238594,0.6401051878929138,-0.12026886641979218,0.18223145604133606
8.25,0.35410016775131226,0.9546566009521484,-0.06835596263408661,0.506994366645813,-0.06081277132034302,0.14165496826171875
8.3,0.539018988609314,0.507899284362793,-0.2982727885246277,0.4158978760242462,0.0296170711517334,0.10987134277820587
8.35,0.37083059549331665,0.09867191314697266,-0.3010209798812866,0.3918936848640442,0.09350986778736115,0.1030082032084465
8.4,0.0010609710589051247,0.3034534454345703,-0.03377833217382431,0.39568620920181274,0.07617495954036713,0.12967050075531006
8.45,-0.04225269332528114,1.006230354309082,0.08702117204666138,0.32707515358924866,0.03726521134376526,0.14067643880844116
8.5,0.10829167068004608,1.0824222564697266,-0.08662518858909607,0.13730952143669128,0.04590953141450882,0.07332601398229599
8.55,0.48833268880844116,0.5890893936157227,-0.3960392475128174,-0.055841460824012756,0.031920988112688065,0.011699287220835686
8.6,0.6342020630836487,0.20858097076416016,-0.6060806512832642,-0.12991945445537567,0.04768093675374985,-0.030517209321260452
8.65,0.21872162818908691,0.2806062698364258,-0.49316954612731934,-0.11632125824689865,0.0819539800286293,-0.059004999697208405
8.7,-0.08807225525379181,0.7016324996948242,-0.15542389452457428,-0.11889398097991943,-0.015296775847673416,-0.07365261018276215
8.75,0.03441387414932251,0.9391565322875977,0.011083574965596199,-0.2331053763628006,-0.12368983775377274,-0.10662238299846649
8.8,0.04791562259197235,0.6195592880249023,0.0996047854423523,-0.41029417514801025,-0.12675917148590088,-0.17506691813468933
8.85,0.12864185869693756,0.39228248596191406,0.06247466057538986,-0.5633091330528259,-0.13372987508773804,-0.19377635419368744
8.9,0.11692528426647186,0.3540029525756836,-0.04934438690543175,-0.6480327844619751,-0.12463104724884033,-0.20213770866394043
8.95,0.051150862127542496,0.2162799835205078,-0.15224477648735046,-0.6982599496841431,-0.1247892677783966,-0.2106497883796692
9.0,0.12751814723014832,0.014666557312011719,-0.11288071423768997,-0.6968287229537964,-0.17389389872550964,-0.17783817648887634
9.05,0.19469721615314484,-0.2855405807495117,-0.15694798529148102,-0.6528785824775696,-0.15443646907806396,-0.11915749311447144
9.1,-0.029625507071614265,-0.5927934646606445,-0.02955978363752365,-0.5491447448730469,-0.08005969226360321,-0.07977049052715302
9.15,-0.2704498767852783,-0.6523008346557617,0.022533640265464783,-0.4087415337562561,-0.036871105432510376,-0.026181504130363464
9.2,-0.5277384519577026,-0.45733642578125,0.13854765892028809,-0.2564360499382019,-0.01879173517227173,-0.015854112803936005
9.25,-0.6020066738128662,0.01807117462158203,0.1797475516796112,-0.10505584627389908,-0.0376640222966671,-0.026354219764471054
9.3,-0.37425318360328674,-0.000911712646484375,0.12375150620937347,-0.0074707577005028725,-0.135521799325943,-0.020350467413663864
9.35,0.11860435456037521,-0.3743772506713867,0.2651660442352295,0.08586926013231277,-0.3259596824645996,0.08799618482589722
9.4,0.3888360261917114,-0.286834716796875,0.2218577265739441,0.21271708607673645,-0.38572704792022705,0.22450391948223114
9.45,0.44293123483657837,-0.2655324935913086,0.018418624997138977,0.2863442003726959,-0.22302666306495667,0.25587406754493713
9.5,-0.014007635414600372,-0.3758888244628906,-0.15327990055084229,0.35288935899734497,0.005234658718109131,0.17829212546348572
9.55,-0.5102750062942505,-0.09313488006591797,-0.08672566711902618,0.46980392932891846,0.04607062041759491,0.13906186819076538
9.6,-0.48548591136932373,0.5254430770874023,0.1297089159488678,0.5631946325302124,-0.09803861379623413,0.15748295187950134
9.65,-0.2209007740020752,0.5291576385498047,0.41284531354904175,0.5553041696548462,-0.19114676117897034,0.10748030245304108
9.7,-0.0503879189491272,0.2565803527832031,0.7219430208206177,0.4834718704223633,-0.2191198766231537,0.07249176502227783
9.75,0.23698937892913818,0.9131956100463867,0.8429259061813354,0.4025741517543793,-0.1466180682182312,0.15055464208126068
9.8,-0.0782955139875412,0.9224834442138672,0.4520331919193268,0.2912057042121887,0.23266899585723877,0.1269364058971405
9.85,-0.6332767009735107,-0.014872550964355469,-0.06087231636047363,0.25169816613197327,0.5256385207176208,-0.011786632239818573
9.9,-0.00607086718082428,-0.6970634460449219,-0.272835910320282,0.283028781414032,0.2996751070022583,-0.014545857906341553
9.95,0.18492460250854492,-1.1841669082641602,-0.3234759569168091,0.4209743142127991,0.14552389085292816,-0.011695876717567444
10.0,-0.1489490270614624,-0.4310750961303711,-0.16264577209949493,0.6020251512527466,0.11960743367671967,-0.01473972201347351
10.05,-0.14764204621315002,0.6809167861938477,-0.037836238741874695,0.626866340637207,0.15574568510055542,0.02465936541557312
10.1,-0.3738086223602295,1.1353168487548828,-0.019788891077041626,0.5160432457923889,0.3703334331512451,-0.08563278615474701
10.15,-0.014354497194290161,0.7170743942260742,-0.124230295419693,0.3420807123184204,0.37362921237945557,-0.15293657779693604
10.2,0.4782845377922058,0.6622257232666016,-0.044423460960388184,0.26267874240875244,0.23134854435920715,-0.11798444390296936
10.25,0.8289175033569336,0.8578939437866211,0.05900293588638306,0.20695549249649048,0.13537739217281342,-0.04106149822473526
10.3,0.9072498083114624,0.5790653228759766,-0.08002170920372009,0.0846778005361557,0.21836866438388824,0.02792050503194332
10.35,0.5503684282302856,0.6613283157348633,-0.3239061236381531,-0.0056221261620521545,0.39366376399993896,0.0621076300740242
10.4,0.2496090978384018,0.5126791000366211,-0.5936698913574219,-0.09000763297080994,0.43681320548057556,0.05775381624698639
10.45,0.4648958444595337,-0.2824554443359375,-0.748278021812439,-0.1305217146873474,0.3182240426540375,0.015083156526088715
10.5,0.3184718191623688,-0.7601776123046875,-0.38023391366004944,-0.0528191477060318,0.24012133479118347,0.0033915918320417404
10.55,-0.14609210193157196,-0.2691335678100586,-0.13957801461219788,0.09114102274179459,0.2039596289396286,-0.03489045426249504
10.6,-0.05855322256684303,0.27587223052978516,-0.16142241656780243,0.08984402567148209,0.0702933818101883,-0.046727120876312256
10.65,0.5312610864639282,0.10264301300048828,-0.5434058308601379,-0.04085589945316315,-0.1252146065235138,-0.06304178386926651
10.7,0.8928820490837097,-0.1222543716430664,-0.909776508808136,-0.0765470489859581,-0.22368325293064117,-0.09308081120252609
10.75,1.1258918046951294,0.02449512481689453,-0.9138956069946289,-0.023402510210871696,-0.27509039640426636,-0.04670025780797005
10.8,0.754332959651947,0.47547149658203125,-0.6757273077964783,0.017327623441815376,-0.21370825171470642,0.005115411709994078
10.85,0.26641613245010376,0.9490270614624023,-0.4584001898765564,-0.017180075868964195,-0.1424507349729538,0.014049474149942398
10.9,0.0841493159532547,1.1772708892822266,-0.28360313177108765,-0.1215338185429573,-0.13237082958221436,-0.025685325264930725
10.95,0.11583437770605087,1.251439094543457,-0.11061995476484299,-0.21419543027877808,-0.10332838445901871,-0.03191015124320984
11.0,0.027286682277917862,0.7383003234863281,0.04739765077829361,-0.33016735315322876,-0.012365087866783142,-0.05520565062761307
11.05,0.10703299939632416,-0.4221019744873047,0.35722386837005615,-0.44120609760284424,-0.028498858213424683,-0.06573216617107391
11.1,-0.32375210523605347,-0.09746646881103516,0.7831084728240967,-0.4034319519996643,-0.017529338598251343,-0.01998153328895569
11.15,-0.561453640460968,0.7602910995483398,0.9236426949501038,-0.4130503237247467,-0.05062578618526459,0.016181200742721558
11.2,-0.5081945657730103,0.30887603759765625,0.8490808606147766,-0.5690969228744507,-0.08701081573963165,-0.04152926802635193
11.25,-0.26784276962280273,-0.39318275451660156,0.5753620862960815,-0.6513716578483582,-0.08564022183418274,-0.06646808981895447
11.3,-0.6027571558952332,-0.20673465728759766,0.3120992183685303,-0.5343525409698486,-0.08687716722488403,-0.15692241489887238
11.35,-0.4085162580013275,-0.015247344970703125,0.3005402684211731,-0.4195796549320221,-0.23968340456485748,-0.11018860340118408
11.4,-0.15528985857963562,-0.13223743438720703,0.35223907232284546,-0.3768238425254822,-0.30193012952804565,-0.030146613717079163
11.45,-0.1520327925682068,-0.07727813720703125,0.3062874674797058,-0.30956369638442993,-0.1995868682861328,0.028780773282051086
11.5,-0.3675647974014282,0.17195415496826172,0.12299498915672302,-0.17349816858768463,0.010095380246639252,0.009557642042636871
11.55,-0.6672857403755188,0.46567821502685547,-0.3369264006614685,-0.023689674213528633,0.08721408993005753,-0.067882239818573
11.6,-0.1712988018989563,-0.8137950897216797,0.024238690733909607,-0.024181997403502464,-0.15869247913360596,-0.07048839330673218
11.65,0.6885900497436523,-0.4396514892578125,0.23952539265155792,0.10823242366313934,-0.42255744338035583,0.11719498783349991
11.7,0.3714897036552429,0.30000972747802734,-0.03321431577205658,0.2209925353527069,-0.20455026626586914,0.12617772817611694
11.75,0.2603640854358673,-0.17471027374267578,-0.32224351167678833,0.1923128068447113,-0.0269407257437706,0.09159521758556366
11.8,-0.09382237493991852,-0.4391908645629883,-0.4814484715461731,0.2870206832885742,0.08140287548303604,0.0642520859837532
11.85,0.20818941295146942,-0.8074178695678711,-0.450418084859848,0.41349494457244873,0.010739877820014954,0.11000277101993561
11.9,-0.2674933075904846,-0.5336027145385742,-0.12193815410137177,0.6356974840164185,0.021227210760116577,0.1232323944568634
11.95,-0.0337451696395874,0.055098533630371094,0.14750269055366516,0.7577701807022095,-0.06842589378356934,0.18464528024196625
12.0,-0.022120945155620575,0.3116283416748047,0.2698449492454529,0.7444055080413818,-0.051092833280563354,0.13251066207885742
12.05,0.2884206175804138,0.24891948699951172,0.19778622686862946,0.6583619117736816,-0.0076667070388793945,0.09615445137023926
12.1,0.05724232643842697,0.27719974517822266,0.06986624002456665,0.616823673248291,0.10920101404190063,0.06649619340896606
12.15,-0.12263333797454834,0.20168495178222656,-0.08039145171642303,0.5897642374038696,0.13256628811359406,0.0554012656211853
12.2,0.07007453590631485,0.5209999084472656,-0.0943850427865982,0.5714904069900513,0.06928490102291107,0.039463192224502563
12.25,-0.011944692581892014,1.020951271057129,0.08710137754678726,0.5199568271636963,0.10388866066932678,-0.0005557388067245483
12.3,0.27383407950401306,0.9157886505126953,0.029104970395565033,0.3376733660697937,0.13068437576293945,-0.010330289602279663
12.35,0.34267622232437134,0.5044727325439453,-0.19137898087501526,0.20230811834335327,0.23330196738243103,-0.03183109313249588
12.4,0.2508240342140198,0.926936149597168,-0.07062208652496338,0.18902462720870972,0.2623465657234192,-0.037223413586616516
12.45,0.11428795009851456,0.7038593292236328,0.03883837163448334,0.06739097833633423,0.23484539985656738,-0.03286062180995941
12.5,0.06461899727582932,1.072493553161621,0.04877183586359024,-0.04263860732316971,0.22795146703720093,-0.053414978086948395
12.55,0.6480300426483154,1.124253273010254,-0.17123982310295105,-0.22001999616622925,0.13901780545711517,-0.07147227227687836
12.6,0.6767109632492065,0.0028829574584960938,-0.5784071087837219,-0.4196591079235077,0.2507576644420624,-0.05744287371635437
12.65,0.4998047351837158,-0.2675809860229492,-0.6985273957252502,-0.3763497769832611,0.33079713582992554,-0.04689301550388336
12.7,0.03031325340270996,-0.14366531372070312,-0.607256293296814,-0.28890669345855713,0.2787010669708252,-0.07846789062023163
12.75,-0.11206036806106567,0.43283557891845703,-0.3174820840358734,-0.27046889066696167,0.11664737015962601,-0.023015595972537994
12.8,0.35339197516441345,0.9474449157714844,-0.39952167868614197,-0.37203094363212585,-0.03611765801906586,0.055324479937553406
12.85,0.549906849861145,0.06299686431884766,-0.5371339321136475,-0.507780909538269,0.02106836438179016,0.058768048882484436
12.9,0.5686550140380859,-0.07697010040283203,-0.41772857308387756,-0.47092393040657043,0.0421859472990036,0.09737905859947205
12.95,0.27184775471687317,0.0702352523803711,-0.2327803373336792,-0.4462636709213257,0.013230457901954651,0.0972306877374649
13.0,0.06879542022943497,0.19834232330322266,-0.053457096219062805,-0.4614483118057251,0.0018658190965652466,0.06963349878787994
13.05,0.19136181473731995,0.10311031341552734,-0.020738236606121063,-0.5068278908729553,-0.03585396707057953,0.0419100821018219
13.1,0.011437967419624329,-0.015883445739746094,-0.29314395785331726,-0.5400348901748657,-0.0032111406326293945,-0.00958213210105896
13.15,0.029118403792381287,-0.7131738662719727,-0.21515658497810364,-0.5126328468322754,0.017867133021354675,-0.03366248309612274
13.2,-0.46220850944519043,-0.18887805938720703,-0.04271620512008667,-0.36069196462631226,-0.018041297793388367,-0.08122270554304123
13.25,-0.27471911907196045,0.4622373580932617,-0.09987452626228333,-0.2481178492307663,-0.1459493637084961,-0.05889454483985901
13.3,0.19364580512046814,0.33980369567871094,-0.12844637036323547,-0.19476954638957977,-0.2230796217918396,-0.04821802303195
13.35,0.15559515357017517,0.2490682601928711,-0.020502977073192596,-0.16455648839473724,-0.2598845064640045,-0.012426413595676422
13.4,0.49500203132629395,0.5070362091064453,-0.14339610934257507,-0.07633356004953384,-0.27435335516929626,0.10415544360876083
13.45,0.6872838139533997,0.3857154846191406,-0.17900332808494568,-0.10474979877471924,-0.1188729926943779,0.262736439704895
13.5,0.2810910642147064,0.15450763702392578,-0.37878721952438354,-0.08093556761741638,0.13403896987438202,0.14987368881702423
13.55,0.1589505970478058,-0.19596004486083984,-0.26635345816612244,-0.05749550461769104,0.18675890564918518,0.16343262791633606
13.6,-0.2081800401210785,-0.07898235321044922,-0.03196851909160614,-0.008942574262619019,0.22083288431167603,0.150529682636261
13.65,-0.3681577742099762,0.34250640869140625,-0.03198303282260895,0.020215705037117004,0.21186448633670807,0.11601212620735168
13.7,-0.22607985138893127,0.55572509765625,0.040173351764678955,-0.07503373920917511,0.17059478163719177,0.0404987707734108
13.75,-0.14243833720684052,0.2758626937866211,0.08389747887849808,-0.162605881690979,0.15890179574489594,-0.03943809121847153
13.8,-0.021214328706264496,0.017772674560546875,0.10813671350479126,-0.20219804346561432,0.11149343848228455,-0.08393266052007675
13.85,-0.07857055962085724,0.057105064392089844,0.1984603852033615,-0.1984906941652298,0.031581029295921326,-0.08248795568943024
13.9,-0.10780803859233856,0.39119815826416016,0.1861402839422226,-0.2267220914363861,-0.008313782513141632,-0.10749702155590057
13.95,0.0446479469537735,0.5647163391113281,0.18179121613502502,-0.32331323623657227,-0.0208214670419693,-0.1424160599708557
14.0,-0.016653332859277725,0.575861930847168,0.08633531630039215,-0.43232157826423645,-0.01412498950958252,-0.2312489151954651
14.05,0.06705677509307861,0.3122873306274414,-0.10784494131803513,-0.5379456877708435,-0.08655194938182831,-0.26151037216186523
14.1,0.09215230494737625,-0.012891769409179688,-0.15639887750148773,-0.5724565386772156,-0.18184104561805725,-0.23893195390701294
14.15,0.12055794894695282,-0.02882671356201172,-0.22142356634140015,-0.5470494627952576,-0.24917136132717133,-0.2374967634677887
14.2,0.04233482480049133,0.0033025741577148438,-0.37409156560897827,-0.5085281729698181,-0.2805851101875305,-0.2655671536922455
14.25,-0.0017873197793960571,0.35487842559814453,-0.4692203402519226,-0.4911360442638397,-0.30011701583862305,-0.29689261317253113
14.3,0.05379198491573334,0.34439563751220703,-0.42916256189346313,-0.5036457180976868,-0.3144368529319763,-0.35033634305000305
14.35,0.16548968851566315,0.03701496124267578,-0.24947696924209595,-0.5073918104171753,-0.29678887128829956,-0.4105224013328552
14.4,0.07660125195980072,0.08156299591064453,-0.1582348793745041,-0.43155261874198914,-0.3060842752456665,-0.42633211612701416
14.45,-0.19902542233467102,-0.004047393798828125,-0.0037643760442733765,-0.3659657835960388,-0.38136032223701477,-0.38299453258514404
14.5,-0.09399513900279999,0.08649158477783203,0.009158682078123093,-0.35074582695961,-0.5103127956390381,-0.2610786557197571
14.55,0.09967495501041412,0.16786670684814453,0.0628746896982193,-0.4065576195716858,-0.5943124294281006,-0.1339559406042099
14.6,0.5278865694999695,0.20277786254882812,-0.09627524018287659,-0.41952693462371826,-0.4987998306751251,-0.06586046516895294
14.65,0.2990195155143738,0.21735382080078125,-0.4382215440273285,-0.36871498823165894,-0.25492364168167114,-0.1640055775642395
14.7,-0.005660265684127808,-0.07283306121826172,-0.523369312286377,-0.31923940777778625,-0.06180354952812195,-0.22071154415607452
14.75,-0.14363157749176025,-0.19353961944580078,-0.5178217887878418,-0.2530244290828705,-0.009566619992256165,-0.2015058547258377
14.8,0.1067524254322052,-0.30458736419677734,-0.27311527729034424,-0.19931171834468842,-0.051574140787124634,-0.10132935643196106
14.85,0.4567761719226837,-0.3036966323852539,0.1897689402103424,-0.12274622917175293,-0.05153919756412506,0.0200454480946064
14.9,0.7571795582771301,-0.01955890655517578,0.2758866548538208,-0.03137793391942978,0.08283933997154236,0.12704390287399292
14.95,0.6699398756027222,0.5277261734008789,0.0255146324634552,0.06424310803413391,0.3310002088546753,0.16312173008918762
15.0,0.5014710426330566,0.9277639389038086,-0.11272479593753815,0.16278886795043945,0.5037076473236084,0.20406769216060638
15.05,0.5561020374298096,0.9742183685302734,-0.15983882546424866,0.2232520878314972,0.5506126284599304,0.3238508999347687
15.1,0.5803186297416687,0.7662630081176758,-0.1815115064382553,0.19533050060272217,0.5582178235054016,0.404031902551651
15.15,0.9166238307952881,0.41570568084716797,-0.38715121150016785,0.05754765868186951,0.5150157809257507,0.4320066273212433
15.2,1.0300304889678955,0.3136453628540039,-0.7636147737503052,-0.053837455809116364,0.6151509284973145,0.25965622067451477
15.25,1.3575143814086914,-0.018197059631347656,-0.7955941557884216,0.014231272041797638,0.7927024364471436,-0.19965434074401855
15.3,1.9751231670379639,-0.6740236282348633,0.2763299345970154,0.4810968339443207,0.9866037368774414,-1.3403233289718628
15.35,-0.9798761606216431,1.100895881652832,0.7553523778915405,1.0605005025863647,0.9244053363800049,-2.666240692138672
15.4,-1.0913010835647583,2.3183393478393555,0.4591662287712097,0.6136691570281982,0.09297019243240356,-1.8023474216461182
15.45,-0.5271091461181641,0.860377311706543,0.18158842623233795,-0.3177962601184845,-0.39154869318008423,-0.8896495699882507
15.5,0.9450663328170776,-1.2981328964233398,-0.070802241563797,-0.7342512607574463,-0.47825494408607483,-0.712948203086853
15.55,0.40378573536872864,-1.237532615661621,-0.7494531869888306,-0.74381422996521,-0.4139034152030945,-1.0675534009933472
15.6,0.42974549531936646,-1.7212104797363281,-0.7450089454650879,-0.7537309527397156,-0.30102306604385376,-0.5215274095535278
15.65,0.3666153848171234,-1.5999250411987305,-0.507854700088501,-0.5580943822860718,-0.3816329836845398,-0.23866792023181915
15.7,0.1727333813905716,-1.1162843704223633,-0.320386677980423,-0.23152954876422882,-0.3544383645057678,0.008336670696735382
15.75,0.1558125764131546,-1.0151023864746094,-0.335762083530426,0.14396312832832336,-0.21118228137493134,-0.023043286055326462
15.8,-0.7154684066772461,-0.3496217727661133,-0.5589991211891174,0.4100284278392792,-0.2503816485404968,-0.43452391028404236
15.85,-0.36897581815719604,0.3319215774536133,-0.6600691080093384,0.4044925570487976,-0.39386793971061707,-0.16271300613880157
15.9,0.48506098985671997,1.5180234909057617,-0.7022079229354858,0.39239001274108887,-0.5527113676071167,0.02581404149532318
15.95,0.35485297441482544,2.4859542846679688,-0.7718008756637573,0.2955014407634735,-0.5570026636123657,-0.05249100178480148
16.0,0.6281965970993042,1.5747346878051758,-0.5805315375328064,-0.1413651406764984,-0.3293854296207428,0.2744818925857544
16.05,0.5817371010780334,0.33388519287109375,-0.3971717059612274,-0.2118140161037445,0.08602410554885864,0.24876642227172852
16.1,-0.3316190242767334,-0.05670166015625,-0.6709468364715576,-0.04239923506975174,0.27925699949264526,-0.11048153042793274
16.15,-0.24358490109443665,-0.796966552734375,-0.38710737228393555,-0.09437140822410583,0.31925928592681885,0.08707813918590546
16.2,-0.14434002339839935,-0.536250114440918,-0.4650316834449768,-0.027791690081357956,0.38896629214286804,0.15628546476364136
16.25,-0.2675608992576599,0.44200801849365234,-0.7151061296463013,0.05371169000864029,0.6330899596214294,0.08365156501531601
16.3,-0.2645508348941803,1.0212678909301758,-1.0549309253692627,0.09819531440734863,0.8558369874954224,-0.17225876450538635
16.35,-0.18030616641044617,0.25520801544189453,-0.5877532362937927,-0.014226451516151428,0.8906698226928711,-0.35929977893829346
16.4,0.39869654178619385,-0.7473459243774414,0.41379493474960327,-0.08086049556732178,0.6963599920272827,-0.09187942743301392
16.45,0.8240139484405518,-0.13254833221435547,0.38836774230003357,0.057923801243305206,0.4220653176307678,0.19004058837890625
16.5,0.720471978187561,1.0404157638549805,-0.3803948760032654,0.12370184063911438,0.34468498826026917,0.24298492074012756
16.55,0.2909926176071167,1.076004981994629,-0.7462414503097534,-0.0938553661108017,0.3990316390991211,0.09434330463409424
16.6,0.5020501613616943,-0.30307865142822266,-0.613429605960846,-0.3735623359680176,0.39073342084884644,0.07352736592292786
16.65,0.6239570379257202,-0.8474493026733398,-0.21453917026519775,-0.3588929772377014,0.3394200801849365,0.06560777127742767
16.7,0.5968031287193298,-0.2502479553222656,0.06665021181106567,-0.18749822676181793,0.30091592669487,0.055023014545440674
16.75,0.8862017393112183,-0.04030132293701172,0.3732791244983673,-0.1456817388534546,0.2725980877876282,0.023749899119138718
16.8,1.5537757873535156,-1.0968341827392578,1.5818864107131958,-0.10987381637096405,0.27016568183898926,-0.460366427898407
16.85,0.7009117007255554,-0.2384185791015625,1.651293158531189,0.3799552321434021,-0.0901300311088562,-2.1984875202178955
16.9,-1.351645827293396,2.3658447265625,0.8527116179466248,0.403778076171875,-1.1267004013061523,-3.5484631061553955
16.95,-0.565932035446167,1.7011356353759766,0.7938583493232727,-0.33486294746398926,-1.5929220914840698,-2.8543753623962402
17.0,-0.17405377328395844,0.27721500396728516,0.019835442304611206,-0.5236501097679138,-1.6397379636764526,-2.1457889080047607
17.05,0.09982380270957947,-0.7140254974365234,-0.6740670204162598,-0.19618767499923706,-1.471793293952942,-1.9643495082855225
17.1,-0.1841902732849121,-0.9322671890258789,-0.7294589877128601,0.02817714214324951,-1.1322163343429565,-1.6349940299987793
17.15,-0.33723416924476624,-1.165689468383789,-0.22661741077899933,0.11165443062782288,-1.0384441614151,-1.1578941345214844
17.2,0.05302750691771507,-0.6792278289794922,-0.19322964549064636,0.13626772165298462,-1.1451091766357422,-0.8207533359527588
17.25,0.4365648925304413,-0.5002050399780273,-0.15371951460838318,0.15271301567554474,-1.121321678161621,-0.6945270895957947
17.3,1.532785415649414,-0.41881847381591797,-0.4989551901817322,0.1696006953716278,-1.1631804704666138,-0.9050855040550232
17.35,0.9246088266372681,-0.2683553695678711,0.008388370275497437,0.15465661883354187,-0.9728385210037231,-0.5824059247970581
17.4,1.0362268686294556,-0.3030834197998047,0.14752647280693054,0.08622251451015472,-0.8007900714874268,-0.418239951133728
17.45,1.228001594543457,-0.10477066040039062,0.21978053450584412,0.19966861605644226,-0.5049731731414795,-0.5030219554901123
17.5,0.6711106300354004,-0.1767721176147461,0.17685659229755402,0.25690513849258423,-0.11394564062356949,-0.3831869661808014
17.55,0.4766440689563751,-0.3660411834716797,-0.698411226272583,0.12367937713861465,0.06463675200939178,0.12424224615097046
17.6,2.2421867847442627,0.6410150527954102,-0.6693820357322693,0.06022492051124573,0.44138434529304504,0.35934194922447205
17.65,0.994701087474823,0.03747272491455078,0.37304526567459106,0.007113635540008545,1.061933994293213,0.6956455707550049
17.7,-0.29001808166503906,0.4768819808959961,0.005671903491020203,-0.06724110245704651,1.076216459274292,1.0236101150512695
17.75,-1.3023792505264282,-0.4183492660522461,0.3408815264701843,-0.20204472541809082,0.7560651302337646,1.3997254371643066
17.8,-0.30995920300483704,-0.5874309539794922,0.9645814895629883,-0.1635836809873581,0.2533178925514221,0.7172284722328186
17.85,0.24071094393730164,0.09097480773925781,1.0546953678131104,-0.14597533643245697,0.21627774834632874,0.14783301949501038
17.9,0.1748449057340622,-1.0857772827148438,0.4214508533477783,-0.1427469402551651,0.26778295636177063,0.0748995691537857
17.95,0.4336373209953308,-0.5535078048706055,-0.18326427042484283,0.07532840967178345,0.12315692007541656,-0.17543034255504608
18.0,0.15011508762836456,-0.48267555236816406,0.505988359451294,0.3090773820877075,0.14952945709228516,-0.2654731273651123
18.05,-0.18182788789272308,-0.5974636077880859,0.09463804960250854,0.3893703818321228,-0.10496264696121216,-0.4005089998245239
18.1,0.06712237745523453,-0.17025089263916016,-0.3358650207519531,0.5092020630836487,-0.3215305805206299,-0.46700429916381836
18.15,0.701974630355835,1.5423622131347656,0.034618258476257324,0.3813171684741974,-0.05964931100606918,-0.43321657180786133
18.2,0.5439117550849915,0.6824865341186523,0.006030023097991943,-0.12840384244918823,0.5498816967010498,0.3760397434234619
18.25,0.21012482047080994,0.005005836486816406,0.041684918105602264,-0.15288680791854858,0.923740029335022,1.246511697769165
18.3,-0.3135611414909363,1.2511796951293945,-0.09373031556606293,0.00879061222076416,1.001450777053833,1.716304063796997
18.35,-1.5218371152877808,1.5883293151855469,0.07528769969940186,-0.21424859762191772,0.9960986375808716,2.195460796356201
18.4,-1.7326350212097168,-0.3914661407470703,0.6777587532997131,-0.6695494651794434,0.6588418483734131,2.749552011489868
18.45,1.0916328430175781,-3.821070671081543,1.267059087753296,-0.504948079586029,0.1899232566356659,2.665231227874756
18.5,3.782604217529297,-2.041839122772217,0.5922541618347168,-0.07624050974845886,-0.020796101540327072,0.882023274898529
18.55,-0.5471512675285339,1.8021049499511719,-0.6558970212936401,-0.07807520031929016,0.2828231155872345,0.17593804001808167
18.6,-1.478323221206665,0.9359350204467773,0.15016376972198486,-0.5461081266403198,0.373494952917099,0.8426690101623535
18.65,0.05026368051767349,0.223785400390625,0.27797508239746094,-0.5272237658500671,0.06760026514530182,0.6362370848655701
18.7,0.7070714831352234,0.16927623748779297,0.41040700674057007,-0.2879767417907715,-0.08485305309295654,0.39949461817741394
18.75,0.925324559211731,0.21659278869628906,-0.730484664440155,-0.23146432638168335,0.05572015047073364,0.11296164989471436
18.8,0.5858166217803955,0.7940835952758789,-1.9340062141418457,-0.4451322555541992,0.33352163434028625,-0.015734046697616577
18.85,0.4736032485961914,0.14570045471191406,-1.3018608093261719,-0.6083431243896484,0.8726288676261902,0.1811746507883072
18.9,-0.19259947538375854,0.4688434600830078,-0.9303128719329834,-0.8205819129943848,1.0983706712722778,0.5721971988677979
18.95,-0.6012222766876221,-0.4581899642944336,-1.0946712493896484,-0.9808075428009033,0.8843187093734741,1.4881618022918701
19.0,0.3216809630393982,-1.6474695205688477,0.34033387899398804,-0.8346498012542725,0.8210203647613525,1.7271426916122437
19.05,1.0557712316513062,-1.763601303100586,0.819815993309021,-0.24429363012313843,0.6870747804641724,0.8981212377548218
19.1,0.42785027623176575,-0.8984174728393555,0.5229201912879944,0.3271483778953552,0.8353609442710876,0.045047223567962646
19.15,-0.4810596704483032,0.37685489654541016,0.04030299186706543,0.571197509765625,0.9978313446044922,-0.25890931487083435
19.2,-1.0122674703598022,1.3474760055541992,0.10178202390670776,0.41583049297332764,0.9986805319786072,-0.15539422631263733
19.25,-0.6383745074272156,1.069570541381836,0.8853496313095093,0.24518734216690063,0.8897809982299805,0.052223287522792816
19.3,-0.29603686928749084,0.8925228118896484,0.9557985663414001,0.16657224297523499,0.5978120565414429,0.02316395938396454
19.35,-0.15859685838222504,0.9001913070678711,0.5964022278785706,0.052952852100133896,0.3793005049228668,0.10711224377155304
19.4,-0.12344006448984146,0.45365238189697266,0.22066223621368408,-0.13808324933052063,0.3229278028011322,0.26772424578666687
19.45,-0.04186433181166649,-0.271484375,-0.00855681486427784,-0.30277034640312195,0.35863006114959717,0.2318907529115677
19.5,-0.16378632187843323,-0.5242319107055664,0.03779596835374832,-0.3239116668701172,0.36937493085861206,-0.004649102687835693
19.55,-0.07724138349294662,-0.42987060546875,0.23841361701488495,-0.18507187068462372,0.276024729013443,-0.053785961121320724
19.6,0.07455384731292725,-0.1457967758178711,0.3211279511451721,0.0361458994448185,0.1655033379793167,0.02873794548213482
19.65,-0.09478836506605148,0.4254465103149414,0.2788865566253662,0.15220412611961365,0.1168355643749237,-0.023645244538784027
19.7,-0.22622187435626984,0.5967855453491211,0.18032723665237427,0.10075829923152924,0.0923377126455307,-0.029496103525161743
19.75,-0.30461353063583374,0.3623208999633789,0.23506024479866028,-0.008130359463393688,0.04797311872243881,0.0342794694006443
19.8,-0.17651046812534332,0.12154006958007812,0.26054516434669495,-0.023764781653881073,-0.006447356194257736,0.18594865500926971
19.85,0.014855563640594482,-0.024964332580566406,0.3113810420036316,0.024992018938064575,-0.05027754604816437,0.28862082958221436
19.9,0.012512419372797012,-0.046661376953125,0.09493011236190796,0.10330168157815933,-0.11709380149841309,0.23269560933113098
19.95,0.013673879206180573,-0.02838420867919922,-0.08644226938486099,0.17688588798046112,-0.13312914967536926,0.16841529309749603
20.0,0.15146705508232117,0.018073081970214844,-0.017337262630462646,0.22032134234905243,-0.11894750595092773,0.14809668064117432
20.05,0.21095116436481476,0.08382129669189453,0.09542205929756165,0.25275668501853943,-0.12953174114227295,0.10382935404777527
20.1,0.007861599326133728,0.2220630645751953,0.10244343429803848,0.26026713848114014,-0.12525776028633118,0.03681298345327377
20.15,-0.14717450737953186,0.36510372161865234,-0.0613778755068779,0.2154361605644226,-0.09080979228019714,0.04487001150846481
20.2,-0.16015706956386566,0.28173160552978516,-0.1571783870458603,0.13634651899337769,-0.08084968477487564,0.10596233606338501
20.25,-0.05376794934272766,0.0871114730834961,-0.14494454860687256,0.07228833436965942,-0.10322891175746918,0.19605180621147156
20.3,0.1034681424498558,0.07492733001708984,-0.061822451651096344,0.04383169859647751,-0.10857417434453964,0.261824369430542
20.35,0.06553573906421661,0.22163677215576172,-0.05322697013616562,0.038448430597782135,-0.0946991816163063,0.23486073315143585
20.4,-0.053457219153642654,0.2022104263305664,-0.05455809459090233,0.009965978562831879,-0.08021454513072968,0.22451342642307281
20.45,-0.03168855234980583,-0.019371986389160156,-0.0038626398891210556,-0.02304220199584961,-0.07543112337589264,0.22582440078258514
20.5,0.01708483323454857,-0.09659576416015625,-0.11713648587465286,-0.01219002902507782,-0.09412910044193268,0.11990584433078766
20.55,0.07236138731241226,-0.08739948272705078,-0.28869614005088806,0.00857110507786274,-0.10282931476831436,0.030471285805106163
20.6,0.15465600788593292,-0.11413002014160156,-0.18279218673706055,0.023373283445835114,-0.06441431492567062,0.03629519045352936
20.65,0.05068884789943695,0.04809284210205078,-0.06866978108882904,0.041199587285518646,-0.01827055960893631,-0.005351657047867775
20.7,-0.08498300611972809,0.30931758880615234,-0.11267003417015076,0.03009207360446453,0.013597322627902031,-0.05066720023751259
20.75,-0.15262839198112488,0.29485416412353516,-0.0764673501253128,-0.020879950374364853,0.033004991710186005,-0.04184306412935257
20.8,-0.06918485462665558,0.1362018585205078,0.05513126403093338,-0.05747351422905922,0.039420969784259796,-0.01906430907547474
20.85,0.003985261544585228,0.12069034576416016,0.06551671773195267,-0.06520259380340576,0.03882289305329323,-0.012520020827651024
20.9,-0.12969833612442017,0.21990680694580078,-0.013899017125368118,-0.06777962297201157,0.04311559349298477,-0.020171767100691795
20.95,-0.13320185244083405,0.15875530242919922,0.07893839478492737,-0.08145281672477722,0.04611608013510704,-0.00766419991850853
21.0,0.08365466445684433,-0.02974700927734375,0.16798502206802368,-0.08599590510129929,0.050888728350400925,-0.005132716149091721
21.05,0.17200736701488495,0.052948951721191406,0.03498326614499092,-0.07454174011945724,0.06234903633594513,-0.021241895854473114
21.1,0.08040264248847961,0.15598392486572266,-0.01045328751206398,-0.08646664023399353,0.07537873834371567,-0.020324556156992912
21.15,-0.0009014066308736801,0.07479095458984375,-0.008855476044118404,-0.11046870052814484,0.08117031306028366,-0.017689298838377
21.2,-0.010108791291713715,0.08388900756835938,-0.05080752447247505,-0.12388445436954498,0.07782621681690216,-0.024891741573810577
21.25,0.020413124933838844,0.04160308837890625,-0.024807032197713852,-0.12909206748008728,0.07123620063066483,-0.027882825583219528
21.3,0.07570159435272217,-0.10556697845458984,0.0631520003080368,-0.12746912240982056,0.07380902022123337,-0.03537948429584503
21.35,-0.022304702550172806,-0.04759502410888672,0.13393454253673553,-0.10811731219291687,0.08118691295385361,-0.06165999919176102
21.4,-0.11267677694559097,0.060135841369628906,0.12100854516029358,-0.07528506964445114,0.07014381140470505,-0.06742866337299347
21.45,-0.07419373840093613,0.1428537368774414,0.07886513322591782,-0.06185094267129898,0.041769664734601974,-0.05678775906562805
21.5,-0.029030442237854004,0.13383960723876953,0.06535308063030243,-0.07030005753040314,0.023777589201927185,-0.04347272217273712
21.55,0.04907159507274628,0.07794189453125,0.0572800375521183,-0.07308343052864075,0.02030753530561924,-0.037511371076107025
21.6,0.03147542104125023,0.11181354522705078,0.019389070570468903,-0.060443900525569916,0.022613009437918663,-0.04297959432005882
21.65,-0.0370735265314579,0.1416025161743164,-0.014245516620576382,-0.05374889075756073,0.027083858847618103,-0.03750060871243477
21.7,-0.02424556016921997,0.10615825653076172,-0.012015542946755886,-0.054181069135665894,0.027587924152612686,-0.021951373666524887
21.75,-0.04937193542718887,0.09072494506835938,-0.017058465629816055,-0.04835745319724083,0.019931193441152573,-0.013779114000499249
21.8,-0.08206264674663544,0.12723636627197266,-0.030450820922851562,-0.0438375286757946,0.012129464186728,-0.016981665045022964
21.85,-0.008671601302921772,0.07576847076416016,-0.01882554218173027,-0.059757787734270096,0.015669850632548332,-0.020614560693502426
21.9,0.028992142528295517,-0.0032930374145507812,0.0075651733204722404,-0.07350829243659973,0.02060014195740223,-0.036645278334617615
21.95,-0.04244799166917801,-0.007939338684082031,0.02412349358201027,-0.06675403565168381,0.01712568663060665,-0.05468102917075157
22.0,-0.1135634183883667,0.12986469268798828,-0.01356743648648262,-0.04169538617134094,-0.0003727572038769722,-0.07152758538722992
22.05,-0.0813889354467392,0.19704246520996094,-0.02908916026353836,-0.03348316252231598,-0.018770236521959305,-0.061811015009880066
22.1,0.09342078864574432,0.13143062591552734,-0.09094424545764923,-0.050390202552080154,-0.02160201035439968,-0.030592966824769974
22.15,0.15161867439746857,0.056671142578125,-0.0980401560664177,-0.05295583978295326,0.007425716146826744,-0.023578401654958725
22.2,-0.03708335757255554,0.10131168365478516,0.00012793578207492828,-0.02056659758090973,0.03450259938836098,-0.029682788997888565
22.25,-0.19933654367923737,0.1677083969116211,0.07939370721578598,0.022095803171396255,0.0208025760948658,-0.0073625147342681885
22.3,-0.20715145766735077,0.17293453216552734,0.1346794068813324,0.035363879054784775,-0.0027223951183259487,0.011154351755976677
22.35,-0.13201826810836792,0.17596149444580078,-0.005740832537412643,0.03474372997879982,-0.02542317472398281,-0.0015684999525547028
22.4,0.04176216945052147,0.032774925231933594,-0.1375504732131958,0.016421787440776825,-0.04225151985883713,0.007658235263079405
22.45,0.17514340579509735,-0.03266620635986328,-0.1829608976840973,0.009444791823625565,-0.024746496230363846,0.009087982587516308
22.5,0.0819270983338356,0.06840133666992188,-0.26383864879608154,0.024185113608837128,0.021013379096984863,-0.031313832849264145
22.55,-0.012219056487083435,0.031879425048828125,-0.09930932521820068,0.014614474028348923,0.07613766193389893,-0.05284222215414047
22.6,-0.14911368489265442,0.16717243194580078,0.060825664550065994,0.025749385356903076,0.10064518451690674,-0.07155129313468933
22.65,-0.17412614822387695,0.40915679931640625,0.16426263749599457,0.07346358895301819,0.0590469092130661,-0.0465223453938961
22.7,-0.0536644384264946,0.3361043930053711,0.21791163086891174,0.1493205577135086,-0.03917631134390831,0.086323082447052
22.75,0.10437621176242828,-0.02025127410888672,0.4101906716823578,0.24259071052074432,-0.10664593428373337,0.22646619379520416
22.8,-0.20661427080631256,-0.013716697692871094,0.5511828064918518,0.37577980756759644,-0.09285670518875122,0.18597808480262756
22.85,-0.6213233470916748,0.24244022369384766,0.5854595899581909,0.4726797938346863,-0.111831434071064,0.13236288726329803
22.9,-0.4395737946033478,0.2269601821899414,0.4625116288661957,0.4831474721431732,-0.24864397943019867,0.19775179028511047
22.95,-0.010053817182779312,-0.055973052978515625,0.14228455722332,0.4374397397041321,-0.3896758258342743,0.2630058526992798
23.0,0.3454931378364563,-0.27463722229003906,-0.07270689308643341,0.38087573647499084,-0.41081860661506653,0.27115172147750854
23.05,0.24742519855499268,-0.10239505767822266,-0.24949803948402405,0.36641326546669006,-0.28009283542633057,0.16913828253746033
23.1,0.1198255866765976,0.15172672271728516,-0.4817093312740326,0.3206304907798767,-0.14615170657634735,0.08913134783506393
23.15,0.3458567261695862,0.02789783477783203,-0.4347217082977295,0.22634655237197876,-0.07863425463438034,0.08524435758590698
23.2,0.4284042716026306,-0.11763381958007812,-0.20937496423721313,0.19730523228645325,-0.022589296102523804,0.06635313481092453
23.25,0.27903011441230774,0.16915225982666016,-0.17294076085090637,0.21225929260253906,0.044095639139413834,0.02284105122089386
23.3,0.12548166513442993,0.29534435272216797,-0.1090071052312851,0.13446548581123352,0.11040560901165009,-0.014905404299497604
23.35,0.07075749337673187,0.10262775421142578,0.07048728317022324,0.03847303241491318,0.13581112027168274,-0.04601524397730827
23.4,0.02773571014404297,0.09060192108154297,0.2286909520626068,0.021145852282643318,0.12226042151451111,-0.07140162587165833
23.45,-0.0681033506989479,0.2565145492553711,0.268515944480896,0.021856483072042465,0.08318977802991867,-0.07445622980594635
23.5,-0.05986826494336128,0.27086353302001953,0.2074827402830124,-0.005199182778596878,0.02435910701751709,-0.05160775035619736
23.55,-0.03908257931470871,0.1797189712524414,0.1478937566280365,-0.031472593545913696,-0.022420022636651993,-0.03331290930509567
23.6,-0.01648721843957901,0.22146987915039062,0.08417627215385437,-0.025556359440088272,-0.04704871028661728,-0.02650647610425949
23.65,-0.038224898278713226,0.17792892456054688,0.059615783393383026,-0.01000954769551754,-0.06219400465488434,-0.019076883792877197
23.7,0.05249928683042526,0.10687828063964844,0.1029825210571289,-0.00565163791179657,-0.0646694153547287,-0.000832768389955163
23.75,0.09324682503938675,0.14034461975097656,0.0903923362493515,0.004442633129656315,-0.0597657710313797,0.0099030751734972
23.8,-0.03455346077680588,0.14175891876220703,0.03835069760680199,0.01719374768435955,-0.062496598809957504,0.017814721912145615
23.85,-0.11119507253170013,0.10899543762207031,0.012700237333774567,0.0209067240357399,-0.06782704591751099,0.0284870658069849
23.9,-0.10713173449039459,0.049162864685058594,0.08615539222955704,0.02713334560394287,-0.07417160272598267,0.04100651293992996
23.95,-0.09892219305038452,0.08911991119384766,0.12264121323823929,0.0522933155298233,-0.07535412907600403,0.03199508786201477
24.0,-0.1532176434993744,0.17724227905273438,0.09172660112380981,0.05076269060373306,-0.06893044710159302,0.011583775281906128
24.05,-0.07945659756660461,0.1273059844970703,0.015374008566141129,0.014811326749622822,-0.08061501383781433,0.01658451184630394
24.1,0.01562674716114998,0.05359458923339844,-0.041282009333372116,-0.009392542764544487,-0.06714153289794922,0.0069887880235910416
24.15,-0.04318728297948837,0.15268898010253906,-0.037289831787347794,-0.010073968209326267,-0.03258659690618515,-0.02787536382675171
24.2,0.005797974765300751,0.2699413299560547,-0.028664175420999527,-0.01683385856449604,-0.016734987497329712,-0.025374919176101685
24.25,0.12802371382713318,0.24260234832763672,-0.017847228795289993,-0.04582327604293823,0.004907936789095402,-0.006757359951734543
24.3,0.09800110757350922,0.1349353790283203,-0.03899970278143883,-0.05581649765372276,0.033637017011642456,0.004472674801945686
24.35,-0.05107622966170311,0.0977315902709961,0.03678921237587929,-0.04937009513378143,0.06259585171937943,-0.0014821626245975494
24.4,-0.14482304453849792,0.13030529022216797,0.11256568878889084,-0.054008014500141144,0.06272635608911514,-0.003371879458427429
24.45,-0.027839066460728645,0.07732677459716797,0.07349801063537598,-0.06363131105899811,0.04774118959903717,0.0008492004126310349
24.5,0.047659993171691895,0.07886600494384766,0.07888652384281158,-0.06757599860429764,0.03816071152687073,-0.012129493057727814
24.55,0.07204487174749374,-0.023482322692871094,0.05788015201687813,-0.05734403058886528,0.022777562960982323,-0.011978387832641602
24.6,-0.036045707762241364,0.05462074279785156,0.02385788783431053,-0.032613035291433334,0.020248664543032646,-0.018808018416166306
24.65,-0.0773773342370987,0.15751934051513672,0.0678049847483635,-0.02316231094300747,0.021144546568393707,-0.026654059067368507
24.7,-0.013535389676690102,0.20767879486083984,0.020528879016637802,-0.03289414569735527,-7.782713510096073e-05,-0.024159148335456848
24.75,0.11518983542919159,0.18743133544921875,-0.014646504074335098,-0.03794458508491516,-0.01046111062169075,-0.016048001125454903
24.8,0.09652058780193329,0.15933895111083984,-0.0034618377685546875,-0.015240142121911049,-0.0022919285111129284,-0.014885402284562588
24.85,0.0578727051615715,0.12467098236083984,-0.009268702939152718,0.00853903777897358,0.0033094764221459627,0.006142488680779934
24.9,-0.0062675075605511665,0.0980691909790039,0.016862446442246437,0.01931123062968254,0.020172879099845886,-0.002421998418867588
24.95,-0.05964142829179764,0.10605716705322266,0.08809800446033478,0.022619619965553284,0.017532367259263992,-0.01106869988143444
25.0,0.014887530356645584,0.0972433090209961,0.1238415539264679,0.03138350695371628,-0.020409511402249336,0.003214573487639427
25.05,0.04636624827980995,0.23694992065429688,0.02766384929418564,0.05907193571329117,-0.057268176227808,0.014631418511271477
25.1,0.029323825612664223,0.1976613998413086,0.05785476416349411,0.06090838834643364,-0.07167261093854904,0.033296503126621246
25.15,-0.09601626545190811,0.18303585052490234,0.07327611744403839,0.03945326432585716,-0.07153678685426712,0.028801824897527695
25.2,-0.062206756323575974,0.21849727630615234,-0.06445623934268951,0.011382317170500755,-0.05953342840075493,0.03769097104668617
25.25,0.23918390274047852,0.09442615509033203,-0.21956729888916016,-0.05138038098812103,-0.03349132090806961,0.038168765604496
25.3,0.28164273500442505,-0.21428966522216797,-0.09967667609453201,-0.07803401350975037,0.007876913994550705,-0.006428796797990799
25.35,0.22915533185005188,-0.19729137420654297,0.0957351103425026,0.002141769975423813,0.037996288388967514,-0.07325813174247742
25.4,-0.0055532436817884445,0.23779582977294922,-0.05980692058801651,0.055836766958236694,0.06093353033065796,-0.20792505145072937
25.45,0.04071052372455597,0.5417242050170898,-0.34488344192504883,-0.02407192438840866,0.059462811797857285,-0.2062511444091797
25.5,0.14142026007175446,0.06620216369628906,-0.008546136319637299,-0.04670294374227524,-0.08870279043912888,-0.19223833084106445
25.55,0.07794363796710968,-0.15778827667236328,0.015627842396497726,0.02827303856611252,-0.14845086634159088,-0.17764157056808472
25.6,-0.18540310859680176,0.21950244903564453,0.17487739026546478,0.013396881520748138,-0.16739846765995026,-0.19936588406562805
25.65,-0.009039163589477539,0.4123268127441406,0.3340008854866028,-0.052679628133773804,-0.29331037402153015,-0.1176270917057991
25.7,0.013847723603248596,0.30329132080078125,0.4023492932319641,-0.1284080147743225,-0.45214906334877014,-0.05684371665120125
25.75,-0.2513969838619232,0.12964820861816406,0.5637261867523193,-0.15422742068767548,-0.5744135975837708,-0.06862464547157288
25.8,-0.563349723815918,0.3347463607788086,0.35057705640792847,-0.1023857444524765,-0.6993343830108643,-0.06644109636545181
25.85,-0.30221569538116455,0.4570283889770508,-0.25734248757362366,-0.09117531776428223,-0.873656153678894,0.03421761840581894
25.9,0.10140645503997803,0.12272357940673828,-0.2844914197921753,-0.20496436953544617,-0.9356952905654907,0.021183893084526062
25.95,0.3685687482357025,-0.3308725357055664,-0.33945581316947937,-0.2259358912706375,-0.895321786403656,-0.07455466687679291
26.0,0.590258777141571,-0.8268527984619141,-1.1518800258636475,-0.21220724284648895,-0.8078110218048096,-0.1452643871307373
26.05,0.547866702079773,-0.1049652099609375,-0.7635842561721802,-0.10550103336572647,-0.5613730549812317,-0.160882830619812
26.1,0.6239573955535889,0.20188045501708984,-0.3551286458969116,-0.0365026630461216,-0.40302181243896484,-0.11369147896766663
26.15,0.6257202625274658,0.2803068161010742,-0.33661067485809326,-0.01787625625729561,-0.24071353673934937,-0.12721316516399384
26.2,0.404253214597702,0.21235084533691406,-0.22608254849910736,-0.07041934132575989,-0.07326462864875793,-0.10462804138660431
26.25,0.30169644951820374,-0.012305259704589844,-0.22491583228111267,-0.06815014034509659,0.05560325086116791,-0.07250280678272247
26.3,0.06890203803777695,-0.11799335479736328,-0.06670476496219635,0.0019574519246816635,0.1765461266040802,-0.033899787813425064
26.35,-0.025037668645381927,0.16309642791748047,-0.1327333301305771,0.11062224209308624,0.23828169703483582,0.001721758395433426
26.4,0.028445972129702568,0.4475135803222656,-0.03470023721456528,0.15619593858718872,0.3027668595314026,0.061752550303936005
26.45,0.1327948123216629,0.5319223403930664,0.009505607187747955,0.17920362949371338,0.378378689289093,0.13895034790039062
26.5,0.1982065886259079,0.4600238800048828,-0.05511833727359772,0.1270238161087036,0.4862815737724304,0.17817151546478271
26.55,0.1108807921409607,0.14539241790771484,-0.05816579982638359,0.04089482128620148,0.58598792552948,0.190629243850708
26.6,-0.03679545968770981,-0.14092159271240234,-0.09699666500091553,0.027110427618026733,0.6433774828910828,0.1990683227777481
26.65,-0.13502246141433716,-0.03109264373779297,-0.20935027301311493,0.08928518742322922,0.6854903697967529,0.19743746519088745
26.7,-0.18356116116046906,-0.06281757354736328,0.08078789710998535,0.11033062636852264,0.732215940952301,0.16209650039672852
26.75,-0.3038758635520935,0.02394390106201172,0.2494785487651825,0.14355497062206268,0.7626818418502808,0.10666918009519577
26.8,-0.36807140707969666,0.22881603240966797,0.41382458806037903,0.14292672276496887,0.7208070755004883,0.08372470736503601
26.85,-0.2301916629076004,0.4202756881713867,0.4507339596748352,0.09292076528072357,0.6141015291213989,0.08999083936214447
26.9,-0.02749238908290863,0.28469181060791016,0.5138903856277466,0.001231025904417038,0.5052181482315063,0.12103316187858582
26.95,-0.10798867046833038,0.06764888763427734,0.5696299076080322,-0.04773586243391037,0.41340959072113037,0.138617604970932
27.0,-0.13503699004650116,0.033576011657714844,0.48931393027305603,-0.060599468648433685,0.3095663785934448,0.13026998937129974
27.05,-0.13694950938224792,-0.032332420349121094,0.3758748769760132,-0.05758301168680191,0.19766172766685486,0.10117816925048828
27.1,-0.04928329214453697,0.07941722869873047,0.12581849098205566,-0.05222027748823166,0.05175308883190155,0.08409108966588974
27.15,0.25248807668685913,0.029234886169433594,0.014203466475009918,-0.06246398761868477,-0.05682121962308884,0.10461648553609848
27.2,0.3347579836845398,0.11874008178710938,-0.03476764261722565,-0.05449237674474716,-0.0656605213880539,0.07423269748687744
27.25,0.25795885920524597,0.09908390045166016,-0.02735680341720581,-0.06343552470207214,-0.011025585234165192,0.050647493451833725
27.3,0.06865768134593964,0.0833892822265625,-0.12668068706989288,-0.05269121751189232,0.026782553642988205,0.04214240238070488
27.35,0.011267848312854767,0.042896270751953125,-0.18187566101551056,-0.05262896418571472,0.022425532341003418,0.03510435298085213
27.4,-0.013585008680820465,0.04500865936279297,-0.14178861677646637,-0.04970274120569229,0.009261194616556168,0.018920617178082466
27.45,0.08494003117084503,0.029809951782226562,-0.06412146240472794,-0.033553414046764374,0.013280564919114113,0.005944698117673397
27.5,0.047489892691373825,0.15621566772460938,-0.07936659455299377,-0.018303578719496727,0.040164556354284286,-0.013578812591731548
27.55,0.006652668118476868,0.17777538299560547,-0.042075976729393005,-0.010105843655765057,0.047158315777778625,-0.00825501512736082
27.6,-0.11313122510910034,0.1511058807373047,-0.08494370430707932,-0.01410791464149952,0.04423316940665245,0.0038475682958960533
27.65,-0.009736073203384876,0.026323318481445312,0.012842261232435703,-0.02703171782195568,0.026088710874319077,0.017057200893759727
27.7,0.021609174087643623,0.17138099670410156,-0.07529246807098389,-0.0014144821325317025,0.021452253684401512,-0.004757994785904884
27.75,-0.07391320168972015,0.2758760452270508,0.025047549977898598,-0.00862495694309473,0.028074998408555984,0.0006898196879774332
27.8,0.0034865587949752808,0.30785560607910156,-0.15399742126464844,-0.031747233122587204,0.02252088114619255,0.007245007902383804
27.85,0.11776623129844666,0.11010932922363281,-0.06439189612865448,-0.06982839107513428,0.04648593068122864,0.02063148468732834
27.9,0.09123025089502335,0.038397789001464844,-0.07810841500759125,-0.06250515580177307,0.06693752110004425,0.016139909625053406
27.95,-0.02566072717308998,-0.06641674041748047,0.0267324298620224,-0.040641166269779205,0.08362747728824615,0.01629946008324623
28.0,-0.24330289661884308,0.2341928482055664,-0.011657625436782837,0.011852827854454517,0.07426956295967102,-0.0010524340905249119
28.05,-0.19105957448482513,0.3920402526855469,-0.0513627715408802,-0.006433588918298483,0.0563206672668457,0.017946504056453705
28.1,0.07778996974229813,0.0700082778930664,0.009555168449878693,-0.06893106549978256,0.05417891964316368,0.04739997535943985
28.15,0.1018083319067955,0.009974479675292969,-0.014966897666454315,-0.05840406194329262,0.0648261234164238,0.03297349065542221
28.2,-0.03211238607764244,0.05236530303955078,0.049975935369729996,-0.0056051332503557205,0.09048120677471161,0.026158154010772705
28.25,-0.2006506621837616,0.1879558563232422,0.10863543301820755,0.020714901387691498,0.09348919242620468,0.017861830070614815
28.3,-0.15174810588359833,0.22871017456054688,0.13966263830661774,-0.0081870686262846,0.07687921822071075,0.018186667934060097
28.35,-0.04230491444468498,0.13047313690185547,0.054291099309921265,-0.04692821204662323,0.05370995029807091,0.02443224936723709
28.4,0.209467813372612,-0.027947425842285156,-0.06472574919462204,-0.05984215438365936,0.04430009797215462,0.0357353612780571
28.45,0.14932557940483093,0.08174324035644531,-0.04880118370056152,-0.019742436707019806,0.08262656629085541,0.0019856104627251625
28.5,0.1386350691318512,0.16153335571289062,-0.001960858702659607,-0.012416450306773186,0.10069625079631805,0.011653811670839787
28.55,0.1448347419500351,0.03500938415527344,0.00651928037405014,-0.03174794092774391,0.13014309108257294,0.021004073321819305
28.6,0.09604465961456299,-0.04532623291015625,-0.007576141506433487,-0.028319954872131348,0.14067226648330688,0.00862564705312252
28.65,-0.002688337117433548,0.1088104248046875,0.07601168751716614,0.00879339873790741,0.13132068514823914,-0.007715187035501003
28.7,0.010066697373986244,0.32405853271484375,0.07109115272760391,0.017681406810879707,0.10505885630846024,0.002389445435255766
28.75,-0.015241749584674835,0.23179149627685547,0.06656739860773087,-0.02834816835820675,0.09073308855295181,0.024600978940725327
28.8,0.024257369339466095,0.046260833740234375,0.12720273435115814,-0.0619097575545311,0.09755413234233856,0.02351507917046547
28.85,-0.1076982393860817,0.12837886810302734,0.028434492647647858,-0.018013911321759224,0.08546307682991028,0.011814136058092117
28.9,0.037408456206321716,0.12981319427490234,-0.02497756853699684,0.0016513634473085403,0.04870040342211723,0.036044344305992126
28.95,0.09582453221082687,0.13866519927978516,0.03962111473083496,-0.006166893057525158,0.04735599830746651,0.02617240697145462
29.0,-0.08706563711166382,0.07409095764160156,0.1351345032453537,-0.023641493171453476,0.055581122636795044,0.002218741923570633
29.05,-0.1829783022403717,0.1632223129272461,0.045245461165905,-0.019472265616059303,0.02034892328083515,-0.0004256078973412514
29.1,0.04163398966193199,0.09435844421386719,0.003206271678209305,-0.02006329596042633,-0.033738426864147186,0.019417917355895042
29.15,0.17509634792804718,0.1495809555053711,-0.12426219880580902,-0.016802912577986717,-0.043445829302072525,0.019789356738328934
29.2,0.1303117275238037,0.2162313461303711,-0.06071284040808678,-0.03393120318651199,-0.010313313454389572,0.013057563453912735
29.25,0.11477871239185333,0.06409740447998047,-0.12402305006980896,-0.041141171008348465,0.024932805448770523,0.010759301483631134
29.3,0.024175945669412613,-0.03845691680908203,0.021964067593216896,-0.03176872804760933,0.042065855115652084,-0.005727121606469154
29.35,-0.05100833252072334,0.18713855743408203,-0.03455781191587448,0.006059278268367052,0.010224628262221813,-0.012454954907298088
29.4,0.0319405160844326,0.17009735107421875,-0.0340094268321991,-0.00995616428554058,-0.010867402888834476,0.007078464142978191
29.45,0.12602828443050385,0.03636741638183594,-0.02859625220298767,-0.028363674879074097,-0.006259789224714041,0.0032073603942990303
29.5,0.11797568947076797,-0.011969566345214844,0.056710414588451385,-0.02002064511179924,0.016095411032438278,-0.0020753536373376846
29.55,-0.06956137716770172,0.14607524871826172,-0.01275356113910675,0.006464515347033739,0.023212790489196777,-0.018898002803325653
29.6,-0.031088978052139282,0.03921222686767578,-0.0004681535065174103,0.00947153102606535,0.013115674257278442,-0.011193685233592987
29.65,-0.1790606677532196,0.2735881805419922,-0.004053190350532532,0.02919209562242031,0.0042527299374341965,-0.05235068500041962
29.7,0.014323043636977673,0.2838096618652344,0.008588292635977268,0.011914904229342937,-0.04017898440361023,-0.003809358924627304
29.75,0.09238038957118988,0.2058115005493164,-0.01599773019552231,-0.029409274458885193,-0.030506890267133713,0.012522999197244644
29.8,-0.03788108006119728,0.10859870910644531,-0.10722281038761139,-0.022927509620785713,0.0075834160670638084,0.0007065171375870705
29.85,-0.10052666813135147,0.1847238540649414,-0.021548621356487274,-0.00954496394842863,0.01631329581141472,-0.005040968302637339
29.9,-0.022951772436499596,0.22374916076660156,-0.0025211041793227196,-0.01105065643787384,0.02243807725608349,-0.004039268009364605
29.95,0.12746800482273102,0.041565895080566406,-0.09669965505599976,-0.021744173020124435,0.03671079874038696,0.004402082413434982
30.0,0.03259669244289398,0.028458595275878906,0.020707445219159126,-0.03925936669111252,0.05518210679292679,0.00857958011329174
30.05,-0.09515046328306198,0.07536983489990234,-0.01910245791077614,-0.03882870078086853,0.053635373711586,0.0010331515222787857
30.1,-0.17804406583309174,0.035778045654296875,-0.04325259476900101,-0.050311341881752014,0.05406469479203224,-0.01610080525279045
30.15,-0.007374193519353867,0.08810234069824219,-0.04108297824859619,-0.049145542085170746,0.022812439128756523,-0.02679332159459591
30.2,0.26249217987060547,0.1804056167602539,-0.07943304628133774,-0.041975896805524826,0.019174959510564804,-0.022769849747419357
30.25,0.13125106692314148,0.31839656829833984,-0.1182657778263092,-0.004239611327648163,0.060283537954092026,-0.04225064441561699
30.3,-0.08857674896717072,0.27945995330810547,0.048541635274887085,0.009857125580310822,0.05281512439250946,0.006100725382566452
30.35,-0.025579191744327545,0.02942657470703125,0.11950600147247314,-0.01774500124156475,0.027262529358267784,0.048819489777088165
30.4,-0.19074398279190063,0.02006816864013672,0.08765296638011932,-0.031029153615236282,0.01647893339395523,0.009163015522062778
30.45,-0.24608032405376434,0.1943368911743164,0.05299914628267288,-0.024207687005400658,-0.04246664419770241,-0.021493986248970032
30.5,0.13733159005641937,0.22783946990966797,-0.19240181148052216,-0.012738597579300404,-0.1182635948061943,0.034584853798151016
30.55,0.4183149039745331,0.12766456604003906,-0.1971597671508789,-0.004826042801141739,-0.09471385926008224,0.04415276646614075
30.6,0.21512697637081146,0.09164237976074219,-0.30402782559394836,0.0009118732996284962,0.0010427217930555344,0.014743955805897713
30.65,-0.054480332881212234,-0.11428451538085938,-0.031734317541122437,-0.012361005879938602,0.0652882307767868,-0.010675608180463314
30.7,-0.23859673738479614,0.11157512664794922,-0.022557251155376434,0.000558808445930481,0.06577473878860474,-0.039100807160139084
30.75,-0.21340538561344147,0.25396060943603516,-0.03130052238702774,-0.01645568758249283,0.032049648463726044,-0.029552344232797623
30.8,0.06486919522285461,0.20702266693115234,-0.05889400839805603,-0.03915361687541008,0.013604560866951942,-0.024250168353319168
30.85,0.18318623304367065,0.18801498413085938,-0.10915039479732513,-0.02406175434589386,0.012527501210570335,-0.009830247610807419
30.9,0.05913020670413971,0.134521484375,-0.10792168229818344,-0.024177439510822296,0.04329613968729973,-0.0030751004815101624
30.95,-0.0592041052877903,0.0856485366821289,-0.018332557752728462,-0.04811813682317734,0.07940280437469482,-0.01685982570052147
31.0,-0.08909666538238525,0.005030632019042969,0.08465216308832169,-0.042235467582941055,0.08187510818243027,-0.036598000675439835
31.05,-0.07167612761259079,0.08413887023925781,-0.003452673554420471,-0.011620497331023216,0.041319381445646286,-0.03369910269975662
31.1,0.029447894543409348,0.1569681167602539,-0.014057755470275879,-0.013448713347315788,0.020734865218400955,-0.023252805694937706
31.15,-0.010616899468004704,0.1840076446533203,-0.01580602489411831,-0.009936392307281494,0.017045490443706512,-0.02816665545105934
31.2,-0.022713597863912582,0.048966407775878906,-0.06466393917798996,-0.011942523531615734,0.017859268933534622,-0.008009808138012886
31.25,0.023537620902061462,-0.009308815002441406,-0.04925184324383736,-0.012395894154906273,0.04436320811510086,-0.02282014861702919
31.3,-0.02132852002978325,0.10885810852050781,-0.04221918433904648,0.008151944726705551,0.07403932511806488,-0.04514124616980553
31.35,-0.09299685060977936,0.16001033782958984,-0.0035177692770957947,0.003783903084695339,0.0852421224117279,-0.03659523278474808
31.4,-0.04637685418128967,0.0908670425415039,0.10332471877336502,-0.005167199298739433,0.07919138669967651,-0.023061873391270638
31.45,-0.10355138778686523,0.12360286712646484,0.03403390944004059,0.009054457768797874,0.07112638652324677,-0.032289113849401474
31.5,-0.04001135006546974,0.011921882629394531,0.14884459972381592,0.015660298988223076,0.052869729697704315,-0.020575974136590958
31.55,-0.13972239196300507,0.1451568603515625,0.16146697103977203,0.04524901509284973,0.036323510110378265,-0.04314243420958519
31.6,-0.06996623426675797,0.1677560806274414,0.17717143893241882,0.046894434839487076,0.009671036154031754,-0.03329998999834061
31.65,-0.04550058767199516,0.06692218780517578,0.13105402886867523,0.040444571524858475,-0.02015495114028454,-0.03434034809470177
31.7,0.012671127915382385,0.09433746337890625,0.04885870963335037,0.04359368979930878,-0.05565062165260315,-0.03668765351176262
31.75,0.12804141640663147,0.16448497772216797,-0.04827146604657173,0.04791877791285515,-0.07238513976335526,-0.026064079254865646
31.8,0.0607505664229393,0.0762014389038086,-0.023858381435275078,0.05464299023151398,-0.05739347264170647,-0.017076807096600533
31.85,-0.018060028553009033,0.07698345184326172,0.0014352351427078247,0.040857214480638504,-0.032471638172864914,-0.025675304234027863
31.9,-0.0222025103867054,0.11623191833496094,-0.11392621695995331,0.036612413823604584,-0.02780858427286148,-0.027114108204841614
31.95,0.19878868758678436,0.013871192932128906,-0.15571309626102448,0.043189387768507004,-0.035960644483566284,-0.013024551793932915
32.0,0.21322256326675415,-0.03267955780029297,-0.01467616856098175,0.07193080335855484,-0.0011794157326221466,-0.041221000254154205
32.05,0.0014547184109687805,0.2460794448852539,0.09122977405786514,0.09878706932067871,0.023442205041646957,-0.07168632000684738
32.1,-0.04669446498155594,0.33277130126953125,0.10702548921108246,0.09165415167808533,-0.008916385471820831,-0.033693429082632065
32.15,0.10211427509784698,0.1767578125,0.03533085435628891,0.07536577433347702,-0.03744655102491379,-0.0018887445330619812
32.2,0.1439795196056366,0.13030147552490234,0.02886684238910675,0.07340798527002335,-0.03205854445695877,0.004160895943641663
32.25,-0.04732591286301613,0.11993885040283203,-0.039398133754730225,0.06661027669906616,-0.02015848457813263,-0.006352517753839493
32.3,0.03494735807180405,0.15510177612304688,-0.07679210603237152,0.05479148030281067,-0.029423128813505173,0.0007442664355039597
32.35,0.22138288617134094,0.0975179672241211,-0.13014717400074005,0.04082745313644409,-0.020779691636562347,-0.0010258685797452927
32.4,0.16596069931983948,0.07695579528808594,-0.06129096448421478,0.050135258585214615,0.005915377289056778,-0.02531556785106659
32.45,-0.011153697967529297,0.19356250762939453,0.07493986189365387,0.06822459399700165,0.00996103510260582,-0.03205709531903267
32.5,-0.09106255322694778,0.34450244903564453,0.067525714635849,0.054851844906806946,-0.0124988853931427,-0.021320335566997528
32.55,0.03369469568133354,0.23173236846923828,-0.04027636721730232,-0.0019532139413058758,-0.032690346240997314,0.0014409106224775314
32.6,0.287233829498291,-0.05242156982421875,-0.17100992798805237,-0.02680785581469536,-0.03210929036140442,0.010624873451888561
32.65,0.21905434131622314,-0.004551887512207031,-0.12535278499126434,-0.0070116398856043816,0.0037895627319812775,-0.023271892219781876
32.7,-0.050029486417770386,0.26038265228271484,0.06298650056123734,0.030008818954229355,0.011175066232681274,-0.04257407411932945
32.75,-0.018564864993095398,0.2962465286254883,0.15315836668014526,0.013924822211265564,-0.0086901830509305,-0.006530245766043663
32.8,-0.11169177293777466,0.1558246612548828,0.221059650182724,-0.02512296661734581,-0.013614114373922348,0.0045020682737231255
32.85,-0.24871692061424255,0.3076133728027344,0.044258520007133484,-0.03497449681162834,-0.051512524485588074,0.0007950477302074432
32.9,0.04697661101818085,0.06359481811523438,-0.2019300013780594,-0.06143612414598465,-0.102772556245327,0.05271023139357567
32.95,0.2813170850276947,-0.1825428009033203,-0.20595362782478333,-0.057190246880054474,-0.07590296119451523,0.02926812134683132
33.0,0.2182256579399109,-0.18782329559326172,-0.09776507318019867,-0.00988544151186943,-0.0033908463083207607,-0.026180928573012352
33.05,-0.10261388123035431,-0.09006595611572266,0.17397168278694153,0.03799021244049072,0.03856097161769867,-0.08754315227270126
33.1,-0.24855275452136993,0.11557197570800781,0.23376324772834778,0.055533140897750854,0.0037839971482753754,-0.09219849109649658
33.15,-0.2124510407447815,0.38456058502197266,0.10487094521522522,0.028904804959893227,-0.060160525143146515,-0.08770111203193665
33.2,0.10027454048395157,0.17498302459716797,0.0961533635854721,-0.06337220966815948,-0.11669357866048813,-0.06339536607265472
33.25,0.16238421201705933,-0.10568523406982422,0.018887624144554138,-0.09118889272212982,-0.1041867583990097,-0.07424718141555786
33.3,-0.12581531703472137,-0.0036134719848632812,0.10418035835027695,-0.050239868462085724,-0.09184889495372772,-0.1252991259098053
33.35,-0.19568434357643127,0.013413429260253906,0.28351065516471863,-0.014559414237737656,-0.15361808240413666,-0.09591265022754669
33.4,-0.3362150192260742,0.14937973022460938,0.33172520995140076,0.022958949208259583,-0.22221620380878448,-0.1159220039844513
33.45,-0.2021387666463852,0.22392654418945312,0.2810501754283905,0.010910145938396454,-0.2958531379699707,-0.12064500898122787
33.5,-0.23801138997077942,0.3759298324584961,0.08772502094507217,-0.021661296486854553,-0.3845425248146057,-0.09674876183271408
33.55,0.014920450747013092,0.1443643569946289,-0.17590132355690002,-0.04842602461576462,-0.43301922082901,-0.07405906915664673
33.6,0.2604062259197235,-0.09610176086425781,-0.29235997796058655,-0.012481480836868286,-0.468650758266449,-0.049906402826309204
33.65,0.48219043016433716,-0.2600889205932617,-0.2273874133825302,0.09272897988557816,-0.4066261053085327,-0.02875523641705513
33.7,0.3383455276489258,-0.08134746551513672,-0.012019500136375427,0.2216261625289917,-0.296241819858551,-0.06896189600229263
33.75,0.03863879293203354,0.22607898712158203,0.0016386732459068298,0.27291831374168396,-0.23008966445922852,-0.11915984749794006
33.8,-0.09544789791107178,0.22352313995361328,-0.1583765149116516,0.22740185260772705,-0.23553594946861267,-0.09857940673828125
33.85,-0.133437380194664,0.22666263580322266,0.08296633511781693,0.24734391272068024,-0.28162094950675964,-0.03931773453950882
33.9,-0.23923513293266296,0.5184793472290039,0.06488008797168732,0.29912301898002625,-0.35641002655029297,0.0369596853852272
33.95,0.08417066931724548,0.36612796783447266,-0.14235810935497284,0.2596771717071533,-0.4106256067752838,0.08680135756731033
34.0,0.11522139608860016,0.10630321502685547,-0.11285708099603653,0.23834532499313354,-0.4037781357765198,0.05142148584127426
34.05,0.29969289898872375,0.15415668487548828,-0.3580840528011322,0.24313415586948395,-0.41412559151649475,0.04204501956701279
34.1,0.5653703212738037,0.026105880737304688,-0.3415136933326721,0.2291935682296753,-0.34955233335494995,0.061034418642520905
34.15,0.5567806363105774,-0.11449718475341797,-0.2750588655471802,0.24523711204528809,-0.2369837611913681,0.031700365245342255
34.2,0.3386722207069397,0.041518211364746094,-0.2403734028339386,0.2675135135650635,-0.13085493445396423,-0.007455259561538696
34.25,0.3051115572452545,0.0803213119506836,-0.16231240332126617,0.261735200881958,-0.08347387611865997,-0.006652742624282837
34.3,0.3173580765724182,0.31380271911621094,-0.12632545828819275,0.24573400616645813,-0.0324731171131134,-0.020374596118927002
34.35,0.30059850215911865,0.33080005645751953,-0.040728867053985596,0.20344474911689758,0.04672227054834366,-0.039954669773578644
34.4,-0.012139711529016495,0.25124263763427734,0.09075469523668289,0.14578387141227722,0.11513514071702957,-0.06650088727474213
34.45,-0.1305074244737625,0.4270772933959961,0.0999065488576889,0.09063955396413803,0.13200612366199493,-0.05739768594503403
34.5,-0.07348450273275375,0.5686655044555664,-0.04222584888339043,0.0293954536318779,0.1207914724946022,-0.04308580234646797
34.55,0.21934041380882263,0.4083728790283203,-0.151158407330513,-0.039963044226169586,0.12991666793823242,-0.014211324043571949
34.6,0.39997076988220215,0.1590099334716797,-0.18639351427555084,-0.05910981446504593,0.19310180842876434,0.00016848556697368622
34.65,0.2888389229774475,-0.0037126541137695312,-0.10976216197013855,-0.024004638195037842,0.2640591859817505,0.013907505199313164
34.7,0.05096631869673729,0.053353309631347656,0.02435467764735222,0.04302114620804787,0.3013412356376648,0.023957744240760803
34.75,-0.11709155887365341,0.3039073944091797,0.13074177503585815,0.07921819388866425,0.3117281198501587,0.027256270870566368
34.8,-0.11962106823921204,0.42743587493896484,0.20016789436340332,0.0435648076236248,0.2891751229763031,0.03453689068555832
34.85,-0.04464323818683624,0.10508155822753906,0.30789920687675476,-0.018296655267477036,0.2701966464519501,0.04670392721891403
34.9,-0.05900052934885025,-0.04822254180908203,0.32089194655418396,-0.02108045481145382,0.28752103447914124,0.024404466152191162
34.95,-0.19216424226760864,0.05880260467529297,0.38157957792282104,0.0011625430779531598,0.26895517110824585,-0.0022674028296023607
35.0,-0.2760404646396637,0.29118824005126953,0.2988471984863281,0.0038463303353637457,0.19112427532672882,-0.006842958740890026
35.05,-0.2207239270210266,0.24957656860351562,0.201630100607872,-0.04396292194724083,0.105507031083107,0.011519622057676315
35.1,-0.026505522429943085,0.09650325775146484,0.16009464859962463,-0.07337500154972076,0.07180323451757431,0.013475403189659119
35.15,0.07682720571756363,0.19840717315673828,0.03966760262846947,-0.05387381091713905,0.0684601292014122,0.01400570385158062
35.2,0.18590442836284637,0.20983219146728516,0.023719854652881622,-0.04403136298060417,0.07554757595062256,0.04865822568535805
35.25,0.10483673959970474,0.09694480895996094,0.16593052446842194,-0.017438894137740135,0.10838436335325241,0.05977298319339752
35.3,-0.19841518998146057,0.2617311477661133,0.22704912722110748,0.04670627787709236,0.11085475981235504,0.04626833647489548
35.35,-0.2247353494167328,0.43555545806884766,0.1565546691417694,0.048928242176771164,0.03297968953847885,0.06627269089221954
35.4,0.15277668833732605,0.1034994125366211,-0.07792284339666367,-0.0262969508767128,-0.040967755019664764,0.09968772530555725
35.45,0.36086106300354004,-0.2910614013671875,-0.13518771529197693,-0.03964688256382942,-0.019197620451450348,0.07362328469753265
35.5,0.24131152033805847,-0.07273483276367188,-0.14187480509281158,0.04463226720690727,0.02054722234606743,-0.008837373927235603
35.55,0.3071226477622986,0.3233175277709961,-0.14147864282131195,0.0862695723772049,-0.00367867574095726,-0.052292920649051666
35.6,0.49104970693588257,0.4197807312011719,-0.0401185005903244,0.009948646649718285,-0.009644506499171257,-0.0657576471567154
35.65,0.5966033935546875,0.11588191986083984,-0.039642274379730225,-0.11781400442123413,0.03964918851852417,-0.06985794752836227
35.7,0.40536636114120483,-0.2396411895751953,-0.058357834815979004,-0.17635329067707062,0.12186324596405029,-0.10980287194252014
35.75,0.03236272186040878,-0.2826366424560547,0.0314941368997097,-0.1320095658302307,0.13353855907917023,-0.17940281331539154
35.8,-0.13399626314640045,0.036339759826660156,0.08501410484313965,-0.05621322989463806,0.03892216458916664,-0.2061259150505066
35.85,-0.2786833345890045,0.43405628204345703,0.17186030745506287,-0.027682729065418243,-0.061124201864004135,-0.23727968335151672
35.9,-0.09649458527565002,0.6306371688842773,0.32559412717819214,-0.0534103587269783,-0.18510347604751587,-0.22434231638908386
35.95,0.4418737590312958,0.5648927688598633,0.5241398215293884,-0.12725134193897247,-0.3601040542125702,-0.13206222653388977
36.0,0.6278178095817566,0.5167665481567383,0.6555848121643066,-0.21304810047149658,-0.4839407205581665,-0.04997244477272034
36.05,0.1998005211353302,0.5851354598999023,0.5887468457221985,-0.30176764726638794,-0.5824940800666809,0.010000661015510559
36.1,-0.25425106287002563,0.5076961517333984,0.23364800214767456,-0.40430623292922974,-0.6750277280807495,0.04012128710746765
36.15,-0.43487587571144104,0.06976985931396484,-0.29001402854919434,-0.4861871600151062,-0.7475998401641846,-0.01659207046031952
36.2,-0.2121582180261612,-0.46203041076660156,-0.4773958921432495,-0.5155800580978394,-0.8034367561340332,-0.09292612969875336
36.25,0.29720884561538696,-0.3795461654663086,-0.6628425121307373,-0.4355253577232361,-0.8241126537322998,-0.11880068480968475
36.3,0.7185072302818298,-0.3755216598510742,-0.6194779872894287,-0.3500460386276245,-0.7720159292221069,-0.14796675741672516
36.35,0.6246737837791443,-0.5169057846069336,-0.1619419902563095,-0.2578262686729431,-0.5970559120178223,-0.186299666762352
36.4,0.13870443403720856,-0.2971611022949219,0.004683390259742737,-0.13660669326782227,-0.3843013346195221,-0.18385657668113708
36.45,-0.2801744043827057,-0.1785573959350586,0.06957881897687912,-0.06500488519668579,-0.28502944111824036,-0.17434938251972198
36.5,-0.6018930673599243,-0.1788778305053711,0.10893438756465912,-0.08306523412466049,-0.3171462118625641,-0.1430424004793167
36.55,-0.7505665421485901,0.28521251678466797,0.01923355460166931,-0.08531101047992706,-0.3572555482387543,-0.07207075506448746
36.6,-0.7376934289932251,1.0213985443115234,-0.2618825137615204,-0.06675724685192108,-0.3764307498931885,-0.041545215994119644
36.65,-0.40688952803611755,1.2172574996948242,-0.6993191242218018,-0.07283718138933182,-0.38420549035072327,-0.08549656718969345
36.7,0.16364367306232452,0.27820682525634766,-0.5712200999259949,-0.1621520072221756,-0.4220961332321167,-0.11696836352348328
36.75,0.7377642393112183,-0.5238790512084961,-0.38830944895744324,-0.11249798536300659,-0.4140744209289551,-0.062142953276634216
36.8,0.8707773685455322,-0.5552387237548828,-0.3536671996116638,0.11078326404094696,-0.25942566990852356,-0.009044550359249115
36.85,0.6744649410247803,-0.18625354766845703,-0.4161180257797241,0.3160262107849121,-0.08867006003856659,0.028866469860076904
36.9,0.28390246629714966,0.11774921417236328,-0.4437728822231293,0.408550500869751,0.032291099429130554,0.010723620653152466
36.95,0.09641328454017639,-0.10657024383544922,-0.28080475330352783,0.3637489378452301,0.08748013526201248,0.018789976835250854
37.0,0.021356895565986633,-0.021485328674316406,-0.2846687138080597,0.3312757611274719,0.1541813760995865,0.04837729036808014
37.05,-0.1774529665708542,0.4154787063598633,-0.4914698600769043,0.30172091722488403,0.2976445257663727,0.07496082782745361
37.1,-0.250291109085083,0.5321865081787109,-0.6236709356307983,0.2177656888961792,0.43299660086631775,0.07711967825889587
37.15,-0.3473605811595917,0.4330759048461914,-0.4789690375328064,0.17619240283966064,0.5530577898025513,0.025211751461029053
37.2,-0.3373645544052124,0.2927589416503906,-0.14647246897220612,0.14927956461906433,0.5900622606277466,0.012346483767032623
37.25,-0.14136287569999695,0.2918825149536133,0.09548169374465942,0.09976675361394882,0.5821352601051331,0.07410801947116852
37.3,-0.07326473295688629,0.37920093536376953,0.09817087650299072,0.016774244606494904,0.6469014883041382,0.14451409876346588
37.35,-0.3634011447429657,0.4324789047241211,-0.08028127253055573,-0.07147479057312012,0.7681310772895813,0.17579670250415802
37.4,-0.7915291786193848,0.44292545318603516,-0.19375097751617432,-0.12412546575069427,0.8170665502548218,0.1805710792541504
37.45,-0.9253630042076111,0.26310062408447266,-0.23018285632133484,-0.10182826966047287,0.7627788782119751,0.17311318218708038
37.5,-0.6663796901702881,-0.4098081588745117,-0.17558960616588593,-0.01218649372458458,0.5935230255126953,0.14606480300426483
37.55,-0.06928543746471405,-1.498255729675293,0.3953710198402405,0.0601009726524353,0.292154461145401,0.2192213535308838
37.6,0.5416998863220215,-1.2363405227661133,1.1934387683868408,0.22709771990776062,0.046496108174324036,0.4490617513656616
37.65,0.26608535647392273,1.4448308944702148,0.9528841972351074,0.6592957973480225,0.05964583158493042,0.25137126445770264
37.7,-0.21645092964172363,2.8294363021850586,0.8990656137466431,0.7361146211624146,-0.05147421360015869,-0.24221226572990417
37.75,1.0018913745880127,0.8613681793212891,1.6493265628814697,0.11813756823539734,-0.5377300977706909,0.2093122899532318
37.8,1.9085416793823242,-0.34931468963623047,1.6000404357910156,-0.31162431836128235,-0.6216322779655457,0.6313296556472778
37.85,0.7493855953216553,-0.0631551742553711,0.8263275623321533,-0.3367043137550354,-0.17430371046066284,0.1735088974237442
37.9,-0.23903976380825043,0.33498668670654297,-0.17948566377162933,-0.38085049390792847,0.016798846423625946,-0.15409258008003235
37.95,0.027915239334106445,0.19702816009521484,-0.7883995771408081,-0.5080828666687012,-0.17338374257087708,-0.12294448912143707
38.0,1.2765229940414429,-0.22774124145507812,-1.0347634553909302,-0.5772743225097656,-0.3380044102668762,0.08244295418262482
38.05,2.0586435794830322,-0.39960670471191406,-1.067383885383606,-0.5332695245742798,-0.22120699286460876,0.20558162033557892
38.1,2.178140640258789,-0.5706443786621094,-0.7208607196807861,-0.40351593494415283,0.07671955227851868,0.2112991362810135
38.15,1.2246696949005127,-0.3059396743774414,-0.2555246651172638,-0.1555999219417572,0.38686656951904297,0.030623890459537506
38.2,-0.2355637103319168,0.2256917953491211,0.25361332297325134,0.04663015529513359,0.5026704668998718,-0.08633846789598465
38.25,-1.2122142314910889,0.5624599456787109,0.7185684442520142,0.13481685519218445,0.3193274736404419,-0.0780494213104248
38.3,-1.151232123374939,0.12118339538574219,1.0621225833892822,0.06330613791942596,-0.027010198682546616,-0.009459413588047028
38.35,-0.5838323831558228,-0.6314420700073242,1.2894771099090576,-0.08083190768957138,-0.2257247120141983,0.05197286605834961
38.4,-0.7707743048667908,-0.32327747344970703,1.0325944423675537,-0.05073186382651329,-0.20429609715938568,-0.06670086085796356
38.45,-1.1395487785339355,0.49352169036865234,0.5913792252540588,0.06136862561106682,-0.19134263694286346,-0.15725155174732208
38.5,-1.0493261814117432,0.6699514389038086,0.45577138662338257,0.05597100406885147,-0.24515880644321442,-0.06733903288841248
38.55,-1.044551134109497,0.4586601257324219,0.45383939146995544,-0.030253147706389427,-0.24742645025253296,-0.0055660679936409
38.6,-0.9423264861106873,0.3673276901245117,0.3202058672904968,-0.14724865555763245,-0.16238047182559967,0.02813798561692238
38.65,-0.8321925401687622,0.4321928024291992,-0.006470143795013428,-0.25230827927589417,0.010724358260631561,0.012119367718696594
38.7,-0.6044222116470337,0.47365283966064453,-0.2647945284843445,-0.32080817222595215,0.21017436683177948,-0.04429948329925537
38.75,-0.030792444944381714,0.35404109954833984,-0.5690724849700928,-0.2855645418167114,0.3143761456012726,-0.16000640392303467
38.8,0.8754938840866089,-0.30362892150878906,-0.21703895926475525,-0.23283511400222778,0.2609446346759796,-0.06995133310556412
38.85,1.1715550422668457,-0.5053825378417969,0.2613529860973358,-0.09583602100610733,0.21279723942279816,0.1788550615310669
38.9,0.3033874034881592,0.29976367950439453,-0.1919878125190735,0.12177282571792603,0.3433655798435211,0.16525107622146606
38.95,-0.4988516867160797,0.6203470230102539,-0.45061710476875305,0.08685720711946487,0.4770786166191101,0.036934033036231995
39.0,-0.29115980863571167,0.010708808898925781,-0.31205931305885315,-0.10360440611839294,0.44394558668136597,0.01551024615764618
39.05,0.29729682207107544,-0.46425819396972656,-0.2447800636291504,-0.11825095117092133,0.36402544379234314,0.0012826435267925262
39.1,0.4612184464931488,-0.3423786163330078,-0.21515551209449768,0.05059591680765152,0.3290412425994873,-0.021109694615006447
39.15,0.36232104897499084,0.030078887939453125,-0.07819947600364685,0.2155553251504898,0.2773904502391815,0.019325867295265198
39.2,0.14604081213474274,0.4747047424316406,0.015042226761579514,0.27281254529953003,0.210873544216156,0.049159541726112366
39.25,0.06229228526353836,0.6677989959716797,0.0048207007348537445,0.21316111087799072,0.13412383198738098,0.056247465312480927
39.3,0.28077566623687744,0.37474822998046875,-0.08875191956758499,0.08999066054821014,0.04535559192299843,0.06350692361593246
39.35,0.5591585040092468,-0.047783851623535156,-0.2455596774816513,0.006010882556438446,-0.002985311672091484,0.06999539583921432
39.4,0.6125075817108154,-0.088165283203125,-0.42162346839904785,0.01282595470547676,0.00973143707960844,0.053329549729824066
39.45,0.5714794993400574,0.05759906768798828,-0.5018786191940308,0.04855014756321907,0.054503247141838074,0.026838595047593117
39.5,0.6343051791191101,0.01674175262451172,-0.3458993434906006,0.057471126317977905,0.10537812858819962,0.021115366369485855
39.55,0.4855692386627197,0.10589885711669922,-0.1616705060005188,0.0575726181268692,0.17033585906028748,-0.0103298369795084
39.6,0.14830626547336578,0.20975971221923828,-0.08433061093091965,0.038641221821308136,0.21787750720977783,-0.057828642427921295
39.65,-0.006028532050549984,0.12917613983154297,-0.01721426099538803,0.004862241446971893,0.18925049901008606,-0.06436221301555634
39.7,0.04451960325241089,0.1022806167602539,-0.021895654499530792,-0.006151968613266945,0.09056617319583893,-0.03609694913029671
39.75,0.17980802059173584,0.23768138885498047,-0.10536812990903854,-0.007408056873828173,-0.014748130924999714,-0.00781022384762764
39.8,0.3162415623664856,0.2785205841064453,-0.23677319288253784,-0.04108554869890213,-0.05513261258602142,-0.0009542275220155716
39.85,0.3702404499053955,0.11258792877197266,-0.3738822638988495,-0.091240294277668,-0.02595774084329605,-0.009978827089071274
39.9,0.39682120084762573,-0.02275562286376953,-0.44226279854774475,-0.10946311056613922,0.020548446103930473,-0.028955034911632538
39.95,0.3856676518917084,-0.14828777313232422,-0.3064526915550232,-0.08321919292211533,0.05191899091005325,-0.0401650108397007
40.0,0.22613777220249176,0.051627159118652344,-0.2226364016532898,-0.02277931198477745,0.0557110421359539,-0.049141641706228256
40.05,0.16236825287342072,0.3052186965942383,-0.2571297883987427,-0.008417000062763691,0.03456927835941315,-0.031990110874176025
40.1,0.2522394359111786,0.23530960083007812,-0.2614479660987854,-0.05576791986823082,0.026027195155620575,-0.013474792242050171
40.15,0.3242127299308777,0.09539794921875,-0.3213541507720947,-0.08869798481464386,0.038676053285598755,-0.009839106351137161
40.2,0.31878963112831116,0.060517311096191406,-0.3536939024925232,-0.09164412319660187,0.06574982404708862,-0.017227590084075928
40.25,0.29565200209617615,0.002452850341796875,-0.3155421316623688,-0.07431681454181671,0.08919208496809006,-0.020715396851301193
40.3,0.27867045998573303,0.04721641540527344,-0.2831873297691345,-0.062059786170721054,0.10641660541296005,-0.026770897209644318
40.35,0.26505330204963684,0.11828994750976562,-0.2756010591983795,-0.06846922636032104,0.117641881108284,-0.0349520705640316
40.4,0.215214341878891,0.11812591552734375,-0.20139993727207184,-0.08829092979431152,0.1136891096830368,-0.03528237342834473
40.45,0.20776596665382385,0.10803508758544922,-0.15464545786380768,-0.0886528268456459,0.10506846755743027,-0.03163393959403038
40.5,0.20716208219528198,0.12175750732421875,-0.167637899518013,-0.08302316069602966,0.08820010721683502,-0.0175752192735672
40.55,0.23536700010299683,0.14723491668701172,-0.19967369735240936,-0.08367854356765747,0.059103745967149734,0.012006178498268127
40.6,0.16884037852287292,0.1253795623779297,-0.1869765818119049,-0.08494031429290771,0.042738549411296844,0.025726720690727234
40.65,0.08820874989032745,0.0731496810913086,-0.189108744263649,-0.08633171766996384,0.042840149253606796,0.011034991592168808
40.7,0.10514704883098602,0.052082061767578125,-0.24946795403957367,-0.08824575692415237,0.024374373257160187,0.011413924396038055
40.75,0.21949175000190735,0.039399147033691406,-0.3403807580471039,-0.08507040143013,0.007499288767576218,0.01461472362279892
40.8,0.3466722071170807,-0.06884098052978516,-0.29088667035102844,-0.08401860296726227,0.025668688118457794,-0.007866054773330688
40.85,0.28004518151283264,-0.04402637481689453,-0.19465862214565277,-0.07239323109388351,0.05462257191538811,-0.047848258167505264
40.9,0.18009422719478607,0.14140796661376953,-0.1710350662469864,-0.0511196106672287,0.06149333715438843,-0.06070217490196228
40.95,0.1762368232011795,0.20008277893066406,-0.21420791745185852,-0.04996856302022934,0.03870730474591255,-0.04395404830574989
41.0,0.24942153692245483,0.14242839813232422,-0.18588095903396606,-0.059410929679870605,0.01736363396048546,-0.020545560866594315
41.05,0.18439672887325287,0.14641857147216797,-0.22862106561660767,-0.05439215153455734,0.023342842236161232,-0.03188458830118179
41.1,0.06528017669916153,0.10827159881591797,-0.2009633481502533,-0.05510276183485985,0.02357666753232479,-0.04501372203230858
41.15,0.08892807364463806,0.059882164001464844,-0.22998090088367462,-0.04462093859910965,0.005158854182809591,-0.03262655809521675
41.2,0.09383837878704071,0.09519577026367188,-0.22659790515899658,-0.015138830058276653,0.010281948372721672,-0.04093807935714722
41.25,0.15118198096752167,0.20400142669677734,-0.24954745173454285,0.013123585842549801,0.010683489963412285,-0.04320202395319939
41.3,0.33841925859451294,0.1589975357055664,-0.23014405369758606,0.02660011686384678,-0.002318819984793663,-0.012402558699250221
41.35,0.2766120433807373,0.06692123413085938,-0.19825616478919983,0.04203781485557556,0.009317548014223576,-0.00908857211470604
41.4,0.11621876806020737,0.09074687957763672,-0.15022778511047363,0.059158653020858765,0.005477807484567165,-0.007024247199296951
41.45,0.0919325202703476,0.21219158172607422,-0.17471209168434143,0.06239215284585953,-0.03258097171783447,0.013757605105638504
41.5,0.14908690750598907,0.21814918518066406,-0.14714673161506653,0.04978920891880989,-0.07254443317651749,0.03526659309864044
41.55,0.16676059365272522,0.19448089599609375,-0.11155734956264496,0.037192102521657944,-0.09062644839286804,0.0379360094666481
41.6,0.09198479354381561,0.1767587661743164,-0.085607148706913,0.02764316461980343,-0.11159837245941162,0.0327913798391819
41.65,0.13748127222061157,0.1401815414428711,-0.10478762537240982,0.017156654968857765,-0.14904798567295074,0.05082147940993309
41.7,0.14991268515586853,0.04416465759277344,-0.16653278470039368,-0.0025376230478286743,-0.1699407696723938,0.04794623330235481
41.75,0.07720210403203964,0.008688926696777344,-0.19217577576637268,-0.013177800923585892,-0.16752216219902039,0.011116566136479378
41.8,0.11466168612241745,0.07800579071044922,-0.20166118443012238,-0.016253439709544182,-0.18029533326625824,0.0035148863680660725
41.85,0.15004697442054749,0.13614368438720703,-0.2783217132091522,-0.015269774943590164,-0.18699368834495544,0.0014955410733819008
41.9,0.15354445576667786,0.17121219635009766,-0.2888035178184509,-0.021809211000800133,-0.18039679527282715,-0.0044264723546803
41.95,0.18182489275932312,0.18928050994873047,-0.3277226388454437,-0.03085152991116047,-0.1632210910320282,-0.009272189810872078
42.0,0.21526171267032623,0.07234477996826172,-0.3357502818107605,-0.05703520402312279,-0.1341598927974701,-0.01632545329630375
42.05,0.3071293532848358,0.029517173767089844,-0.48527342081069946,-0.06454029679298401,-0.09804746508598328,-0.01692063920199871
42.1,0.3573402762413025,0.044533729553222656,-0.4295540153980255,-0.06439297646284103,-0.04990534484386444,-0.020932821556925774
42.15,0.30696794390678406,0.0897989273071289,-0.351071834564209,-0.062203340232372284,-0.0024207886308431625,-0.02625453472137451
42.2,0.33076685667037964,0.08512115478515625,-0.3805026113986969,-0.060425661504268646,0.036555033177137375,-0.011654986068606377
42.25,0.279130220413208,0.14437294006347656,-0.36900651454925537,-0.05244101583957672,0.07439286261796951,-0.005501784384250641
42.3,0.19229240715503693,0.12107658386230469,-0.2978019118309021,-0.04852128028869629,0.10546325892210007,-0.001280464231967926
42.35,0.1378277689218521,0.011183738708496094,-0.2312386929988861,-0.04158259928226471,0.13026776909828186,-0.006874263286590576
42.4,0.13775525987148285,0.013333320617675781,-0.16528916358947754,-0.021210726350545883,0.1328723132610321,-0.01824849285185337
42.45,0.14570513367652893,0.1350078582763672,-0.14417323470115662,2.294406294822693e-05,0.11345569044351578,-0.02005714550614357
42.5,0.16659855842590332,0.28162670135498047,-0.24548745155334473,-0.006885760463774204,0.08539602160453796,-0.0035971824545413256
42.55,0.18041174113750458,0.14890289306640625,-0.2007894665002823,-0.030436871573328972,0.06066782772541046,0.018461372703313828
42.6,0.1570894420146942,0.03196144104003906,-0.15105454623699188,-0.027616379782557487,0.058657802641391754,0.021507225930690765
42.65,0.02083531767129898,0.1479654312133789,-0.2206438183784485,0.00012172897550044581,0.06282073259353638,0.0003283986006863415
42.7,0.06685846298933029,0.06487560272216797,-0.20338749885559082,0.003824173938483,0.04124901071190834,0.0032737399451434612
42.75,0.18468013405799866,0.03081226348876953,-0.15726539492607117,0.01396793220192194,0.029555603861808777,-0.007400496397167444
42.8,0.19839119911193848,0.03633880615234375,-0.07595422863960266,0.04327104985713959,0.0219570379704237,-0.0174857210367918
42.85,0.11058224737644196,0.1361398696899414,-0.1552150845527649,0.08651936054229736,-0.004158003255724907,-0.00373150035738945
42.9,0.04571154713630676,0.2232828140258789,-0.21233168244361877,0.09380879998207092,-0.041268885135650635,0.021808264777064323
42.95,0.14483118057250977,0.19639110565185547,-0.12665069103240967,0.08523789048194885,-0.06418873369693756,0.04144882783293724
43.0,0.15604934096336365,0.15529441833496094,-0.078630231320858,0.09367051720619202,-0.08288145810365677,0.05092847719788551
43.05,0.0627862736582756,0.23068809509277344,-0.13667626678943634,0.09355608373880386,-0.09911742806434631,0.057849522680044174
43.1,0.10787355154752731,0.14130687713623047,-0.16076068580150604,0.07043293118476868,-0.11991677433252335,0.05973943695425987
43.15,0.21037964522838593,0.07564258575439453,-0.2188723236322403,0.053022779524326324,-0.15813913941383362,0.054635267704725266
43.2,0.24880391359329224,0.07658863067626953,-0.382716566324234,0.04437148571014404,-0.17217202484607697,0.042316850274801254
43.25,0.43108054995536804,0.05267333984375,-0.4781439006328583,0.022770896553993225,-0.13763004541397095,0.017003914341330528
43.3,0.562492311000824,-0.07715320587158203,-0.49535834789276123,-0.003749443916603923,-0.0643053650856018,-0.010785864666104317
43.35,0.40143346786499023,-0.09085845947265625,-0.4482090473175049,0.008777964860200882,0.039033547043800354,-0.07373049110174179
43.4,0.22030094265937805,0.014103889465332031,-0.18821510672569275,0.03830419480800629,0.10470330715179443,-0.08367111533880234
43.45,0.09143860638141632,0.2671346664428711,-0.04799265414476395,0.060470789670944214,0.11727598309516907,-0.062209080904722214
43.5,0.0815025344491005,0.2895469665527344,-0.08083587884902954,0.028137512505054474,0.12565980851650238,-0.029920848086476326
43.55,-0.05894008278846741,0.10242366790771484,-0.04929466173052788,0.008724454790353775,0.15232709050178528,-0.0321318656206131
43.6,-0.17836439609527588,-0.061331748962402344,-0.049280643463134766,0.026958683505654335,0.17656290531158447,-0.033880382776260376
43.65,-0.12744316458702087,-0.060723304748535156,-0.12601180374622345,0.06813798099756241,0.18309065699577332,-0.01228872686624527
43.7,-0.17535637319087982,-0.05336475372314453,-0.1032860279083252,0.13012805581092834,0.20383018255233765,-0.04554007574915886
43.75,-0.15056943893432617,-0.005238533020019531,-0.05056255683302879,0.22952547669410706,0.20245860517024994,-0.0336185023188591
43.8,-0.09046240895986557,0.3327360153198242,-0.10437829792499542,0.3361165523529053,0.18193870782852173,0.007701084017753601
43.85,0.009827891364693642,0.40140533447265625,-0.05298738181591034,0.3682689368724823,0.20737475156784058,0.0426969975233078
43.9,0.20131687819957733,0.23949527740478516,-0.1619725227355957,0.38616952300071716,0.2563980221748352,0.0467829704284668
43.95,0.34082549810409546,0.1390514373779297,-0.20649069547653198,0.4162278175354004,0.2426188886165619,0.054812803864479065
44.0,0.5518288016319275,0.12079048156738281,-0.2579388916492462,0.4089348614215851,0.13181930780410767,0.07723589241504669
44.05,0.6010543704032898,0.2747001647949219,-0.3508340120315552,0.37509602308273315,-0.0018994435667991638,0.05102267861366272
44.1,0.8700818419456482,0.22475147247314453,-0.45946988463401794,0.2577124834060669,-0.12796297669410706,0.031676605343818665
44.15,1.360998272895813,0.0939016342163086,-0.36657822132110596,0.0829496756196022,-0.2170937955379486,0.0472194105386734
44.2,1.3259711265563965,0.18544292449951172,-0.2250259518623352,-0.048720017075538635,-0.18477658927440643,0.001799989491701126
44.25,0.8187129497528076,0.09085941314697266,-0.21084651350975037,-0.16937291622161865,-0.18104657530784607,-0.03061850741505623
44.3,0.6203320622444153,-0.0009183883666992188,-0.5747578144073486,-0.21776266396045685,-0.33772993087768555,0.018684417009353638
44.35,0.6064707636833191,0.03359508514404297,-0.8832889795303345,-0.17461112141609192,-0.47399675846099854,0.04139874875545502
44.4,0.33723294734954834,0.09517192840576172,-0.7504639029502869,-0.07669316232204437,-0.5281394720077515,0.03475228697061539
44.45,0.3982155919075012,0.4721803665161133,-0.6735532283782959,0.03558846563100815,-0.5200786590576172,0.05664863437414169
44.5,0.3523399829864502,-0.1623554229736328,-0.013167575001716614,-0.038887396454811096,-0.3667930066585541,0.10385894775390625
44.55,-0.13465547561645508,-0.31929683685302734,0.20072394609451294,-0.060831569135189056,-0.185549795627594,0.0444989949464798
44.6,-0.690686821937561,0.22446346282958984,0.29492366313934326,-0.007369490340352058,-0.10875102877616882,-0.04798922687768936
44.65,-0.478674054145813,0.2359323501586914,0.5727033615112305,0.015590915456414223,-0.21431896090507507,0.01038828119635582
44.7,-0.4621601700782776,0.43222808837890625,0.5474866032600403,0.06284379959106445,-0.3105306029319763,0.054674286395311356
44.75,-0.5471618175506592,0.39705562591552734,0.35974571108818054,0.07971706986427307,-0.32097959518432617,0.07063507288694382
44.8,-0.3554424047470093,-0.044651031494140625,0.29861998558044434,0.02483907900750637,-0.3193782567977905,0.0778924748301506
44.85,-0.3612702786922455,-0.12415409088134766,0.11086347699165344,0.01763540878891945,-0.24829162657260895,0.02999923750758171
44.9,-0.4767439663410187,-0.033280372619628906,0.028786972165107727,0.007654487155377865,-0.14638318121433258,-0.03149078041315079
44.95,-0.44168177247047424,-0.013824462890625,-0.14269061386585236,-0.014499887824058533,-0.06497025489807129,-0.11493010818958282
45.0,0.26765120029449463,-0.09105587005615234,0.030347369611263275,-0.04168655723333359,-0.05923839285969734,-0.09314724802970886
45.05,0.6824658513069153,0.6488456726074219,-0.32329922914505005,0.08492638170719147,-0.02810855209827423,-0.095427006483078
45.1,0.5337748527526855,0.5628852844238281,-0.020575180649757385,0.09832846373319626,0.03404252231121063,-0.03692249581217766
45.15,0.5053327679634094,0.1522817611694336,0.06230325996875763,0.05981731042265892,-0.008172290399670601,0.08409056067466736
45.2,-0.0963960736989975,0.21612834930419922,-0.03673979267477989,0.04409194365143776,0.03036327101290226,0.07693854719400406
45.25,-0.20241443812847137,0.29756736755371094,-0.24444188177585602,-0.004005745053291321,0.025121068581938744,0.04788317531347275
45.3,-0.019523590803146362,0.18664836883544922,-0.3891277313232422,-0.04540793225169182,0.004442350007593632,-0.00956066232174635
45.35,0.3362747132778168,0.02108478546142578,-0.3023640513420105,-0.07863154262304306,-0.015547797083854675,-0.02407209947705269
45.4,0.6509226560592651,0.12202072143554688,-0.1919734627008438,-0.08895029127597809,0.01074209064245224,-0.02470376156270504
45.45,0.34802666306495667,0.30495357513427734,-0.13638199865818024,-0.11615734547376633,0.0926959216594696,-0.06321026384830475
45.5,0.07985267043113708,0.26723766326904297,-0.12096915394067764,-0.1817837655544281,0.11297617852687836,-0.06780920922756195
45.55,0.044441040605306625,0.1720285415649414,-0.1413874626159668,-0.23918399214744568,0.07167176902294159,-0.05041109770536423
45.6,0.0808771476149559,0.04247856140136719,-0.12275169044733047,-0.2687487006187439,0.04520010948181152,-0.05809003859758377
45.65,0.04718214273452759,-0.08048725128173828,-0.16790063679218292,-0.262455016374588,0.0385698527097702,-0.09096509963274002
45.7,0.19078561663627625,-0.09975814819335938,-0.2058718204498291,-0.21203026175498962,0.034964099526405334,-0.09909993410110474
45.75,0.1814819574356079,-0.02617359161376953,-0.11667075753211975,-0.13104325532913208,0.02789124846458435,-0.08896933495998383
45.8,0.06635381281375885,0.150665283203125,-0.022959748283028603,-0.08806697279214859,0.012133368290960789,-0.05949651822447777
45.85,0.0012375833466649055,0.10524845123291016,0.02776387706398964,-0.06214957311749458,-0.006933261640369892,-0.05698331445455551
45.9,0.0700993686914444,0.12329292297363281,-0.1877971589565277,-0.027831919491291046,-0.05676053464412689,-0.0520884171128273
45.95,0.3135393559932709,0.06840705871582031,-0.10051745921373367,-0.020613446831703186,-0.10853894799947739,-0.0015967302024364471
46.0,0.40162837505340576,0.05709362030029297,-0.11430414021015167,0.010646030306816101,-0.07232476770877838,-0.016597304493188858
46.05,0.17092925310134888,0.17498016357421875,-0.1233951672911644,0.036960240453481674,0.006551908329129219,-0.05126766860485077
46.1,0.006872136145830154,0.07738780975341797,-0.09727765619754791,0.03684128448367119,-0.003823069855570793,-0.03840168938040733
46.15,-0.06947490572929382,0.17966651916503906,-0.10027901828289032,0.04166978970170021,-0.029398877173662186,-0.0163593590259552
46.2,-0.04356939718127251,0.3166532516479492,0.0025536473840475082,0.041975706815719604,-0.044446732848882675,-0.03284784406423569
46.25,0.12699410319328308,0.34918880462646484,-0.14955054223537445,0.025853043422102928,-0.05505601689219475,-0.04428793489933014
46.3,0.36849501729011536,0.04949378967285156,-0.20832368731498718,-0.01466400921344757,-0.045482948422431946,-0.02057100087404251
46.35,0.30282333493232727,0.08193683624267578,-0.3450658619403839,0.008474865928292274,-0.0110374940559268,-0.026235032826662064
46.4,0.1996903419494629,0.058289527893066406,-0.1856301873922348,0.015214130282402039,0.036477357149124146,-0.02911268174648285
46.45,-0.010887660086154938,-0.04460334777832031,-0.15596385300159454,0.03334818407893181,0.0584007203578949,-0.03695372864603996
46.5,0.0887574627995491,0.10827255249023438,-0.24968492984771729,0.0530444011092186,0.07757401466369629,-0.0570136159658432
46.55,0.18800626695156097,0.19340991973876953,-0.22858750820159912,0.047059763222932816,0.08241252601146698,-0.08061542361974716
46.6,0.38866811990737915,0.057173728942871094,-0.04545050859451294,0.017540309578180313,0.06901023536920547,-0.06074276193976402
46.65,0.2763197720050812,0.11110687255859375,-0.022324569523334503,0.02765166014432907,0.08747637271881104,-0.0658998191356659
46.7,0.1432865560054779,0.23062419891357422,-0.11467213928699493,0.014617509208619595,0.09339626133441925,-0.04918030649423599
46.75,-0.08066949993371964,0.2886819839477539,-0.07215408235788345,-0.016630563884973526,0.06639792025089264,-0.043367356061935425
46.8,-0.004020005464553833,0.1885519027709961,-0.17122028768062592,-0.029484597966074944,0.020829129964113235,-0.014817067421972752
46.85,0.23682327568531036,0.06487369537353516,-0.1506517082452774,-0.041717588901519775,-0.0016063898801803589,-0.011501925066113472
46.9,0.21937386691570282,0.29250621795654297,-0.2665289640426636,-0.039793990552425385,0.004885498434305191,-0.02511277049779892
46.95,0.23266614973545074,0.2300891876220703,-0.21039274334907532,-0.07907454669475555,0.008043276146054268,-0.025016099214553833
47.0,0.20922976732254028,-0.04440593719482422,-0.0812181830406189,-0.09395292401313782,0.023015405982732773,-0.022736215963959694
47.05,0.0894327387213707,0.08095550537109375,-0.1972656100988388,-0.05083879083395004,0.04288662225008011,-0.030679035931825638
