Time [s],Acc_x [m/s^2],Acc_y [m/s^2],Acc_z [m/s^2],Gyro_x [1/s],Gyro_y [1/s],Gyro_z [1/s]
0.0,0.026882264763116837,0.06690692901611328,-0.09854158759117126,0.006421595346182585,0.005595392547547817,0.0008145649917423725
0.05,0.027565963566303253,0.055062294006347656,-0.054009292274713516,6.095360731706023e-05,-0.002624958986416459,-0.0015207368414849043
0.1,-0.02863774076104164,0.10601615905761719,-0.004434498958289623,0.00396170886233449,0.0040848529897630215,0.0031127259135246277
0.15,-0.049330439418554306,0.09345436096191406,-0.01427485328167677,0.004983124323189259,-0.002005058340728283,0.012050601653754711
0.2,-0.0031228866428136826,0.13543128967285156,-0.026146430522203445,-0.005525566637516022,0.001455766148865223,0.009012686088681221
0.25,0.03475334495306015,0.14614391326904297,-0.054144006222486496,-0.003796228440478444,0.0022137220948934555,0.011360691860318184
0.3,0.055716514587402344,0.1001291275024414,-0.04598536714911461,-0.0018809451721608639,0.0028391897212713957,0.003947513643652201
0.35,0.05474013090133667,0.07461071014404297,-0.05859771743416786,0.00022835307754576206,0.0009329428430646658,0.0049440497532486916
0.4,0.07009349763393402,0.19012928009033203,-0.019749840721488,0.006869984325021505,0.0047230832278728485,0.0026916852220892906
0.45,0.0346347838640213,0.08370113372802734,-0.07774484157562256,-0.009573670104146004,-0.00882099661976099,-0.002081183483824134
0.5,0.014154420234262943,0.11374759674072266,-0.036582399159669876,0.004893021658062935,0.01627766340970993,0.006204625125974417
0.55,-0.026422599330544472,0.1246805191040039,-0.030689232051372528,0.014635151252150536,0.004213318228721619,0.012602711096405983
0.6,0.032335638999938965,0.18015670776367188,-0.0450274832546711,0.006405618041753769,0.005614679306745529,0.0008075996302068233
0.65,0.016470368951559067,0.17571067810058594,-0.059000007808208466,0.004878892097622156,0.0023201226722449064,0.006870201788842678
0.7,-0.06280463188886642,0.16100788116455078,0.004652075469493866,-0.004620486404746771,0.0020739976316690445,-0.005388759076595306
0.75,-0.0019931355491280556,0.16141033172607422,0.020993277430534363,-0.009474022313952446,0.0032166987657546997,-0.015721917152404785
0.8,-0.040649931877851486,0.14020442962646484,0.028530173003673553,-0.015344642102718353,0.008047694340348244,-0.01682274229824543
0.85,0.012597400695085526,0.12883472442626953,-0.010743333026766777,-0.022278062999248505,0.005007351282984018,-0.026199810206890106
0.9,0.01793021522462368,0.1328725814819336,-0.01909058727324009,-0.01874684728682041,0.014397122897207737,-0.020238783210515976
0.95,0.023121844977140427,0.13667678833007812,-0.049250584095716476,-0.012703005224466324,0.013126945123076439,-0.012675505131483078
1.0,0.010863451287150383,0.07026195526123047,-0.03496210649609566,-0.010174034163355827,0.022500265389680862,-0.013720346614718437
1.05,0.05615226924419403,0.14232921600341797,-0.10380779951810837,-0.009141352958977222,0.03273589909076691,-0.0236374344676733
1.1,-0.0880618616938591,0.07741928100585938,0.011411547660827637,-0.017291761934757233,0.029849674552679062,-0.03020418807864189
1.15,-0.029921215027570724,0.02944660186767578,-0.056229546666145325,-0.013787620700895786,0.03942221775650978,-0.01451724674552679
1.2,-0.047619543969631195,0.12836074829101562,-0.0772349163889885,0.030385050922632217,0.06191389635205269,-0.0005553402006626129
1.25,-0.0646713525056839,0.0227508544921875,-0.07576201856136322,-0.003988372161984444,0.047366637736558914,-0.010743251070380211
1.3,0.03403398394584656,0.1577320098876953,-0.08886902034282684,0.0001733325480017811,0.04977172985672951,-0.0009894897229969501
1.35,0.12918721139431,0.02147674560546875,-0.0928470641374588,-0.01461175549775362,0.0630597323179245,-0.017488690093159676
1.4,-0.017608297988772392,0.01232147216796875,-0.042744673788547516,-0.019657336175441742,0.0767148956656456,-0.012124168686568737
1.45,-0.03883320838212967,0.09120464324951172,-0.0332438088953495,-0.007323685102164745,0.110770083963871,0.0006807132158428431
1.5,-0.07431201636791229,0.13586902618408203,-0.032869502902030945,-0.017189238220453262,0.12129580974578857,0.0010725418105721474
1.55,-0.01997379958629608,0.16617488861083984,-0.08727400004863739,-0.023067545145750046,0.16445016860961914,-0.00847235880792141
1.6,0.017066914588212967,0.1174020767211914,0.017063304781913757,-0.026113970205187798,0.20498503744602203,-0.005527252331376076
1.65,0.00803756806999445,-0.03024005889892578,0.011365898884832859,-0.022610405460000038,0.2516228258609772,0.020274203270673752
1.7,-0.013742804527282715,0.020269393920898438,0.0333113819360733,0.004475446417927742,0.3165336847305298,0.05461522191762924
1.75,-0.003716730512678623,0.14711666107177734,0.028527885675430298,0.030692467465996742,0.3950181007385254,0.06820079684257507
1.8,0.04992816224694252,-0.049889564514160156,0.11879126727581024,0.025744974613189697,0.43776047229766846,0.1099122017621994
1.85,0.1362597942352295,-0.17645645141601562,0.10207505524158478,0.0895734652876854,0.5521539449691772,0.15487898886203766
1.9,0.07821239531040192,0.2187032699584961,0.17672684788703918,0.13574497401714325,0.6432110667228699,0.17908532917499542
1.95,0.04639008641242981,0.25353527069091797,0.31698694825172424,0.09809600561857224,0.733482301235199,0.17079901695251465
2.0,0.13638359308242798,0.059981346130371094,0.40335315465927124,0.08075198531150818,0.8510311245918274,0.15611830353736877
2.05,0.28604382276535034,-0.23085784912109375,0.4520909786224365,0.05664398521184921,0.9288166761398315,0.183600053191185
2.1,0.4300253987312317,-0.06611347198486328,0.6245771646499634,0.024485096335411072,0.9749815464019775,0.22837267816066742
2.15,0.13758690655231476,0.45062923431396484,0.607394278049469,-0.004927419126033783,1.008070468902588,0.1904946267604828
2.2,-0.02508506178855896,0.6637153625488281,0.6264135837554932,-0.06848729401826859,0.9777039289474487,0.08080439269542694
2.25,0.18789532780647278,0.10942459106445312,0.7276965379714966,-0.10355489701032639,0.9363904595375061,-0.00887589156627655
2.3,0.6922086477279663,-0.30013084411621094,0.6760737895965576,-0.12565042078495026,0.9334943294525146,-0.05313284695148468
2.35,0.6215620636940002,-0.13342952728271484,0.6617119312286377,-0.14429345726966858,0.9661076068878174,-0.01353728398680687
2.4,0.34967267513275146,0.18444061279296875,0.5361223816871643,-0.16910159587860107,0.9600048065185547,-0.02881213277578354
2.45,-0.13318011164665222,0.45348167419433594,0.13469956815242767,-0.17228734493255615,0.9145574569702148,-0.04578731581568718
2.5,0.041116584092378616,-0.28247833251953125,0.01031823642551899,-0.11216910183429718,0.8679244518280029,-0.08593259006738663
2.55,0.6221370697021484,-0.38123607635498047,-0.04823306202888489,-0.02912265621125698,0.8062188029289246,-0.03658057749271393
2.6,0.6295310258865356,0.7616910934448242,-0.054942429065704346,0.1511196792125702,0.827000081539154,0.07231728732585907
2.65,0.046352311968803406,-1.0378952026367188,-0.06658286601305008,0.0025825686752796173,0.7985632419586182,0.12803545594215393
2.7,-0.4579620361328125,-1.851374626159668,-0.3616626560688019,0.22905777394771576,0.8598693609237671,0.15512420237064362
2.75,-0.6295154690742493,0.07982921600341797,-0.40608638525009155,0.8206323385238647,0.8999435901641846,0.1944679319858551
2.8,-0.06005605310201645,1.6089677810668945,-0.26877522468566895,1.0013198852539062,0.8459231853485107,0.2085753083229065
2.85,-0.07548147439956665,0.4203157424926758,-0.05242692306637764,0.64640212059021,0.8601352572441101,0.05640360713005066
2.9,-0.2904869318008423,0.05723857879638672,0.06790203601121902,0.6798642873764038,0.8924410939216614,0.0172976553440094
2.95,-0.0626097321510315,-0.4498634338378906,0.42174533009529114,0.6485852003097534,0.9350219964981079,0.13726361095905304
3.0,0.15303626656532288,-0.4923591613769531,0.29628702998161316,0.7376635074615479,1.073981761932373,0.1556462049484253
3.05,0.11281462758779526,-0.5340471267700195,-0.32614994049072266,0.8064570426940918,1.1460715532302856,0.17304670810699463
3.1,-0.36061251163482666,-0.8217792510986328,-0.024124056100845337,0.8213251233100891,1.1705244779586792,0.3527407646179199
3.15,0.05932968854904175,-1.5381107330322266,-0.7567445039749146,0.9705806970596313,0.9347025752067566,0.5285063982009888
3.2,1.0679376125335693,-0.38210296630859375,-1.3913743495941162,1.2162553071975708,0.574930727481842,0.5600175857543945
3.25,0.056784749031066895,0.5037078857421875,-1.9040112495422363,1.2412574291229248,0.5851528644561768,0.2892628610134125
3.3,0.2533217668533325,0.5880622863769531,-0.555556058883667,0.9582145810127258,0.5112563371658325,0.03083154559135437
3.35,0.6460604667663574,-0.0768585205078125,-1.0306414365768433,0.5750772953033447,0.15332163870334625,0.18643681704998016
3.4,1.010945439338684,-0.08941841125488281,-1.2069687843322754,0.6889356374740601,-0.1456664502620697,0.28597527742385864
3.45,0.4700506031513214,-0.14455223083496094,-0.7599691152572632,0.7329534292221069,0.06969664990901947,0.21606674790382385
3.5,0.3847277760505676,0.10758018493652344,-0.515006959438324,0.6556963324546814,-0.01415402814745903,0.17328910529613495
3.55,0.29448240995407104,0.09393787384033203,-0.6919640302658081,0.6169490814208984,-0.11162100732326508,0.21224071085453033
3.6,0.1578756868839264,0.6851587295532227,0.10698357224464417,0.7347688674926758,0.035849153995513916,0.08770614862442017
3.65,-0.078269362449646,0.6417818069458008,0.3038790822029114,0.5466864109039307,0.11793152242898941,0.07805538177490234
3.7,-0.09137697517871857,0.5340471267700195,0.17866119742393494,0.3746190071105957,0.0533442422747612,0.11621866375207901
3.75,-0.06269660592079163,0.6941509246826172,0.15092183649539948,0.37568479776382446,0.048785652965307236,0.03504778444766998
3.8,-0.08303385972976685,0.7061796188354492,0.19219446182250977,0.27592459321022034,-0.03956921771168709,0.018585316836833954
3.85,0.04007133096456528,0.5178346633911133,0.1630951464176178,0.19333356618881226,-0.06910815834999084,-0.012944906949996948
3.9,0.27979975938796997,0.6398420333862305,-0.041949689388275146,0.11534987390041351,-0.07181805372238159,0.004446361213922501
3.95,0.13066315650939941,1.1040420532226562,-0.0595538504421711,0.14742617309093475,-0.029862839728593826,0.028150416910648346
4.0,0.19882094860076904,1.172262191772461,0.1372143030166626,0.08411538600921631,-0.0356910414993763,0.0059210509061813354
4.05,0.3232136368751526,0.9000873565673828,-0.08099387586116791,-0.09098499268293381,-0.1392311304807663,-0.026754288002848625
4.1,0.3138032555580139,0.8351669311523438,-0.09985965490341187,-0.10756666958332062,-0.09401114284992218,-0.06727968156337738
4.15,0.3111262321472168,0.4051504135131836,-0.07686950266361237,-0.2157813012599945,-0.05769140273332596,-0.10344851016998291
4.2,0.2444034218788147,0.4007720947265625,-0.27359631657600403,-0.2512468099594116,0.00026253610849380493,-0.1576344072818756
4.25,0.34733062982559204,0.3593921661376953,-0.029034480452537537,-0.26850757002830505,-0.04019045829772949,-0.18978917598724365
4.3,0.3841397166252136,0.19469547271728516,0.0967632308602333,-0.31902873516082764,-0.016890138387680054,-0.18500849604606628
4.35,0.2381533533334732,-0.1793508529663086,0.16265127062797546,-0.36414897441864014,-0.003159753978252411,-0.16892436146736145
4.4,0.10668432712554932,-0.33066844940185547,0.3489702343940735,-0.3507009744644165,-0.0014781542122364044,-0.12424837052822113
4.45,0.054391443729400635,-0.7940807342529297,0.6458350419998169,-0.3159708082675934,-0.048029884696006775,-0.06359484791755676
4.5,-0.018559351563453674,-0.9143276214599609,0.401397168636322,-0.20991197228431702,-0.04338395968079567,0.00517948716878891
4.55,-0.010842874646186829,-0.9381437301635742,0.48253825306892395,-0.08291637152433395,-0.06971573829650879,0.0973200872540474
4.6,0.08157318830490112,-1.1606941223144531,0.4406948685646057,0.06857363879680634,-0.10586667060852051,0.1395382285118103
4.65,0.11462146043777466,-1.2113752365112305,0.6526545286178589,0.25562068819999695,-0.11694476008415222,0.1969732791185379
4.7,0.10256916284561157,-0.7610759735107422,0.9507427215576172,0.4859040379524231,0.09498430788516998,0.1323382705450058
4.75,0.3180161118507385,-0.6414976119995117,0.8687131404876709,0.4398491084575653,0.22002974152565002,0.11991466581821442
4.8,0.02554623782634735,-0.16860389709472656,0.25074154138565063,0.41356712579727173,0.29581186175346375,0.17267177999019623
4.85,0.3460553288459778,-0.2784919738769531,-0.03564973175525665,0.41010135412216187,0.1418926864862442,0.19462020695209503
4.9,0.3310781717300415,-0.33687305450439453,-0.2598465085029602,0.5427836179733276,0.22892513871192932,0.23685014247894287
4.95,0.028546884655952454,0.34620094299316406,-0.17294910550117493,0.7109871506690979,0.28132686018943787,0.2653258442878723
5.0,-0.252785861492157,0.41713428497314453,-0.012831546366214752,0.5970419645309448,0.11630242317914963,0.1722448319196701
5.05,0.003332585096359253,0.6993427276611328,-0.42180344462394714,0.37812113761901855,0.0800078883767128,0.17752894759178162
5.1,0.27871692180633545,0.9580831527709961,-0.29306209087371826,0.4110897481441498,0.22550222277641296,0.105084627866745
5.15,-0.2000683844089508,1.117863655090332,-0.630290150642395,0.2758728265762329,0.18691259622573853,0.11139032244682312
5.2,-0.20596036314964294,1.0599212646484375,-0.36726778745651245,0.2061765342950821,-0.05197686702013016,0.013843946158885956
5.25,0.13361355662345886,1.124159812927246,-0.3327542841434479,0.006604403257369995,-0.07151219248771667,-0.031462546437978745
5.3,0.03344348073005676,1.3827505111694336,-0.22387313842773438,-0.15649445354938507,-0.06573830544948578,-0.09240701049566269
5.35,0.08208538591861725,1.1746339797973633,-0.4511811137199402,-0.34491613507270813,-0.11667317152023315,-0.2047455906867981
5.4,-0.21008777618408203,1.2153120040893555,-1.001265048980713,-0.452229380607605,-0.1914713978767395,-0.2637357711791992
5.45,0.5684258937835693,0.8636035919189453,-0.027674973011016846,-0.4372977018356323,-0.5073894262313843,-0.3645106554031372
5.5,0.5936912298202515,0.6442756652832031,-0.06853273510932922,-0.6262605786323547,-0.28734278678894043,-0.2897711396217346
5.55,0.354321151971817,0.8939504623413086,-0.4896228313446045,-0.7641754150390625,-0.11923600733280182,-0.28958725929260254
5.6,0.4491019546985626,0.5541706085205078,-0.597648024559021,-0.981155514717102,-0.24063104391098022,-0.32838255167007446
5.65,0.3375532031059265,-0.34947681427001953,-0.5834173560142517,-1.1716017723083496,-0.21525618433952332,-0.28984755277633667
5.7,-0.0460338294506073,-0.8296279907226562,-0.5407633781433105,-1.0814881324768066,-0.19166502356529236,-0.2758744955062866
5.75,0.23504556715488434,-1.1165170669555664,0.37543755769729614,-0.8786253929138184,-0.2039177119731903,-0.24453747272491455
5.8,0.20764188468456268,-1.3847980499267578,0.5141699314117432,-0.8203755617141724,-0.11542709916830063,-0.1609768569469452
5.85,-0.13837867975234985,-1.6300840377807617,0.25634923577308655,-0.6473526954650879,-0.003545696847140789,-0.1327231228351593
5.9,-0.17430132627487183,-1.487391471862793,0.42428770661354065,-0.4141960144042969,0.051264457404613495,-0.005475342273712158
5.95,-0.04783549904823303,-0.9159889221191406,1.0639235973358154,0.01408463716506958,0.07936546206474304,0.060373663902282715
6.0,0.41606810688972473,-0.6016044616699219,1.0657293796539307,0.18553729355335236,0.09162802994251251,0.08211187273263931
6.05,-0.18931522965431213,-0.6049594879150391,0.6825248003005981,0.33851492404937744,0.27728867530822754,0.05387108027935028
6.1,-0.25953298807144165,-0.7123842239379883,0.7133829593658447,0.39084702730178833,0.25472772121429443,0.06198303401470184
6.15,-0.10406807065010071,-0.4156980514526367,0.9921352863311768,0.6213793754577637,0.3416745662689209,0.029807597398757935
6.2,0.16071873903274536,-0.5350637435913086,1.3509513139724731,0.6558530330657959,0.5067601799964905,0.02174818515777588
6.25,-0.2898216247558594,-0.5393257141113281,0.09032426029443741,0.597806990146637,0.5984314680099487,0.04451268911361694
6.3,0.07251107692718506,-0.6888065338134766,-0.031466659158468246,0.668418824672699,0.4577012360095978,0.0531693696975708
6.35,-0.04245142638683319,-0.041591644287109375,-0.24113571643829346,0.7296147346496582,0.6193132400512695,0.032552868127822876
6.4,-0.34987425804138184,1.1427993774414062,-0.44396114349365234,0.8290477991104126,0.5810129642486572,-0.09524497389793396
6.45,-0.08292292803525925,2.2047691345214844,0.15672710537910461,0.7352603673934937,0.2715747654438019,-0.1435564160346985
6.5,-0.15957249701023102,2.031062126159668,0.12385860085487366,0.21411387622356415,0.07543939352035522,0.006175771355628967
6.55,-0.46707722544670105,2.194827079772949,-0.20934827625751495,-0.08672741055488586,0.16462957859039307,0.0845177173614502
6.6,0.4054102301597595,2.0458860397338867,0.10804539173841476,-0.29170113801956177,0.15800702571868896,0.04663040488958359
6.65,-0.45827576518058777,1.1451187133789062,-1.2512341737747192,-0.66827791929245,0.017519447952508926,0.13484439253807068
6.7,0.07162657380104065,0.40775108337402344,-0.9947392344474792,-0.7331950068473816,-0.1232757717370987,0.03209400177001953
6.75,0.1526133120059967,0.15592384338378906,-0.8264279365539551,-0.7625664472579956,-0.08472371101379395,-0.009272605180740356
6.8,0.30448704957962036,-0.24735260009765625,-0.7921105623245239,-0.9373484253883362,-0.27508753538131714,0.019316256046295166
6.85,0.5036509037017822,-0.0015039443969726562,-0.8186267614364624,-0.9380956888198853,-0.26068007946014404,-0.015467673540115356
6.9,0.5846225619316101,0.13018798828125,-0.5830215811729431,-0.9128398299217224,-0.2255900353193283,-0.12678882479667664
6.95,0.689956545829773,-0.32416820526123047,-0.6943871974945068,-1.1005679368972778,-0.3737896978855133,-0.04424130916595459
7.0,0.9745256304740906,-0.7662487030029297,-0.8419355750083923,-1.0322333574295044,-0.3592812716960907,-0.09553635120391846
7.05,1.1349012851715088,-0.6894235610961914,-1.0050538778305054,-0.9197710752487183,-0.2996048033237457,-0.15265178680419922
7.1,0.8888086080551147,-0.9315023422241211,-0.6152000427246094,-0.7937291264533997,-0.18719665706157684,-0.12392231822013855
7.15,0.4841143488883972,-0.7018842697143555,-0.11726370453834534,-0.5683770179748535,-0.11329250037670135,-0.1289234608411789
7.2,0.6260148286819458,-0.6946067810058594,-0.008466660976409912,-0.49676820635795593,0.013182803988456726,-0.14256130158901215
7.25,0.21600903570652008,0.4238920211791992,0.3113778829574585,-0.31566306948661804,0.11544221639633179,-0.22296062111854553
7.3,-0.27216243743896484,-0.1955242156982422,0.43482834100723267,-0.42883455753326416,0.1464468091726303,-0.21691849827766418
7.35,-0.20230403542518616,-0.8729696273803711,0.5559788942337036,-0.437085896730423,0.1672171950340271,-0.30228474736213684
7.4,-0.051280856132507324,-0.20386600494384766,0.5864514112472534,-0.19686222076416016,0.2076738476753235,-0.3064388632774353
7.45,0.361971378326416,0.14871501922607422,0.7144871950149536,-0.10814713686704636,0.11211560666561127,-0.21320365369319916
7.5,-0.09173867106437683,-0.28098011016845703,0.5529075860977173,-0.07052184641361237,0.13483355939388275,-0.35016143321990967
7.55,-0.7489425539970398,-0.6645717620849609,0.356609046459198,-0.10039471089839935,0.016556330025196075,0.01408422738313675
7.6,-0.24327972531318665,-0.15141582489013672,0.32075706124305725,0.12941472232341766,-0.21320846676826477,0.27653825283050537
7.65,0.29157817363739014,-0.14107513427734375,0.44126516580581665,0.25400832295417786,-0.23506024479866028,0.32652953267097473
7.7,0.09151867032051086,-0.5565128326416016,0.47357797622680664,0.3176838755607605,-0.14276689291000366,0.19443392753601074
7.75,-0.05223608389496803,-0.5424489974975586,0.18161605298519135,0.4063897430896759,-0.13132506608963013,0.29246655106544495
7.8,-0.2113853096961975,-0.17413043975830078,0.3335864543914795,0.5362764000892639,-0.1703091561794281,0.32167211174964905
7.85,0.2737869322299957,-0.37617969512939453,0.13562694191932678,0.5771463513374329,-0.23547546565532684,0.2857336103916168
7.9,0.1982525736093521,-0.7419548034667969,-0.2156677544116974,0.6085894703865051,-0.15997526049613953,0.28341084718704224
7.95,0.22265833616256714,-0.42314815521240234,-0.06705942749977112,0.7222253084182739,-0.10352868586778641,0.2975057363510132
8.0,0.1774323284626007,-0.19266128540039062,-0.2022045999765396,0.878675103187561,-0.08005313575267792,0.26875194907188416
8.05,0.1089109480381012,-0.0968465805053711,-0.17671458423137665,0.9141939878463745,-0.046706922352313995,0.18194285035133362
8.1,0.11590982973575592,0.39554882049560547,-0.3521610498428345,0.9143034219741821,-0.05656804144382477,0.13150420784950256
8.15,0.30342957377433777,0.6209325790405273,-0.28929609060287476,0.882217526435852,-0.014358673244714737,0.04398122429847717
8.2,0.7170628905296326,0.7052764892578125,-0.449271023273468,0.7212262749671936,0.06022878363728523,0.10425660014152527
8.25,0.7884124517440796,0.8087854385375977,-0.1722278594970703,0.6348940134048462,0.27273350954055786,0.22065651416778564
8.3,0.13306885957717896,0.5545263290405273,-0.38107752799987793,0.4512075185775757,0.5391069650650024,0.23075169324874878
8.35,-0.3921753466129303,0.16152477264404297,-1.0409023761749268,0.27493947744369507,0.28662773966789246,0.1429939866065979
8.4,0.3135584592819214,0.5464944839477539,-0.5020918846130371,0.40242427587509155,0.028330303728580475,0.04808132350444794
8.45,0.7004550695419312,0.7661895751953125,-0.4202917218208313,0.3183533847332001,0.006052255630493164,0.07714421302080154
8.5,0.4564706087112427,0.48729705810546875,-0.8068292737007141,0.08458862453699112,0.13932685554027557,0.13856381177902222
8.55,0.4550343155860901,0.4946002960205078,-0.6855828762054443,0.04262912645936012,0.15496987104415894,0.13789409399032593
8.6,0.2563033699989319,0.4958772659301758,-0.6917364001274109,0.013193624094128609,0.11823190003633499,0.057751014828681946
8.65,-0.06753456592559814,0.8345394134521484,-0.7429304122924805,-0.10151027888059616,-0.036667317152023315,-0.013550002127885818
8.7,0.4558357000350952,0.9218997955322266,-0.6022792458534241,-0.2619229257106781,-0.24288862943649292,-0.10428072512149811
8.75,0.4274137616157532,0.7870101928710938,-0.3888792097568512,-0.4248441457748413,-0.15914633870124817,-0.11348044872283936
8.8,0.3175658583641052,0.6227140426635742,-0.3491702973842621,-0.5776578187942505,-0.11234453320503235,-0.15576983988285065
8.85,0.12457304447889328,0.31458377838134766,-0.39170196652412415,-0.7126187086105347,-0.14274325966835022,-0.16069062054157257
8.9,0.2562432885169983,0.15730667114257812,-0.4813632071018219,-0.786630392074585,-0.2354285567998886,-0.16427618265151978
8.95,0.1872277855873108,-0.09905529022216797,-0.36106544733047485,-0.808082103729248,-0.26384973526000977,-0.12426605820655823
9.0,0.19605794548988342,-0.2915782928466797,-0.16443046927452087,-0.7682328224182129,-0.25245922803878784,-0.13454079627990723
9.05,-0.035152796655893326,-0.7282543182373047,0.11326773464679718,-0.6746301651000977,-0.23975329101085663,-0.12228350341320038
9.1,-0.32592523097991943,-0.604039192199707,0.45727646350860596,-0.5371030569076538,-0.19219884276390076,-0.18415294587612152
9.15,0.31690847873687744,-0.4673423767089844,0.8577386140823364,-0.4815571904182434,-0.16391311585903168,-0.21897834539413452
9.2,0.08419795334339142,-0.35901832580566406,0.16446071863174438,-0.4276851713657379,-0.010873503983020782,-0.20639538764953613
9.25,-0.22498174011707306,-0.6644372940063477,0.19911952316761017,-0.3538583815097809,-0.05138687789440155,-0.1086401715874672
9.3,-0.46705180406570435,-1.156712532043457,0.23046047985553741,-0.19049805402755737,-0.18029606342315674,0.060412585735321045
9.35,0.09949915111064911,-0.6113176345825195,0.33642664551734924,0.14777442812919617,-0.29087814688682556,0.28120702505111694
9.4,0.5085678100585938,-0.1542835235595703,0.4350437521934509,0.26594847440719604,-0.18721985816955566,0.32634156942367554
9.45,0.3200513422489166,-0.5074987411499023,0.16364580392837524,0.2133813500404358,-0.06518232822418213,0.2937542200088501
9.5,-0.15189026296138763,-0.14220237731933594,-0.07684950530529022,0.41470712423324585,0.009432613849639893,0.2383650541305542
9.55,0.20416510105133057,0.4435615539550781,0.2657429575920105,0.5336353778839111,-0.07770370692014694,0.1579606682062149
9.6,0.19231683015823364,0.2933368682861328,0.039782896637916565,0.4469022750854492,0.04123450070619583,0.06540581583976746
9.65,0.046331144869327545,0.28348827362060547,0.2010963410139084,0.4261842966079712,0.10946335643529892,0.014943763613700867
9.7,-0.28008440136909485,0.19885540008544922,0.14226044714450836,0.33644455671310425,0.10511533170938492,-0.07696804404258728
9.75,0.11504179239273071,0.7065143585205078,0.7099127769470215,0.2855644226074219,0.17445458471775055,-0.007081836462020874
9.8,0.028269469738006592,0.07874774932861328,0.571516752243042,0.17466296255588531,0.30620378255844116,0.12152636796236038
9.85,0.03923753276467323,-0.38168907165527344,-0.14741580188274384,0.22264862060546875,0.3906341791152954,0.08474573493003845
9.9,0.1727016270160675,-0.8611717224121094,-0.6078579425811768,0.30791258811950684,0.2474043071269989,0.18654832243919373
9.95,-0.4967581331729889,-0.2037792205810547,-0.5436098575592041,0.6376888751983643,0.1887529492378235,0.03011426329612732
10.0,0.460362046957016,0.11275291442871094,0.022442549467086792,0.5936821103096008,0.09958643466234207,-0.2193251997232437
10.05,0.21008381247520447,0.3072166442871094,-0.5027912855148315,0.4566662311553955,0.16653531789779663,-0.08993440866470337
10.1,0.2632159888744354,0.47552490234375,-0.5658687353134155,0.4571681022644043,0.2761607766151428,-0.14297643303871155
10.15,0.4908659756183624,0.5979337692260742,-0.36310556530952454,0.39779919385910034,0.2191145420074463,-0.061879679560661316
10.2,0.5158542394638062,0.5248098373413086,-0.4786771535873413,0.30687013268470764,0.07360999286174774,-0.011361435055732727
10.25,0.39807260036468506,0.5512981414794922,-0.6505694389343262,0.23617061972618103,0.30244848132133484,0.022985421121120453
10.3,0.11746805906295776,0.7018070220947266,-0.2863026559352875,0.21080732345581055,0.44573938846588135,-0.03476818650960922
10.35,0.6100667119026184,0.5134057998657227,-0.5366209149360657,0.004117886535823345,0.3420041799545288,-0.010521391406655312
10.4,0.3054859936237335,0.2387065887451172,-1.0248512029647827,-0.09166324883699417,0.2680552005767822,0.051774609833955765
10.45,-0.04389628767967224,-0.010600090026855469,-0.5600501298904419,-0.06251795589923859,0.21552681922912598,-0.013787847012281418
10.5,-0.003970608115196228,-0.45018863677978516,-0.5236830711364746,-0.13136491179466248,-0.020785508677363396,-0.07983129471540451
10.55,0.6936802268028259,-0.4614896774291992,-0.39870819449424744,-0.030196063220500946,-0.08569958806037903,-0.117428258061409
10.6,0.6230488419532776,-0.5838785171508789,-1.0215308666229248,-0.0015036429977044463,-0.07421571761369705,-0.001371101476252079
10.65,0.6170350313186646,-0.4240999221801758,-1.1778712272644043,0.07643497735261917,-0.046946555376052856,0.055959876626729965
10.7,0.5190168023109436,-0.14057636260986328,-0.9609405398368835,0.17600926756858826,-0.08072353899478912,0.041804876178503036
10.75,0.5185897350311279,0.3071928024291992,-0.8120037913322449,0.11806488037109375,-0.14209464192390442,0.030985962599515915
10.8,0.3381975293159485,0.7524442672729492,-0.8935964703559875,0.029255719855427742,-0.14758476614952087,-0.006621544249355793
10.85,0.23302708566188812,1.091451644897461,-0.6861976385116577,-0.07130925357341766,-0.11744824796915054,-0.04634089395403862
10.9,0.25014954805374146,1.0355987548828125,-0.4668786823749542,-0.2583167552947998,-0.20099179446697235,-0.034705840051174164
10.95,0.0829082727432251,0.8926496505737305,-0.11765140295028687,-0.31922170519828796,-0.151595339179039,-0.06680531054735184
11.0,0.09794943779706955,0.43284130096435547,0.10429274290800095,-0.4635615944862366,-0.11312395334243774,0.049914970993995667
11.05,-0.12839385867118835,0.09251880645751953,0.15774156153202057,-0.6304956078529358,-0.08220724761486053,0.05283856391906738
11.1,0.0779276192188263,0.15831375122070312,0.45138609409332275,-0.6234214305877686,-0.20969992876052856,0.02729034423828125
11.15,-0.1205194890499115,0.22928810119628906,0.8574193716049194,-0.5979347229003906,-0.056279029697179794,-0.012322813272476196
11.2,-0.4741424322128296,-0.3113870620727539,0.26984405517578125,-0.7628598809242249,-0.08579753339290619,-0.04521757364273071
11.25,-0.011837393045425415,-0.6338233947753906,0.5459158420562744,-0.6780046224594116,-0.3229500949382782,-0.08062407374382019
11.3,0.04865768551826477,-0.146453857421875,0.7268738746643066,-0.4208628237247467,-0.3695441782474518,-0.14678312838077545
11.35,0.012153595685958862,-0.4655494689941406,0.7691762447357178,-0.47507166862487793,-0.32645925879478455,-0.041026487946510315
11.4,-0.3936167359352112,-0.18289661407470703,0.7773928642272949,-0.3867846131324768,-0.21454103291034698,-0.028369367122650146
11.45,-0.19017359614372253,-0.011660575866699219,0.9104362726211548,-0.34650278091430664,-0.17168796062469482,-0.0203716903924942
11.5,-0.002904236316680908,0.07416248321533203,0.7816265821456909,-0.2613075375556946,-0.15693432092666626,0.01479368656873703
11.55,0.22840864956378937,-0.3518028259277344,0.2539032995700836,-0.18460246920585632,-0.023686140775680542,0.055065251886844635
11.6,0.008282855153083801,-0.6805353164672852,-0.21363750100135803,-0.045541394501924515,-0.08197645097970963,-0.006820337846875191
11.65,0.13129812479019165,-0.5623893737792969,0.08964239060878754,0.04521308094263077,-0.137098491191864,0.036965519189834595
11.7,0.38247114419937134,-0.21911144256591797,0.21365560591220856,0.2596583962440491,-0.04770858213305473,0.06680195778608322
11.75,-0.1205485388636589,-0.41350841522216797,-0.025876805186271667,0.21207018196582794,0.174703449010849,-0.04327540844678879
11.8,-0.15144561231136322,-1.1382761001586914,-0.06160422042012215,0.24093793332576752,0.057760145515203476,0.04286722093820572
11.85,0.02382669225335121,-1.0528078079223633,0.13120977580547333,0.5065414905548096,0.005100129172205925,0.18283842504024506
11.9,0.3455214202404022,-0.08791828155517578,0.2909766137599945,0.7655553221702576,-0.07271667569875717,0.13936805725097656
11.95,0.24906232953071594,-0.48781585693359375,-0.16492623090744019,0.6849740743637085,0.050751782953739166,0.162857785820961
12.0,0.1127571314573288,-0.13516616821289062,-0.5685114860534668,0.794596254825592,0.06164741516113281,0.1201738715171814
12.05,0.11954222619533539,0.14241600036621094,0.05021592974662781,0.8587533235549927,0.05569872260093689,0.08476591110229492
12.1,0.3122764825820923,0.20834827423095703,-0.11350155621767044,0.7818401455879211,0.0939808338880539,0.036537379026412964
12.15,0.08574703335762024,0.3620634078979492,-0.643295168876648,0.7769380807876587,0.12430965900421143,0.020104199647903442
12.2,-0.0661856085062027,0.9436264038085938,-0.23141823709011078,0.7850129008293152,0.06883405894041061,-0.024771839380264282
12.25,0.5731018781661987,1.1760015487670898,0.27435624599456787,0.6271705627441406,0.12330120801925659,-0.07996484637260437
12.3,0.1534842550754547,0.8690214157104492,-0.40825486183166504,0.351288765668869,0.1694311797618866,-0.018438145518302917
12.35,-0.25155389308929443,0.9979076385498047,-0.3230490982532501,0.29211440682411194,0.24696247279644012,-0.12341919541358948
12.4,0.5395594239234924,0.9039134979248047,0.2090085744857788,0.1565808653831482,0.17482969164848328,-0.10306361317634583
12.45,-0.16079312562942505,0.9867134094238281,-0.5978268384933472,-0.03273196890950203,0.20461329817771912,-0.10378187894821167
12.5,0.20317815244197845,0.8070535659790039,-0.7138347625732422,-0.17203426361083984,0.11536522209644318,-0.20404864847660065
12.55,0.7142467498779297,0.20822715759277344,-0.7263849377632141,-0.299859881401062,0.11018367111682892,-0.0635809376835823
12.6,-0.47759419679641724,0.5202960968017578,-0.9856014251708984,-0.33040159940719604,0.21562199294567108,-0.014542609453201294
12.65,0.1240474134683609,-0.050583839416503906,-0.43688851594924927,-0.4708854556083679,0.00035753846168518066,-0.0632832795381546
12.7,0.09758767485618591,0.13068485260009766,-0.7436829805374146,-0.4706401824951172,-0.008993532508611679,-0.07325008511543274
12.75,0.5535219311714172,-0.09342002868652344,-0.8425089716911316,-0.4943249225616455,-0.13535861670970917,-0.04966399073600769
12.8,0.49283090233802795,-0.09191322326660156,-0.5401596426963806,-0.4310726523399353,0.006293446756899357,0.134809672832489
12.85,0.002239406108856201,0.17360401153564453,-0.5936750769615173,-0.4198341369628906,0.013446180149912834,0.17212876677513123
12.9,0.06836545467376709,0.07999801635742188,-0.3982061743736267,-0.44135624170303345,-0.04888959974050522,0.13545909523963928
12.95,0.18545274436473846,0.024910926818847656,-0.3952137529850006,-0.46689683198928833,-0.17600645124912262,0.08276621997356415
13.0,0.3097599148750305,0.14795303344726562,-0.28985631465911865,-0.5212330222129822,-0.2847670912742615,0.023743867874145508
13.05,0.3552231192588806,0.022095680236816406,-0.1675242781639099,-0.5720736980438232,-0.37414929270744324,0.008200973272323608
13.1,0.27494943141937256,-0.6109771728515625,-0.08650663495063782,-0.5908761024475098,-0.35745927691459656,-0.013828575611114502
13.15,-0.08257542550563812,-0.0921182632446289,0.07047164440155029,-0.49777752161026,-0.04540812969207764,-0.14086689054965973
13.2,0.1534702181816101,-0.21105098724365234,-0.06606754660606384,-0.5897583365440369,-0.11797740310430527,-0.07136166095733643
13.25,0.16301599144935608,-0.5489053726196289,-0.04662880674004555,-0.48740142583847046,-0.2228054404258728,0.01306559145450592
13.3,0.06739877909421921,-0.1763916015625,0.20495246350765228,-0.28073400259017944,-0.17117080092430115,0.0835454910993576
13.35,0.5237676501274109,-0.018462181091308594,0.3981980085372925,-0.2044370323419571,-0.1681138128042221,0.1345473825931549
13.4,0.6969760656356812,-0.42214012145996094,0.09579208493232727,-0.14619329571723938,-0.052883781492710114,0.1940457671880722
13.45,0.37464064359664917,-0.17984390258789062,-0.12058530747890472,-0.010091140866279602,0.18082530796527863,0.24965524673461914
13.5,0.19379641115665436,-0.012587547302246094,0.043280430138111115,0.036668479442596436,0.26474857330322266,0.2929283380508423
13.55,0.015299485996365547,0.04646015167236328,0.037219755351543427,0.03528807312250137,0.2809402346611023,0.24116268754005432
13.6,0.12809568643569946,0.16562747955322266,-0.13793125748634338,-0.010725341737270355,0.183621346950531,0.17471785843372345
13.65,0.23122857511043549,0.2377643585205078,-0.24991516768932343,-0.022916004061698914,0.14896972477436066,0.09967651963233948
13.7,0.09623344987630844,0.35794734954833984,-0.25512799620628357,-0.10299596190452576,0.2077045887708664,0.07955330610275269
13.75,-0.26455140113830566,0.2825298309326172,-0.31596970558166504,-0.16637378931045532,0.19348971545696259,0.02066822350025177
13.8,-0.09017643332481384,0.1571645736694336,-0.13504821062088013,-0.22653788328170776,0.04512479528784752,-0.04655814915895462
13.85,0.0836932435631752,0.1161642074584961,-0.18560731410980225,-0.25211241841316223,-0.051214855164289474,-0.06418932974338531
13.9,0.007106006145477295,0.32999134063720703,-0.17389589548110962,-0.29152417182922363,-0.09333570301532745,-0.10344938188791275
13.95,0.05257946252822876,0.27150821685791016,-0.3124541640281677,-0.38504061102867126,-0.15031616389751434,-0.09807801246643066
14.0,0.10517032444477081,0.23060321807861328,-0.29704853892326355,-0.4312308728694916,-0.23036636412143707,-0.09322336316108704
14.05,0.0063907429575920105,0.3049602508544922,-0.21117003262043,-0.47215479612350464,-0.32299402356147766,-0.1226552426815033
14.1,-0.056886233389377594,0.11749935150146484,-0.22090858221054077,-0.5490859150886536,-0.44471198320388794,-0.14036421477794647
14.15,0.23573702573776245,0.03713798522949219,-0.3227525055408478,-0.58714359998703,-0.4857686161994934,-0.17058661580085754
14.2,0.26813825964927673,0.03451251983642578,-0.2764173746109009,-0.6063553094863892,-0.46135956048965454,-0.20391814410686493
14.25,0.3194698691368103,-0.0008955001831054688,-0.18113017082214355,-0.6633456945419312,-0.42274901270866394,-0.21165825426578522
14.3,0.03178270161151886,-0.05853557586669922,-0.32511013746261597,-0.6168491244316101,-0.3521154522895813,-0.25737443566322327
14.35,-0.19053947925567627,-0.08280372619628906,-0.28604114055633545,-0.5973794460296631,-0.3583546578884125,-0.3016967177391052
14.4,-0.08493626117706299,0.03790092468261719,-0.09871096909046173,-0.4799758195877075,-0.5337573885917664,-0.3031599223613739
14.45,-0.15767718851566315,-0.35868358612060547,-0.23727957904338837,-0.42683836817741394,-0.719955325126648,-0.25496140122413635
14.5,0.4871096611022949,-0.44026851654052734,-0.07372494041919708,-0.3537711799144745,-0.8490167856216431,-0.1618163287639618
14.55,0.4825500547885895,-0.19142913818359375,0.088648721575737,-0.3096070885658264,-0.6828632950782776,-0.11961393058300018
14.6,-0.0021928027272224426,0.024433135986328125,0.1420205980539322,-0.23142564296722412,-0.5008279085159302,-0.12681348621845245
14.65,-0.061559103429317474,-0.0876016616821289,0.32130661606788635,-0.18438708782196045,-0.4052479565143585,-0.08399844914674759
14.7,0.028945347294211388,0.12984848022460938,-0.09349309653043747,-0.10656483471393585,-0.29699134826660156,-0.06757868826389313
14.75,0.13229645788669586,-0.0010423660278320312,0.0029524005949497223,-0.13512572646141052,-0.26706382632255554,-0.021609622985124588
14.8,0.07042309641838074,-0.11314582824707031,0.1316903531551361,-0.12306226044893265,-0.17196744680404663,0.028997644782066345
14.85,0.30052801966667175,-0.1050405502319336,0.3141247630119324,-0.11417650431394577,-0.038643911480903625,0.1326359212398529
14.9,0.32639771699905396,0.16319656372070312,0.4781791865825653,-0.04160933196544647,0.17741641402244568,0.14113986492156982
14.95,0.24248212575912476,0.5519723892211914,0.499357670545578,0.09903858602046967,0.3244977295398712,0.16501882672309875
15.0,0.13871198892593384,0.6096200942993164,0.15728911757469177,0.14656591415405273,0.41265803575515747,0.2402055710554123
15.05,0.03418441116809845,0.42165184020996094,0.0006687622517347336,0.2111148238182068,0.36103957891464233,0.32651346921920776
15.1,0.7694216370582581,-0.23523330688476562,-0.813218355178833,0.25509554147720337,0.26909834146499634,0.32013872265815735
15.15,1.5672131776809692,-0.642399787902832,-1.3978867530822754,0.39948150515556335,0.3000866770744324,0.2539822459220886
15.2,1.423961877822876,-0.016908645629882812,-1.3942431211471558,0.5666736364364624,0.4636862874031067,0.13824015855789185
15.25,1.067387342453003,1.0360994338989258,-0.6097193360328674,0.6140727400779724,0.7304632663726807,0.10648927092552185
15.3,0.8363446593284607,0.0005903244018554688,-0.9600523114204407,0.3198310136795044,0.7699556350708008,0.0545644611120224
15.35,0.845565140247345,-0.612208366394043,-0.9982012510299683,0.16422413289546967,0.760886549949646,-0.012855954468250275
15.4,0.7606188058853149,-0.32343006134033203,-0.23413679003715515,0.23905053734779358,0.7762707471847534,0.006478659808635712
15.45,0.5097274780273438,-0.1260986328125,-0.07697868347167969,0.2599008083343506,0.5811036825180054,0.024572141468524933
15.5,0.5693138837814331,0.021231651306152344,-0.07826113700866699,0.1875733882188797,0.41733336448669434,-0.03467719256877899
15.55,0.6582440137863159,-0.17992782592773438,-0.13737353682518005,0.03612469136714935,0.2593773603439331,-0.05478045344352722
15.6,0.047571949660778046,0.5186777114868164,-0.13962537050247192,-0.05118056386709213,0.13238540291786194,-0.13417258858680725
15.65,0.1912553310394287,1.6130237579345703,0.18739144504070282,-0.31242668628692627,-0.08088556677103043,-0.19233901798725128
15.7,-0.2701234221458435,1.1320571899414062,0.33285561203956604,-0.6965888738632202,-0.1570834070444107,-0.2867014408111572
15.75,-0.5321551561355591,-1.1678886413574219,-0.6892778873443604,-0.7695598602294922,-0.3417178988456726,-0.31052762269973755
15.8,-0.13908886909484863,-0.9150581359863281,-1.0631318092346191,-0.5180194973945618,-0.5257424712181091,-0.27382567524909973
15.85,0.431170254945755,0.21505451202392578,-1.03128182888031,-0.14068703353405,-0.6892752051353455,-0.19555547833442688
15.9,-0.5010442733764648,0.16873550415039062,-0.8765596151351929,-0.10586945712566376,-0.5976903438568115,-0.1810198724269867
15.95,-0.8309536576271057,0.3429708480834961,-0.6632087826728821,-0.236440509557724,-0.3312341570854187,-0.14809076488018036
16.0,-0.19619962573051453,0.9763307571411133,-0.35975831747055054,-0.12638825178146362,-0.17107665538787842,-0.10039975494146347
16.05,0.057494595646858215,0.2929220199584961,-0.19746151566505432,-0.10283562541007996,-0.04071851819753647,0.04962421953678131
16.1,-0.4102090299129486,-0.26392173767089844,-0.3370744585990906,-0.035196948796510696,0.10166297852993011,0.1294512152671814
16.15,-0.3798159658908844,-0.5271768569946289,-0.1251281201839447,0.010473422706127167,0.2578052878379822,0.10503273457288742
16.2,-0.46111929416656494,0.018850326538085938,-0.46224620938301086,0.0587390661239624,0.4377690553665161,-0.022741170600056648
16.25,0.20794862508773804,1.2460222244262695,-0.4957691431045532,-0.005918780341744423,0.6541594862937927,-0.014094059355556965
16.3,0.4911614656448364,1.3432493209838867,-0.3881532549858093,-0.11862173676490784,0.7607344388961792,0.07467467337846756
16.35,0.23371940851211548,-0.4436969757080078,-0.6263487339019775,-0.2950807213783264,0.7616807818412781,0.1397770643234253
16.4,0.24284645915031433,-0.8430652618408203,-1.219295859336853,-0.08677146583795547,0.6323152184486389,0.1774595081806183
16.45,0.4054127037525177,-0.036124229431152344,-1.0699039697647095,0.013172421604394913,0.5763684511184692,0.08332878351211548
16.5,0.43442022800445557,0.22696685791015625,-1.14143705368042,-0.03771600127220154,0.41178810596466064,0.14907804131507874
16.55,0.6598432660102844,0.2710084915161133,-1.03956139087677,-0.09577273577451706,0.36717507243156433,0.14620964229106903
16.6,0.7187516689300537,-0.0020780563354492188,-0.9633678793907166,-0.158112034201622,0.3706112504005432,0.13749165832996368
16.65,0.6347439289093018,0.03333568572998047,-0.6855490207672119,-0.22627636790275574,0.3898952603340149,0.12130999565124512
16.7,0.24976199865341187,-0.25058650970458984,-0.6740734577178955,-0.3065968155860901,0.31120049953460693,0.11519184708595276
16.75,0.49734100699424744,-0.5652952194213867,-0.04099282622337341,-0.2812008857727051,0.233944833278656,0.10662522912025452
16.8,0.4375027120113373,0.5324554443359375,-0.0020848214626312256,-0.2290796935558319,0.2991795539855957,0.039016418159008026
16.85,0.7313255071640015,0.4018535614013672,-0.3237840533256531,-0.18161851167678833,0.31465938687324524,-0.12026370316743851
16.9,0.3872588276863098,-0.5559539794921875,-0.37534892559051514,-0.04585780203342438,-0.016704890877008438,-0.16707941889762878
16.95,-0.1289028525352478,-0.03009510040283203,-0.5916587114334106,-0.08693674206733704,0.010525702498853207,0.030296489596366882
17.0,0.1785954385995865,0.8809328079223633,-0.2694435119628906,-0.1373625546693802,-0.08191628009080887,0.21063369512557983
17.05,0.030391022562980652,0.2010183334350586,0.16911493241786957,-0.15588697791099548,-0.23096375167369843,0.14171424508094788
17.1,0.01920938678085804,-0.5941381454467773,0.002352450042963028,-0.08200038224458694,-0.4248639941215515,0.137767493724823
17.15,0.3691096603870392,-0.0516357421875,-0.19486261904239655,0.03468914330005646,-0.5921812057495117,0.10715246200561523
17.2,0.5531913042068481,0.33876609802246094,-0.3391576409339905,-0.007074061781167984,-0.642497181892395,0.11601090431213379
17.25,0.450744092464447,0.1800394058227539,-0.35159942507743835,-0.038367923349142075,-0.608477771282196,0.05609859526157379
17.3,0.43314170837402344,-0.21601486206054688,-0.15388411283493042,-0.0849132090806961,-0.5840094089508057,0.08842135965824127
17.35,0.39331749081611633,0.08301162719726562,-0.2658376693725586,-0.01064639538526535,-0.513781726360321,0.03636845946311951
17.4,0.24363180994987488,0.1224050521850586,-0.26388028264045715,-0.0069510070607066154,-0.496029257774353,-0.009237196296453476
17.45,0.35413604974746704,-0.0038747787475585938,-0.3179062008857727,-0.03949461877346039,-0.45852476358413696,0.02668778970837593
17.5,0.597419023513794,0.15792369842529297,-0.0007679164409637451,-0.007305330131202936,-0.4308925271034241,0.009235570207238197
17.55,0.36461925506591797,0.11276531219482422,-0.1297595351934433,-0.00841774046421051,-0.369629830121994,0.0014271799009293318
17.6,0.2505536675453186,-0.09434127807617188,-0.2984737157821655,-0.004200505092740059,-0.29842251539230347,0.0007583467522636056
17.65,0.48364630341529846,0.07462310791015625,-0.017249196767807007,0.052636414766311646,-0.26277703046798706,-0.017064807936549187
17.7,0.16086184978485107,0.022667884826660156,-0.3792201578617096,0.054139167070388794,-0.1720711588859558,-0.02932346984744072
17.75,-0.057701028883457184,0.16565799713134766,-0.2857223153114319,0.08340762555599213,-0.1330752968788147,0.00044777989387512207
17.8,0.2886850833892822,0.6007595062255859,-0.13725265860557556,0.10414403676986694,-0.12562713027000427,0.011564228683710098
17.85,0.08471368253231049,0.18222427368164062,-0.18191437423229218,0.06212695688009262,-0.07927588373422623,0.043118707835674286
17.9,0.21650364995002747,-0.0103912353515625,-0.06645990163087845,0.012204421684145927,-0.09584476053714752,0.07243424654006958
17.95,0.2758159637451172,-0.08138751983642578,-0.19459348917007446,0.0881781131029129,0.002490781247615814,0.016326505690813065
18.0,0.2098807543516159,0.11850643157958984,-0.1679334193468094,0.0964985191822052,0.06972497701644897,0.010468162596225739
18.05,0.1777178943157196,0.03785896301269531,-0.20237943530082703,0.0702100545167923,0.13071393966674805,0.04795614257454872
18.1,0.21224498748779297,0.11130905151367188,-0.144056499004364,0.07172440737485886,0.20329591631889343,0.0838795006275177
18.15,-0.09704780578613281,0.17889404296875,-0.10912191867828369,0.07829675823450089,0.27593177556991577,0.07052993774414062
18.2,-0.010982878506183624,-0.02538776397705078,-0.15152785181999207,0.07127069681882858,0.22151416540145874,0.10442604869604111
18.25,0.3202807605266571,0.2306528091430664,-0.0518127977848053,0.06926476210355759,0.2325044572353363,0.12223903834819794
18.3,-0.0026968494057655334,0.2510499954223633,-0.10093673318624496,0.08050277084112167,0.2617168426513672,0.07001382112503052
18.35,0.07828611135482788,-0.18297672271728516,-0.16400206089019775,-0.003601968288421631,0.23564380407333374,0.11713287979364395
18.4,0.3616957664489746,-0.02261066436767578,-0.09452125430107117,0.04770275950431824,0.2275967001914978,0.08872668445110321
18.45,0.35036924481391907,0.5617990493774414,0.05051569640636444,0.09313942492008209,0.24834807217121124,0.060314059257507324
18.5,0.17343811690807343,0.056761741638183594,-0.18533216416835785,-0.020957401022315025,0.2576984763145447,0.06412132829427719
18.55,0.31461888551712036,0.12859439849853516,-0.41667619347572327,-0.01738009974360466,0.2925283908843994,-0.0005329744890332222
18.6,0.38016277551651,0.1984233856201172,-0.4580049216747284,-0.03439024090766907,0.2755056619644165,-0.04971463233232498
18.65,0.08841890096664429,0.21080780029296875,-0.4527466297149658,-0.09415946155786514,0.2824704647064209,0.0045736245810985565
18.7,0.03671104460954666,0.23219585418701172,-0.27885907888412476,-0.10252095758914948,0.2324288934469223,-0.024998825043439865
18.75,0.17756915092468262,-0.032813072204589844,-0.42675021290779114,-0.15569745004177094,0.19898076355457306,0.012998305261135101
18.8,0.4255303740501404,0.2958717346191406,-0.35896313190460205,-0.10452603548765182,0.1947329342365265,-0.007639281451702118
18.85,0.46657195687294006,0.52392578125,-0.4418090283870697,-0.10070189833641052,0.25179797410964966,0.01090262085199356
18.9,0.41997790336608887,0.07260513305664062,-0.43144193291664124,-0.18818135559558868,0.2986142933368683,-0.05375523865222931
18.95,0.2670329213142395,-0.3094663619995117,-0.4530540108680725,-0.2019408494234085,0.28719785809516907,-0.08681027591228485
19.0,0.46642419695854187,0.43031978607177734,-0.4173393249511719,-0.11574120074510574,0.3362939655780792,-0.12345518171787262
19.05,0.3030152916908264,0.062033653259277344,-0.3592084050178528,-0.1553967148065567,0.3396117687225342,-0.14744803309440613
19.1,0.2805587351322174,-0.3469572067260742,-0.1556522250175476,-0.22914379835128784,0.32964715361595154,-0.11077435314655304
19.15,0.5273627042770386,-0.42595577239990234,-0.30186378955841064,-0.17258226871490479,0.4754869043827057,-0.08673934638500214
19.2,0.45139914751052856,-0.0774393081665039,-0.18272660672664642,0.004399627447128296,0.5323087573051453,-0.1380508691072464
19.25,-0.3504907488822937,0.5385828018188477,-0.1665782481431961,0.09235586225986481,0.4828243851661682,-0.18582558631896973
19.3,-0.10335872322320938,0.4363737106323242,-0.33034706115722656,0.05587024986743927,0.30976980924606323,-0.016177110373973846
19.35,0.3054139316082001,0.16228008270263672,-0.48469603061676025,-0.041446395218372345,0.24600553512573242,0.04749632999300957
19.4,0.3111990988254547,0.13566875457763672,-0.39356642961502075,-0.12344588339328766,0.3328785002231598,0.013242755085229874
19.45,0.21035806834697723,0.0933370590209961,-0.1875499188899994,-0.1652870774269104,0.3643719553947449,0.020051904022693634
19.5,0.1013285219669342,-0.1906290054321289,-0.24915042519569397,-0.19372113049030304,0.33217906951904297,0.036049023270606995
19.55,0.06773294508457184,0.015085220336914062,-0.0713796392083168,-0.11555494368076324,0.2800801396369934,-0.033513180911540985
19.6,0.00997289177030325,0.15299415588378906,0.03601190447807312,-0.09293567389249802,0.16906793415546417,-0.02266778238117695
19.65,0.1764596402645111,-0.13669490814208984,-0.14818692207336426,-0.05619726702570915,0.07183259725570679,0.052218224853277206
19.7,0.32880347967147827,0.22364044189453125,-0.12586839497089386,0.04193875938653946,0.09157758951187134,0.007269003428518772
19.75,0.2555449306964874,0.30092716217041016,-0.031555838882923126,0.07368284463882446,0.09693340957164764,-0.00817577913403511
19.8,0.06554628908634186,0.13594341278076172,-0.08866848051548004,0.07669899612665176,0.06604909151792526,-0.0039807334542274475
19.85,0.3167389929294586,-0.060341835021972656,-0.21642062067985535,0.11845607310533524,-0.023413140326738358,0.021440304815769196
19.9,0.32143598794937134,0.0001888275146484375,-0.24963980913162231,0.18023830652236938,-0.03241296485066414,0.012464575469493866
19.95,0.33440446853637695,0.09285831451416016,-0.22413849830627441,0.22182467579841614,-0.025693818926811218,-0.0349847748875618
20.0,0.1042642742395401,0.18993091583251953,-0.19005906581878662,0.24373291432857513,-0.04077225551009178,-0.05738985538482666
20.05,0.09910547733306885,0.05784416198730469,-0.2256811261177063,0.237674281001091,-0.09321190416812897,-0.03958021104335785
20.1,0.2126232385635376,0.038222312927246094,-0.2852592468261719,0.21865874528884888,-0.10085022449493408,-0.03756323456764221
20.15,0.386526882648468,0.011261940002441406,-0.29495662450790405,0.2403104305267334,-0.09973417222499847,-0.014458321034908295
20.2,0.17882780730724335,0.04993438720703125,-0.35501259565353394,0.291808545589447,-0.07882300019264221,-0.02269388735294342
20.25,0.14999639987945557,0.15056514739990234,-0.3111346662044525,0.24928422272205353,-0.03922013193368912,-0.0316421315073967
20.3,0.0615498349070549,0.1359872817993164,-0.2680179476737976,0.22161860764026642,-0.07645466178655624,0.005595281720161438
20.35,0.09652365744113922,0.0943918228149414,-0.27221232652664185,0.22340768575668335,-0.08527553081512451,-0.010355845093727112
20.4,0.1695195883512497,0.14394855499267578,-0.3543846905231476,0.21107125282287598,-0.0801214724779129,0.008395470678806305
20.45,0.2540188133716583,0.2709493637084961,-0.31785446405410767,0.15864545106887817,-0.04958927631378174,-0.01605507731437683
20.5,0.06914205849170685,0.16125202178955078,-0.3765021860599518,0.11033743619918823,-0.002900911495089531,-0.03225478529930115
20.55,0.13396811485290527,-0.0019779205322265625,-0.3529151380062103,0.06955744326114655,-0.02564431168138981,0.05042827129364014
20.6,0.010235369205474854,0.08252811431884766,-0.33054158091545105,0.07377387583255768,-0.0023029055446386337,-0.029995014891028404
20.65,0.03696204721927643,0.1188497543334961,-0.31681880354881287,0.039464015513658524,-0.020795587450265884,-0.03695163503289223
20.7,0.23202501237392426,0.0843353271484375,-0.22540482878684998,-0.012872003018856049,-0.007369177415966988,-0.02187531255185604
20.75,0.2824839651584625,0.1320352554321289,-0.19982102513313293,0.0006685629487037659,0.013006516732275486,-0.022555537521839142
20.8,0.0850188136100769,0.19647216796875,-0.21604837477207184,-0.01709570176899433,0.04082227125763893,-0.037635765969753265
20.85,0.0975443422794342,0.06564998626708984,-0.16257870197296143,-0.07227857410907745,0.025352604687213898,0.007196050137281418
20.9,0.13270550966262817,0.23671245574951172,-0.18756072223186493,-0.08023270964622498,0.02511139214038849,-0.008151460438966751
20.95,0.2003103792667389,0.05614280700683594,-0.17577777802944183,-0.10172928869724274,0.029342003166675568,0.033700697124004364
21.0,0.16020093858242035,0.06792354583740234,-0.21475163102149963,-0.09757475554943085,0.04295727610588074,0.02324734255671501
21.05,0.22575396299362183,0.03641223907470703,-0.20274461805820465,-0.08737286925315857,0.03693918138742447,0.013961948454380035
21.1,0.26875391602516174,0.16754817962646484,-0.13691075146198273,-0.07974210381507874,0.03669534996151924,0.013226032257080078
21.15,0.24988983571529388,0.24084091186523438,-0.23296725749969482,-0.11084817349910736,0.049714505672454834,0.007843602448701859
21.2,0.28907477855682373,0.18241500854492188,-0.1672755628824234,-0.11796210706233978,0.017605697736144066,0.022075418382883072
21.25,0.1534966677427292,0.14270305633544922,-0.17624568939208984,-0.10905224084854126,0.020862098783254623,-0.00695197656750679
21.3,0.0877951979637146,0.08074569702148438,-0.17303510010242462,-0.1258816123008728,0.03232422471046448,-0.02267805114388466
21.35,0.0076861195266246796,0.07973194122314453,-0.09067842364311218,-0.12336426228284836,0.016492802649736404,-0.04449654370546341
21.4,0.1664000153541565,0.11363697052001953,-0.12867876887321472,-0.10981212556362152,-0.013132844120264053,-0.05306575447320938
21.45,0.14720769226551056,0.04717731475830078,-0.17169924080371857,-0.09429041296243668,-0.017147943377494812,-0.023791592568159103
21.5,0.3241783678531647,-0.07075309753417969,-0.006707191467285156,-0.09288803488016129,-0.02114267274737358,-0.014933884143829346
21.55,0.2121877372264862,0.16002368927001953,-0.1112121045589447,-0.03694623336195946,-0.0015426836907863617,-0.07671567052602768
21.6,0.20390130579471588,0.015392303466796875,-0.15214169025421143,-0.04472571611404419,-0.020835652947425842,-0.04190331697463989
21.65,0.15880316495895386,0.07126903533935547,-0.16717784106731415,-0.04369106516242027,-0.021210992708802223,-0.03195995092391968
21.7,0.09308724850416183,0.12181758880615234,-0.26445096731185913,-0.025699026882648468,-0.01983492821455002,-0.031041176989674568
21.75,0.2512243986129761,0.1445150375366211,-0.14894676208496094,-0.03505265712738037,-0.045248329639434814,-0.018151532858610153
21.8,0.015890605747699738,0.03909492492675781,-0.2611083984375,-0.03843264281749725,-0.04681555554270744,-0.009636900387704372
21.85,-0.00028946995735168457,0.1082010269165039,-0.29657262563705444,-0.04616282880306244,-0.041897665709257126,-0.04113900288939476
21.9,0.054957009851932526,0.049979209899902344,-0.24343840777873993,-0.09380772709846497,-0.05590308830142021,-0.06427691131830215
21.95,0.21134334802627563,-0.21078205108642578,-0.2258400022983551,-0.12079133093357086,-0.08071795105934143,-0.03995167464017868
22.0,0.1613548845052719,0.36177921295166016,-0.1736724078655243,-0.03258339688181877,-0.058625027537345886,-0.09591804444789886
22.05,0.25433850288391113,0.12068748474121094,-0.29372337460517883,-0.07447394728660583,-0.06719090044498444,-0.0006691180169582367
22.1,0.12679855525493622,0.041787147521972656,-0.3419160842895508,-0.09614081680774689,-0.01859288662672043,-0.038620475679636
22.15,0.024007752537727356,0.0707387924194336,-0.1587459295988083,-0.048991695046424866,-0.003378096967935562,-0.03379426524043083
22.2,0.03400512784719467,0.11639118194580078,-0.07661255449056625,-0.01954207383096218,-0.033751532435417175,-0.04067307338118553
22.25,0.09733022749423981,0.0038061141967773438,-0.1591481864452362,-0.006179717369377613,-0.04025327414274216,-0.03182189166545868
22.3,0.1874726265668869,0.04092121124267578,-0.12363368272781372,0.02305971458554268,-0.025578467175364494,-0.007232594303786755
22.35,0.1290103793144226,0.09909534454345703,-0.26499563455581665,0.04214772954583168,-0.026586733758449554,0.0016600098460912704
22.4,0.24325475096702576,0.0911550521850586,-0.24333395063877106,0.05749955400824547,-0.0006231386214494705,-0.00020769238471984863
22.45,0.2660837769508362,0.11362075805664062,-0.26450902223587036,0.04589463770389557,0.04150385037064552,-0.0396784208714962
22.5,0.30191829800605774,0.2051868438720703,-0.2508656978607178,-0.007310815155506134,0.13087910413742065,-0.06146674603223801
22.55,0.41970759630203247,0.1198740005493164,-0.29831165075302124,-0.061099667102098465,0.25636470317840576,-0.07897135615348816
22.6,0.0504433698952198,0.19709396362304688,-0.06179722771048546,-0.1074267104268074,0.33303582668304443,-0.03834928944706917
22.65,-0.13869699835777283,0.23375511169433594,-0.1300562471151352,-0.08987687528133392,0.3534127473831177,0.0027790814638137817
22.7,-0.2721431851387024,-0.1403055191040039,0.041040919721126556,0.036977943032979965,0.1803344339132309,0.13284368813037872
22.75,0.21285080909729004,0.1952056884765625,0.4863944947719574,0.24708279967308044,0.08643760532140732,0.08716648817062378
22.8,0.017819896340370178,0.022039413452148438,0.3767127990722656,0.3068538010120392,0.09610265493392944,0.15950056910514832
22.85,-0.24665801227092743,-0.27699851989746094,0.02243173122406006,0.47644752264022827,-0.03440368175506592,0.11404292285442352
22.9,0.0886118933558464,0.0050811767578125,-0.06987398862838745,0.6348373293876648,-0.20704276859760284,0.05668509006500244
22.95,0.10141558945178986,-0.2630128860473633,-0.17867326736450195,0.6362377405166626,-0.2679494619369507,0.05451193451881409
23.0,0.23789609968662262,0.05667877197265625,-0.20140254497528076,0.6730096340179443,-0.2566240429878235,-0.03799843788146973
23.05,0.19059383869171143,0.1427450180053711,-0.3641200065612793,0.5851876735687256,-0.2522691488265991,-0.004547119140625
23.1,0.4096258282661438,0.09863090515136719,-0.47279638051986694,0.4993421733379364,-0.14590303599834442,-0.006506040692329407
23.15,0.3573854863643646,0.4056863784790039,-0.3840356171131134,0.46548521518707275,-0.057443588972091675,-0.020332202315330505
23.2,0.16953298449516296,0.05212688446044922,-0.47543784976005554,0.32435181736946106,-0.009070329368114471,0.023639783263206482
23.25,0.3794882297515869,0.3270845413208008,-0.39870256185531616,0.24095621705055237,0.027236593887209892,-0.028899095952510834
23.3,0.3320983350276947,0.22760868072509766,-0.44323983788490295,0.1250658482313156,0.07987960427999496,-0.0031275302171707153
23.35,0.10349726676940918,0.22092914581298828,-0.2543545365333557,0.03693000599741936,0.11399462819099426,-0.008725129999220371
23.4,0.03358588367700577,0.15320396423339844,-0.23430314660072327,-0.007458521984517574,0.09600791335105896,-0.029620010405778885
23.45,0.11044532060623169,0.18155670166015625,-0.03606832027435303,-0.03857721388339996,0.06375113874673843,-0.031251486390829086
23.5,0.09207332879304886,0.16706085205078125,-0.025278229266405106,-0.03558194264769554,0.03669193759560585,-0.05534161627292633
23.55,0.040787216275930405,0.0714578628540039,-0.07405409961938858,-0.0422065332531929,0.019695112481713295,-0.02507898584008217
23.6,0.1515897959470749,0.22784042358398438,-0.10038170218467712,-0.03677752614021301,-0.008525116369128227,-0.010287357494235039
23.65,0.03727148100733757,0.15898799896240234,-0.0646369680762291,-0.025005394592881203,-0.020306287333369255,0.009231877513229847
23.7,-0.06096880882978439,-0.012486457824707031,-0.08674014359712601,-0.027918227016925812,-0.03805583715438843,0.02701822854578495
23.75,0.07017095386981964,0.08256340026855469,-0.09818330407142639,0.01320386491715908,-0.04885409027338028,0.005403352901339531
23.8,0.06440886110067368,0.04355335235595703,-0.13525183498859406,0.017102623358368874,-0.06567419320344925,0.034936144948005676
23.85,0.050824351608753204,-0.001255035400390625,-0.07730577886104584,0.02684861421585083,-0.06261832267045975,0.04600822180509567
23.9,0.07798267155885696,0.10801315307617188,-0.0024205297231674194,0.041289642453193665,-0.057232752442359924,0.05153829604387283
23.95,-0.04755953326821327,0.19794368743896484,-0.13375243544578552,0.05797024816274643,-0.08089116215705872,0.02891552448272705
24.0,0.06180696561932564,-0.030975341796875,-0.1349579095840454,0.05400814861059189,-0.11144579946994781,0.02882712334394455
24.05,0.014563016593456268,0.005614280700683594,-0.1906556338071823,0.05658155679702759,-0.058211181312799454,-0.0143035389482975
24.1,0.1354903131723404,0.044640541076660156,-0.12328620254993439,0.02455008402466774,-0.08491292595863342,0.012082509696483612
24.15,0.1112164855003357,0.21076107025146484,-0.10841477662324905,0.04495634883642197,-0.0582151859998703,-0.01876777783036232
24.2,0.08839234709739685,0.13608646392822266,-0.15770211815834045,-0.003952892497181892,-0.04968187212944031,0.014823470264673233
24.25,0.12141112983226776,0.0791921615600586,-0.18556950986385345,-0.033073790371418,-0.03660226985812187,0.02552483230829239
24.3,0.07576168328523636,0.10168266296386719,-0.07721865177154541,-0.012609627097845078,0.008086930960416794,-0.0013995296321809292
24.35,-0.0068697743117809296,0.019184112548828125,-0.01219681091606617,-0.013050928711891174,-0.014407062903046608,0.021594885736703873
24.4,0.0623200386762619,0.08955669403076172,-0.07521876692771912,-0.015343215316534042,0.008607946336269379,-0.005279822740703821
24.45,-0.024081647396087646,0.05557441711425781,-0.2254972606897354,-0.029433583840727806,0.01334589347243309,-0.004070735536515713
24.5,0.0756523609161377,0.08869266510009766,-0.06410173326730728,-0.03087732382118702,-0.008004952222108841,-0.004787837155163288
24.55,0.10658872127532959,0.07469463348388672,-0.035808246582746506,-0.012931467965245247,-0.0037553682923316956,-0.02274196594953537
24.6,0.09925296902656555,0.07246017456054688,-0.07217368483543396,-0.01883181743323803,-0.013625928200781345,-0.0339895524084568
24.65,0.09049798548221588,0.12840652465820312,-0.09146618843078613,-0.026021219789981842,-0.02908831275999546,-0.026328345760703087
24.7,0.15361443161964417,0.1694927215576172,-0.11444197595119476,-0.010968158952891827,-0.0035502975806593895,-0.027599075809121132
24.75,0.09905806928873062,0.10963153839111328,-0.1029532179236412,-0.028720125555992126,0.0005958355031907558,-0.0016939612105488777
24.8,0.05178234726190567,0.014865875244140625,-0.12204327434301376,-0.0211236122995615,0.0024272562004625797,-0.003265010192990303
24.85,0.11409284919500351,0.04797649383544922,-0.10485297441482544,0.011234268546104431,-0.002415805123746395,-0.005554960109293461
24.9,0.06910663843154907,0.07096290588378906,-0.11391560733318329,0.013904305174946785,-0.000990352826192975,-0.0025572082959115505
24.95,0.11154107749462128,0.08339214324951172,-0.17413316667079926,-0.0026252400130033493,0.01261088065803051,0.002689757151529193
25.0,0.07484176754951477,0.06308269500732422,-0.16238470375537872,0.017586417496204376,-0.008069571107625961,0.012637819163501263
25.05,-0.09916459023952484,-0.009443283081054688,-0.19036386907100677,0.041652943938970566,-0.049225665628910065,0.028781002387404442
25.1,-0.05753537267446518,0.10217857360839844,-0.10554885864257812,0.06574556231498718,-0.05408192798495293,0.0006786733865737915
25.15,0.02091556042432785,0.1272134780883789,-0.17573322355747223,0.04956331104040146,-0.10412997752428055,-0.0009537115693092346
25.2,0.12293808907270432,0.1717052459716797,-0.28817880153656006,0.0290374793112278,-0.11958195269107819,0.017944499850273132
25.25,0.335177481174469,0.1999216079711914,-0.2877960801124573,-0.00020355917513370514,-0.09247869998216629,0.033647485077381134
25.3,0.15248695015907288,0.2660999298095703,-0.2116626501083374,-0.05014028400182724,-0.012732291594147682,0.02198847196996212
25.35,0.12713031470775604,0.22287845611572266,-0.23024575412273407,-0.16287465393543243,0.019894476979970932,-0.02464405819773674
25.4,0.034434616565704346,-0.05420970916748047,-0.3888421654701233,-0.2612994313240051,-0.01346345990896225,-0.005234964191913605
25.45,0.01615890860557556,0.02454662322998047,-0.3140468895435333,-0.28904807567596436,-0.012972366064786911,0.012423351407051086
25.5,0.1476529836654663,0.21732234954833984,-0.2564987242221832,-0.32150232791900635,-0.04313889518380165,0.010432839393615723
25.55,0.07375583052635193,0.17343807220458984,-0.05221274495124817,-0.32398900389671326,-0.12013917416334152,0.004302963614463806
25.6,-0.20418322086334229,-0.09911155700683594,-0.046694330871105194,-0.3094112277030945,-0.275192528963089,-0.003584921360015869
25.65,-0.3040485680103302,-0.01616382598876953,-0.24547365307807922,-0.2308913618326187,-0.3497908413410187,-0.013941951096057892
25.7,-0.26943767070770264,0.19121456146240234,-0.18082530796527863,-0.19611364603042603,-0.4680144190788269,-0.03398513048887253
25.75,-0.26777184009552,0.2368612289428711,-0.06985396146774292,-0.21332618594169617,-0.6102326512336731,-0.07761433720588684
25.8,-0.03853540122509003,0.12879180908203125,-0.33503443002700806,-0.21803301572799683,-0.8400892019271851,-0.0662265345454216
25.85,0.22323262691497803,0.07548999786376953,-0.3941713869571686,-0.23619474470615387,-0.9483028650283813,-8.547306060791016e-05
25.9,0.23976890742778778,0.0895223617553711,-0.1999751329421997,-0.21636897325515747,-0.9128201603889465,-0.029102012515068054
25.95,0.2516302168369293,0.06645679473876953,-0.18932966887950897,-0.19728130102157593,-0.8693954944610596,-0.07722009718418121
26.0,0.4320603609085083,-0.05736732482910156,-0.22707149386405945,-0.1880926489830017,-0.8145883083343506,-0.12500004470348358
26.05,0.44992595911026,-0.05350780487060547,-0.06650009751319885,-0.1650296449661255,-0.6930123567581177,-0.15960974991321564
26.1,0.3107373118400574,0.09044837951660156,-0.1235252171754837,-0.11579206585884094,-0.5399380922317505,-0.15238606929779053
26.15,0.2730705142021179,-0.0634775161743164,-0.20898696780204773,-0.10233359783887863,-0.42426204681396484,-0.11985988914966583
26.2,0.3107667863368988,-0.05834770202636719,-0.0616191029548645,-0.07150348275899887,-0.23853202164173126,-0.0886896625161171
26.25,0.14112870395183563,0.05031299591064453,-0.056955620646476746,-0.037525661289691925,-0.03492452949285507,-0.08150013536214828
26.3,-0.05811558663845062,-0.13632965087890625,0.039865534752607346,0.008628053590655327,0.04451879858970642,-0.07594012469053268
26.35,0.058924149721860886,0.16282367706298828,0.06842046976089478,0.1028386801481247,0.11445111781358719,-0.056157562881708145
26.4,0.09721936285495758,0.44431591033935547,0.05776122584939003,0.10276458412408829,0.26536738872528076,-0.044820405542850494
26.45,0.031558260321617126,0.34064769744873047,0.08107981085777283,0.0480075478553772,0.37728095054626465,-0.01991981826722622
26.5,0.11917197704315186,-0.06941890716552734,-0.031067445874214172,0.03204416483640671,0.4683015048503876,0.05769817531108856
26.55,0.13273081183433533,0.02264404296875,-0.01964876800775528,0.11272339522838593,0.5903149843215942,0.08750700205564499
26.6,0.024834871292114258,0.07930660247802734,0.04506896436214447,0.12627477943897247,0.6581904292106628,0.09671757370233536
26.65,0.20178109407424927,0.037799835205078125,0.1076517328619957,0.13411153852939606,0.7058172821998596,0.07682587206363678
26.7,0.16671255230903625,-0.03443336486816406,-0.012567251920700073,0.15531963109970093,0.7324512004852295,0.07965874671936035
26.75,-0.10160651803016663,-0.13791942596435547,-0.04018445312976837,0.18629240989685059,0.6853198409080505,0.09208472073078156
26.8,-0.06549479067325592,0.24109745025634766,-0.15401878952980042,0.2104378491640091,0.6714510917663574,0.05834096670150757
26.85,0.03500661253929138,0.1417226791381836,-0.07593465596437454,0.13298572599887848,0.5657234787940979,0.11238634586334229
26.9,-0.019018545746803284,0.040531158447265625,-0.06273411214351654,0.08680911362171173,0.5225425958633423,0.11895636469125748
26.95,0.005500556901097298,0.34281349182128906,-0.03127046301960945,0.0801558792591095,0.4580519199371338,0.07788670808076859
27.0,-0.0646330863237381,-0.02970123291015625,-0.01776360161602497,-0.01420046016573906,0.3321934938430786,0.10507137328386307
27.05,0.19973480701446533,-0.0052890777587890625,-0.02798525243997574,-0.02387090213596821,0.2081729918718338,0.08922115713357925
27.1,0.20658603310585022,0.1505584716796875,-0.12677855789661407,0.018702268600463867,0.11283418536186218,0.06717897951602936
27.15,0.30243176221847534,0.14794063568115234,-0.21332508325576782,-0.02530570887029171,0.05057896673679352,0.08463047444820404
27.2,0.1521628499031067,0.1261138916015625,-0.25509703159332275,-0.02099386602640152,0.04063507914543152,0.05580846965312958
27.25,0.050194837152957916,-0.12912940979003906,-0.30398422479629517,-0.05526677146553993,0.008664265275001526,0.06203409656882286
27.3,0.17703336477279663,0.1324319839477539,-0.2868753671646118,-0.01667775958776474,0.008503442630171776,0.03146415948867798
27.35,0.21040043234825134,0.10031318664550781,-0.2769604027271271,-0.002690295223146677,0.007416967768222094,0.016761522740125656
27.4,0.1457292139530182,0.1432209014892578,-0.27664393186569214,-0.011968256905674934,0.0304352268576622,-0.0023166267201304436
27.45,0.0711883157491684,0.07628536224365234,-0.19120249152183533,-0.029346082359552383,0.02528025582432747,-0.00575938168913126
27.5,0.05469970405101776,0.06554889678955078,-0.15259671211242676,-0.022098898887634277,0.010069132782518864,-0.002413703128695488
27.55,0.10518456250429153,0.16449546813964844,-0.26473578810691833,-0.002042541280388832,0.006011301185935736,0.026631463319063187
27.6,0.06582043319940567,0.10859012603759766,-0.11435230821371078,-0.0060029542073607445,0.003124760929495096,0.009896853007376194
27.65,0.06252561509609222,0.0460052490234375,-0.1863466054201126,0.01178754586726427,0.003022573422640562,0.0005431626923382282
27.7,-0.04874957352876663,0.16957950592041016,-0.09985414147377014,0.0322687067091465,0.006763153709471226,-0.023135054856538773
27.75,-0.04566769301891327,-0.13449668884277344,-0.3401896059513092,-0.016316290944814682,-0.02867952175438404,0.03617974370718002
27.8,0.08650654554367065,0.2174844741821289,-0.2295532375574112,0.00012686848640441895,0.03555244952440262,-0.006818967871367931
27.85,-0.07912644743919373,-0.015221595764160156,-0.27145931124687195,-0.056667596101760864,0.053607966750860214,0.05089527368545532
27.9,0.009442999958992004,0.006915092468261719,-0.19139736890792847,-0.06270966678857803,0.065898597240448,0.06736762076616287
27.95,0.383680522441864,-0.3158731460571289,-0.15101973712444305,-0.004659576341509819,0.054503750056028366,0.032354097813367844
28.0,0.08454161137342453,0.24015426635742188,-0.1336219608783722,0.026655495166778564,0.08713607490062714,0.01773415133357048
28.05,0.1619918942451477,0.13541412353515625,-0.1790880262851715,-0.024283485487103462,0.07505379617214203,0.07191918045282364
28.1,0.20943933725357056,0.14594173431396484,-0.10930435359477997,-0.03826478496193886,0.13067218661308289,0.053828489035367966
28.15,-0.03242925554513931,-0.0021734237670898438,-0.2134302258491516,-0.03972747176885605,0.1311500519514084,0.07112141698598862
28.2,-0.005770123563706875,0.042214393615722656,0.017491178587079048,-0.002332993783056736,0.08299432694911957,0.017125647515058517
28.25,0.12353885918855667,0.10399341583251953,-0.04347194731235504,0.008714044466614723,0.06678683310747147,0.017930829897522926
28.3,0.15792840719223022,0.12768173217773438,-0.08197333663702011,0.0025377487763762474,0.04855327308177948,0.02986975759267807
28.35,-0.05600950866937637,-0.011598587036132812,-0.224704772233963,-0.02295038476586342,0.06483292579650879,0.039473894983530045
28.4,0.08618141710758209,0.10610389709472656,-0.1141563355922699,-0.0011967252939939499,0.06258413940668106,0.03679259493947029
28.45,0.16952434182167053,0.2624959945678711,-0.07801356911659241,0.009985871613025665,0.06807079166173935,0.015517162159085274
28.5,0.10293834656476974,0.0038080215454101562,-0.18640176951885223,-0.023247532546520233,0.07247079163789749,0.027887746691703796
28.55,0.2036614716053009,0.09096240997314453,-0.043287284672260284,-0.015028147958219051,0.09655088186264038,0.012660151347517967
28.6,0.132539302110672,0.059325218200683594,-0.1385265588760376,0.017947161570191383,0.10556453466415405,-0.002722445409744978
28.65,0.07552195340394974,0.045548439025878906,-0.12292560189962387,0.008729418739676476,0.12419123202562332,-0.02389129064977169
28.7,0.042677219957113266,0.14708232879638672,-0.17456631362438202,0.004493688698858023,0.09558650851249695,-0.012440844438970089
28.75,0.20873716473579407,0.11674976348876953,-0.11869995296001434,-0.012663992121815681,0.09234485030174255,0.014117298647761345
28.8,0.07892671227455139,0.08858203887939453,-0.11374755948781967,-0.031118830665946007,0.11329682916402817,0.03135504573583603
28.85,0.116161048412323,0.05268573760986328,-0.12940175831317902,-0.02708834782242775,0.09284864366054535,0.04232672601938248
28.9,0.1874827891588211,0.13141345977783203,-0.07484394311904907,-0.0005592275410890579,0.06599052995443344,0.038183726370334625
28.95,0.0952477753162384,0.16300010681152344,-0.11611074209213257,0.00582778500393033,0.043437208980321884,0.0206293947994709
29.0,0.1324174404144287,0.08700275421142578,-0.10496599972248077,-0.003042249009013176,0.030880147591233253,0.018530670553445816
29.05,0.08250031620264053,0.07360458374023438,-0.1455056071281433,-0.006831127684563398,0.015589098446071148,0.0026858982164412737
29.1,0.06545403599739075,0.10402584075927734,-0.12861782312393188,0.003696079133078456,-0.004997454583644867,0.0037004295736551285
29.15,0.04187977686524391,0.12710857391357422,-0.1824702024459839,-0.0037682969123125076,0.0052319737151265144,-0.006666006054729223
29.2,0.21995848417282104,0.1977701187133789,-0.0028255656361579895,-0.017975138500332832,0.007187495008111,0.024333344772458076
29.25,0.09700720757246017,-0.1936779022216797,-0.17179842293262482,-0.01719573885202408,-0.019780032336711884,0.03356857970356941
29.3,-0.02940911240875721,0.23799705505371094,-0.08176206052303314,0.03856438770890236,0.030448853969573975,-0.053136758506298065
29.35,0.008977897465229034,0.08565044403076172,-0.17042005062103271,-0.018621597439050674,0.0018073790706694126,0.011656681075692177
29.4,0.1066996231675148,0.10032176971435547,-0.12897081673145294,-0.011895294301211834,0.009052608162164688,-0.014989838004112244
29.45,0.09722855687141418,0.13011455535888672,-0.0849001407623291,-0.0036714649759233,0.01522808987647295,-0.010899276472628117
29.5,-0.0367935448884964,-0.013691902160644531,-0.08176751434803009,-0.025707144290208817,0.020001430064439774,0.001885347068309784
29.55,0.01988733559846878,0.036795616149902344,-0.05787753313779831,-0.013365566730499268,0.019098516553640366,-0.010583426803350449
29.6,0.08619466423988342,0.056448936462402344,-0.04393310099840164,0.0029816697351634502,0.011149904690682888,-0.014941259287297726
29.65,0.13511551916599274,0.35428619384765625,-0.015954241156578064,-0.003995709121227264,0.03904805704951286,-0.02533629909157753
29.7,0.22258064150810242,0.12939739227294922,-0.14307919144630432,-0.0681975707411766,-0.0018875636160373688,0.02929326519370079
29.75,0.11191632598638535,0.004281044006347656,-0.14105354249477386,-0.06466104090213776,0.02665821649134159,0.017537519335746765
29.8,0.06179240345954895,0.16773223876953125,-0.006428390741348267,-0.016912266612052917,0.053634822368621826,-0.023294437676668167
29.85,0.061801254749298096,0.18111610412597656,-0.1284431368112564,-0.05781267210841179,0.07356055080890656,-0.02642148733139038
29.9,0.16323649883270264,0.2143259048461914,-0.05768449604511261,-0.08692063391208649,0.07718110084533691,0.006361424922943115
29.95,-0.004025861620903015,0.019590377807617188,-0.1700509637594223,-0.0750674456357956,0.05780952423810959,0.0051012709736824036
30.0,-0.024195324629545212,0.033125877380371094,-0.09346209466457367,-0.06866757571697235,0.0953076183795929,-0.021532390266656876
30.05,0.055182527750730515,-0.05442237854003906,-0.134708970785141,-0.025316741317510605,0.028217311948537827,-0.001270337961614132
30.1,0.1612311601638794,0.12425899505615234,-0.09316837042570114,0.018375396728515625,0.0359867587685585,-0.035552091896533966
30.15,0.17628329992294312,0.08573436737060547,-0.13767871260643005,0.007436621934175491,0.04306895285844803,-0.06565530598163605
30.2,0.1225382536649704,0.09312057495117188,-0.1259736567735672,-0.01716736890375614,0.04639214277267456,-0.006707672495394945
30.25,0.0053076669573783875,0.1537933349609375,-0.1730508953332901,-0.050080638378858566,0.12168115377426147,-0.05246806889772415
30.3,-0.21015328168869019,-0.0027103424072265625,-0.16090485453605652,-0.019175682216882706,0.05307803675532341,-0.039580781012773514
30.35,-0.018914446234703064,-0.0890970230102539,-0.0195773895829916,-0.007015857845544815,-0.021203717216849327,-0.015031266957521439
30.4,0.1159968376159668,0.10673236846923828,-0.044107068330049515,0.012473998591303825,-0.052397504448890686,-0.008638614788651466
30.45,0.12324056774377823,0.12734603881835938,-0.15572020411491394,-0.005787396337836981,-0.032381147146224976,0.018894663080573082
30.5,0.11858782917261124,-0.0007295608520507812,-0.2560407817363739,-0.03380793705582619,-0.011309713125228882,0.03453201428055763
30.55,-0.05376693606376648,0.1255044937133789,-0.2897561192512512,-0.009099467657506466,-0.0065371375530958176,0.020163903012871742
30.6,0.06694574654102325,-0.02325725555419922,-0.1436794400215149,0.009743924252688885,-0.035413388162851334,0.014450710266828537
30.65,-0.014837700873613358,0.1413888931274414,-0.12909209728240967,0.013750561513006687,0.0032807851675897837,-0.029610678553581238
30.7,0.042737945914268494,0.14313983917236328,-0.069307342171669,-0.013486051000654697,-0.015374502167105675,-0.008421879261732101
30.75,0.019902333617210388,0.005291938781738281,-0.15812160074710846,-0.031272195279598236,-0.02197161316871643,0.025247253477573395
30.8,0.0215800479054451,0.20939254760742188,-0.20461012423038483,-0.022370358929038048,0.03607109934091568,-0.025583699345588684
30.85,0.0767858475446701,0.12749290466308594,-0.10341222584247589,-0.0385267436504364,0.037343066185712814,-0.003934195265173912
30.9,0.08981505036354065,0.1596536636352539,-0.13319909572601318,-0.04098169505596161,0.06168931722640991,-0.025020556524395943
30.95,0.09039078652858734,0.06837654113769531,-0.09181733429431915,-0.04889693111181259,0.0565563440322876,-0.01129879429936409
31.0,-0.04523087665438652,0.1516704559326172,-0.03089316375553608,-0.03691782057285309,0.054968301206827164,-0.02055412158370018
31.05,0.08399978280067444,0.0981454849243164,-0.05106666311621666,-0.049795962870121,0.039043743163347244,-0.014281556010246277
31.1,-0.10240918397903442,-0.03405475616455078,-0.0857907310128212,-0.053564414381980896,0.05380845069885254,-0.022230999544262886
31.15,-0.01332918182015419,0.07210731506347656,-0.13235022127628326,-0.02415594458580017,0.05459773167967796,-0.039837293326854706
31.2,0.002067096531391144,-0.008817672729492188,-0.126132532954216,-0.006505308672785759,0.04711272567510605,-0.03982854634523392
31.25,-0.006619445979595184,0.1151418685913086,-0.09551765024662018,-0.012950686737895012,0.08762415498495102,-0.06663468480110168
31.3,-0.032032061368227005,0.032006263732910156,-0.02563020959496498,-0.025239773094654083,0.058471355587244034,-0.02596464194357395
31.35,0.014075535349547863,0.07789325714111328,-0.034479666501283646,-0.01050468347966671,0.057052094489336014,-0.012201246805489063
31.4,0.07556125521659851,0.1983966827392578,-0.037470683455467224,0.005483245011419058,0.056732188910245895,-0.0010053636506199837
31.45,0.061560701578855515,0.09773921966552734,-0.015924738720059395,-0.0022983981762081385,0.04532897099852562,-0.0007364173652604222
31.5,-0.04175776243209839,0.036830902099609375,-0.017195548862218857,0.0044409725815057755,0.04548102244734764,-0.033330127596855164
31.55,-0.04540705680847168,0.04306507110595703,0.07200793921947479,0.021633269265294075,0.00666264770552516,-0.0455886572599411
31.6,-0.07164588570594788,0.03889942169189453,0.022440964356064796,0.02902294509112835,-0.03750768303871155,-0.012841032817959785
31.65,0.07999949157238007,0.3096151351928711,-0.036061063408851624,0.06448805332183838,-0.06144542619585991,-0.042189329862594604
31.7,0.10756105184555054,0.2344512939453125,-0.1350855827331543,0.033464569598436356,-0.02464987337589264,-0.03747382387518883
31.75,-0.05131782963871956,-0.06920909881591797,-0.1277601569890976,0.002062428742647171,-0.02226443588733673,-0.026492740958929062
31.8,0.07863195240497589,0.11121654510498047,-0.0905703604221344,0.06835263222455978,-0.06654572486877441,-0.05871906131505966
31.85,0.054001081734895706,0.22362041473388672,-0.1069684624671936,0.0524422861635685,-0.019887613132596016,-0.042242079973220825
31.9,0.09451542794704437,0.03101825714111328,-0.13974249362945557,0.0030020547565072775,-0.0045708902180194855,-0.007441612891852856
31.95,0.04074550420045853,0.009080886840820312,-0.120496965944767,0.0378919281065464,0.00781714916229248,-0.011710512451827526
32.0,0.05266455560922623,0.16342639923095703,-0.04436887428164482,0.05311870574951172,0.006267148070037365,-0.037487756460905075
32.05,0.2697881758213043,0.15432262420654297,-0.019509904086589813,0.06607508659362793,-0.01174234226346016,-0.0046760160475969315
32.1,-0.01681116223335266,0.022405624389648438,-0.2019210159778595,0.043646521866321564,0.023531999439001083,-0.01616215705871582
32.15,0.04489019513130188,0.12560367584228516,-0.02566361427307129,0.08824571967124939,-0.014941388741135597,-0.01881396397948265
32.2,0.05025390908122063,0.10461139678955078,-0.0538104809820652,0.10764837265014648,-0.04204125702381134,-0.018023893237113953
32.25,0.26352065801620483,0.07977771759033203,-0.06324861943721771,0.10046957433223724,-0.03510575741529465,-0.025775719434022903
32.3,-0.009094908833503723,0.21722984313964844,-0.2605879008769989,0.09641064703464508,-0.004263382405042648,-0.04437755420804024
32.35,0.14862598478794098,0.0288848876953125,-0.0996389240026474,0.03538105636835098,-0.010926712304353714,-0.008887861855328083
32.4,0.10125674307346344,0.04714775085449219,-0.13612540066242218,0.06811371445655823,-0.016697928309440613,-0.02994437702000141
32.45,0.00813981145620346,0.21885013580322266,-0.18333518505096436,0.05429823324084282,0.01623314805328846,-0.05979269742965698
32.5,0.04984979331493378,0.07850933074951172,-0.16690531373023987,0.026909103617072105,-0.01728154346346855,-0.034953050315380096
32.55,0.14490829408168793,0.11085796356201172,-0.1380874365568161,0.03078327141702175,-0.028864480555057526,-0.03868159279227257
32.6,0.12204064428806305,0.13246631622314453,-0.19054368138313293,0.011313920840620995,0.0005138861015439034,-0.013884441927075386
32.65,0.10718387365341187,0.182037353515625,-0.0686926394701004,0.007492696866393089,-0.01685822568833828,-0.0003659843932837248
32.7,0.19021373987197876,0.47486400604248047,-0.00848570466041565,0.028860783204436302,-0.009276335127651691,-0.043017104268074036
32.75,-0.003559313714504242,-0.005192756652832031,-0.17632341384887695,-0.06447595357894897,-0.01707201637327671,0.013727826997637749
32.8,0.08899246901273727,0.09216690063476562,-0.004265107214450836,-0.03192491829395294,-0.030179277062416077,-0.023951275274157524
32.85,0.03586724027991295,0.16216087341308594,-0.09414872527122498,0.005451252683997154,-0.05221638083457947,0.02024427056312561
32.9,0.04713338240981102,0.04294109344482422,-0.18452394008636475,-0.026646843180060387,-0.03854415565729141,0.07139411568641663
32.95,-0.042263202369213104,0.04279518127441406,-0.10428280383348465,-0.02284650318324566,-0.016271695494651794,0.032310180366039276
33.0,0.12289664894342422,0.0036516189575195312,0.15868014097213745,-0.03123294562101364,-0.03138398379087448,0.016652267426252365
33.05,0.12024354934692383,-0.04495048522949219,0.039031416177749634,-0.027068007737398148,-0.0414946973323822,-0.014043997973203659
33.1,-0.036362867802381516,-0.23269367218017578,-0.01725209504365921,-0.01573295146226883,-0.08329877257347107,-0.0155086200684309
33.15,-0.1879592090845108,0.2188720703125,-0.08234378695487976,0.017404869198799133,-0.09807387739419937,-0.05522991716861725
33.2,0.08105780184268951,0.15149974822998047,-0.1892833411693573,-0.03462829440832138,-0.16500672698020935,0.07225581258535385
33.25,0.03006821498274803,0.0784597396850586,-0.10791358351707458,-0.06064853444695473,-0.16345763206481934,0.004044204950332642
33.3,-0.2877858877182007,0.03450202941894531,0.07625044882297516,-0.06803598254919052,-0.1919400691986084,-0.04234497994184494
33.35,-0.12421190738677979,0.10950946807861328,-0.0540512278676033,-0.04516515135765076,-0.2988205552101135,-0.0492313876748085
33.4,0.047098517417907715,0.20258522033691406,0.12770141661167145,-0.03641786798834801,-0.3451382517814636,-0.08932872116565704
33.45,-0.17194195091724396,0.09099388122558594,0.16516812145709991,-0.051339857280254364,-0.3613487482070923,-0.1139352023601532
33.5,-0.05899653211236,0.11219978332519531,-0.11097218096256256,-0.06815002858638763,-0.37359175086021423,-0.09193067252635956
33.55,-0.31839364767074585,-0.03438758850097656,-0.2716911733150482,-0.08062244951725006,-0.33071649074554443,-0.09136404097080231
33.6,-0.03394729644060135,-0.2218313217163086,0.02699042670428753,-0.04755759984254837,-0.4084458351135254,-0.06380105018615723
33.65,0.3594443202018738,0.06234550476074219,0.064242884516716,0.06354366987943649,-0.4000466763973236,-0.1024063229560852
33.7,0.5278275012969971,0.01749134063720703,0.04183705151081085,0.06839273869991302,-0.3323625326156616,-0.12274231016635895
33.75,0.1262194961309433,0.14486408233642578,0.04079725965857506,0.07881923764944077,-0.19681116938591003,-0.15041743218898773
33.8,0.058362927287817,-0.12469005584716797,-0.11799661815166473,0.06893971562385559,-0.1586385816335678,-0.09343568235635757
33.85,-0.5267490148544312,-0.09481143951416016,0.10360954701900482,0.17316506803035736,-0.2078125923871994,-0.1272358000278473
33.9,0.20663343369960785,0.1763772964477539,-0.03587639331817627,0.2362717092037201,-0.2826409339904785,-0.0791272446513176
33.95,0.1558411568403244,0.1788482666015625,-0.1863858699798584,0.3139730989933014,-0.2960035800933838,-0.04943200945854187
34.0,-0.01172974705696106,0.1054544448852539,-0.28459927439689636,0.2750423550605774,-0.25807422399520874,-0.05827062577009201
34.05,0.40468043088912964,0.07607078552246094,-0.2710527181625366,0.3061597943305969,-0.33557096123695374,0.005457490682601929
34.1,0.1924896240234375,0.07814884185791016,-0.45058709383010864,0.3117835521697998,-0.208563894033432,-0.004609301686286926
34.15,0.09172606468200684,-0.14900684356689453,-0.30521851778030396,0.2318698614835739,-0.1493871659040451,-0.028499595820903778
34.2,0.239142507314682,0.09667205810546875,-0.31904706358909607,0.29679298400878906,-0.16018344461917877,-0.06617054343223572
34.25,0.37647545337677,0.14919567108154297,-0.27185219526290894,0.2589132785797119,-0.07047761976718903,-0.055771782994270325
34.3,0.2620584964752197,0.17358684539794922,-0.22759976983070374,0.1821269690990448,0.01365169882774353,-0.09911081939935684
34.35,0.09254613518714905,0.07643413543701172,-0.13904933631420135,0.18461750447750092,0.05531761050224304,-0.09389913827180862
34.4,0.10024631023406982,0.11409282684326172,-0.06289564818143845,0.1539044976234436,0.09001343697309494,-0.09826326370239258
34.45,0.14192597568035126,0.3186674118041992,-0.0024043992161750793,0.10748244822025299,0.14781035482883453,-0.1361793428659439
34.5,0.15774206817150116,0.1832866668701172,-0.1068573147058487,0.048903051763772964,0.19329868257045746,-0.12353377044200897
34.55,0.12333709001541138,0.13726806640625,-0.1398385763168335,0.05137418955564499,0.24311015009880066,-0.06269730627536774
34.6,0.08548222482204437,0.20558643341064453,-0.0652255192399025,0.05748775973916054,0.28131523728370667,-0.04636450856924057
34.65,-0.16187000274658203,0.0731058120727539,-0.1352066993713379,0.028584856539964676,0.3026849627494812,-0.0256618931889534
34.7,-0.02920931577682495,0.1115255355834961,0.026123855262994766,0.04815274477005005,0.27334627509117126,-0.02350461483001709
34.75,-0.12214919924736023,0.1644725799560547,-0.011631548404693604,0.026901740580797195,0.25106826424598694,-0.02219695970416069
34.8,0.027956731617450714,0.2090129852294922,0.0005760574713349342,0.010142028331756592,0.20006462931632996,0.018267378211021423
34.85,0.0889241024851799,0.02830028533935547,0.12463676929473877,-0.02045661211013794,0.2595036029815674,0.042250312864780426
34.9,-0.023164667189121246,0.04094505310058594,0.25035226345062256,0.0047410037368535995,0.2504963278770447,0.03212687373161316
34.95,-0.03997034579515457,0.12724971771240234,0.11354169994592667,0.011017877608537674,0.23332518339157104,-0.002840423956513405
35.0,-0.1674124002456665,0.0865325927734375,0.003379039466381073,-0.028908923268318176,0.19157741963863373,-0.01824381574988365
35.05,-0.10165942460298538,0.02803802490234375,-0.03559603542089462,-0.03933487832546234,0.1358719766139984,0.012525686994194984
35.1,-0.0972684994339943,0.18659400939941406,0.09274347126483917,-0.013333640061318874,0.08825591951608658,-0.0017558969557285309
35.15,0.06279639154672623,0.12287139892578125,0.06139466166496277,-0.07062502205371857,0.047631390392780304,0.07740335166454315
35.2,0.07491844892501831,0.1708822250366211,-0.015978043898940086,-0.058391593396663666,0.11543276160955429,0.04264100641012192
35.25,0.22024814784526825,0.21379947662353516,0.26842084527015686,-0.0343688502907753,0.1580468714237213,0.010752587579190731
35.3,0.19786758720874786,0.25503063201904297,0.14431193470954895,-0.03484562411904335,0.132180318236351,-0.022506551817059517
35.35,0.1402801275253296,-0.11738967895507812,-0.19525231420993805,-0.013364383019506931,0.06315385550260544,-0.006317418068647385
35.4,0.073910653591156,-0.2867889404296875,-0.3191678822040558,0.05796431005001068,0.06508265435695648,0.015374328941106796
35.45,0.07520333677530289,-0.13895797729492188,0.004231207072734833,0.1285756379365921,0.03688002750277519,-0.0011299848556518555
35.5,0.2746973931789398,0.44464588165283203,-0.12707874178886414,0.1874496042728424,-0.026911374181509018,-0.05557169020175934
35.55,0.5948729515075684,0.17475605010986328,-0.3365054726600647,0.09585137665271759,-0.044601768255233765,0.03171250969171524
35.6,0.12397544085979462,0.37389564514160156,-0.4620083272457123,0.051179833710193634,0.014946188777685165,-0.03957352042198181
35.65,0.3539448380470276,0.007527351379394531,-0.3182368576526642,-0.08824750781059265,0.001705436035990715,0.012714110314846039
35.7,0.3402599096298218,0.13890838623046875,-0.30386146903038025,-0.08184143900871277,-0.005920542404055595,-0.027892516925930977
35.75,0.10095123946666718,0.17751789093017578,-0.15774600207805634,-0.10814593732357025,-0.05878323316574097,-0.08863046020269394
35.8,0.20590320229530334,0.2195596694946289,-0.12334014475345612,-0.1255001425743103,-0.11234216392040253,-0.1486143171787262
35.85,0.10547742992639542,0.2452259063720703,-0.15641839802265167,-0.1462419033050537,-0.11123025417327881,-0.17775239050388336
35.9,-0.0407964326441288,0.20394611358642578,-0.09847505390644073,-0.1729162633419037,-0.1683391034603119,-0.15409956872463226
35.95,-0.006600044667720795,0.24750518798828125,-0.05777805298566818,-0.1829330176115036,-0.265122652053833,-0.07857151329517365
36.0,-0.05816109478473663,0.39932727813720703,-0.24425551295280457,-0.24491676688194275,-0.4081408679485321,0.09408051520586014
36.05,0.15607334673404694,0.41419506072998047,-0.14656351506710052,-0.3531990051269531,-0.6088603734970093,0.18816497921943665
36.1,0.09717107564210892,0.4927644729614258,0.009654141962528229,-0.44048210978507996,-0.7149422764778137,0.19187939167022705
36.15,0.05062054097652435,-0.2727212905883789,-0.34965813159942627,-0.5251783132553101,-0.7564550638198853,0.16719728708267212
36.2,0.22010281682014465,-0.2950773239135742,-0.4387970268726349,-0.4592720866203308,-0.771256685256958,0.07982037961483002
36.25,0.22936677932739258,-0.13639545440673828,-0.4633183181285858,-0.4496656358242035,-0.789199709892273,0.10835905373096466
36.3,0.3520841896533966,-0.23336315155029297,-0.1818491816520691,-0.3937907814979553,-0.7579870223999023,0.12943588197231293
36.35,-0.13979366421699524,-0.15929698944091797,0.022429145872592926,-0.3381986618041992,-0.6334169507026672,0.02787737548351288
36.4,-0.24707435071468353,-0.2871847152709961,0.18617254495620728,-0.2948148250579834,-0.6459771990776062,-0.04760786145925522
36.45,-0.2772137224674225,-0.3180656433105469,0.014769777655601501,-0.20750278234481812,-0.7009280920028687,-0.06779073178768158
36.5,-0.27530214190483093,-0.42267322540283203,0.049164801836013794,-0.21567276120185852,-0.7149385213851929,-0.04398806393146515
36.55,-0.326093852519989,0.10040092468261719,0.08540329337120056,-0.14837026596069336,-0.699485182762146,-0.1551465392112732
36.6,-0.22056877613067627,0.867854118347168,0.06745325773954391,-0.14492520689964294,-0.6311066150665283,-0.1854282021522522
36.65,-0.02934192679822445,0.7952566146850586,0.018638206645846367,-0.17976704239845276,-0.45296233892440796,-0.15827208757400513
36.7,0.2252199649810791,0.22143077850341797,-0.015382982790470123,-0.18535296618938446,-0.30439475178718567,-0.0759737491607666
36.75,0.220315620303154,-0.1374340057373047,-0.13760250806808472,-0.07922272384166718,-0.19771148264408112,0.030819877982139587
36.8,0.1454136073589325,-0.3863353729248047,-0.26258620619773865,0.07589256018400192,-0.09119770675897598,0.012171046808362007
36.85,0.14753031730651855,-0.2894163131713867,-0.38726136088371277,0.22226785123348236,-0.01612250879406929,-0.04354086518287659
36.9,0.09725651144981384,0.17840003967285156,-0.4579290449619293,0.37968909740448,0.1080770194530487,-0.12804445624351501
36.95,-0.1855098009109497,-0.18084049224853516,-0.2668439447879791,0.3549730181694031,0.19103197753429413,-0.1561073660850525
37.0,-0.19814211130142212,-0.3614616394042969,-0.3497423231601715,0.3081698715686798,0.28438904881477356,-0.19087329506874084
37.05,-0.4845390319824219,0.10435867309570312,-0.4521887004375458,0.3562926948070526,0.39735785126686096,-0.20392534136772156
37.1,-0.596507728099823,0.6277561187744141,-0.3558683693408966,0.29321280121803284,0.4821365773677826,-0.19584053754806519
37.15,-0.3770889341831207,0.6764764785766602,-0.22944968938827515,0.13105738162994385,0.5299904346466064,-0.11225594580173492
37.2,-0.11578625440597534,0.6303815841674805,-0.15867935121059418,0.03857077285647392,0.535461962223053,-0.04837154969573021
37.25,-0.11739833652973175,0.016889572143554688,-0.3060852885246277,-0.11735910922288895,0.5609036087989807,0.07724771648645401
37.3,-0.5316928029060364,-0.07377910614013672,-0.285939484834671,-0.12787599861621857,0.6391721963882446,0.08880544453859329
37.35,-0.896649181842804,-0.09370613098144531,-0.26379528641700745,-0.15914778411388397,0.67920982837677,0.08385526388883591
37.4,-0.9291437864303589,-0.27516746520996094,-0.3746219873428345,-0.1333683282136917,0.5943894386291504,0.13219529390335083
37.45,-0.5957534313201904,-0.0014657974243164062,-0.2566315531730652,0.08034777641296387,0.4774423837661743,0.09764715284109116
37.5,0.08366864919662476,-0.08026790618896484,-0.3209788203239441,0.27664899826049805,0.3494620621204376,0.10909795016050339
37.55,0.48294562101364136,-0.9369945526123047,-0.10900132358074188,0.4530649781227112,0.2636123299598694,0.08418907225131989
37.6,0.03518468141555786,-1.2065181732177734,-0.10566910356283188,0.4540066123008728,0.1824333369731903,0.06736883521080017
37.65,0.6659557819366455,3.5699214935302734,0.4816321134567261,0.6591975092887878,0.2834618091583252,-0.15573057532310486
37.7,1.0092439651489258,1.4309301376342773,0.11062511801719666,0.30746176838874817,-0.08107339590787888,0.10983648151159286
37.75,0.44727110862731934,-0.04060935974121094,0.05352000892162323,-0.056062810122966766,-0.326309472322464,0.24586766958236694
37.8,0.6767870187759399,-0.10473823547363281,0.41162627935409546,-0.10611435770988464,-0.30932602286338806,0.21862763166427612
37.85,0.9796888828277588,-0.5809078216552734,0.17607837915420532,-0.2800605595111847,-0.4394114315509796,0.24767549335956573
37.9,1.3253962993621826,0.22267723083496094,-0.4531855583190918,-0.30123913288116455,-0.3902159631252289,0.06556134670972824
37.95,1.3894603252410889,0.20290565490722656,-0.5198273658752441,-0.3675558865070343,-0.41008260846138,0.13207896053791046
38.0,1.4688351154327393,-0.021844863891601562,-0.7297496795654297,-0.4338812828063965,-0.19220411777496338,0.12603986263275146
38.05,1.3554456233978271,-0.21674442291259766,-0.4814003109931946,-0.4025404453277588,0.01913435384631157,0.10837714374065399
38.1,1.3959002494812012,-0.4014701843261719,-0.6882864236831665,-0.341442346572876,0.218992680311203,0.1214720606803894
38.15,1.252726435661316,-0.13747501373291016,-0.7143223285675049,-0.18107087910175323,0.3693210482597351,0.15910139679908752
38.2,0.9124428033828735,0.0069179534912109375,-0.5834816098213196,-0.12906065583229065,0.5725354552268982,0.11348596215248108
38.25,0.36524176597595215,0.8458337783813477,0.09147819131612778,-0.07168135792016983,0.6794606447219849,0.04251325502991676
38.3,-0.3878630995750427,0.29080867767333984,0.8523520231246948,-0.09069092571735382,0.745198130607605,-0.04280225187540054
38.35,-0.753546953201294,-0.8011245727539062,0.8867571353912354,-0.15818361937999725,0.5373185873031616,-0.09667698293924332
38.4,-1.2549875974655151,-0.3435335159301758,0.9335495233535767,0.011574044823646545,0.2935587763786316,-0.16735459864139557
38.45,-1.1642436981201172,0.4936866760253906,1.076125144958496,0.07916858792304993,0.014235388487577438,-0.2141554355621338
38.5,-0.9740405082702637,0.26915645599365234,1.0940959453582764,-0.02815871872007847,-0.17698027193546295,-0.08202328532934189
38.55,-1.2334294319152832,0.25823974609375,0.9548979997634888,-0.0407475046813488,-0.2679300010204315,-0.13072443008422852
38.6,-0.8401491045951843,0.1248311996459961,0.8892799019813538,-0.14323922991752625,-0.3108784258365631,-0.0443282313644886
38.65,-0.9004390239715576,0.25470733642578125,0.42399004101753235,-0.1855989694595337,-0.11869260668754578,-0.04428047686815262
38.7,-0.5311692357063293,0.21224212646484375,0.5849589109420776,-0.23749692738056183,0.02252446860074997,-0.013514131307601929
38.75,-0.1854785531759262,0.9927873611450195,0.24898435175418854,-0.2070741355419159,0.22063341736793518,0.06559297442436218
38.8,0.38736844062805176,-0.6019792556762695,-0.1532861441373825,-0.16454572975635529,0.1718364804983139,0.2534196376800537
38.85,0.23186780512332916,-0.5947933197021484,0.175009623169899,-0.013328596949577332,0.18400424718856812,0.2888116240501404
38.9,-0.3953854441642761,0.44136524200439453,-0.04372483491897583,0.057036206126213074,0.38794392347335815,0.08114542812108994
38.95,-0.06806061416864395,-0.03298473358154297,-0.04582840949296951,-0.0446581207215786,0.24695003032684326,0.10334554314613342
39.0,0.21290931105613708,-0.30950164794921875,-0.46363312005996704,-0.004265747964382172,0.17977693676948547,0.14381887018680573
39.05,0.28671932220458984,0.10773181915283203,-0.4839921295642853,0.13439813256263733,0.19076156616210938,0.11896779388189316
39.1,0.42286917567253113,0.24849891662597656,-0.0924912542104721,0.09928251802921295,0.22128871083259583,0.09650862962007523
39.15,0.06407367438077927,-0.19327449798583984,-0.09026625752449036,0.09852895140647888,0.21774888038635254,0.043240077793598175
39.2,0.22215883433818817,0.27831554412841797,-0.26328542828559875,0.18310892581939697,0.14476227760314941,-0.05199846625328064
39.25,0.42844676971435547,0.29265785217285156,-0.4908329248428345,0.16153080761432648,0.09988914430141449,0.015077777206897736
39.3,0.3291384279727936,0.16059303283691406,-0.3882448077201843,0.13350096344947815,0.07687577605247498,0.01885417476296425
39.35,0.32746073603630066,0.01985931396484375,-0.3789238929748535,0.11844557523727417,0.0871417224407196,-0.0037128478288650513
39.4,0.2517777383327484,0.010361671447753906,-0.4117056131362915,0.09315175563097,0.11445192992687225,-0.024652529507875443
39.45,0.3607121706008911,0.24280643463134766,-0.3546602129936218,0.046949513256549835,0.15307535231113434,-0.022386686876416206
39.5,0.3772830665111542,0.14916038513183594,-0.29924675822257996,0.004943016916513443,0.1971336007118225,-0.037775568664073944
39.55,0.28783339262008667,-0.02036571502685547,-0.22430086135864258,-0.0096431327983737,0.1824871301651001,-0.036323532462120056
39.6,0.08241016417741776,-0.14272594451904297,-0.2644769847393036,0.029362590983510017,0.1434336155653,-0.025466831400990486
39.65,0.03324437141418457,-0.009240150451660156,-0.1726282238960266,0.04316223785281181,0.09802458435297012,-0.04594886302947998
39.7,0.14768216013908386,0.03874492645263672,-0.2117415964603424,0.07931163161993027,0.024102389812469482,-0.07074487954378128
39.75,0.19997771084308624,0.3076457977294922,-0.2251499891281128,0.08089087903499603,-0.017088323831558228,-0.03675299137830734
39.8,0.14826755225658417,0.1914968490600586,-0.18974459171295166,-0.03837941214442253,-0.034375984221696854,0.041048314422369
39.85,0.07025409489870071,0.024202346801757812,-0.3217492699623108,-0.05758026987314224,-0.020109914243221283,0.020635930821299553
39.9,0.2513298988342285,0.15081501007080078,-0.18852560222148895,-0.037850357592105865,-0.02417070046067238,-0.007994568906724453
39.95,0.20536291599273682,0.11465740203857422,-0.0621778666973114,-0.06032697856426239,0.01671462506055832,-0.016019050031900406
40.0,0.00839562714099884,0.1395435333251953,-0.18691450357437134,-0.043224457651376724,0.007225794717669487,-0.04850113019347191
40.05,0.04590422660112381,0.13825130462646484,-0.18953296542167664,-0.05609990656375885,-0.003843044862151146,-0.023328036069869995
40.1,0.15432430803775787,0.14829444885253906,-0.19676560163497925,-0.0499078743159771,-0.005343453958630562,-0.025475837290287018
40.15,0.09426900744438171,0.13633346557617188,-0.21650797128677368,-0.06844907999038696,0.029646264389157295,-0.012749388813972473
40.2,0.07187499105930328,0.011616706848144531,-0.15295502543449402,-0.06503535807132721,0.025516491383314133,0.014535494148731232
40.25,0.18554256856441498,0.058928489685058594,-0.19545899331569672,-0.05795353651046753,0.056131672114133835,-0.0012735556811094284
40.3,0.16207489371299744,0.10923099517822266,-0.18909671902656555,-0.06120719015598297,0.04741309955716133,0.012225378304719925
40.35,0.058106377720832825,0.07170867919921875,-0.28422579169273376,-0.07741013169288635,0.07466312497854233,0.013816464692354202
40.4,0.03595750406384468,0.11056137084960938,-0.15489357709884644,-0.08671916276216507,0.09497007727622986,-0.0015385709702968597
40.45,-0.0772804543375969,0.09466266632080078,-0.23031172156333923,-0.08624261617660522,0.09473533928394318,-0.016249410808086395
40.5,0.048589009791612625,0.0926046371459961,-0.12472046911716461,-0.06852070987224579,0.04146818816661835,0.022336594760417938
40.55,0.06806916743516922,0.11406707763671875,-0.12909933924674988,-0.055021557956933975,0.05617297440767288,-0.001106608659029007
40.6,0.10944852977991104,0.10414409637451172,-0.09869413077831268,-0.049626462161540985,0.018202386796474457,0.033325597643852234
40.65,0.1363275796175003,0.17276477813720703,-0.07597313076257706,-0.04860636591911316,-0.001292540691792965,0.021653082221746445
40.7,-0.07352722436189651,0.026834487915039062,-0.29020383954048157,-0.04300358146429062,-0.02793566882610321,0.025112157687544823
40.75,0.041215695440769196,0.03354454040527344,-0.240727037191391,-0.04384955018758774,-0.039597414433956146,0.016886340454220772
40.8,0.2282458245754242,0.0068683624267578125,-0.18283899128437042,-0.05538929998874664,-0.05381842702627182,0.02332700602710247
40.85,0.2732877731323242,0.19060420989990234,-0.14452558755874634,-0.036726586520671844,-0.0331096313893795,-0.04476655647158623
40.9,0.1039116233587265,0.23895549774169922,-0.10028653591871262,-0.05875993147492409,-0.07610387355089188,0.01190214790403843
40.95,0.13250760734081268,-0.053648948669433594,-0.21501687169075012,-0.10861234366893768,-0.04974724352359772,0.02655184268951416
41.0,0.19204963743686676,0.07535648345947266,-0.17545348405838013,-0.06639410555362701,-0.025470059365034103,-0.06450564414262772
41.05,0.10291800647974014,0.019865036010742188,-0.11264192312955856,-0.07828757166862488,-0.01804298162460327,-0.030755620449781418
41.1,0.12456733733415604,0.0030736923217773438,-0.11574545502662659,-0.047602903097867966,-0.03071315959095955,-0.030251605436205864
41.15,0.12263257801532745,0.1410808563232422,-0.14222273230552673,-0.027645230293273926,-0.0072243791073560715,-0.07287967205047607
41.2,0.12964342534542084,0.014398574829101562,-0.12551850080490112,-0.04647967964410782,-0.004896597936749458,-0.05267739295959473
41.25,0.10762809962034225,0.15183544158935547,-0.1259068101644516,-0.015040706843137741,0.016819849610328674,-0.0702565610408783
41.3,0.1241074651479721,0.1709127426147461,-0.2214398831129074,0.004929611459374428,0.008245352655649185,-0.023439399898052216
41.35,0.09820044040679932,0.04159832000732422,-0.17584800720214844,0.0075354184955358505,0.0009814612567424774,-0.0019370140507817268
41.4,-0.0005852729082107544,0.14161968231201172,-0.1361376941204071,0.02167372964322567,0.00426833052188158,-0.0251389779150486
41.45,0.3651081323623657,0.14287471771240234,0.009726643562316895,0.014314200729131699,-0.029856199398636818,0.003864412661641836
41.5,0.005227543413639069,0.08423519134521484,-0.21634024381637573,0.05069766938686371,-0.034216709434986115,0.0015623364597558975
41.55,-0.01326320692896843,0.017067909240722656,-0.12736931443214417,0.041813451796770096,-0.0677880346775055,0.027852362021803856
41.6,0.04189404845237732,0.1483755111694336,-0.14592427015304565,0.05235013738274574,-0.08821870386600494,0.04660638049244881
41.65,0.10816740989685059,0.254486083984375,-0.10838745534420013,0.05134886875748634,-0.11090020835399628,0.01446610502898693
41.7,0.1127675324678421,0.0143585205078125,-0.08866031467914581,0.02174649015069008,-0.14931291341781616,0.031047271564602852
41.75,0.02871980145573616,0.13833332061767578,-0.11947362869977951,0.024117486551404,-0.1464518904685974,-0.017087139189243317
41.8,0.0850958600640297,0.1324472427368164,-0.16912215948104858,0.0072581651620566845,-0.1801803857088089,-0.018983788788318634
41.85,0.01065567135810852,0.05393409729003906,-0.19508785009384155,-0.019381815567612648,-0.1896495223045349,-0.0006687818095088005
41.9,0.07030516862869263,0.160064697265625,-0.09372210502624512,-0.01810966059565544,-0.20748764276504517,-0.009586067870259285
41.95,0.11012570559978485,0.11248302459716797,-0.23702126741409302,-0.026612967252731323,-0.1755462884902954,-0.010728604160249233
42.0,0.09096253663301468,0.13028812408447266,-0.2982262074947357,-0.041036251932382584,-0.14211708307266235,-0.01385886874049902
42.05,0.07214699685573578,0.10037899017333984,-0.2187516689300537,-0.04610912501811981,-0.10170412063598633,-0.021444272249937057
42.1,0.1909032016992569,0.11992549896240234,-0.216746523976326,-0.05419233441352844,-0.08027587831020355,-0.00861157476902008
42.15,0.21941357851028442,0.1056528091430664,-0.24398931860923767,-0.05716727674007416,-0.0359298400580883,0.005906103178858757
42.2,0.13329242169857025,0.16596031188964844,-0.20883966982364655,-0.05496620386838913,-0.004631007090210915,0.0179570522159338
42.25,0.1329508274793625,0.1265573501586914,-0.20510509610176086,-0.04994095116853714,0.0012172367423772812,0.025628287345170975
42.3,0.10223791003227234,0.025823593139648438,-0.23567214608192444,-0.04546327143907547,0.03639688342809677,0.01523754931986332
42.35,-0.08957020938396454,0.02212047576904297,-0.2689368724822998,-0.04606905207037926,0.08951148390769958,-0.02424381487071514
42.4,0.16978877782821655,0.1336984634399414,-0.17119452357292175,-0.03560464084148407,0.07337546348571777,-0.0468103289604187
42.45,0.05626237019896507,0.13440513610839844,-0.09752441942691803,-0.02716425061225891,0.09233076125383377,-0.07702118158340454
42.5,0.12436309456825256,0.07951164245605469,-0.15713956952095032,-0.0624404177069664,0.07689391076564789,-0.003731153905391693
42.55,0.10862400382757187,0.09004592895507812,-0.14057017862796783,-0.025123365223407745,0.08577616512775421,-0.000921967439353466
42.6,0.0497644767165184,0.011640548706054688,-0.1876811385154724,-0.015421967953443527,0.07062576711177826,0.014718950726091862
42.65,0.021088261157274246,0.045922279357910156,-0.1401141732931137,0.0002585086040198803,0.08179368078708649,-0.014510275796055794
42.7,0.22354209423065186,0.18345165252685547,-0.17953988909721375,0.010261297225952148,0.06876909732818604,0.016988972201943398
42.75,0.14256396889686584,0.2023763656616211,-0.137979656457901,0.008825650438666344,0.07863467931747437,0.03222870081663132
42.8,-0.007594436407089233,-0.033469200134277344,-0.1450802981853485,0.00646623782813549,0.06009744852781296,0.05323335528373718
42.85,-0.04212403669953346,0.011434555053710938,-0.05279596149921417,0.049151357263326645,0.0357082225382328,0.01469845324754715
42.9,-0.017075590789318085,0.0879220962524414,-0.1613520085811615,0.07278750091791153,0.02098098397254944,0.05439682677388191
42.95,-0.04280742257833481,0.09616947174072266,-0.22268541157245636,0.070628821849823,0.006377432495355606,0.09722661226987839
43.0,0.005933413282036781,0.25266551971435547,-0.0258024875074625,0.09696463495492935,-0.022965069860219955,0.03409098461270332
43.05,-0.1213226169347763,0.06062889099121094,-0.18115228414535522,0.07627349346876144,-0.055537089705467224,0.07162529975175858
43.1,0.19929590821266174,0.025160789489746094,-0.10449753701686859,0.0985664501786232,-0.11472783237695694,0.07259327918291092
43.15,-0.04236988723278046,0.42932796478271484,-0.26573240756988525,0.1428757905960083,-0.08102650940418243,-0.03937140479683876
43.2,0.235142782330513,0.05038928985595703,-0.324563592672348,0.05175257474184036,-0.14743775129318237,0.06468131393194199
43.25,0.284599244594574,0.14557170867919922,-0.2612747251987457,0.07606886327266693,-0.09487893432378769,-0.02049575001001358
43.3,0.31379538774490356,0.017683982849121094,-0.24280792474746704,0.03006717935204506,-0.06443988531827927,-0.013357335701584816
43.35,0.18804945051670074,0.07089996337890625,-0.2255910038948059,0.009433247148990631,0.005711425561457872,-0.02365921251475811
43.4,0.14655828475952148,0.31647396087646484,-0.04738490283489227,-0.038181886076927185,0.10370071232318878,-0.05086957663297653
43.45,-0.07199002802371979,0.09619808197021484,-0.12948313355445862,-0.08227791637182236,0.10777868330478668,-0.032587770372629166
43.5,0.05906421318650246,-0.04571819305419922,-0.0674147754907608,-0.07215581834316254,0.1465785652399063,-0.009743420407176018
43.55,0.049655526876449585,0.17818355560302734,0.10966558009386063,-0.054507918655872345,0.22409622371196747,-0.006815807893872261
43.6,-0.15984207391738892,0.13148212432861328,0.25640374422073364,-0.04163358360528946,0.2683042883872986,-0.023058220744132996
43.65,-0.08887259662151337,-0.03409576416015625,0.01426541805267334,-0.04323536902666092,0.2628856599330902,-0.07844394445419312
43.7,-0.15279307961463928,-0.2571268081665039,-0.015737958252429962,5.46872615814209e-05,0.26962870359420776,-0.11181657016277313
43.75,-0.4474807381629944,-0.07584762573242188,0.20281927287578583,0.12914642691612244,0.20783323049545288,-0.127113938331604
43.8,-0.1922769546508789,0.10560035705566406,0.14896538853645325,0.25143954157829285,0.06267770379781723,-0.13555803894996643
43.85,0.14218640327453613,0.5073413848876953,0.18742182850837708,0.31964007019996643,0.1480899155139923,-0.1613723337650299
43.9,0.2039376050233841,0.06213092803955078,0.18468940258026123,0.31191450357437134,0.1772802472114563,-0.13600164651870728
43.95,0.16800671815872192,-0.05289459228515625,-0.11938000470399857,0.42044657468795776,0.17057019472122192,-0.12471546232700348
44.0,0.5016043186187744,0.03575706481933594,-0.6121808886528015,0.4780908226966858,0.13194793462753296,-0.08440078794956207
44.05,0.42084887623786926,0.013035774230957031,-1.2423508167266846,0.5152928233146667,0.02600128948688507,-0.010152861475944519
44.1,0.5260722041130066,0.47058773040771484,-1.495126485824585,0.467063844203949,0.004124060273170471,-0.059966668486595154
44.15,0.5227662920951843,0.4968404769897461,-1.1392648220062256,0.30586573481559753,-0.012610059231519699,-0.0537898987531662
44.2,0.49612876772880554,0.5173521041870117,-0.6544536352157593,0.05949460342526436,-0.048502981662750244,0.039869729429483414
44.25,0.5876056551933289,-0.06946277618408203,-0.7942180633544922,-0.14854402840137482,-0.17663779854774475,0.11126279830932617
44.3,0.7457336783409119,-0.40454673767089844,-0.9648369550704956,-0.19510453939437866,-0.27659276127815247,0.07073327153921127
44.35,0.6833587884902954,-0.2003641128540039,-0.9709689617156982,-0.12200760096311569,-0.3150392472743988,0.025770124047994614
44.4,0.4315161406993866,0.03703594207763672,-0.8475098013877869,-0.04206368327140808,-0.3272378742694855,0.05566224455833435
44.45,0.4055992066860199,0.8380460739135742,-0.20621946454048157,0.01576836034655571,-0.32143449783325195,0.04423454403877258
44.5,-0.08627133071422577,-0.09045886993408203,0.33553841710090637,-0.08142492920160294,-0.14629267156124115,0.056180715560913086
44.55,-0.4381086826324463,-0.43572521209716797,0.2991012930870056,-0.09579221904277802,-0.11227916181087494,0.05551036819815636
44.6,-0.1581326723098755,0.042748451232910156,0.42429351806640625,0.003465753048658371,-0.17528091371059418,0.05851440876722336
44.65,-0.28244316577911377,0.24779510498046875,0.6693230867385864,0.054751813411712646,-0.25045129656791687,0.03978249430656433
44.7,-0.1477927565574646,0.34864330291748047,0.8530148267745972,0.03959101438522339,-0.2951813340187073,0.07311850041151047
44.75,-0.30796611309051514,0.17855358123779297,0.686535120010376,0.04644758254289627,-0.29511603713035583,0.013441762886941433
44.8,-0.29974639415740967,-0.006840705871582031,0.6921342015266418,0.09929648041725159,-0.3410569131374359,0.03968752175569534
44.85,-0.4447791576385498,0.05276298522949219,0.6259908080101013,0.11396226286888123,-0.3165900707244873,0.010986950248479843
44.9,-0.2313385307788849,0.2440042495727539,0.6746161580085754,0.07136760652065277,-0.24095562100410461,-0.02725699171423912
44.95,-0.09742680191993713,0.30135536193847656,0.5018905997276306,-0.03352801501750946,-0.15076196193695068,-0.09509129077196121
45.0,-0.10125437378883362,-0.599614143371582,0.010519295930862427,-0.10328420996665955,-0.09523442387580872,-0.03862149268388748
45.05,0.3088124692440033,0.3489952087402344,0.1317257285118103,0.02987360768020153,-0.04336822032928467,-0.046826571226119995
45.1,0.13169890642166138,0.4964466094970703,0.17895393073558807,0.05415377765893936,0.04208406060934067,-0.009013419970870018
45.15,-0.053559280931949615,0.055670738220214844,-0.09115545451641083,0.040623076260089874,-0.023073621094226837,0.043318621814250946
45.2,0.07167567312717438,-0.015253067016601562,-0.07778941094875336,0.04652636498212814,-0.006994998082518578,0.033463072031736374
45.25,0.1637021005153656,0.2840604782104492,-0.2305036187171936,0.09133094549179077,-0.04830749332904816,0.026109008118510246
45.3,0.25094595551490784,0.40416717529296875,-0.25664669275283813,0.024666106328368187,-0.04539404436945915,0.03176885470747948
45.35,0.06735432147979736,0.24266338348388672,-0.2642240524291992,-0.04155726358294487,-0.0033166236244142056,0.0382651649415493
45.4,0.05139506608247757,0.1770458221435547,-0.2953806519508362,-0.09420926868915558,0.017505144700407982,0.003105759620666504
45.45,0.04812980443239212,0.1369924545288086,-0.28383398056030273,-0.150993213057518,-0.0004152543842792511,0.02565304934978485
45.5,0.055626075714826584,0.22091007232666016,-0.17702603340148926,-0.16702553629875183,-0.03353291004896164,0.008335739374160767
45.55,0.06465039402246475,0.047183990478515625,-0.2746971845626831,-0.2089157998561859,-0.04743010923266411,-0.003626205027103424
45.6,0.19782143831253052,0.056677818298339844,-0.33640456199645996,-0.2306123971939087,-0.052475374191999435,-0.018876686692237854
45.65,0.18425607681274414,0.051543235778808594,-0.10274729877710342,-0.22609205543994904,-0.02196289598941803,-0.04201151430606842
45.7,0.08360442519187927,0.1440906524658203,-0.07143484801054001,-0.23283754289150238,0.015153206884860992,-0.07203248888254166
45.75,0.0497785285115242,0.015295982360839844,-0.0012482944875955582,-0.22374176979064941,-0.00458274781703949,-0.05014447867870331
45.8,0.11228393018245697,0.05504322052001953,0.030899129807949066,-0.19503185153007507,-0.02319236472249031,-0.03589162975549698
45.85,0.10799209028482437,0.05747509002685547,0.02967844158411026,-0.18937507271766663,-0.009141530841588974,0.009198717772960663
45.9,0.09091425687074661,-0.0695943832397461,0.05038043111562729,-0.15449479222297668,-0.009002069011330605,0.028917483985424042
45.95,0.02127639204263687,-0.016988754272460938,-0.17932730913162231,-0.06344185769557953,0.006557924672961235,-0.024073395878076553
46.0,-0.01579325832426548,0.07388973236083984,-0.050306763499975204,-0.016323037445545197,-0.010980505496263504,-0.00994005799293518
46.05,-0.0370035246014595,0.14626789093017578,-0.04230976477265358,-0.010812872089445591,-0.02297057956457138,-0.004057534039020538
46.1,-0.0703771561384201,0.010825157165527344,-0.11468110978603363,-0.007093685679137707,-0.0776371955871582,0.011370796710252762
46.15,-0.12445606291294098,0.07747459411621094,-0.14762063324451447,0.007161656394600868,-0.05557022988796234,-0.0485038235783577
46.2,0.34968435764312744,0.2445659637451172,0.0679033100605011,-0.0024548061192035675,-0.06800075620412827,-0.026484262198209763
46.25,0.1360436975955963,0.12708282470703125,-0.12877234816551208,0.013888666406273842,-0.09542562812566757,-0.044857654720544815
46.3,0.002029918134212494,0.09763431549072266,-0.19452546536922455,0.01910630241036415,-0.024835284799337387,-0.058725472539663315
46.35,-0.04440987855195999,0.28592681884765625,-0.13091541826725006,0.04360301420092583,-0.013862877152860165,-0.07667538523674011
46.4,0.3893718123435974,0.06473064422607422,0.010269001126289368,-0.01115269586443901,-0.017597422003746033,-0.004284597933292389
46.45,0.16257905960083008,0.10546684265136719,-0.17971041798591614,0.03256892040371895,0.011108511127531528,-0.06110263615846634
46.5,0.2522871196269989,0.09142303466796875,-0.07870243489742279,0.026623522862792015,0.06931664049625397,-0.07569018751382828
46.55,0.2346578687429428,0.19453907012939453,-0.2106897532939911,0.014501415193080902,0.11099735647439957,-0.09638959914445877
46.6,0.10710570961236954,0.05849456787109375,-0.2140299379825592,-0.005667533725500107,0.1117158830165863,-0.09489551186561584
46.65,0.11463785171508789,0.0792989730834961,-0.13750426471233368,-0.00888122245669365,0.11518149077892303,-0.09416864812374115
46.7,0.04832207411527634,0.05879783630371094,-0.1880471110343933,-0.01680493727326393,0.10813917219638824,-0.06430751085281372
46.75,-0.03361853212118149,0.06230640411376953,-0.2112431824207306,-0.006701009348034859,0.056724004447460175,-0.0428929328918457
46.8,0.011782921850681305,0.22788047790527344,-0.17632630467414856,0.012923219241201878,0.01744379848241806,-0.04366801679134369
46.85,-0.019947968423366547,0.16369915008544922,-0.230099618434906,-0.007049744017422199,-0.025037603452801704,-0.02565973997116089
46.9,0.0002886056900024414,0.22641944885253906,-0.2592657208442688,-0.025949418544769287,-0.032611772418022156,-0.032316677272319794
46.95,0.15740527212619781,0.021303176879882812,-0.30872538685798645,-0.04961831122636795,-0.06015850603580475,-0.019829507917165756
