Time [s],Acc_x [m/s^2],Acc_y [m/s^2],Acc_z [m/s^2],Gyro_x [1/s],Gyro_y [1/s],Gyro_z [1/s]
0.0,-0.09480301290750504,0.1265888214111328,0.0819159746170044,-0.018864665180444717,0.02998148277401924,-0.027782663702964783
0.05,-0.13398471474647522,0.14050960540771484,0.04731457680463791,-0.02537582255899906,0.04146096482872963,-0.020265061408281326
0.1,-0.15704494714736938,0.16101360321044922,0.019250944256782532,-0.03344157338142395,0.03001728095114231,-0.02277229353785515
0.15,-0.13424929976463318,0.10843753814697266,0.07171141356229782,-0.03347703814506531,0.013653352856636047,-0.02112215757369995
0.2,-0.0980256125330925,0.05724334716796875,0.08722664415836334,-0.02600165829062462,0.00929900724440813,-0.013621095567941666
0.25,-0.08079051971435547,0.05095481872558594,0.05590783432126045,-0.016886644065380096,0.010745401494204998,-0.00193717610090971
0.3,-0.07983281463384628,0.06876373291015625,0.01513884961605072,-0.013043474406003952,0.005508570931851864,0.0050241779536008835
0.35,-0.04652559757232666,0.09676647186279297,0.008152887225151062,-0.008619856089353561,-0.0027135880663990974,0.004868694581091404
0.4,-0.0030317287892103195,0.1359567642211914,0.047692056745290756,-0.005390902981162071,-0.005455183330923319,0.0038206554017961025
0.45,-0.04058743268251419,0.13027191162109375,0.0252753384411335,-0.008590327575802803,0.0005842024111188948,-0.00461212731897831
0.5,-0.04559244588017464,0.08426094055175781,-0.04093342646956444,-0.022274859249591827,0.005254351533949375,-0.015502099879086018
0.55,-0.02001289092004299,0.0746755599975586,-0.005137291271239519,-0.034945569932460785,0.0009601260535418987,-0.019183633849024773
0.6,0.0047248173505067825,0.0913839340209961,0.005455023143440485,-0.03136032819747925,-0.005511932075023651,-0.026591837406158447
0.65,-0.035690516233444214,0.08146190643310547,0.01435442641377449,-0.027903448790311813,0.0029419269412755966,-0.030906271189451218
0.7,-0.06319586932659149,0.10900306701660156,0.010524969547986984,-0.0275134164839983,0.0078927893191576,-0.02342255972325802
0.75,-0.05431579425930977,0.12270069122314453,0.04147297888994217,-0.02711445465683937,0.0011982943397015333,-0.024333244189620018
0.8,-0.0215136781334877,0.10066795349121094,-0.008615739643573761,-0.03167325630784035,0.0002572728262748569,-0.024375975131988525
0.85,0.004058972001075745,0.11792278289794922,-0.032982178032398224,-0.03862768039107323,0.00684959115460515,-0.023388506844639778
0.9,0.015326907858252525,0.16757583618164062,-0.021582715213298798,-0.044844117015600204,0.00774916959926486,-0.03132699429988861
0.95,0.03642744943499565,0.1726064682006836,-0.0399974063038826,-0.05535000190138817,0.007903636433184147,-0.04684359207749367
1.0,0.03290248662233353,0.17199039459228516,-0.0643979012966156,-0.06728316843509674,0.011187084950506687,-0.06420107185840607
1.05,0.09015064686536789,0.2748241424560547,-0.12377876043319702,-0.07969515025615692,0.02050829492509365,-0.08531108498573303
1.1,0.1531820446252823,0.48548221588134766,-0.1996893733739853,-0.11352550983428955,0.030456924811005592,-0.12252311408519745
1.15,0.2026384025812149,0.5549497604370117,-0.25263240933418274,-0.19006399810314178,0.03758344426751137,-0.19668973982334137
1.2,0.27549225091934204,0.44853878021240234,-0.257088303565979,-0.28869450092315674,0.04785160720348358,-0.2925167977809906
1.25,0.35636675357818604,0.4988422393798828,-0.1845688819885254,-0.37028419971466064,0.07158355414867401,-0.3902685344219208
1.3,0.21421225368976593,0.2414693832397461,-0.06878863275051117,-0.4496861696243286,0.1299622505903244,-0.48553332686424255
1.35,-0.02664072997868061,-0.2477273941040039,0.022493131458759308,-0.47580331563949585,0.1949680745601654,-0.5080996751785278
1.4,-0.16035589575767517,-0.27600765228271484,0.02952834963798523,-0.4025428593158722,0.23412802815437317,-0.4548676609992981
1.45,-0.15066000819206238,-0.12256050109863281,0.04106234386563301,-0.31598129868507385,0.2525491416454315,-0.39543482661247253
1.5,-0.15044890344142914,-0.08187103271484375,0.04153454676270485,-0.26192349195480347,0.28445106744766235,-0.3489709496498108
1.55,-0.15224628150463104,-0.011755943298339844,0.09755855798721313,-0.2102116346359253,0.3338966965675354,-0.298813134431839
1.6,-0.16846579313278198,0.02048492431640625,0.10812214761972427,-0.16178040206432343,0.4218097925186157,-0.23978406190872192
1.65,-0.24483069777488708,0.005385398864746094,0.08055664598941803,-0.11121716350317001,0.5113004446029663,-0.17641043663024902
1.7,-0.26848453283309937,-0.07214641571044922,0.11086371541023254,-0.05781824514269829,0.5578052997589111,-0.1211247369647026
1.75,-0.3072635531425476,-0.12331295013427734,0.1639968454837799,0.004885878413915634,0.6017847657203674,-0.06644927710294724
1.8,-0.2783582806587219,-0.026676177978515625,0.10051891952753067,0.08880220353603363,0.6461191177368164,-0.0005895383656024933
1.85,-0.18810659646987915,0.066925048828125,0.07329675555229187,0.13808833062648773,0.6842741966247559,0.05786467716097832
1.9,-0.05471208691596985,-0.02175140380859375,0.11746250092983246,0.1446990668773651,0.7239941954612732,0.10206368565559387
1.95,0.1509397178888321,-0.0651845932006836,0.21731339395046234,0.19550615549087524,0.7666929364204407,0.14608490467071533
2.0,0.44818466901779175,-0.11986827850341797,0.3384073078632355,0.2762902081012726,0.8506761789321899,0.15641480684280396
2.05,0.5376113057136536,-0.14122867584228516,0.3770860731601715,0.3462790846824646,1.0115212202072144,0.12969261407852173
2.1,0.24675537645816803,0.042731285095214844,0.33001989126205444,0.35070356726646423,1.1709048748016357,0.13910600543022156
2.15,0.03907908499240875,0.3023395538330078,0.34225934743881226,0.2897220551967621,1.1680490970611572,0.21279743313789368
2.2,0.14329366385936737,0.30153942108154297,0.47753071784973145,0.23408129811286926,0.9758503437042236,0.241155207157135
2.25,0.37456852197647095,0.07730960845947266,0.6095663905143738,0.22422175109386444,0.7539003491401672,0.1763160228729248
2.3,0.4291382431983948,-0.1705636978149414,0.6632636785507202,0.21448266506195068,0.6361619234085083,0.10418587923049927
2.35,0.3536430597305298,-0.07236480712890625,0.5978803634643555,0.20279747247695923,0.5976836085319519,0.12180979549884796
2.4,0.27756166458129883,0.26109886169433594,0.6601545214653015,0.1883375644683838,0.5154305696487427,0.16863392293453217
2.45,0.1990804374217987,0.18916702270507812,0.8732342720031738,0.1694677770137787,0.34682661294937134,0.14022010564804077
2.5,0.09014293551445007,-0.2755556106567383,0.9115433692932129,0.23276565968990326,0.15559902787208557,0.05911828577518463
2.55,0.051854223012924194,-0.17113685607910156,0.7611355781555176,0.3791339695453644,0.03631123527884483,0.024776577949523926
2.6,0.19502027332782745,0.25382328033447266,0.5065172910690308,0.5201106071472168,0.016381748020648956,0.0922260582447052
2.65,0.2074912190437317,0.35004329681396484,0.27442115545272827,0.5208362340927124,0.0666578933596611,0.1592787355184555
2.7,0.06030884385108948,0.08653545379638672,0.3936176300048828,0.3446928858757019,0.10650777816772461,0.17602874338626862
2.75,-0.08799131214618683,-0.13320159912109375,0.49272534251213074,0.2419186234474182,0.14531101286411285,0.19502347707748413
2.8,-0.21692389249801636,-0.12639999389648438,0.3517591059207916,0.35125187039375305,0.20718684792518616,0.22711855173110962
2.85,-0.2841167747974396,-0.16070270538330078,0.2597842514514923,0.5426269173622131,0.23773600161075592,0.2560873031616211
2.9,-0.3812969923019409,-0.1712656021118164,0.389395147562027,0.6870810389518738,0.21813783049583435,0.26045066118240356
2.95,-0.5172703266143799,-0.4466285705566406,0.5427396893501282,0.6834973692893982,0.14652222394943237,0.24591520428657532
3.0,-0.5233652591705322,-0.6887626647949219,0.41467225551605225,0.6413638591766357,0.06542552262544632,0.24837413430213928
3.05,-0.22765763103961945,-0.023468971252441406,0.3870491087436676,0.6074901819229126,0.04555612802505493,0.28383809328079224
3.1,0.12410865724086761,-0.09748554229736328,0.14897345006465912,0.5043902397155762,0.11258154362440109,0.3320237696170807
3.15,0.2502630949020386,-1.4703340530395508,-0.6072118282318115,0.3990430235862732,0.14186421036720276,0.4025522768497467
3.2,0.7057426571846008,-1.476156234741211,-1.2430872917175293,0.47133511304855347,0.022939056158065796,0.470053493976593
3.25,1.188560962677002,-0.7792110443115234,-1.9222732782363892,0.6850652098655701,-0.04042378067970276,0.3884432017803192
3.3,0.573974609375,0.22277164459228516,-2.181384325027466,0.8315869569778442,0.0746157318353653,0.22747239470481873
3.35,-0.09273970127105713,0.5763721466064453,-2.0146937370300293,0.7634026408195496,0.1430460810661316,0.16516810655593872
3.4,-0.2459266185760498,0.6331253051757812,-1.6569498777389526,0.5847702026367188,0.09631362557411194,0.18938341736793518
3.45,-0.032521605491638184,0.5132312774658203,-1.1742234230041504,0.3875977098941803,0.01010523084551096,0.2174774706363678
3.5,0.13973259925842285,0.14433765411376953,-0.7166709899902344,0.23249639570713043,-0.06422547250986099,0.23387137055397034
3.55,0.22786623239517212,0.036301612854003906,-0.3733203709125519,0.17184807360172272,-0.12043412029743195,0.22306779026985168
3.6,0.27904772758483887,0.3214845657348633,-0.16007927060127258,0.19758296012878418,-0.11920036375522614,0.1744578629732132
3.65,0.0677572637796402,0.7084016799926758,-0.18955206871032715,0.2155645787715912,-0.059937190264463425,0.14917780458927155
3.7,-0.23794490098953247,0.9455528259277344,-0.16880883276462555,0.16050225496292114,-0.03910886496305466,0.14309078454971313
3.75,-0.2794327437877655,0.9307680130004883,-0.15967105329036713,0.08201909810304642,-0.0754886046051979,0.12450923025608063
3.8,-0.13276587426662445,0.8616018295288086,-0.140120267868042,0.017820730805397034,-0.10374701023101807,0.10634982585906982
3.85,-0.045457854866981506,0.7722005844116211,-0.09993402659893036,-0.04338297247886658,-0.09284557402133942,0.09681341052055359
3.9,-0.011720285750925541,0.7778215408325195,-0.009795396588742733,-0.09123092889785767,-0.07524506002664566,0.1049337238073349
3.95,0.058576829731464386,0.9768896102905273,-0.06581565737724304,-0.10074213892221451,-0.06638789176940918,0.11464256048202515
4.0,0.04684268683195114,1.130061149597168,-0.24209168553352356,-0.10274812579154968,-0.05920606479048729,0.10832669585943222
4.05,0.08153193444013596,1.0681047439575195,-0.30556803941726685,-0.11719709634780884,-0.05926826596260071,0.0706506296992302
4.1,0.19878607988357544,0.9472637176513672,-0.32122865319252014,-0.1323007196187973,-0.056802768260240555,0.015881408005952835
4.15,0.26220232248306274,0.8027734756469727,-0.3266867697238922,-0.16093215346336365,-0.043449655175209045,-0.02347291260957718
4.2,0.22534021735191345,0.6699790954589844,-0.2917928397655487,-0.20991550385951996,-0.02805013209581375,-0.053472429513931274
4.25,0.15403476357460022,0.49497318267822266,-0.1642112135887146,-0.2609972059726715,-0.014556748792529106,-0.07676366716623306
4.3,0.0034049302339553833,0.19530200958251953,0.01535525918006897,-0.29847830533981323,-0.009103506803512573,-0.07618149369955063
4.35,-0.19759488105773926,-0.27379894256591797,0.30120694637298584,-0.3246923089027405,-0.02340012416243553,-0.071801096200943
4.4,-0.36235371232032776,-0.7173805236816406,0.6549339890480042,-0.32256200909614563,-0.05764457583427429,-0.06080488860607147
4.45,-0.4607917070388794,-1.0755224227905273,0.9312835931777954,-0.2913479506969452,-0.1054513230919838,-0.033180974423885345
4.5,-0.48623591661453247,-1.393758773803711,1.1109793186187744,-0.23733344674110413,-0.15849997103214264,-0.015604659914970398
4.55,-0.47155123949050903,-1.4706802368164062,1.190538763999939,-0.1535295844078064,-0.21293595433235168,-0.019237827509641647
4.6,-0.2441665232181549,-1.5009746551513672,1.2594380378723145,-0.07783016562461853,-0.27053117752075195,-0.030483298003673553
4.65,0.05295979976654053,-1.4862489700317383,1.2339766025543213,-0.006208032835274935,-0.2933844327926636,-0.011021027341485023
4.7,0.14759203791618347,-1.089944839477539,1.0894721746444702,0.07058577984571457,-0.268385648727417,0.04031135141849518
4.75,0.39401358366012573,-0.6642656326293945,0.9128868579864502,0.10636677592992783,-0.22511151432991028,0.09413420408964157
4.8,0.43616554141044617,-0.4722166061401367,0.5198941230773926,0.13270539045333862,-0.1155499815940857,0.14146947860717773
4.85,0.3118859827518463,-0.20688819885253906,0.18338684737682343,0.16565699875354767,-0.005094112828373909,0.19939261674880981
4.9,0.3552975058555603,-0.09934520721435547,0.10785319656133652,0.1369956135749817,0.04838214069604874,0.2627400755882263
4.95,0.36610788106918335,-0.014774322509765625,-0.08807918429374695,0.1299363076686859,0.0965299978852272,0.27742257714271545
5.0,0.14631178975105286,0.3544301986694336,-0.4351040720939636,0.19850781559944153,0.14508607983589172,0.19549933075904846
5.05,-0.2190629541873932,0.9668540954589844,-0.7181582450866699,0.2805314064025879,0.17111580073833466,0.09416311979293823
5.1,-0.2673841714859009,1.4936809539794922,-0.8479592204093933,0.2997743487358093,0.1408693939447403,0.03157126158475876
5.15,-0.11275002360343933,1.5966739654541016,-0.92302405834198,0.21264943480491638,0.10200444608926773,-0.013607494533061981
5.2,-0.0983092188835144,1.6305856704711914,-1.0131468772888184,0.12048131227493286,0.10654724389314651,-0.052118636667728424
5.25,-0.17486783862113953,1.8563251495361328,-1.1032395362854004,0.05065105855464935,0.11275377869606018,-0.10212037712335587
5.3,-0.16077739000320435,2.139934539794922,-1.2072467803955078,-0.03722287341952324,0.08827834576368332,-0.15729288756847382
5.35,-0.08287125825881958,2.3120174407958984,-1.2129905223846436,-0.17037537693977356,0.047350555658340454,-0.22522205114364624
5.4,0.12245321273803711,1.8563108444213867,-1.1675783395767212,-0.38744398951530457,0.004850217141211033,-0.2928682863712311
5.45,0.15252959728240967,1.214996337890625,-1.0715126991271973,-0.5705761313438416,0.0024665910750627518,-0.34907352924346924
5.5,0.11821576952934265,0.7920904159545898,-1.0415582656860352,-0.668345034122467,0.008741892874240875,-0.38322100043296814
5.55,0.15991726517677307,0.5747413635253906,-1.0397800207138062,-0.7020028829574585,-0.00029347464442253113,-0.3731144964694977
5.6,0.3400149941444397,0.24244308471679688,-0.8467573523521423,-0.7140837907791138,-0.006508287042379379,-0.31833702325820923
5.65,0.5514541268348694,-0.4396800994873047,-0.20324327051639557,-0.7246969938278198,0.02011292055249214,-0.289628267288208
5.7,0.19264602661132812,-1.1577186584472656,0.45991161465644836,-0.7137616276741028,0.090303935110569,-0.3009907901287079
5.75,-0.32209327816963196,-1.5036134719848633,0.8557485342025757,-0.660606861114502,0.11311657726764679,-0.2983855605125427
5.8,-0.4113211929798126,-1.707113265991211,1.2504675388336182,-0.6150961518287659,0.05034884810447693,-0.24126987159252167
5.85,-0.30665457248687744,-1.8931608200073242,1.7130740880966187,-0.5551226139068604,-0.0025293491780757904,-0.15760162472724915
5.9,-0.3324788212776184,-1.878626823425293,2.099449634552002,-0.45003730058670044,-0.005607519298791885,-0.10066504776477814
5.95,-0.4086390733718872,-1.7729644775390625,2.259244918823242,-0.3101634085178375,0.004658902063965797,-0.04145846515893936
6.0,-0.10119283199310303,-1.3459663391113281,2.133542537689209,-0.09873484075069427,-0.004079708829522133,0.05795084685087204
6.05,0.3385758399963379,-0.9897527694702148,1.799652338027954,0.10026609897613525,0.019060034304857254,0.1322290450334549
6.1,0.27592188119888306,-0.7896280288696289,1.5871405601501465,0.2205691635608673,0.0872018039226532,0.10554289817810059
6.15,-0.01800459623336792,-0.7664947509765625,1.4498438835144043,0.2919960618019104,0.11919846385717392,0.05105982720851898
6.2,-0.02658921480178833,-0.8370046615600586,1.1576149463653564,0.34366828203201294,0.09693507850170135,0.02291831374168396
6.25,0.2018267661333084,-0.7446012496948242,0.5230584740638733,0.4185362458229065,0.09132383018732071,-0.00041188299655914307
6.3,0.39800795912742615,-0.49207496643066406,-0.2069995403289795,0.4194094240665436,0.14722849428653717,-0.0031177252531051636
6.35,-0.02203744649887085,0.06784820556640625,-0.6541159152984619,0.37600332498550415,0.2690460979938507,0.013164281845092773
6.4,-0.32796189188957214,0.9878616333007812,-0.7935833930969238,0.3640339970588684,0.29476746916770935,0.04225988686084747
6.45,-0.20936933159828186,2.1214141845703125,-1.0682950019836426,0.3951292634010315,0.2309788316488266,0.01701846718788147
6.5,-0.3331543803215027,2.9884214401245117,-1.3369063138961792,0.3518531620502472,0.24914827942848206,-0.04289403557777405
6.55,-0.9056177139282227,3.033365249633789,-1.4680967330932617,0.17081812024116516,0.3092114329338074,-0.05134070664644241
6.6,-0.9831376671791077,2.6102123260498047,-1.6206345558166504,0.0035350017715245485,0.24896343052387238,0.0035590576007962227
6.65,-0.48785316944122314,1.6614294052124023,-1.68979811668396,-0.15700623393058777,0.120679572224617,0.05569404736161232
6.7,0.10109055042266846,0.920750617980957,-1.6003718376159668,-0.26105958223342896,0.08651195466518402,0.060448288917541504
6.75,0.36076462268829346,0.20069122314453125,-1.232912302017212,-0.36534857749938965,0.18689054250717163,0.07670614123344421
6.8,-0.11624303460121155,-0.26511096954345703,-0.815638542175293,-0.4392188787460327,0.28496748208999634,0.04175001382827759
6.85,-0.08254078030586243,-0.20618247985839844,-0.7437053918838501,-0.44624218344688416,0.23022787272930145,0.005302488803863525
6.9,0.41413676738739014,-0.18935012817382812,-0.7934808731079102,-0.4463783800601959,0.16868597269058228,0.024287715554237366
6.95,0.4665883779525757,-0.47057151794433594,-0.7019451856613159,-0.48273777961730957,0.15151084959506989,0.027640044689178467
7.0,0.5843504071235657,-0.6701889038085938,-0.4803315997123718,-0.5218619108200073,0.06978265196084976,-0.01731008291244507
7.05,0.7887816429138184,-0.8402557373046875,-0.13938885927200317,-0.5689485669136047,-0.001187838613986969,-0.03927016258239746
7.1,0.815183699131012,-0.668095588684082,0.25624406337738037,-0.5865786075592041,0.013474971055984497,-0.030227690935134888
7.15,0.6061769723892212,-0.9125537872314453,0.6727177500724792,-0.6397528052330017,0.06431292742490768,-0.023519933223724365
7.2,0.32107359170913696,-0.6016111373901367,1.0562834739685059,-0.591848611831665,0.09821242839097977,-0.012528300285339355
7.25,0.4641818702220917,-0.20201969146728516,1.1211785078048706,-0.46322715282440186,0.07695814222097397,0.00379025936126709
7.3,0.39201557636260986,-0.3846158981323242,1.1227705478668213,-0.4170404374599457,0.07469294965267181,-0.05938984453678131
7.35,-0.13355973362922668,-0.547027587890625,1.2177681922912598,-0.3884819447994232,0.10425751656293869,-0.1336260735988617
7.4,-0.45375338196754456,-0.5334253311157227,1.2102631330490112,-0.320729523897171,0.08104383945465088,-0.13812264800071716
7.45,-0.4234265089035034,-0.49514102935791016,1.324312448501587,-0.25557273626327515,0.03799480199813843,-0.07416152209043503
7.5,-0.37694260478019714,-0.554926872253418,1.4818395376205444,-0.13850551843643188,0.037325773388147354,-0.014257244765758514
7.55,-0.48957881331443787,-0.6808767318725586,1.4265391826629639,0.03300227224826813,0.05455334484577179,-0.0060446597635746
7.6,-0.5486201643943787,-0.4819173812866211,1.0980740785598755,0.23601070046424866,0.024960951879620552,-0.022018536925315857
7.65,-0.3827597200870514,-0.10749530792236328,0.8638292551040649,0.3531756103038788,-0.04518837109208107,0.004097431898117065
7.7,-0.1489557921886444,-0.21116924285888672,0.8660162687301636,0.33147355914115906,-0.10583382844924927,0.051187023520469666
7.75,0.01601952314376831,-0.32065677642822266,0.8808137774467468,0.3245851993560791,-0.09694571793079376,0.07979254424571991
7.8,-0.04301515221595764,-0.4443941116333008,0.8630163073539734,0.3506552577018738,-0.026790350675582886,0.08515186607837677
7.85,-0.052019715309143066,-0.5723295211791992,0.7924120426177979,0.3987005949020386,0.03498472645878792,0.11104973405599594
7.9,-0.11263185739517212,-0.6180171966552734,0.6890097260475159,0.4168046712875366,0.05302376672625542,0.1313597857952118
7.95,-0.1329975426197052,-0.522059440612793,0.39628320932388306,0.4332851767539978,0.05689054727554321,0.1594773828983307
8.0,-0.030493099242448807,-0.6052913665771484,0.13879624009132385,0.44470369815826416,0.06093749403953552,0.21614763140678406
8.05,0.025579581037163734,-0.5078811645507812,-0.07613074034452438,0.49801456928253174,0.05055578052997589,0.19581523537635803
8.1,0.01952815055847168,-0.23326492309570312,-0.38270652294158936,0.5827914476394653,0.033050574362277985,0.11153753101825714
8.15,-0.0635436475276947,0.28673839569091797,-0.6634877920150757,0.6554554104804993,0.021310187876224518,0.02286437153816223
8.2,0.017622679471969604,0.6227502822875977,-0.7828629016876221,0.6693257093429565,0.0010172538459300995,-0.010094791650772095
8.25,0.027650535106658936,0.8750095367431641,-0.8031220436096191,0.6413639187812805,-0.009709399193525314,0.007991433143615723
8.3,0.0416281521320343,0.7814579010009766,-0.8920042514801025,0.563483715057373,-0.026201531291007996,0.07050883769989014
8.35,0.07593590021133423,0.7708044052124023,-0.9455968141555786,0.4718020260334015,-0.05468481034040451,0.11998873949050903
8.4,0.331989586353302,0.8408946990966797,-0.9966302514076233,0.39573216438293457,-0.08435142040252686,0.086628258228302
8.45,0.4327837824821472,0.9087429046630859,-1.0629420280456543,0.32543855905532837,-0.04972487688064575,0.06181182712316513
8.5,0.3459554612636566,0.8320131301879883,-1.0418983697891235,0.23755675554275513,0.018838876858353615,0.07628638297319412
8.55,0.10694032907485962,1.0247573852539062,-1.0376269817352295,0.15072743594646454,0.04168098419904709,0.10698265582323074
8.6,0.15240085124969482,1.2054967880249023,-1.1795480251312256,0.036517612636089325,-0.020989857614040375,0.12329265475273132
8.65,0.2981874942779541,1.4968223571777344,-1.3225486278533936,-0.07212259620428085,-0.06700298935174942,0.08882471919059753
8.7,0.20028704404830933,1.5391368865966797,-1.3742742538452148,-0.1769101917743683,-0.032189998775720596,0.040514975786209106
8.75,-0.01896083354949951,1.2407941818237305,-1.2238469123840332,-0.3152023255825043,0.010665799491107464,-0.004630580544471741
8.8,-0.19816598296165466,0.9007959365844727,-1.1001900434494019,-0.42559003829956055,0.03164215385913849,-0.014323711395263672
8.85,-0.23972955346107483,0.6536922454833984,-0.8353553414344788,-0.4991334080696106,0.027120793238282204,0.016452044248580933
8.9,-0.18153302371501923,0.1618032455444336,-0.3997980058193207,-0.6038177013397217,-0.013149658218026161,0.04108768701553345
8.95,-0.14314526319503784,-0.4195718765258789,0.08220912516117096,-0.6689674854278564,-0.04517567902803421,0.07416683435440063
9.0,-0.09849187731742859,-0.7401494979858398,0.5796843767166138,-0.6577913761138916,-0.045898765325546265,0.10036295652389526
9.05,-0.02134186029434204,-1.1799097061157227,1.1573504209518433,-0.6246179938316345,-0.04825977608561516,0.06483620405197144
9.1,-0.43905559182167053,-1.2706060409545898,1.4845497608184814,-0.498852401971817,-0.029606513679027557,-0.02047640085220337
9.15,-0.6722298860549927,-0.7855587005615234,1.4185850620269775,-0.32357800006866455,-0.05718306824564934,-0.024123206734657288
9.2,-0.3986337184906006,-0.7670049667358398,1.3291715383529663,-0.23771895468235016,-0.0987904891371727,0.054060861468315125
9.25,-0.19699138402938843,-0.7082672119140625,1.4002376794815063,-0.1396893560886383,-0.06948019564151764,0.1421758532524109
9.3,-0.1943594217300415,-0.9033184051513672,1.5907856225967407,-0.0955595001578331,-0.022682219743728638,0.19242830574512482
9.35,-0.11913460493087769,-0.9200620651245117,1.4709174633026123,-0.010440945625305176,0.00647813081741333,0.2188575714826584
9.4,-0.23362401127815247,-0.7455759048461914,1.1479945182800293,0.11723250150680542,0.04408746212720871,0.253248929977417
9.45,-0.18624302744865417,-0.6251764297485352,0.9842349290847778,0.19493594765663147,0.02646023780107498,0.3165149688720703
9.5,0.08324679732322693,-0.6420021057128906,0.8106366395950317,0.2691970467567444,-0.031393930315971375,0.3381958305835724
9.55,0.19317656755447388,-0.45659351348876953,0.521762490272522,0.44108152389526367,-0.07210024446249008,0.2669343054294586
9.6,-0.1311272829771042,-0.09854888916015625,0.1433435082435608,0.5908074378967285,-0.09285444766283035,0.14606201648712158
9.65,-0.07253953814506531,0.6807985305786133,-0.137468159198761,0.649019181728363,-0.1470426768064499,0.11250023543834686
9.7,0.26899680495262146,1.1694355010986328,0.16761894524097443,0.5183531045913696,-0.17178653180599213,0.07633553445339203
9.75,0.45543062686920166,0.7920017242431641,0.7751774191856384,0.3421911597251892,-0.06376734375953674,0.02493855357170105
9.8,0.25066110491752625,-0.4374980926513672,1.0242455005645752,0.24351848661899567,0.09042847156524658,-0.0022563859820365906
9.85,0.2489287555217743,-0.5577077865600586,0.5020787715911865,0.36407679319381714,0.18402406573295593,0.017721861600875854
9.9,0.34669429063796997,-0.5057830810546875,0.1259509027004242,0.42567014694213867,0.24138638377189636,0.049132511019706726
9.95,0.07674428075551987,-0.41179847717285156,-0.12546755373477936,0.4577335715293884,0.2921673655509949,-0.0016276538372039795
10.0,0.02222254127264023,0.049777984619140625,-0.273828387260437,0.5242003202438354,0.2536699175834656,-0.10533323884010315
10.05,0.04107031226158142,0.2337474822998047,-0.5121095180511475,0.4985223412513733,0.23393414914608002,-0.22901788353919983
10.1,-0.10638979077339172,0.5039024353027344,-0.6693702340126038,0.47735342383384705,0.2910916209220886,-0.28041553497314453
10.15,-0.3454594314098358,0.681422233581543,-0.7951124906539917,0.41074681282043457,0.32298192381858826,-0.27641570568084717
10.2,-0.3038475513458252,0.7921857833862305,-0.7422435283660889,0.3255048394203186,0.2875750958919525,-0.2578924000263214
10.25,-0.050093114376068115,0.8326692581176758,-0.8922220468521118,0.2395402044057846,0.2438753992319107,-0.18894872069358826
10.3,0.08617833256721497,0.961517333984375,-0.8852185010910034,0.1702524721622467,0.26143455505371094,-0.11318971961736679
10.35,0.26849645376205444,0.6744422912597656,-0.9024485945701599,0.07736219465732574,0.2630275785923004,-0.06607574969530106
10.4,0.24768537282943726,0.7499618530273438,-0.7475854158401489,0.040618546307086945,0.26010778546333313,-0.03745299205183983
10.45,0.20566648244857788,0.4812192916870117,-0.7001257538795471,-0.023693598806858063,0.2508211135864258,-0.018992269411683083
10.5,-0.06049513816833496,-0.19303321838378906,-0.6232230067253113,-0.13515494763851166,0.2494618445634842,-0.08072219043970108
10.55,-0.446533739566803,-0.7959270477294922,-0.5082376003265381,-0.1898351013660431,0.234702929854393,-0.10503613203763962
10.6,-0.6493880748748779,-1.0883197784423828,-0.5216479301452637,-0.1672569364309311,0.16074326634407043,-0.017568819224834442
10.65,-0.36685147881507874,-0.8101310729980469,-0.6657063364982605,-0.07365391403436661,0.015791557729244232,0.07906192541122437
10.7,0.03782433271408081,-0.14484691619873047,-0.8578737378120422,0.004081834107637405,-0.12691372632980347,0.10315915942192078
10.75,0.2800699472427368,0.5072860717773438,-1.0437804460525513,0.030016271397471428,-0.21389985084533691,0.07357500493526459
10.8,0.4417620599269867,0.9987049102783203,-1.1310455799102783,0.018805842846632004,-0.2567729651927948,0.0301395021378994
10.85,0.4510740041732788,1.7562761306762695,-0.9628136157989502,-0.015226569958031178,-0.25149399042129517,-0.04271535575389862
10.9,0.3359425365924835,1.9804744720458984,-0.5910547375679016,-0.16388513147830963,-0.23389576375484467,-0.09147018194198608
10.95,0.03535588085651398,1.0780773162841797,-0.5206218957901001,-0.372480183839798,-0.19450128078460693,-0.10317537933588028
11.0,-0.12413488328456879,0.6201925277709961,-0.3976347744464874,-0.4628155529499054,-0.15460094809532166,-0.08028669655323029
11.05,-0.0016067568212747574,0.5048637390136719,-0.0475044883787632,-0.5285959243774414,-0.13509848713874817,-0.0650082677602768
11.1,-0.17276683449745178,0.01736736297607422,0.3182389736175537,-0.6222221255302429,-0.08399754762649536,-0.052045196294784546
11.15,-0.5287857055664062,-0.36301708221435547,0.6443061232566833,-0.6353561878204346,-0.048566002398729324,-0.010994553565979004
11.2,-0.5371363759040833,-0.43985748291015625,0.9382845163345337,-0.6125054359436035,-0.12258560210466385,0.017645984888076782
11.25,-0.2574179172515869,-0.7950325012207031,1.1667460203170776,-0.6049214005470276,-0.24372148513793945,0.011435747146606445
11.3,-0.12807416915893555,-0.6204891204833984,1.2905560731887817,-0.5358789563179016,-0.28011825680732727,0.0008159875869750977
11.35,-0.1758873462677002,-0.6326065063476562,1.3850107192993164,-0.47202157974243164,-0.24897119402885437,0.01338869333267212
11.4,-0.25522005558013916,-0.7301578521728516,1.6252185106277466,-0.3904396891593933,-0.18775321543216705,-0.0005186796188354492
11.45,-0.3052940368652344,-0.57257080078125,1.6655194759368896,-0.26654180884361267,-0.13166743516921997,-0.01698928326368332
11.5,-0.15116310119628906,-1.2611236572265625,1.6580791473388672,-0.11936115473508835,-0.07759815454483032,-0.0337093211710453
11.55,-0.29537898302078247,-1.6558074951171875,1.517853021621704,0.16687732934951782,-0.011054444126784801,-0.0322742834687233
11.6,-0.368366539478302,-1.045638084411621,1.0916255712509155,0.42911091446876526,-0.04475260153412819,-0.008838534355163574
11.65,-0.22912299633026123,-0.3756561279296875,0.7147480249404907,0.5148982405662537,-0.1779860258102417,-0.05670827627182007
11.7,-0.02101188898086548,-0.28434276580810547,0.5137336850166321,0.5019266605377197,-0.24164751172065735,-0.03899070620536804
11.75,-0.003908514976501465,-0.5373048782348633,0.6058908700942993,0.4479689300060272,-0.19955897331237793,0.005205601453781128
11.8,0.1158430278301239,-0.5681343078613281,0.9055201411247253,0.4453754425048828,-0.1470911204814911,0.05315093696117401
11.85,0.25181862711906433,-1.177830696105957,1.0186669826507568,0.38527339696884155,-0.11489237844944,0.09259255230426788
11.9,0.173923522233963,-1.0548887252807617,0.566025972366333,0.49208152294158936,-0.0204581581056118,0.1225690096616745
11.95,-0.09192652255296707,-0.9625396728515625,0.13285399973392487,0.6166130304336548,0.06540055572986603,0.10890643298625946
12.0,-0.10635768622159958,-0.1789865493774414,-0.2683650553226471,0.69342440366745,0.060294654220342636,0.11981207132339478
12.05,0.12659384310245514,0.08670520782470703,-0.3244442045688629,0.6871746778488159,0.03593132644891739,0.11195376515388489
12.1,0.129558265209198,0.09336185455322266,-0.4394686818122864,0.6295095682144165,0.060680191963911057,0.06905567646026611
12.15,0.13675102591514587,0.4772319793701172,-0.6360043883323669,0.646035373210907,0.09690941125154495,0.032196640968322754
12.2,0.1445295810699463,0.7690677642822266,-0.7668676376342773,0.6812096834182739,0.14198143780231476,-0.03610962629318237
12.25,0.13775819540023804,1.5961189270019531,-0.6092725992202759,0.7254635691642761,0.19205185770988464,-0.11113244295120239
12.3,0.1945490539073944,1.55450439453125,-0.676874041557312,0.5832822322845459,0.20440834760665894,-0.12410910427570343
12.35,0.1463320106267929,1.8165693283081055,-0.4869036078453064,0.40833741426467896,0.23337216675281525,-0.18122290074825287
12.4,0.10124428570270538,1.8514690399169922,-0.5989171266555786,0.18734785914421082,0.2662431001663208,-0.16491036117076874
12.45,-0.1394667625427246,1.43084716796875,-0.9425252676010132,0.006670080125331879,0.3179130554199219,-0.11366912722587585
12.5,-0.06268885731697083,1.3780937194824219,-0.7882587909698486,-0.08476382493972778,0.3359295129776001,-0.10116070508956909
12.55,0.24444451928138733,0.5440921783447266,-0.6580296754837036,-0.23221835494041443,0.3381851017475128,-0.016751833260059357
12.6,-0.47235313057899475,0.42168235778808594,-0.8081874847412109,-0.274965763092041,0.42346301674842834,0.01305389404296875
12.65,-0.876030445098877,0.23190593719482422,-0.7163478136062622,-0.3178713023662567,0.390392005443573,-0.014314889907836914
12.7,-0.9669639468193054,0.11454010009765625,-0.6002582311630249,-0.3747188448905945,0.2782015800476074,-0.03340728580951691
12.75,-0.534618616104126,-0.026498794555664062,-0.43582600355148315,-0.4132818579673767,0.1291058361530304,-0.03345198929309845
12.8,-0.38207483291625977,-0.2068500518798828,-0.3427441418170929,-0.4556048512458801,0.05193465203046799,0.018381252884864807
12.85,-0.3139616847038269,-0.0038328170776367188,-0.30970409512519836,-0.43621623516082764,0.005920609924942255,0.10013729333877563
12.9,-0.05428607761859894,0.08890628814697266,-0.33931389451026917,-0.4125846028327942,-0.05940535292029381,0.13072574138641357
12.95,0.23188839852809906,0.14838123321533203,-0.27383556962013245,-0.3986166715621948,-0.12189513444900513,0.0674905925989151
13.0,0.427700936794281,-0.018944740295410156,-0.14566583931446075,-0.39131295680999756,-0.14513644576072693,-0.02175205945968628
13.05,0.23944519460201263,-0.1515493392944336,0.0012220144271850586,-0.39661505818367004,-0.13830463588237762,-0.06665900349617004
13.1,-0.007575184106826782,-0.6497983932495117,0.31705600023269653,-0.4214469790458679,-0.13997767865657806,-0.10291847586631775
13.15,-0.24280470609664917,-0.5336732864379883,0.5792975425720215,-0.33194422721862793,-0.12819994986057281,-0.1357751488685608
13.2,-0.42910417914390564,-0.3467559814453125,0.7995449304580688,-0.27492672204971313,-0.1577112376689911,-0.11594857275485992
13.25,-0.6115960478782654,-0.7601432800292969,1.1230299472808838,-0.33439135551452637,-0.2277950644493103,-0.07855065912008286
13.3,-0.3392455577850342,-1.2162437438964844,1.125675916671753,-0.27185773849487305,-0.3236660063266754,-0.012805722653865814
13.35,-0.464454710483551,-0.6482009887695312,0.9265400767326355,-0.0477963462471962,-0.3461655378341675,0.048541195690631866
13.4,-0.057485431432724,-0.4621305465698242,0.6406892538070679,0.04122602939605713,-0.4086068868637085,0.12107387185096741
13.45,0.4443023204803467,-0.09713268280029297,0.47788649797439575,0.048597551882267,-0.40086737275123596,0.204325869679451
13.5,0.693682849407196,-0.22597026824951172,0.4263300895690918,0.012291759252548218,-0.3035215139389038,0.2952011525630951
13.55,0.4212612807750702,0.20766544342041016,0.11968031525611877,0.04121376574039459,-0.1797240972518921,0.2957177758216858
13.6,0.1916598081588745,0.5240163803100586,-0.12472108751535416,0.02403038740158081,-0.1424267292022705,0.27682211995124817
13.65,0.3019287884235382,0.6639852523803711,-0.3263990879058838,-0.043114423751831055,-0.172326922416687,0.2503945231437683
13.7,0.31953826546669006,0.6402750015258789,-0.30449119210243225,-0.11951509118080139,-0.14134171605110168,0.1874566525220871
13.75,0.21062777936458588,0.5386266708374023,-0.3492470383644104,-0.18661361932754517,-0.0768551453948021,0.14790453016757965
13.8,-0.08838097751140594,0.554835319519043,-0.40527984499931335,-0.2567019462585449,-0.04607059806585312,0.09718196839094162
13.85,-0.23431167006492615,0.6194086074829102,-0.4023609161376953,-0.33694222569465637,-0.08573552966117859,0.03810432553291321
13.9,-0.3251149654388428,0.47720813751220703,-0.5455714464187622,-0.4147334694862366,-0.13679327070713043,-0.0007642209529876709
13.95,-0.35858356952667236,0.5151777267456055,-0.5643193125724792,-0.4717756509780884,-0.18996211886405945,-0.02923201024532318
14.0,-0.3018278479576111,0.34057140350341797,-0.5833540558815002,-0.5763941407203674,-0.2447662055492401,-0.01999536156654358
14.05,-0.22992385923862457,0.21704769134521484,-0.39859461784362793,-0.6609162092208862,-0.30363696813583374,-0.051287710666656494
14.1,-0.27348411083221436,0.06437206268310547,-0.4713286757469177,-0.7033777236938477,-0.3645835816860199,-0.09309062361717224
14.15,-0.17210495471954346,0.06551074981689453,-0.38392361998558044,-0.7238636016845703,-0.427878201007843,-0.09720277786254883
14.2,-0.17404897511005402,-0.02671527862548828,-0.2206200659275055,-0.7747457027435303,-0.4928301274776459,-0.05135384202003479
14.25,0.08615053445100784,-0.23283100128173828,0.028060022741556168,-0.8125934600830078,-0.5669722557067871,-0.011295318603515625
14.3,0.22569060325622559,-0.4622030258178711,0.3071598410606384,-0.8016278743743896,-0.5813886523246765,0.0036887824535369873
14.35,0.07199183106422424,-0.4993906021118164,0.5765073895454407,-0.7385976314544678,-0.5273838043212891,-0.031062781810760498
14.4,-0.19438208639621735,-0.541560173034668,0.7152059078216553,-0.6065013408660889,-0.4495783746242523,-0.07653406262397766
14.45,-0.37096840143203735,-0.5346994400024414,0.6947643756866455,-0.4799414575099945,-0.40975672006607056,-0.07788042724132538
14.5,-0.3394063115119934,-0.2964134216308594,0.7188060283660889,-0.38359424471855164,-0.4072219431400299,-0.054421260952949524
14.55,-0.3176697790622711,-0.17757606506347656,0.8841829299926758,-0.34677472710609436,-0.41677242517471313,-0.06882163882255554
14.6,-0.41600024700164795,-0.09528732299804688,0.9667360782623291,-0.3169440031051636,-0.38135260343551636,-0.10173135250806808
14.65,-0.24190884828567505,-0.8940649032592773,1.3996444940567017,-0.2675616145133972,-0.3022923767566681,-0.11397415399551392
14.7,-0.5704378485679626,-0.4540376663208008,1.226088047027588,0.01520809531211853,-0.15424887835979462,-0.11431750655174255
14.75,-0.6220385432243347,-0.5863142013549805,1.0128408670425415,0.17326289415359497,-0.06919443607330322,-0.0933002158999443
14.8,-0.22281412780284882,0.011820793151855469,0.7722700834274292,0.3336576819419861,0.05776679888367653,-0.0009575784206390381
14.85,-0.2197933793067932,0.07951736450195312,0.6365411281585693,0.2806336581707001,0.2800654172897339,0.07135015726089478
14.9,-0.5169840455055237,0.8873395919799805,0.2527332901954651,0.12098252028226852,0.48822519183158875,0.14574065804481506
14.95,-0.7243777513504028,0.929774284362793,0.4213126301765442,-0.13453932106494904,0.6004653573036194,0.20627151429653168
15.0,-0.2918398678302765,0.7294435501098633,0.6298423409461975,-0.2727683186531067,0.6399697661399841,0.26204368472099304
15.05,-0.048562780022621155,-0.21004676818847656,0.5336170792579651,-0.28997695446014404,0.6856953501701355,0.26780515909194946
15.1,0.45550772547721863,-0.5451068878173828,-0.06189970672130585,-0.13006050884723663,0.7057639360427856,0.3192055821418762
15.15,0.8454765677452087,-0.12854480743408203,-0.5820996761322021,-0.0006661415100097656,0.6606786847114563,0.4164661467075348
15.2,1.2543249130249023,0.23892688751220703,-0.7949191331863403,0.02104109525680542,0.5835182666778564,0.4692058563232422
15.25,1.5325251817703247,-0.011075973510742188,-1.0216100215911865,0.07370968163013458,0.5863245725631714,0.39424461126327515
15.3,1.40175199508667,0.08355236053466797,-1.077390193939209,0.08366286009550095,0.6094434261322021,0.27848175168037415
15.35,1.0506237745285034,-0.018373489379882812,-0.9383476972579956,0.028209727257490158,0.6226226091384888,0.14522141218185425
15.4,0.7401587963104248,-0.5458993911743164,-0.5350979566574097,-0.0525328665971756,0.5865668058395386,0.037605829536914825
15.45,0.5433319211006165,-0.8014793395996094,-0.33972829580307007,-0.022747579962015152,0.5024163126945496,0.013008475303649902
15.5,0.3193802237510681,-0.504115104675293,-0.4529601037502289,0.14642390608787537,0.3818981647491455,-0.020378194749355316
15.55,0.20778623223304749,0.07556819915771484,-1.077519178390503,0.24725505709648132,0.18328091502189636,-0.08176052570343018
15.6,-0.22744590044021606,0.7310171127319336,-1.206327199935913,0.19322986900806427,-0.050194740295410156,-0.19864732027053833
15.65,-0.6131269931793213,2.391659736633301,-0.8220692873001099,0.08632298558950424,-0.364799827337265,-0.2995065450668335
15.7,-0.019240528345108032,0.6581926345825195,-0.9813389778137207,-0.13558954000473022,-0.7037473917007446,-0.4664604663848877
15.75,-0.854857861995697,0.0014219284057617188,-0.2554057836532593,-0.35462436079978943,-0.8388316631317139,-0.7651013731956482
15.8,-0.8116074800491333,-0.6773529052734375,0.03378772735595703,-0.4287925958633423,-0.8954827785491943,-0.644878625869751
15.85,-0.216364324092865,-0.3294801712036133,0.04564853757619858,-0.3142814040184021,-0.8245396614074707,-0.38552436232566833
15.9,-0.02700883522629738,0.09217643737792969,-0.14476563036441803,-0.21691478788852692,-0.5664628148078918,-0.28850001096725464
15.95,-0.44645699858665466,0.8826742172241211,-0.10708171129226685,-0.18682315945625305,-0.19686172902584076,-0.2962467074394226
16.0,-1.0003362894058228,0.4035654067993164,0.11685130000114441,-0.23689022660255432,0.10698169469833374,-0.34444156289100647
16.05,-1.2993032932281494,-0.005564689636230469,0.1638181209564209,-0.23855529725551605,0.33238932490348816,-0.30096861720085144
16.1,-1.2375378608703613,-0.2400827407836914,0.20799356698989868,-0.2311263382434845,0.4931234121322632,-0.1488986611366272
16.15,-0.9191368222236633,-0.44563961029052734,0.2525330185890198,-0.21917887032032013,0.5702499747276306,0.04078487306833267
16.2,-0.7059351205825806,0.947697639465332,0.24110165238380432,-0.15462808310985565,0.593828558921814,0.09285712987184525
16.25,-0.1651344895362854,0.30765628814697266,-0.058285851031541824,0.03361838310956955,0.6905670762062073,0.02039756439626217
16.3,-0.35687702894210815,0.45542144775390625,-0.7216622829437256,0.1301036775112152,0.8685624599456787,-0.01427542045712471
16.35,-0.4994003176689148,-0.2652902603149414,-0.6991332173347473,0.05281980335712433,0.9274969100952148,0.08074142783880234
16.4,-0.07372874021530151,-0.4530458450317383,-0.9017742872238159,0.049594856798648834,0.8157039880752563,0.19671207666397095
16.45,0.5716550946235657,-0.38620471954345703,-1.0030920505523682,0.09442433714866638,0.7052228450775146,0.21470323204994202
16.5,0.5771763324737549,0.24543190002441406,-1.2122806310653687,0.189532071352005,0.6626296043395996,0.15580251812934875
16.55,0.6018633842468262,0.13677978515625,-1.26217520236969,0.16006161272525787,0.591090202331543,0.11921919137239456
16.6,0.5165521502494812,-0.3132333755493164,-1.1175549030303955,0.10166274756193161,0.5312221050262451,0.07691482454538345
16.65,0.21334132552146912,0.02456951141357422,-0.9773104190826416,0.11361207067966461,0.515224277973175,0.008875872939825058
16.7,0.07855543494224548,0.052620887756347656,-0.7590969800949097,0.021551955491304398,0.46195822954177856,0.02027028426527977
16.75,-0.14612218737602234,0.7139320373535156,-0.25629183650016785,-0.09254468977451324,0.38893061876296997,0.043933987617492676
16.8,0.024966850876808167,0.8932104110717773,0.23555819690227509,-0.20010444521903992,0.24030627310276031,0.13713650405406952
16.85,0.5218621492385864,-0.4574728012084961,-0.06439466774463654,-0.20120984315872192,0.04558885097503662,0.2545783221721649
16.9,1.0655187368392944,-0.7355337142944336,-0.10003969073295593,-0.1626032590866089,-0.06075785309076309,0.1450691968202591
16.95,1.7490134239196777,-0.6402177810668945,0.0762748122215271,-0.07818607985973358,-0.043594833463430405,-0.13552752137184143
17.0,1.2192318439483643,-0.5321435928344727,0.2139917016029358,0.0968686193227768,0.13497941195964813,-0.5539305210113525
17.05,-0.15106062591075897,0.057155609130859375,0.024666674435138702,0.3741837739944458,0.3573668599128723,-0.8577227592468262
17.1,-0.8736501932144165,0.4546327590942383,-0.170723557472229,0.40043148398399353,0.34183454513549805,-0.7482472658157349
17.15,-0.7830932140350342,0.21828746795654297,-0.022336721420288086,0.222309410572052,0.13910694420337677,-0.45528772473335266
17.2,-0.6058312058448792,0.30908203125,0.060205668210983276,0.24014338850975037,-0.055447131395339966,-0.33265456557273865
17.25,-0.4431895613670349,0.6097745895385742,-0.10746027529239655,0.2657362222671509,-0.22602497041225433,-0.22941181063652039
17.3,-0.16923584043979645,0.46714115142822266,-0.2175176441669464,0.11541887372732162,-0.3750118017196655,-0.07621342688798904
17.35,-0.027278918772935867,0.15709972381591797,-0.12080851197242737,-0.02334596775472164,-0.4544540047645569,-0.017159711569547653
17.4,-0.1612149477005005,0.14110374450683594,-0.06463983654975891,-0.054319560527801514,-0.4651046097278595,-0.017224900424480438
17.45,-0.1429675817489624,0.4991569519042969,-0.20973294973373413,-0.043620090931653976,-0.48192328214645386,0.0012911465018987656
17.5,-0.24719615280628204,0.5581493377685547,-0.34707167744636536,-0.1273813247680664,-0.46923530101776123,0.06543242931365967
17.55,-0.35230833292007446,0.47783660888671875,-0.3175874650478363,-0.2594066560268402,-0.4556809961795807,0.17108605802059174
17.6,-0.5201746225357056,0.43947887420654297,-0.12073534727096558,-0.3929101526737213,-0.47334522008895874,0.2770652174949646
17.65,-0.2277207225561142,-0.1608266830444336,0.06635826081037521,-0.5176956057548523,-0.5588440895080566,0.3813444972038269
17.7,0.37743860483169556,-0.4082479476928711,0.1916838437318802,-0.5140265226364136,-0.6276583671569824,0.37710726261138916
17.75,0.5434758067131042,-0.3206825256347656,0.30009692907333374,-0.3584456443786621,-0.5331356525421143,0.2496662139892578
17.8,0.5668500065803528,-0.24712276458740234,0.19655857980251312,-0.19521364569664001,-0.30180150270462036,0.17845909297466278
17.85,0.18535412847995758,-0.02427196502685547,0.07750007510185242,-0.05194127932190895,-0.025247864425182343,0.14444595575332642
17.9,0.03296267241239548,0.04278373718261719,0.07573997229337692,0.00036016106605529785,0.13500192761421204,0.1674601435661316
17.95,-0.01321461796760559,-0.20914173126220703,0.2057192474603653,0.012166418135166168,0.22141613066196442,0.1788366734981537
18.0,-0.11955171823501587,-0.13641834259033203,0.3045947253704071,0.07088714838027954,0.2620314061641693,0.12026853114366531
18.05,-0.012981519103050232,-0.21585845947265625,0.3456922173500061,0.16404853761196136,0.26340728998184204,0.08287011086940765
18.1,-0.052283503115177155,-0.043381690979003906,0.2653612792491913,0.2989700436592102,0.2859331965446472,0.006528109312057495
18.15,-0.11947432160377502,-0.2394876480102539,0.39555996656417847,0.3944019079208374,0.3030778765678406,-0.07789057493209839
18.2,-0.10963813960552216,-0.3533954620361328,0.26361945271492004,0.4857688248157501,0.2657082974910736,-0.12831652164459229
18.25,-0.0020774751901626587,-0.22495174407958984,0.2431386262178421,0.6134676933288574,0.23062750697135925,-0.20023171603679657
18.3,-0.16390199959278107,0.06440353393554688,-0.19018596410751343,0.6487007737159729,0.20585793256759644,-0.24853451550006866
18.35,-0.4353579580783844,1.3253726959228516,-1.0896598100662231,0.5834624171257019,0.19295036792755127,-0.16825953125953674
18.4,-0.5248146057128906,1.7063941955566406,-1.4091688394546509,0.20441478490829468,0.17945723235607147,0.007453203201293945
18.45,-0.4436997175216675,1.0768918991088867,-1.1288410425186157,-0.2631407678127289,0.20119215548038483,0.23002342879772186
18.5,-0.36329957842826843,0.654545783996582,-0.7964967489242554,-0.5520904064178467,0.23951643705368042,0.39218786358833313
18.55,-0.04716986417770386,0.11648273468017578,-0.5815989375114441,-0.7322202920913696,0.2490738481283188,0.541043221950531
18.6,0.3686094880104065,-0.21622276306152344,-0.3048941195011139,-0.7711994647979736,0.24462300539016724,0.5771681070327759
18.65,0.486565500497818,-0.45478153228759766,-0.02091105282306671,-0.7289570569992065,0.2445451021194458,0.4411918818950653
18.7,0.5020773410797119,-0.5280532836914062,0.088345006108284,-0.6125650405883789,0.242645263671875,0.24032889306545258
18.75,0.34266945719718933,-0.21203136444091797,0.011692896485328674,-0.4428015351295471,0.23078417778015137,0.03220467269420624
18.8,0.1945652961730957,0.24024200439453125,-0.1132216826081276,-0.34024569392204285,0.20382846891880035,-0.0861944779753685
18.85,-0.05045601353049278,-0.13120746612548828,0.15697601437568665,-0.36348000168800354,0.1621900051832199,-0.16461515426635742
18.9,-0.5070751905441284,0.06923961639404297,0.09778809547424316,-0.2744165062904358,0.1488879919052124,-0.17575384676456451
18.95,-0.2887986898422241,0.3677825927734375,-0.09832338988780975,-0.2392379343509674,0.08597646653652191,0.0007848590612411499
19.0,0.11840605735778809,-0.012398719787597656,-0.158685564994812,-0.2929360866546631,0.019548863172531128,0.14303046464920044
19.05,0.31219643354415894,-0.17116069793701172,-0.20904210209846497,-0.2470586746931076,-0.01147506758570671,0.10281693190336227
19.1,0.3290592432022095,-0.041146278381347656,-0.014865323901176453,-0.21355599164962769,-0.029446998611092567,0.046315111219882965
19.15,0.16461290419101715,0.24968814849853516,0.19039729237556458,-0.21176078915596008,-0.05496809259057045,0.015659570693969727
19.2,0.11165536940097809,-0.01584148406982422,0.3961542844772339,-0.2709176540374756,-0.06021181493997574,0.025781169533729553
19.25,0.08025899529457092,-0.3293895721435547,0.46555787324905396,-0.1737145483493805,0.02312307432293892,-0.0023734048008918762
19.3,-0.010936170816421509,-0.1896820068359375,0.20382502675056458,0.08475593477487564,0.1384686529636383,-0.11107271909713745
19.35,-0.17423230409622192,0.04408073425292969,-0.020392082631587982,0.26006099581718445,0.20279952883720398,-0.20374852418899536
19.4,-0.09884510189294815,0.11873340606689453,-0.11997418850660324,0.3333969712257385,0.14511962234973907,-0.20539546012878418
19.45,-0.05108334869146347,0.10527229309082031,-0.09525977075099945,0.3443760573863983,0.02583528682589531,-0.21036624908447266
19.5,0.09016360342502594,0.06644248962402344,-0.17128479480743408,0.3227154016494751,-0.0885888859629631,-0.21723628044128418
19.55,0.2031347155570984,-0.09898090362548828,0.04809780418872833,0.2853440046310425,-0.13319210708141327,-0.25082477927207947
19.6,0.1131163090467453,-0.15911197662353516,0.24352267384529114,0.3240019381046295,-0.1186794564127922,-0.33811143040657043
19.65,-0.01546817272901535,-0.08027935028076172,0.2045338898897171,0.39818257093429565,-0.09608013927936554,-0.4093285799026489
19.7,-0.12458805739879608,0.21654987335205078,0.0030110925436019897,0.46353548765182495,-0.06879975646734238,-0.42922717332839966
19.75,-0.1482815146446228,0.4118490219116211,-0.134894460439682,0.4498046338558197,-0.014813359826803207,-0.37473785877227783
19.8,-0.30245938897132874,0.3595762252807617,-0.17109259963035583,0.3919828534126282,0.04149802029132843,-0.28242915868759155
19.85,-0.34486743807792664,0.4516620635986328,-0.22197756171226501,0.3322218060493469,0.04014790803194046,-0.17363283038139343
19.9,-0.31279030442237854,0.4269294738769531,-0.10091022402048111,0.24165838956832886,-0.003734748810529709,-0.06645408272743225
19.95,-0.1480550616979599,0.05599403381347656,0.05062488466501236,0.1683148741722107,-0.02780231460928917,0.03589942306280136
20.0,-0.03874756768345833,-0.16559410095214844,0.12643639743328094,0.1909320056438446,-0.03729916363954544,0.06890031695365906
20.05,0.12603475153446198,-0.004937171936035156,-0.07267136871814728,0.2565377354621887,-0.0718790739774704,0.032941222190856934
20.1,0.13904620707035065,0.2627716064453125,-0.24186383187770844,0.26973938941955566,-0.0819820910692215,-0.01788853108882904
20.15,-0.01032959669828415,0.1738719940185547,-0.23914119601249695,0.21523451805114746,-0.06601113080978394,-0.024813376367092133
20.2,-0.07266095280647278,-0.07680320739746094,-0.08063405752182007,0.1755446493625641,-0.036788322031497955,-0.0008148699998855591
20.25,-0.1752161681652069,0.07528305053710938,-0.12601129710674286,0.20348559319972992,-0.010292619466781616,0.0366203635931015
20.3,-0.19730165600776672,0.02445220947265625,-0.24623391032218933,0.2047596275806427,-0.03555098921060562,0.0506133958697319
20.35,-0.07324424386024475,0.1728048324584961,-0.4352915585041046,0.20485538244247437,-0.08736646175384521,0.019166558980941772
20.4,0.028240323066711426,0.26423168182373047,-0.4454204738140106,0.16189327836036682,-0.08861900120973587,0.006808757781982422
20.45,-0.08359980583190918,0.37398242950439453,-0.4462851881980896,0.10262367874383926,-0.05948253720998764,0.025219496339559555
20.5,-0.12985673546791077,0.2070140838623047,-0.5603364706039429,0.022318745031952858,-0.044174037873744965,0.062177736312150955
20.55,-0.17287281155586243,0.09508895874023438,-0.3864307999610901,-0.030302030965685844,-0.026920931413769722,0.07655023038387299
20.6,-0.11641568690538406,-0.039299964904785156,-0.30751413106918335,-0.027341777458786964,-0.03835607320070267,0.047075703740119934
20.65,-0.20814110338687897,0.3761606216430664,-0.40900254249572754,-0.01446022279560566,-0.049772102385759354,0.010047471150755882
20.7,-0.1410055160522461,0.3244180679321289,-0.33231204748153687,-0.11590373516082764,-0.05134528875350952,0.048926182091236115
20.75,0.10822148621082306,-0.28621482849121094,-0.11954236775636673,-0.1619008481502533,-0.0056330058723688126,0.05764066427946091
20.8,0.0018129143863916397,-0.20766925811767578,0.01796046830713749,-0.0539502277970314,0.07367651909589767,-0.02674224227666855
20.85,-0.12340614944696426,0.05416584014892578,-0.05277365446090698,0.016647078096866608,0.09537792950868607,-0.08777162432670593
20.9,-0.2876490652561188,0.4478025436401367,-0.15238143503665924,-0.0029552895575761795,0.07336373627185822,-0.06550312787294388
20.95,-0.07638752460479736,0.2256479263305664,-0.21316030621528625,-0.10051484405994415,0.016276849433779716,-0.0032605528831481934
21.0,0.032980822026729584,0.12269973754882812,-0.10171058773994446,-0.12943261861801147,0.034483518451452255,0.015830591320991516
21.05,0.05848514288663864,0.16498851776123047,-0.02692640945315361,-0.13385221362113953,0.05992908403277397,0.017388328909873962
21.1,-0.01877286657691002,-0.018349647521972656,-0.03346800431609154,-0.15610188245773315,0.05732034519314766,0.02789667248725891
21.15,0.013948868960142136,-0.23268795013427734,0.011235963553190231,-0.1551373302936554,0.030467938631772995,0.013206824660301208
21.2,-0.06788650155067444,0.14598941802978516,-0.16357988119125366,-0.1269053965806961,0.014298167079687119,-0.016012519598007202
21.25,-0.09239290654659271,0.07349777221679688,-0.029843129217624664,-0.14505711197853088,0.011307589709758759,-0.0107627734541893
21.3,-0.05354618281126022,0.07365703582763672,0.03515998646616936,-0.16175577044487,-0.001522798091173172,0.0020926445722579956
21.35,-0.1424282193183899,0.13274669647216797,0.013665646314620972,-0.17959493398666382,-0.02455064095556736,-0.007002510130405426
21.4,-0.14490382373332977,0.22871017456054688,-0.01111697405576706,-0.19672515988349915,-0.051816221326589584,0.012228310108184814
21.45,-0.09307114779949188,0.2623405456542969,-0.027796048671007156,-0.24353240430355072,-0.06609272956848145,0.053272545337677
21.5,-0.07240039855241776,0.09961891174316406,-0.05540180578827858,-0.28522658348083496,-0.06574517488479614,0.09556297957897186
21.55,-0.08659466356039047,-0.002048492431640625,-0.019838765263557434,-0.28975415229797363,-0.05543878674507141,0.10560133308172226
21.6,-0.1076391190290451,-0.044899940490722656,0.04537764564156532,-0.2698695659637451,-0.05610878765583038,0.09508290886878967
21.65,0.02215990237891674,-0.17328929901123047,0.056154124438762665,-0.20874202251434326,-0.06617200374603271,0.05809434503316879
21.7,0.036205217242240906,-0.0830850601196289,-0.026642654091119766,-0.11016692221164703,-0.042318195104599,0.017143677920103073
21.75,-0.10612009465694427,-0.005721092224121094,-0.06354830414056778,-0.0627068281173706,-0.014028564095497131,0.009504133835434914
21.8,-0.02589549869298935,0.04119300842285156,-0.018386324867606163,-0.019924841821193695,-0.016503147780895233,-0.009165025316178799
21.85,-0.06361300498247147,0.09418582916259766,-0.07660890370607376,0.022357385605573654,-0.04023062810301781,-0.046289749443531036
21.9,0.010239839553833008,0.1304788589477539,-0.19207832217216492,-0.0008513890206813812,-0.07278113067150116,-0.0491621270775795
21.95,0.03143899142742157,0.12879085540771484,-0.19878730177879333,-0.0407305583357811,-0.07056335359811783,-0.05321207642555237
22.0,-0.014395635575056076,0.11948871612548828,-0.09895369410514832,-0.0487186536192894,-0.03869083523750305,-0.07061944156885147
22.05,-0.13826309144496918,0.0035543441772460938,-0.08862629532814026,-0.04006630554795265,-0.0015824176371097565,-0.07634194940328598
22.1,-0.29979681968688965,0.1301565170288086,-0.13001924753189087,-0.027573823928833008,0.021598465740680695,-0.05565560609102249
22.15,-0.32342734932899475,0.1421365737915039,0.01337982714176178,-0.03904449939727783,0.026731714606285095,-0.021136274561285973
22.2,-0.26479652523994446,0.12524127960205078,0.08512967079877853,-0.03094760701060295,0.02185852639377117,-0.0007049310952425003
22.25,-0.1790650486946106,0.09272956848144531,-0.019227437674999237,-0.015109551139175892,0.009264147840440273,0.015809455886483192
22.3,-0.11710118502378464,0.14322376251220703,-0.11708341538906097,-0.014143593609333038,-0.004491108935326338,0.015210743993520737
22.35,-0.039330724626779556,0.028585433959960938,-0.11843042075634003,-0.01933961920440197,-0.0025131285656243563,0.022344645112752914
22.4,0.021115511655807495,-0.13226032257080078,-0.13490751385688782,-0.012673122808337212,0.010472306981682777,0.04775155708193779
22.45,-0.1437484622001648,0.047492027282714844,-0.1643923819065094,0.0005487650632858276,-0.009160386398434639,0.04596863314509392
22.5,-0.41082435846328735,-0.033844947814941406,-0.024658381938934326,0.010362420231103897,-0.07813058793544769,0.027813106775283813
22.55,-0.4074918031692505,-0.052536964416503906,-0.02923785150051117,0.04699765518307686,-0.1688108742237091,0.045669712126255035
22.6,-0.2710043489933014,-0.2150421142578125,0.2736438512802124,0.06524541974067688,-0.20587824285030365,0.06623104214668274
22.65,-0.3267037868499756,-0.014210700988769531,0.5179450511932373,0.13136841356754303,-0.19153757393360138,0.06401363015174866
22.7,-0.218551367521286,-0.037230491638183594,0.7320436239242554,0.19550347328186035,-0.17147092521190643,0.10029935836791992
22.75,-0.1275222897529602,-0.0847177505493164,0.8620609045028687,0.26891347765922546,-0.11522757261991501,0.15494412183761597
22.8,-0.2696971595287323,-0.4538125991821289,1.013572335243225,0.36750492453575134,-0.04338090121746063,0.1721295863389969
22.85,-0.33331310749053955,-0.47971153259277344,0.7280250191688538,0.5488104820251465,-0.019359156489372253,0.1792260706424713
22.9,-0.12867027521133423,-0.2701587677001953,0.1261143684387207,0.7075588703155518,-0.028996899724006653,0.20098184049129486
22.95,0.12066115438938141,-0.00223541259765625,-0.44322139024734497,0.7696120738983154,-0.030347585678100586,0.22983497381210327
23.0,0.24508441984653473,0.08810901641845703,-0.6558892726898193,0.7278038859367371,-0.0018725544214248657,0.2343144714832306
23.05,0.280207097530365,0.32886600494384766,-0.720363199710846,0.6548722982406616,0.01342591643333435,0.1899428516626358
23.1,0.349713534116745,0.34932613372802734,-0.778518557548523,0.5462876558303833,0.011919081211090088,0.13658419251441956
23.15,0.461747407913208,0.18910598754882812,-0.7893882989883423,0.45877471566200256,0.05420224368572235,0.10519252717494965
23.2,0.38855135440826416,0.14212417602539062,-0.7898166179656982,0.4242846965789795,0.12720367312431335,0.05369642376899719
23.25,0.14898240566253662,0.4396963119506836,-0.7625058889389038,0.39767172932624817,0.1770581305027008,-0.0029361695051193237
23.3,-0.13934943079948425,0.5187034606933594,-0.6930235624313354,0.30221134424209595,0.1661633402109146,-0.014979898929595947
23.35,-0.3065018057823181,0.38123416900634766,-0.5719506144523621,0.17768189311027527,0.09405861794948578,-0.0032313093543052673
23.4,-0.32265162467956543,0.3615846633911133,-0.4245966076850891,0.0904344916343689,0.022173942998051643,-0.01692000776529312
23.45,-0.28698936104774475,0.3630523681640625,-0.2769922614097595,0.008572516962885857,-0.028195079416036606,-0.024149753153324127
23.5,-0.23870119452476501,0.07443523406982422,-0.0727446898818016,-0.07221928238868713,-0.050007764250040054,0.024807091802358627
23.55,-0.3742712140083313,-0.038092613220214844,0.1035836786031723,-0.0958777666091919,-0.06108558923006058,0.07261194288730621
23.6,-0.3999515771865845,-0.0072765350341796875,0.08194094896316528,-0.09511740505695343,-0.11478706449270248,0.10779836028814316
23.65,-0.2575244605541229,-0.11403179168701172,0.0423702746629715,-0.08948080986738205,-0.17185427248477936,0.1304231584072113
23.7,-0.18426498770713806,-0.18396663665771484,0.047014132142066956,-0.05116372928023338,-0.19317872822284698,0.1106085404753685
23.75,-0.11569523811340332,-0.08623600006103516,0.023011982440948486,0.0037165358662605286,-0.19135060906410217,0.07804615050554276
23.8,-0.07338541001081467,0.11362171173095703,-0.05466319993138313,0.03833451122045517,-0.1748623102903366,0.062094494700431824
23.85,-0.14291533827781677,0.1628894805908203,-0.0689888522028923,0.01829228177666664,-0.15582206845283508,0.0805613175034523
23.9,-0.17320458590984344,0.052956581115722656,-0.04807566851377487,-0.005000438541173935,-0.1413409560918808,0.10012247413396835
23.95,-0.0892084389925003,0.06036853790283203,-0.1019950807094574,0.01121838390827179,-0.1207469254732132,0.09175340831279755
24.0,-0.04443301260471344,0.15117835998535156,-0.10965374112129211,0.012282930314540863,-0.10814764350652695,0.08951092511415482
24.05,-0.03415653854608536,0.1812152862548828,-0.1639195680618286,-0.019706236198544502,-0.11023978143930435,0.08728337287902832
24.1,-0.0017933323979377747,0.16869640350341797,-0.18729938566684723,-0.06428813934326172,-0.11165987700223923,0.07037432491779327
24.15,-0.05555142089724541,0.10189533233642578,-0.12601029872894287,-0.0833844318985939,-0.08016819506883621,0.04890202730894089
24.2,-0.13108497858047485,0.039656639099121094,-0.07555851340293884,-0.07834264636039734,-0.035310350358486176,0.049193717539310455
24.25,-0.11142092943191528,0.037873268127441406,-0.06933309882879257,-0.06558217853307724,-0.01900944858789444,0.05215437337756157
24.3,-0.08948163688182831,0.07864665985107422,-0.06671451777219772,-0.06023111939430237,-0.019684039056301117,0.03830516338348389
24.35,-0.041852205991744995,0.14370441436767578,-0.12003293633460999,-0.06183969974517822,-0.020384781062602997,0.02002926729619503
24.4,0.006583001464605331,0.11722373962402344,-0.11964607238769531,-0.07213099300861359,-0.011872615665197372,0.014376239851117134
24.45,-0.12883390486240387,0.11130714416503906,-0.0644911527633667,-0.08891880512237549,0.007130893878638744,0.011483699083328247
24.5,-0.1890479326248169,0.13041400909423828,-0.008002296090126038,-0.11102049052715302,0.00482440460473299,0.011292379349470139
24.55,-0.14205729961395264,-0.006886482238769531,-0.06110479682683945,-0.13187387585639954,-0.013680828735232353,0.03922906890511513
24.6,-0.013259828090667725,-0.1498126983642578,-0.10853231698274612,-0.13496005535125732,-0.007669463753700256,0.049530744552612305
24.65,-0.08012163639068604,-0.09726715087890625,0.029242007061839104,-0.09247641265392303,0.022555755451321602,0.011537130922079086
24.7,-0.15613962709903717,-0.04452800750732422,0.11102747917175293,-0.045434605330228806,0.03499196097254753,-0.012010789476335049
24.75,-0.1415659785270691,-0.0377044677734375,0.06577973067760468,-0.0184345506131649,0.025432797148823738,-0.01021665707230568
24.8,-0.15750697255134583,0.055319786071777344,0.024398185312747955,-0.004437336698174477,0.015862327069044113,-0.010926484130322933
24.85,-0.1965072751045227,0.025330543518066406,-0.08239749073982239,-0.007637615315616131,0.012056725099682808,0.0053496696054935455
24.9,-0.1933007687330246,-0.01024627685546875,-0.21905365586280823,-0.003559242933988571,0.0008974336087703705,0.02559959515929222
24.95,-0.0974343791604042,0.05260658264160156,-0.2380925863981247,0.007607323583215475,-0.010774155147373676,0.021690890192985535
25.0,-0.09945262968540192,0.03748607635498047,-0.1742805540561676,-0.0020570559427142143,0.005557252559810877,0.01305965706706047
25.05,-0.24564117193222046,-0.038811683654785156,-0.12324497103691101,-0.0032101082615554333,0.03449254482984543,0.014036514796316624
25.1,-0.291013240814209,0.011366844177246094,-0.1213594451546669,0.025366993620991707,0.024611465632915497,0.02533731237053871
25.15,-0.21518492698669434,0.19639873504638672,-0.29236751794815063,0.04925847426056862,-0.013737094588577747,0.02647208608686924
25.2,-0.16222578287124634,0.35363006591796875,-0.4773704409599304,0.018367119133472443,-0.04766986519098282,0.03385421261191368
25.25,-0.08131271600723267,0.3152914047241211,-0.5332799553871155,-0.06538722664117813,-0.08397918939590454,0.0638120248913765
25.3,0.014365315437316895,0.14256000518798828,-0.6094227433204651,-0.1280837059020996,-0.105307936668396,0.07061505317687988
25.35,0.017523080110549927,0.23862457275390625,-0.7457898855209351,-0.1446797251701355,-0.11831904947757721,0.03068065270781517
25.4,-0.01767292618751526,0.2930021286010742,-0.7233740091323853,-0.20196974277496338,-0.14227306842803955,0.005898132920265198
25.45,-0.05699947476387024,0.2858772277832031,-0.5744061470031738,-0.27886176109313965,-0.15630701184272766,0.026607312262058258
25.5,-0.10467460751533508,0.20259571075439453,-0.3659493029117584,-0.3545669913291931,-0.1689121574163437,0.06276634335517883
25.55,-0.17458580434322357,-0.12498092651367188,-0.04123304411768913,-0.4172932505607605,-0.20835834741592407,0.06595046818256378
25.6,-0.2422538548707962,-0.34406185150146484,0.16286702454090118,-0.3985266387462616,-0.27523714303970337,0.03377704322338104
25.65,-0.21961063146591187,-0.3728179931640625,0.15220999717712402,-0.304377943277359,-0.33721792697906494,0.0012395083904266357
25.7,-0.15892533957958221,-0.3352794647216797,-0.00875808298587799,-0.16902929544448853,-0.3779691457748413,-0.057147685438394547
25.75,-0.2528495490550995,-0.18062782287597656,-0.17428499460220337,-0.02310328185558319,-0.44344496726989746,-0.16460102796554565
25.8,-0.15976139903068542,0.08747196197509766,-0.2070913314819336,0.06802564859390259,-0.5671266317367554,-0.26175594329833984
25.85,0.030388273298740387,0.1872234344482422,-0.18318285048007965,0.07861823588609695,-0.6454856395721436,-0.29770106077194214
25.9,-0.0035240575671195984,0.2393960952758789,-0.2146681845188141,0.06749057024717331,-0.6256176233291626,-0.2816259562969208
25.95,-0.01154918223619461,0.2691783905029297,-0.23846054077148438,0.041630059480667114,-0.5962256193161011,-0.22511932253837585
26.0,0.10225067287683487,0.31046485900878906,-0.1363149732351303,-0.021267123520374298,-0.5812345147132874,-0.1492956280708313
26.05,0.23737958073616028,0.0974264144897461,0.09651760756969452,-0.1123659610748291,-0.5431891679763794,-0.10933242738246918
26.1,0.2833389937877655,-0.15665054321289062,0.39064356684684753,-0.1409047245979309,-0.4535970687866211,-0.1249447613954544
26.15,0.12148734927177429,-0.0074100494384765625,0.5327118039131165,-0.0646664947271347,-0.314142644405365,-0.16036458313465118
26.2,-0.14145128428936005,0.1815929412841797,0.4561053514480591,-0.03649746626615524,-0.1504211276769638,-0.14623239636421204
26.25,-0.46346646547317505,0.1749591827392578,0.3522503972053528,-0.09789196401834488,0.011474095284938812,-0.08319461345672607
26.3,-0.7608967423439026,0.17279911041259766,0.19750332832336426,-0.1640823483467102,0.1055637001991272,-0.008051767945289612
26.35,-0.7556506991386414,0.14440536499023438,0.10361805558204651,-0.22542285919189453,0.11438902467489243,0.06641131639480591
26.4,-0.5771162509918213,0.12217044830322266,0.14453855156898499,-0.26589879393577576,0.12358339875936508,0.13088765740394592
26.45,-0.5225946307182312,0.02131175994873047,0.2528006434440613,-0.2914294898509979,0.17349977791309357,0.18055079877376556
26.5,-0.4941304922103882,-0.19172191619873047,0.40453532338142395,-0.2944263219833374,0.2256060242652893,0.2325267344713211
26.55,-0.3029845058917999,-0.40976810455322266,0.5300272703170776,-0.23836438357830048,0.2715983986854553,0.30004823207855225
26.6,-0.16627776622772217,-0.3862476348876953,0.5343999862670898,-0.11895089596509933,0.3260660767555237,0.36781686544418335
26.65,-0.08197338879108429,-0.2650489807128906,0.4233298599720001,-0.0030808746814727783,0.3581417202949524,0.4197365641593933
26.7,-0.023198656737804413,-0.25359535217285156,0.24935711920261383,0.0945613831281662,0.3510604798793793,0.4282105565071106
26.75,0.0520477369427681,-0.16685009002685547,-0.01439598947763443,0.19113430380821228,0.3245525062084198,0.39401715993881226
26.8,0.18082915246486664,0.056265830993652344,-0.37988603115081787,0.26036059856414795,0.3193122446537018,0.339607834815979
26.85,0.30298396944999695,0.107147216796875,-0.5550713539123535,0.2569342851638794,0.31663620471954346,0.2704973816871643
26.9,0.2974996268749237,0.08757781982421875,-0.5446677207946777,0.242989644408226,0.3167768716812134,0.16858214139938354
26.95,-0.002180546522140503,0.24805545806884766,-0.5008863210678101,0.24312257766723633,0.3122059106826782,0.06530541181564331
27.0,-0.16393837332725525,0.33945274353027344,-0.5050044059753418,0.1957409530878067,0.23571988940238953,0.01617441326379776
27.05,-0.15171422064304352,0.34992408752441406,-0.5206915140151978,0.11184313893318176,0.1441819965839386,0.005956478416919708
27.1,-0.09266491234302521,0.1733388900756836,-0.5058279037475586,0.026257794350385666,0.08938027918338776,0.01899953931570053
27.15,-0.04975299537181854,0.1317281723022461,-0.45209643244743347,-0.022964034229516983,0.06688043475151062,0.04079324007034302
27.2,-0.10495860874652863,0.19031620025634766,-0.36835283041000366,-0.042496681213378906,0.05729099363088608,0.05708160623908043
27.25,-0.03870438039302826,0.16359806060791016,-0.3026909828186035,-0.060996197164058685,0.029744798317551613,0.06323028355836868
27.3,0.1034909337759018,0.08100509643554688,-0.2378358095884323,-0.07913737744092941,0.01705125905573368,0.05766462907195091
27.35,0.10493333637714386,0.03869819641113281,-0.16731218993663788,-0.06345698237419128,0.047972653061151505,0.03631366044282913
27.4,-0.04516547918319702,0.0965261459350586,-0.17060716450214386,-0.03369747847318649,0.07101184129714966,-0.001161131076514721
27.45,-0.13036982715129852,0.07966899871826172,-0.1882154941558838,-0.0372103750705719,0.04240132123231888,-0.03218841925263405
27.5,-0.17068928480148315,0.03789520263671875,-0.18070565164089203,-0.04620949178934097,0.03531821817159653,-0.03357568755745888
27.55,-0.1686561554670334,-0.06803512573242188,-0.18753577768802643,-0.04628874361515045,0.05636294186115265,-0.014437642879784107
27.6,-0.13818374276161194,-0.016590118408203125,-0.15074007213115692,-0.02407418191432953,0.053510040044784546,-0.0007897811010479927
27.65,-0.11422938108444214,0.023944854736328125,-0.13438890874385834,-0.007510675583034754,0.041740257292985916,-0.009203722700476646
27.7,-0.08824710547924042,0.0038576126098632812,-0.14112862944602966,0.002866668626666069,0.04595869034528732,-0.02899131551384926
27.75,-0.13601481914520264,0.25108909606933594,-0.2893315851688385,0.02202192135155201,0.06542842090129852,-0.03791239112615585
27.8,-0.6466277837753296,4.28212833404541,-2.9086320400238037,0.028284616768360138,0.07865492254495621,-0.03961418196558952
27.85,-0.6299257278442383,3.774606704711914,-2.4651236534118652,0.021089572459459305,0.085158571600914,-0.03988715633749962
27.9,-0.23576079308986664,0.2665252685546875,-0.1646709442138672,-0.004807298071682453,0.08335714042186737,-0.02390008419752121
27.95,-0.2049451619386673,0.0910654067993164,-0.016440406441688538,-0.023709267377853394,0.0769115537405014,-0.001044795848429203
28.0,-0.1759774386882782,0.10773277282714844,-0.08661681413650513,-0.02866104617714882,0.07776657491922379,0.018574118614196777
28.05,-0.14105430245399475,0.08985137939453125,-0.13182620704174042,-0.03992521017789841,0.09156452119350433,0.036769624799489975
28.1,-0.21063977479934692,0.0807027816772461,-0.021032288670539856,-0.04701578989624977,0.1092405691742897,0.04575951769948006
28.15,-0.13113892078399658,0.0843191146850586,0.0834314227104187,-0.04239737242460251,0.097648985683918,0.057256653904914856
28.2,0.01005258597433567,0.1370563507080078,0.03561082482337952,-0.0276065394282341,0.07881160080432892,0.06539193540811539
28.25,0.04636155068874359,0.10643672943115234,-0.04480995982885361,-0.03470343351364136,0.08413080871105194,0.051498204469680786
28.3,0.008988268673419952,0.13362598419189453,-0.07034832239151001,-0.06350739300251007,0.09581676125526428,0.032173801213502884
28.35,-0.055751439183950424,0.10492706298828125,-0.05799279734492302,-0.10172736644744873,0.10771641135215759,0.03529819846153259
28.4,-0.1068359911441803,0.01859760284423828,-0.02061697095632553,-0.09887450933456421,0.12078137695789337,0.027663975954055786
28.45,-0.13129884004592896,0.028586387634277344,0.002198353409767151,-0.06339918076992035,0.12458039820194244,0.019984973594546318
28.5,-0.05403796583414078,0.06639575958251953,0.024629490450024605,-0.047275129705667496,0.11063157021999359,0.031862128525972366
28.55,0.023074183613061905,0.041527748107910156,-0.002223607152700424,-0.038333989679813385,0.10122886300086975,0.037096235901117325
28.6,0.009267158806324005,0.007725715637207031,0.03309349715709686,-0.026092227548360825,0.10968838632106781,0.035118069499731064
28.65,0.006248236633837223,0.010077476501464844,-0.029718875885009766,-0.011228308081626892,0.10918097198009491,0.013154572807252407
28.7,0.007813245058059692,0.050553321838378906,-0.18327942490577698,0.0035570706240832806,0.11145538091659546,-0.01201983168721199
28.75,-0.08150996267795563,0.13848876953125,-0.1998080313205719,-0.007695280015468597,0.1206740215420723,-0.00804255809634924
28.8,-0.21219006180763245,0.12609481811523438,-0.13492926955223083,-0.04977475106716156,0.0976053774356842,0.013333575800061226
28.85,-0.17496353387832642,0.08660411834716797,-0.11602985858917236,-0.08291839063167572,0.05699240416288376,0.05053729563951492
28.9,0.013503886759281158,0.032067298889160156,-0.16009743511676788,-0.07553090155124664,0.04141268506646156,0.07649634033441544
28.95,0.059246327728033066,0.013453483581542969,-0.0914788618683815,-0.04966938495635986,0.05086603760719299,0.0696190670132637
29.0,0.0032355079893022776,0.030493736267089844,-0.009012390859425068,-0.03681133687496185,0.04108699411153793,0.04631111025810242
29.05,0.010118812322616577,0.09158611297607422,-0.0385570265352726,-0.020402949303388596,0.014230897650122643,0.022106915712356567
29.1,0.017603538930416107,0.1278057098388672,-0.13211220502853394,-0.007147965487092733,0.005873260088264942,0.010473321191966534
29.15,-0.06305142492055893,0.15122127532958984,-0.16179990768432617,-0.012472382746636868,0.010492372326552868,0.011277062818408012
29.2,-0.05711318552494049,0.11664104461669922,-0.12725335359573364,-0.030808299779891968,0.007944891229271889,0.022104190662503242
29.25,-0.006595037877559662,0.07441997528076172,-0.11213675141334534,-0.04067302495241165,0.010787203907966614,0.02565235272049904
29.3,-0.014574065804481506,0.05245399475097656,-0.08992472290992737,-0.0434686616063118,0.020393352955579758,0.016794461756944656
29.35,-0.07120977342128754,0.05796623229980469,-0.09613816440105438,-0.0429927259683609,0.023782115429639816,0.008742038160562515
29.4,-0.11233408004045486,0.011950492858886719,-0.0867161676287651,-0.04088444635272026,0.023040231317281723,0.010072348639369011
29.45,-0.0623890645802021,0.014740943908691406,-0.04114857688546181,-0.03479874134063721,0.01749662309885025,0.01687118038535118
29.5,-0.007361830212175846,0.033435821533203125,-0.015833454206585884,-0.023592019453644753,0.011048628017306328,0.01731242798268795
29.55,0.031462665647268295,0.03855705261230469,-0.015101797878742218,-0.01375128049403429,0.004961124621331692,0.01291955728083849
29.6,0.1148574948310852,-0.02444934844970703,-0.0057723671197891235,-0.007787901908159256,-0.0006260459776967764,-0.0055727665312588215
29.65,-0.02545606531202793,0.04827690124511719,-0.05763809010386467,0.028455324470996857,0.02127993106842041,-0.04088064283132553
29.7,-0.16270309686660767,0.22423076629638672,-0.24218212068080902,0.044902242720127106,0.03520715981721878,-0.0530623197555542
29.75,-0.14557719230651855,0.28403186798095703,-0.27881520986557007,-0.0068625109270215034,0.029120521619915962,-0.028449807316064835
29.8,-0.11862878501415253,0.1322460174560547,-0.20067891478538513,-0.06961552798748016,0.029126064851880074,0.0014178790152072906
29.85,-0.1370490938425064,0.11561870574951172,-0.11647623777389526,-0.09574931859970093,0.038207292556762695,0.020693432539701462
29.9,-0.11393271386623383,0.09104061126708984,-0.07917222380638123,-0.10410301387310028,0.04469580203294754,0.03587445616722107
29.95,-0.0504363514482975,0.06296634674072266,-0.06463249027729034,-0.1001853346824646,0.05426081269979477,0.0527414008975029
30.0,0.0075680166482925415,0.041930198669433594,-0.09502167254686356,-0.09785397350788116,0.05974108353257179,0.05374111235141754
30.05,-0.07501505315303802,0.054045677185058594,-0.14087629318237305,-0.10113367438316345,0.05748393386602402,0.040877457708120346
30.1,-0.1234620213508606,0.09151935577392578,-0.1585981249809265,-0.11038900911808014,0.026748279109597206,0.04109388589859009
30.15,0.03882164508104324,0.10689353942871094,-0.1913030594587326,-0.12828481197357178,-0.021355122327804565,0.04451199620962143
30.2,0.13828788697719574,-0.04486370086669922,-0.034655023366212845,-0.12555648386478424,-0.009178259409964085,0.010607518255710602
30.25,-0.17709822952747345,-0.05748558044433594,0.10784271359443665,-0.052182864397764206,0.07145842909812927,-0.04387922212481499
30.3,-0.20820748805999756,0.1386432647705078,-0.09525691717863083,0.02678249217569828,0.06911226361989975,-0.0708317831158638
30.35,-0.05007520318031311,0.20585346221923828,-0.22213590145111084,0.016192758455872536,0.008529826998710632,-0.057315725833177567
30.4,-0.06168021634221077,0.07429313659667969,-0.16383448243141174,-0.03136734291911125,-0.002918865531682968,-0.03842998668551445
30.45,-0.07188810408115387,-0.014277458190917969,-0.1076929122209549,-0.029022367671132088,0.010825548321008682,-0.024235408753156662
30.5,-0.056375324726104736,-0.013525009155273438,-0.13877898454666138,0.00762508949264884,0.007601449266076088,-0.017579104751348495
30.55,0.006738230586051941,0.08739376068115234,-0.1634019911289215,0.023455483838915825,-0.0040171644650399685,-0.0012764865532517433
30.6,0.09521036595106125,0.14560794830322266,-0.2181418240070343,0.008941535837948322,-0.0008673528209328651,0.0211198590695858
30.65,0.04464629292488098,0.19510936737060547,-0.23848029971122742,-0.030866866931319237,0.005978649016469717,0.02013588137924671
30.7,-0.03076985478401184,0.2716493606567383,-0.25148993730545044,-0.07231490314006805,0.0043090214021503925,0.0038853920996189117
30.75,-0.038965754210948944,0.10185527801513672,-0.17769581079483032,-0.11271607130765915,0.002719099633395672,0.010029308497905731
30.8,0.04078572615981102,-0.042733192443847656,-0.05068628117442131,-0.11672542989253998,0.012708357535302639,0.020561017096042633
30.85,0.01804785430431366,0.03655433654785156,-0.08586490154266357,-0.07140356302261353,0.04256397485733032,0.007051028311252594
30.9,-0.026451800018548965,0.042771339416503906,-0.07264333218336105,-0.06226687133312225,0.05133502185344696,-0.001078454777598381
30.95,-0.029963016510009766,-0.021569252014160156,-0.06348146498203278,-0.053507450968027115,0.052397966384887695,-0.026416068896651268
31.0,-0.08942404389381409,0.15515899658203125,-0.10486991703510284,-0.031312212347984314,0.045474354177713394,-0.05860568583011627
31.05,-0.05555203929543495,0.1285552978515625,-0.10894423723220825,-0.03829468414187431,0.04156112298369408,-0.07034853100776672
31.1,-0.0788484588265419,-0.000972747802734375,-0.08549787849187851,-0.033253371715545654,0.07965683937072754,-0.07822218537330627
31.15,-0.15465450286865234,-0.06636905670166016,-0.03308836370706558,-0.007710300385951996,0.11889936029911041,-0.07809463888406754
31.2,-0.19332556426525116,0.049393653869628906,-0.02044408768415451,0.034222859889268875,0.12531502544879913,-0.07059857249259949
31.25,-0.20527249574661255,0.29262447357177734,-0.08040018379688263,0.04277448356151581,0.0966973677277565,-0.07050870358943939
31.3,-0.11945509910583496,0.1640338897705078,-0.08739129453897476,-0.005054298788309097,0.05078846588730812,-0.05480692535638809
31.35,-0.07661834359169006,-0.02698993682861328,-0.04707370325922966,-0.012422718107700348,0.055991582572460175,-0.060597509145736694
31.4,-0.1267719864845276,-0.03944206237792969,-0.0672701746225357,0.018171221017837524,0.06825528293848038,-0.08530235290527344
31.45,-0.1978466510772705,0.12610721588134766,-0.032398827373981476,0.04428010433912277,0.07491672784090042,-0.09463921189308167
31.5,-0.31439560651779175,0.16275978088378906,-0.021452873945236206,0.03370000422000885,0.04465668275952339,-0.08590704947710037
31.55,-0.20435476303100586,0.013342857360839844,-0.007374629378318787,0.01149129867553711,-0.022880317643284798,-0.0611209012567997
31.6,-0.08275753259658813,-0.01579570770263672,-0.17333653569221497,0.012642789632081985,-0.06067626178264618,-0.03957672044634819
31.65,-0.13224667310714722,0.0036458969116210938,-0.14769166707992554,0.0335988774895668,-0.041876982897520065,-0.0329892560839653
31.7,-0.1190541535615921,0.055970191955566406,-0.018755916506052017,0.055325351655483246,-0.039657190442085266,-0.032298941165208817
31.75,0.05598728358745575,0.04780769348144531,-0.026518354192376137,0.06679500639438629,-0.04718051850795746,-0.03455018997192383
31.8,0.011111631989479065,0.21845722198486328,-0.1490977704524994,0.06862746924161911,-0.0383770614862442,-0.03185999393463135
31.85,0.01232215017080307,0.07477569580078125,-0.17924846708774567,0.04781363531947136,-0.022637566551566124,-0.0499386191368103
31.9,-0.1534753143787384,0.21759796142578125,-0.12206731736660004,0.04393743351101875,-0.0009652916342020035,-0.0751342698931694
31.95,-0.07632193714380264,0.03711223602294922,-0.08230005949735641,0.010966519825160503,-0.01596924476325512,-0.04263695329427719
32.0,0.026081684976816177,0.05123424530029297,-0.12212115526199341,0.009153706021606922,-0.008323169313371181,-0.007275505922734737
32.05,-0.05057220906019211,0.042601585388183594,-0.15144959092140198,0.01078459806740284,0.033066846430301666,0.001223236322402954
32.1,-0.15832805633544922,0.003945350646972656,-0.12867523729801178,0.010919487103819847,0.053094372153282166,-0.0002500186674296856
32.15,-0.24447989463806152,0.01770496368408203,-0.06594326347112656,0.014862539246678352,0.050811268389225006,0.010193351656198502
32.2,-0.15351982414722443,0.05258750915527344,-0.08012805879116058,0.011294151656329632,0.006556046195328236,0.035971615463495255
32.25,-0.02259071171283722,0.07221126556396484,-0.19119584560394287,0.02541998215019703,-0.016625477001070976,0.04705885797739029
32.3,0.010811373591423035,0.07178020477294922,-0.2765848934650421,0.033300045877695084,-0.011130433529615402,0.03446178138256073
32.35,0.05234886705875397,0.09338951110839844,-0.21797245740890503,0.025622665882110596,-0.009766212664544582,0.008456267416477203
32.4,0.06598059833049774,0.015077590942382812,-0.210877925157547,0.023062357679009438,0.004869643598794937,-0.0028971917927265167
32.45,-0.09870213270187378,0.13733959197998047,-0.33601275086402893,0.04676889628171921,0.019172269850969315,-0.029600560665130615
32.5,-0.16771668195724487,0.13645076751708984,-0.2774904668331146,0.03717449679970741,0.002432779408991337,-0.04614365100860596
32.55,0.05365145206451416,-0.18062305450439453,-0.12367428839206696,-0.006884807720780373,-0.023554187268018723,-0.010607348755002022
32.6,-0.010727539658546448,0.00907135009765625,-0.19314324855804443,-0.058533474802970886,-0.033015619963407516,0.03815840557217598
32.65,-0.16216562688350677,0.021959304809570312,-0.1568778157234192,-0.07703161239624023,-0.042701467871665955,0.0481257289648056
32.7,-0.17692157626152039,-0.009093284606933594,-0.13789425790309906,-0.04014371335506439,-0.06665226817131042,0.020250508561730385
32.75,-0.04647119343280792,-0.21858501434326172,-0.038942232728004456,-0.0035559539683163166,-0.10529834777116776,-0.008827650919556618
32.8,0.026919081807136536,-0.08006858825683594,-0.10761299729347229,0.06674490869045258,-0.09533070027828217,-0.06565983593463898
32.85,0.03627164661884308,0.015769004821777344,-0.17310038208961487,0.10760241001844406,-0.04809078201651573,-0.09042995423078537
32.9,-0.12713494896888733,0.28307533264160156,-0.24046826362609863,0.11551234126091003,-0.03417897969484329,-0.11160316318273544
32.95,-0.2397531419992447,0.3724346160888672,-0.2562946677207947,0.04816574603319168,-0.0994327962398529,-0.12460946291685104
33.0,-0.2229645699262619,0.3542766571044922,-0.27565157413482666,-0.04564642533659935,-0.19802778959274292,-0.10395520180463791
33.05,0.05465645715594292,-0.062225341796875,-0.18234069645404816,-0.14528276026248932,-0.30019697546958923,-0.1055743396282196
33.1,0.17271548509597778,-0.11870193481445312,-0.22065068781375885,-0.14157074689865112,-0.3395730257034302,-0.1738756000995636
33.15,0.27714744210243225,-0.013350486755371094,-0.2525954246520996,-0.09571418911218643,-0.3199557662010193,-0.23732168972492218
33.2,0.4092901647090912,0.007422447204589844,-0.20931652188301086,-0.052440494298934937,-0.267061322927475,-0.31358978152275085
33.25,0.2331543266773224,0.07869243621826172,-0.048988766968250275,-0.035559892654418945,-0.20366916060447693,-0.4154704809188843
33.3,0.0005498584359884262,0.13068199157714844,0.05813801288604736,-0.02950546145439148,-0.14481529593467712,-0.4656755030155182
33.35,-0.029372170567512512,0.058361053466796875,0.2948492765426636,-0.033437877893447876,-0.10412910580635071,-0.4458206295967102
33.4,-0.05785942077636719,-0.5239229202270508,0.3482215404510498,0.036445558071136475,-0.03827153146266937,-0.4235527515411377
33.45,-0.2035931944847107,-0.31059741973876953,0.21297335624694824,0.2333269864320755,0.0221787691116333,-0.4371855854988098
33.5,-0.3765869438648224,0.07955551147460938,-0.09858468919992447,0.2900221645832062,-0.002262100577354431,-0.42368391156196594
33.55,-0.5216872096061707,0.45590782165527344,-0.22004497051239014,0.24994918704032898,-0.04331295192241669,-0.36153364181518555
33.6,-0.4942392110824585,0.3371877670288086,0.03087736666202545,0.15002624690532684,-0.07693605124950409,-0.258822500705719
33.65,-0.2066895067691803,-0.1371784210205078,0.16507360339164734,0.10667838901281357,-0.1145818829536438,-0.15190157294273376
33.7,-0.12903878092765808,-0.051369667053222656,0.2158411741256714,0.15594924986362457,-0.06268195062875748,-0.06119807809591293
33.75,-0.09605669975280762,-0.0959920883178711,0.1978849172592163,0.17981941998004913,-0.030340025201439857,-0.012240193784236908
33.8,0.04952158033847809,-0.5163555145263672,0.2575136423110962,0.2098769247531891,-0.0477653369307518,-0.04888256639242172
33.85,0.06626693159341812,-0.19308090209960938,0.10920307785272598,0.3349919319152832,0.013347020372748375,-0.12454916536808014
33.9,-0.08894132077693939,-0.0030584335327148438,-0.1445612907409668,0.3649694323539734,0.12099725008010864,-0.10571092367172241
33.95,-0.3231428265571594,-0.18257999420166016,-0.23205196857452393,0.3672831952571869,0.21020032465457916,-0.056524962186813354
34.0,-0.42357760667800903,0.1465444564819336,-0.4608556032180786,0.4293074607849121,0.1903221160173416,-0.021168053150177002
34.05,-0.10863733291625977,0.3300142288208008,-0.4682242274284363,0.3911792039871216,0.09545193612575531,0.015594780445098877
34.1,0.06065540015697479,0.09502124786376953,-0.3766975998878479,0.27903103828430176,0.03270065784454346,0.06691750884056091
34.15,0.0654512494802475,0.2324666976928711,-0.4080429971218109,0.24169683456420898,0.012158669531345367,0.12750282883644104
34.2,0.11064133048057556,-0.027256011962890625,-0.48563244938850403,0.17727872729301453,0.009588733315467834,0.1884590983390808
34.25,0.17478352785110474,0.09003734588623047,-0.5451040267944336,0.1805471032857895,0.018133938312530518,0.18351615965366364
34.3,0.23960821330547333,0.1024770736694336,-0.5272221565246582,0.18338869512081146,0.056552670896053314,0.1449868083000183
34.35,0.14415687322616577,0.1148843765258789,-0.4184512495994568,0.20005720853805542,0.1218620017170906,0.08623598515987396
34.4,0.10643468797206879,0.4331073760986328,-0.22439514100551605,0.21532340347766876,0.16250738501548767,0.05421396344900131
34.45,-0.12867002189159393,0.4816141128540039,-0.2668246328830719,0.1202860027551651,0.13962818682193756,0.015186551958322525
34.5,-0.04830285906791687,0.07901191711425781,-0.19924072921276093,-0.021329756826162338,0.08734529465436935,0.022149279713630676
34.55,0.00958465039730072,-0.0840311050415039,-0.14811474084854126,-0.030503004789352417,0.12049154937267303,0.04999624192714691
34.6,0.016712665557861328,-0.31467342376708984,-0.09432786703109741,0.0390312559902668,0.20123527944087982,0.09749577939510345
34.65,0.1356011927127838,-0.25516605377197266,0.018519245088100433,0.16918928921222687,0.3078211545944214,0.14733818173408508
34.7,0.16093739867210388,-0.29441070556640625,0.07502056658267975,0.30759528279304504,0.4310251474380493,0.18753190338611603
34.75,-0.36232301592826843,0.41304683685302734,-0.053270965814590454,0.3974810242652893,0.5151132345199585,0.15534591674804688
34.8,-0.6542223691940308,0.7303943634033203,-0.23043780028820038,0.22439365088939667,0.3690241873264313,0.09888122975826263
34.85,-0.6820158958435059,0.758885383605957,-0.2334219515323639,-0.033705923706293106,0.12381972372531891,0.015859171748161316
34.9,-0.3887478709220886,0.24890995025634766,-0.1721784472465515,-0.24096360802650452,-0.06676381081342697,-0.014320656657218933
34.95,0.07434068620204926,-0.14328956604003906,-0.04047608748078346,-0.26950201392173767,-0.10757187008857727,0.0011996179819107056
35.0,0.12952908873558044,-0.1467304229736328,-0.049199651926755905,-0.18885934352874756,-0.03612016886472702,0.003240622580051422
35.05,-0.022213995456695557,0.03618907928466797,-0.11508786678314209,-0.12744979560375214,0.0422496572136879,-0.01708756387233734
35.1,-0.22006013989448547,0.3229341506958008,-0.17166736721992493,-0.11268612742424011,0.07150887697935104,-0.02883831411600113
35.15,-0.3799734115600586,0.32288360595703125,-0.030846133828163147,-0.16927529871463776,0.05798003077507019,-0.018183648586273193
35.2,-0.21797707676887512,-0.11189079284667969,0.12994752824306488,-0.2286771684885025,0.022569656372070312,0.03880884498357773
35.25,-0.2973000407218933,-0.09919261932373047,0.20846739411354065,-0.18981128931045532,0.020540481433272362,0.07011653482913971
35.3,-0.16363607347011566,-0.0894479751586914,0.05139439180493355,-0.12050621956586838,-0.000739196315407753,0.07976885139942169
35.35,-0.002275776118040085,0.030572891235351562,-0.10774710774421692,-0.06231057643890381,-0.03205651789903641,0.10106197744607925
35.4,0.012933444231748581,-0.04094886779785156,-0.041028834879398346,-0.07685384899377823,-0.053430743515491486,0.12211668491363525
35.45,-0.3688983619213104,0.0945272445678711,-0.21341055631637573,-0.040595706552267075,-0.08443570137023926,0.130487322807312
35.5,-0.636296808719635,0.07799339294433594,-0.4621565639972687,0.001618891954421997,-0.23759174346923828,0.18093445897102356
35.55,-0.52436763048172,0.7053289413452148,-0.6694105863571167,0.00729755312204361,-0.48332735896110535,0.2553410232067108
35.6,0.22352775931358337,0.1527271270751953,-0.7866946458816528,-0.14619776606559753,-0.6938942670822144,0.4204704463481903
35.65,0.07178379595279694,-0.33874988555908203,-0.3687542676925659,-0.18413415551185608,-0.6858034133911133,0.5035026669502258
35.7,0.568270206451416,-0.7030649185180664,-0.18831364810466766,-0.12543652951717377,-0.7214655876159668,0.5219494700431824
35.75,0.6193094849586487,-0.45075225830078125,-0.14097487926483154,0.06818275153636932,-0.6651716828346252,0.4602898359298706
35.8,0.5436888933181763,0.5187845230102539,-0.3828575015068054,0.21539026498794556,-0.5517050623893738,0.36187952756881714
35.85,0.4662030339241028,0.7365694046020508,-0.592231810092926,0.07770401984453201,-0.45330965518951416,0.15620070695877075
35.9,0.44313037395477295,0.26388072967529297,-0.7417269945144653,-0.12013331800699234,-0.42832425236701965,-0.10674528777599335
35.95,-0.08271631598472595,-0.011218070983886719,-0.7296881675720215,-0.15281164646148682,-0.3421625792980194,-0.32237815856933594
36.0,-0.16958916187286377,0.31050777435302734,-0.8556957244873047,-0.09151238203048706,-0.3013215661048889,-0.3568694591522217
36.05,-0.20565980672836304,0.7074127197265625,-0.7333356142044067,-0.12190922349691391,-0.3496561050415039,-0.3081682324409485
36.1,-0.06916065514087677,0.17462730407714844,-0.35893476009368896,-0.274309903383255,-0.5271228551864624,-0.34766149520874023
36.15,-0.10918466001749039,-0.3491230010986328,-0.1671687364578247,-0.36480167508125305,-0.6493238210678101,-0.3719020187854767
36.2,0.03924151510000229,-0.3219270706176758,-0.19567564129829407,-0.3522118031978607,-0.71769779920578,-0.32301467657089233
36.25,-0.2456667274236679,0.03090667724609375,-0.11570121347904205,-0.32030153274536133,-0.7385588884353638,-0.24627849459648132
36.3,-0.18898779153823853,-0.08371829986572266,0.0743812620639801,-0.3629162311553955,-0.8461854457855225,-0.20203062891960144
36.35,-0.10897660255432129,-0.3030099868774414,0.24340234696865082,-0.37818434834480286,-0.955958366394043,-0.22827139496803284
36.4,-0.0762118473649025,-0.3225984573364258,0.29063671827316284,-0.34474703669548035,-1.0023908615112305,-0.28035205602645874
36.45,0.06739577651023865,-0.4373207092285156,0.44535118341445923,-0.3252405822277069,-0.9944496154785156,-0.3073088228702545
36.5,0.22017699480056763,-0.015669822692871094,0.6985753774642944,-0.2698296010494232,-0.8374724388122559,-0.26533547043800354
36.55,0.3345821499824524,0.29982852935791016,0.9394979476928711,-0.19684208929538727,-0.5315463542938232,-0.2411392480134964
36.6,0.055105507373809814,0.31215858459472656,0.8054925203323364,-0.039305493235588074,-0.11423707753419876,-0.27020442485809326
36.65,-0.06730788946151733,0.2955598831176758,0.48970723152160645,0.08022241294384003,0.33441779017448425,-0.21853899955749512
36.7,-0.1507924199104309,-0.040656089782714844,0.4315929710865021,0.07109665870666504,0.7039334177970886,-0.10725084692239761
36.75,-0.24273081123828888,-0.2622079849243164,0.4731152355670929,0.08829182386398315,0.9178406000137329,-0.005151074379682541
36.8,-0.32980814576148987,-0.08922672271728516,0.3668867349624634,0.17314378917217255,0.9867234826087952,0.0714525580406189
36.85,-0.42681175470352173,-0.3347921371459961,0.15356935560703278,0.21378707885742188,0.9497761726379395,0.11771167814731598
36.9,-0.3881227374076843,-0.13498973846435547,-0.2887992262840271,0.3218357264995575,0.8460180759429932,0.1337987333536148
36.95,-0.15380720794200897,-0.23131179809570312,-0.42380911111831665,0.3033301830291748,0.7638825178146362,0.1162034422159195
37.0,-0.1541280448436737,-0.15070724487304688,-0.6276770830154419,0.2910086512565613,0.7756010293960571,0.06648416817188263
37.05,-0.24688947200775146,0.1815652847290039,-0.9476348161697388,0.33450397849082947,0.8335610628128052,-0.0069700926542282104
37.1,-0.8103224039077759,0.3799018859863281,-1.1252082586288452,0.3544950485229492,0.9113020896911621,-0.10412682592868805
37.15,-1.0299601554870605,0.473724365234375,-1.052816390991211,0.3061303198337555,0.8270769715309143,-0.14854352176189423
37.2,-0.7530312538146973,0.35587215423583984,-0.8460361361503601,0.18133661150932312,0.689494788646698,-0.10994307696819305
37.25,-0.5933151245117188,0.22633743286132812,-0.7509987950325012,0.06654028594493866,0.653032124042511,-0.07340247929096222
37.3,-0.7895682454109192,0.18068885803222656,-0.6372100114822388,-0.070037342607975,0.6796750426292419,-0.052126217633485794
37.35,-1.0439074039459229,0.4877586364746094,-0.5056047439575195,-0.18358114361763,0.6760518550872803,-0.054498642683029175
37.4,-1.0338873863220215,0.469635009765625,0.01108810305595398,-0.3260589838027954,0.6528900265693665,0.02030092477798462
37.45,-0.597619354724884,-0.23643779754638672,0.3251323699951172,-0.31469130516052246,0.5950345993041992,0.1363014578819275
37.5,0.0409543551504612,-1.194911003112793,-0.05159532651305199,-0.21765649318695068,0.5143747329711914,0.2282271832227707
37.55,0.11410936713218689,-0.23053836822509766,0.2815564274787903,-0.1600779891014099,0.47926151752471924,0.22858066856861115
37.6,0.5331411361694336,0.539794921875,0.592287540435791,-0.11988241970539093,0.3057282269001007,0.2819925546646118
37.65,0.7795888185501099,1.015934944152832,-0.6493337154388428,0.21939140558242798,0.07564260810613632,0.15621843934059143
37.7,0.9214082360267639,1.4418144226074219,-1.4679149389266968,0.2562011480331421,-0.0631934404373169,0.015354961156845093
37.75,1.1371665000915527,-0.061179161071777344,-1.3355357646942139,-0.1097901314496994,-0.10044696927070618,-0.09880366921424866
37.8,0.451437771320343,0.12884521484375,-0.2910955548286438,-0.3780142068862915,-0.04975175857543945,-0.13104264438152313
37.85,0.6693511009216309,-0.002376556396484375,-0.06717106699943542,-0.4863731861114502,-0.1680200695991516,0.0197620689868927
37.9,1.2343617677688599,-0.40131664276123047,-0.055747270584106445,-0.4861675798892975,-0.27488717436790466,0.09360411763191223
37.95,1.4700636863708496,-0.22601604461669922,-0.2896524667739868,-0.3364625573158264,-0.23951444029808044,0.034551531076431274
38.0,1.2303762435913086,0.25187206268310547,-0.2851901948451996,-0.2861268222332001,-0.10689233243465424,-0.024994462728500366
38.05,0.7886868715286255,-0.04977893829345703,-0.05127224326133728,-0.40336447954177856,0.020171217620372772,0.020323023200035095
38.1,0.37372130155563354,-0.5673379898071289,0.5694612264633179,-0.42476314306259155,0.07037290930747986,0.09673090279102325
38.15,0.12481173872947693,0.4209613800048828,0.48740872740745544,-0.2150842547416687,-0.03552766144275665,0.12899290025234222
38.2,0.21021398901939392,0.8245935440063477,0.46360939741134644,-0.14857780933380127,-0.22565554082393646,0.26322826743125916
38.25,0.28902193903923035,0.001438140869140625,0.2871667742729187,-0.12260130047798157,-0.4186437129974365,0.2611084580421448
38.3,-0.2130523920059204,-0.08455944061279297,0.5462141036987305,-0.11702008545398712,-0.5143327713012695,0.057061370462179184
38.35,-0.8906751275062561,-0.0925455093383789,0.6685971021652222,-0.18091967701911926,-0.5529025793075562,0.006844878196716309
38.4,-1.017100214958191,-0.03735828399658203,0.7828153371810913,-0.19897079467773438,-0.5544255971908569,0.06640438735485077
38.45,-1.1760289669036865,0.2998380661010742,0.4303193986415863,-0.10091422498226166,-0.4718583822250366,0.06105775386095047
38.5,-1.1909551620483398,-0.04128551483154297,0.37473469972610474,-0.1165403425693512,-0.37407994270324707,0.080783911049366
38.55,-1.0424871444702148,-0.24645519256591797,0.5100321769714355,-0.10491132736206055,-0.3242664933204651,0.005594111979007721
38.6,-0.9143847227096558,0.19712543487548828,0.3106330633163452,-0.0364057719707489,-0.21502631902694702,-0.09024055302143097
38.65,-0.7875272035598755,-0.0061168670654296875,0.44396138191223145,-0.08889392763376236,-0.005506671965122223,-0.14747220277786255
38.7,-1.1447222232818604,-0.05048847198486328,0.464936763048172,-0.12762005627155304,0.2272031605243683,-0.14403021335601807
38.75,-0.9989494681358337,-0.04448127746582031,0.5010155439376831,-0.2040909230709076,0.32097649574279785,0.06425171345472336
38.8,-0.3666268289089203,-0.27599048614501953,0.6108968257904053,-0.17702478170394897,0.36342206597328186,0.3179228901863098
38.85,0.31323644518852234,-0.29230213165283203,0.7142221927642822,-0.08076104521751404,0.33067697286605835,0.42321163415908813
38.9,0.6092210412025452,-0.35802555084228516,0.3693394064903259,0.12564384937286377,0.2964474558830261,0.3198575973510742
38.95,0.6488586664199829,-0.18597126007080078,0.03659096360206604,0.30179810523986816,0.2833516299724579,0.10636880248785019
39.0,0.38420361280441284,0.08598613739013672,-3.084540367126465e-05,0.3515656292438507,0.26980865001678467,-0.03053385019302368
39.05,0.19134724140167236,-0.0890493392944336,0.01873350888490677,0.3886260390281677,0.2505340576171875,-0.09470327198505402
39.1,-0.012516826391220093,0.07680034637451172,-0.1897735595703125,0.45458143949508667,0.19422312080860138,-0.13838307559490204
39.15,-0.3257879316806793,-0.04691600799560547,-0.3704739809036255,0.4445984363555908,0.12126988172531128,-0.17019158601760864
39.2,-0.24658626317977905,0.3206968307495117,-0.6484196186065674,0.46987175941467285,0.04014508053660393,-0.10591745376586914
39.25,-0.06469303369522095,0.30212879180908203,-0.6772530674934387,0.4052547812461853,-0.01186349242925644,-0.009043246507644653
39.3,0.1731623411178589,0.30323028564453125,-0.8055737614631653,0.3529149293899536,-0.025901153683662415,0.08318327367305756
39.35,0.33873486518859863,0.2978935241699219,-0.681145191192627,0.25589844584465027,-0.03323042392730713,0.11366187781095505
39.4,0.39331328868865967,0.37589550018310547,-0.44598275423049927,0.12859579920768738,-0.025789055973291397,0.1129663959145546
39.45,0.4949902594089508,0.15203094482421875,-0.46444040536880493,0.032722700387239456,-0.0017062239348888397,0.11318507790565491
39.5,0.25045353174209595,0.12999343872070312,-0.31798091530799866,0.017374375835061073,0.054040923714637756,0.05508192628622055
39.55,0.21992500126361847,0.07106971740722656,-0.24291567504405975,0.017375636845827103,0.07200178503990173,0.02914801985025406
39.6,0.12684190273284912,0.08831310272216797,-0.2201598882675171,0.024288678541779518,0.052496470510959625,0.008831905201077461
39.65,0.054151877760887146,0.027283668518066406,-0.34132999181747437,0.01704423502087593,0.022900693118572235,-0.0231856107711792
39.7,-0.0756443589925766,0.09654521942138672,-0.4026176929473877,0.022948717698454857,0.020220991224050522,-0.057159435003995895
39.75,-0.09912261366844177,0.3366050720214844,-0.48570775985717773,0.03298872709274292,0.029801029711961746,-0.06996723264455795
39.8,-0.17250758409500122,0.3865785598754883,-0.351148396730423,-0.039913151413202286,0.023432940244674683,-0.03093813918530941
39.85,-0.22977957129478455,0.3708162307739258,-0.2796057164669037,-0.12237006425857544,-0.02567012421786785,0.022921975702047348
39.9,-0.11263638734817505,0.29523468017578125,-0.2299523949623108,-0.2040131390094757,-0.08245988190174103,0.08094163984060287
39.95,0.0702640637755394,0.009320259094238281,-0.18007251620292664,-0.2311074435710907,-0.0725904330611229,0.07820859551429749
40.0,0.0029695569537580013,-0.10859966278076172,-0.005296281538903713,-0.1753765344619751,-0.029726548120379448,0.020646996796131134
40.05,0.035987526178359985,0.021903038024902344,-0.11290031671524048,-0.10319212079048157,-0.020753029733896255,-0.01674526184797287
40.1,0.12181054055690765,0.1087179183959961,-0.26141124963760376,-0.08350420743227005,-0.0012956652790307999,-0.019253993406891823
40.15,0.11217798292636871,0.11774349212646484,-0.2538534104824066,-0.11145027726888657,0.016515551134943962,-0.02584867924451828
40.2,0.049527429044246674,0.0709371566772461,-0.27680954337120056,-0.15082217752933502,0.027577215805649757,-0.0194186270236969
40.25,-0.09319104999303818,0.11940860748291016,-0.2456178069114685,-0.17057347297668457,0.045017361640930176,-0.019961394369602203
40.3,-0.1080036386847496,0.13611221313476562,-0.2608187794685364,-0.18330568075180054,0.049685217440128326,-0.009163081645965576
40.35,-0.12000081688165665,0.10357856750488281,-0.16055665910243988,-0.1856509894132614,0.04230911284685135,-0.011495739221572876
40.4,-0.04424768313765526,0.10580158233642578,-0.13942700624465942,-0.1786133348941803,0.03238118439912796,-0.02277360111474991
40.45,-0.09742700308561325,0.0012454986572265625,-0.1094086691737175,-0.1821027249097824,0.036898523569107056,-0.033262550830841064
40.5,-0.036435410380363464,-0.1585855484008789,-0.03613753616809845,-0.14890889823436737,0.05351518094539642,-0.03502989187836647
40.55,-0.146976500749588,0.006970405578613281,-0.07670171558856964,-0.08728638291358948,0.07780739665031433,-0.059962283819913864
40.6,-0.09012667834758759,-0.03691864013671875,-0.1361941397190094,-0.045113153755664825,0.06658453494310379,-0.07560774683952332
40.65,-0.14756108820438385,0.29864978790283203,-0.12976130843162537,0.004476778209209442,0.04694993793964386,-0.10212478041648865
40.7,-0.019467607140541077,0.32070255279541016,-0.21916505694389343,-0.05740097165107727,-0.005231108516454697,-0.053423114120960236
40.75,-0.025981687009334564,0.11560726165771484,-0.18654918670654297,-0.11685174703598022,-0.014739122241735458,-0.0022915415465831757
40.8,0.050024084746837616,0.12527847290039062,-0.19806571304798126,-0.12277406454086304,-0.019107624888420105,0.011031582951545715
40.85,0.0610545352101326,0.0975809097290039,-0.12866230309009552,-0.13598987460136414,-0.037765517830848694,-0.003551669418811798
40.9,-0.0930953100323677,0.1120758056640625,-0.1374923586845398,-0.1286529302597046,-0.05937552824616432,-0.031355854123830795
40.95,-0.03346098214387894,0.14850807189941406,-0.18732976913452148,-0.11513392627239227,-0.09228739887475967,-0.0366571843624115
41.0,-0.0001444704830646515,0.15518474578857422,-0.13045907020568848,-0.1340165138244629,-0.09428663551807404,-0.03344631567597389
41.05,-0.058523666113615036,0.02912616729736328,-0.07547955960035324,-0.1411842554807663,-0.08349303901195526,-0.03168448433279991
41.1,-0.09053278714418411,0.16587352752685547,-0.07858011871576309,-0.1268727332353592,-0.08085564523935318,-0.02064494416117668
41.15,0.00953417643904686,0.05608081817626953,-0.1186482161283493,-0.1478409767150879,-0.10605474561452866,-0.020941857248544693
41.2,0.03996837139129639,-0.06844902038574219,0.04690089076757431,-0.13749977946281433,-0.10975580662488937,-0.048525579273700714
41.25,-0.09434230625629425,0.017104148864746094,0.012159503996372223,-0.08168566226959229,-0.07397772371768951,-0.0587209090590477
41.3,-0.07417111843824387,-0.0631570816040039,-0.03846780210733414,-0.06593182682991028,-0.0588386133313179,-0.0056679341942071915
41.35,-0.100113645195961,-0.02652263641357422,-0.15464666485786438,-0.01409078761935234,-0.03996437042951584,0.013069089502096176
41.4,-0.027933724224567413,-0.011054039001464844,-0.1539408415555954,0.04905300214886665,-0.018739860504865646,0.01045331172645092
41.45,-0.058953143656253815,0.05202293395996094,-0.08591732382774353,0.09437932074069977,0.016725890338420868,0.00942428782582283
41.5,-0.182413712143898,-0.09654521942138672,-0.12053845077753067,0.12598389387130737,0.011407088488340378,0.0026394352316856384
41.55,-0.1683742105960846,-0.06840705871582031,-0.14307118952274323,0.18744108080863953,-0.03249207139015198,-0.01698288321495056
41.6,-0.1852840930223465,0.28186511993408203,-0.2795570492744446,0.231097012758255,-0.05540208891034126,-0.030889354646205902
41.65,-0.16625182330608368,0.31667423248291016,-0.39955735206604004,0.17675799131393433,-0.09464044868946075,-0.014295518398284912
41.7,-0.10361917316913605,0.2067556381225586,-0.4377848505973816,0.09980591386556625,-0.1375131905078888,0.011204686015844345
41.75,-0.04705594480037689,0.3468351364135742,-0.40355902910232544,0.05175301432609558,-0.15867361426353455,0.028407134115695953
41.8,-0.09876301884651184,0.3818216323852539,-0.4751647710800171,-0.0267474465072155,-0.16404934227466583,0.055193882435560226
41.85,0.1134018525481224,-0.047720909118652344,-0.18394315242767334,-0.11391910910606384,-0.14877310395240784,0.08557885140180588
41.9,0.002068817615509033,-0.036728858947753906,-0.16337135434150696,-0.07604986429214478,-0.09384863078594208,0.06082012504339218
41.95,0.0062236487865448,0.12089061737060547,-0.17046613991260529,-0.0484699010848999,-0.0795477107167244,0.035169582813978195
42.0,-0.01669451594352722,0.14116287231445312,-0.23563487827777863,-0.06957311183214188,-0.08799506723880768,0.015505490824580193
42.05,0.03023044764995575,0.11551094055175781,-0.290220707654953,-0.0790119469165802,-0.08400650322437286,0.008927751332521439
42.1,-0.00858914852142334,0.15907955169677734,-0.3078084886074066,-0.0929141491651535,-0.038622573018074036,0.01076587662100792
42.15,-0.06767255812883377,0.20599365234375,-0.26672378182411194,-0.11730518192052841,0.011996631510555744,0.023805301636457443
42.2,-0.08015202730894089,-0.016959190368652344,-0.12914127111434937,-0.13602837920188904,0.05051548033952713,0.027059804648160934
42.25,-0.08593697100877762,0.013703346252441406,-0.050613224506378174,-0.10184312611818314,0.08479823172092438,0.025082699954509735
42.3,-0.13425005972385406,0.041739463806152344,0.08365635573863983,-0.08820817619562149,0.08437080681324005,0.03657258301973343
42.35,-0.06710360944271088,-0.11137962341308594,0.047013938426971436,-0.05251074209809303,0.054016586393117905,0.04887963458895683
42.4,0.011440996080636978,-0.0691080093383789,-0.10078412294387817,0.00652625598013401,0.049896642565727234,0.03985009342432022
42.45,-0.0007368959486484528,0.051407814025878906,-0.102823905646801,0.04746362566947937,0.06144984811544418,0.006746796891093254
42.5,-0.0629810243844986,0.07451534271240234,-0.09780514240264893,0.06725037097930908,0.06832235306501389,-0.00912499986588955
42.55,-0.10846138000488281,0.18909168243408203,-0.17449745535850525,0.08266377449035645,0.06659286469221115,-0.008199326694011688
42.6,-0.1213207095861435,0.18257617950439453,-0.1455506980419159,0.08059928566217422,0.05644526332616806,0.003485172986984253
42.65,-0.136855348944664,0.17725467681884766,-0.17429004609584808,0.07352462410926819,0.06246919184923172,0.013487054035067558
42.7,-0.07854108512401581,0.10875988006591797,-0.19190135598182678,0.05440478026866913,0.08434096723794937,0.04656236618757248
42.75,-0.12026109546422958,0.06532955169677734,-0.09986940026283264,0.04646886885166168,0.09760148078203201,0.04922003671526909
42.8,-0.07528452575206757,0.08549785614013672,-0.14537230134010315,0.05091878026723862,0.06773940473794937,0.04336706921458244
42.85,-0.030202623456716537,-0.061341285705566406,0.012968212366104126,0.04991399124264717,0.052027031779289246,0.03864802420139313
42.9,-0.0427880734205246,-0.12070751190185547,0.016781717538833618,0.09170179069042206,0.06132124736905098,0.03498852252960205
42.95,-0.12183181941509247,-0.016462326049804688,-0.09652790427207947,0.1496405154466629,0.08349113166332245,0.016520772129297256
43.0,-0.11848599463701248,0.05543041229248047,-0.2548152208328247,0.21132060885429382,0.08595685660839081,-0.014052197337150574
43.05,0.025519371032714844,0.15937137603759766,-0.33501142263412476,0.22653967142105103,0.09902217984199524,-0.02161315828561783
43.1,0.0793934315443039,0.1477184295654297,-0.4502054452896118,0.18675388395786285,0.15585419535636902,0.020505793392658234
43.15,0.030469179153442383,0.09978580474853516,-0.5334356427192688,0.1557195484638214,0.22826552391052246,0.05843198671936989
43.2,0.09985902905464172,0.1282510757446289,-0.47048088908195496,0.14523845911026,0.23634326457977295,0.06190790608525276
43.25,0.2174144685268402,0.1012125015258789,-0.42614370584487915,0.10950406640768051,0.18677598237991333,0.050988372415304184
43.3,0.20428629219532013,0.2492656707763672,-0.38525211811065674,0.06198784336447716,0.15173155069351196,0.03247367963194847
43.35,0.06149391084909439,0.05965137481689453,-0.21984614431858063,-0.009774899110198021,0.12326113879680634,-0.03041015937924385
43.4,-0.12265864759683609,0.11550426483154297,-0.13725335896015167,-0.023858606815338135,0.09579142183065414,-0.09364096820354462
43.45,-0.2025957703590393,0.170166015625,0.004364326596260071,-0.05804303288459778,0.08511461317539215,-0.09325873851776123
43.5,-0.17749464511871338,0.08658409118652344,0.16662196815013885,-0.07449600845575333,0.1105840802192688,-0.06127573177218437
43.55,-0.24975687265396118,-0.17489147186279297,0.3849623203277588,-0.06142536178231239,0.14396217465400696,-0.06685842573642731
43.6,-0.4461497664451599,-0.10500144958496094,0.4450625479221344,0.008637502789497375,0.14602480828762054,-0.08761812746524811
43.65,-0.5058562755584717,0.06720352172851562,0.5222141742706299,0.05032660812139511,0.11012870073318481,-0.07488837838172913
43.7,-0.4173405170440674,-0.18861770629882812,0.6718051433563232,0.07676219940185547,0.07748869061470032,-0.0316433422267437
43.75,-0.16263236105442047,-0.21533584594726562,0.6375847458839417,0.17670869827270508,0.07173120975494385,-0.02166835218667984
43.8,0.061169952154159546,-0.05325603485107422,0.39511048793792725,0.27495718002319336,0.09141896665096283,-0.07057967036962509
43.85,0.09679965674877167,-0.032935142517089844,0.1471671164035797,0.31576991081237793,0.1466599404811859,-0.13412463665008545
43.9,0.23905831575393677,-0.1558704376220703,-0.19196368753910065,0.33839279413223267,0.23962004482746124,-0.13659131526947021
43.95,0.08468985557556152,-0.11895179748535156,-0.7392765283584595,0.37421727180480957,0.3109825849533081,-0.11880972981452942
44.0,-0.06416130065917969,0.1339855194091797,-1.3737003803253174,0.41842323541641235,0.25771576166152954,-0.052577510476112366
44.05,0.012451350688934326,0.24240875244140625,-1.8421251773834229,0.42262881994247437,0.1119755357503891,0.016835182905197144
44.1,0.06357014179229736,0.6559886932373047,-2.1644287109375,0.39478662610054016,-0.045806124806404114,0.03540720045566559
44.15,0.09421813488006592,1.1061944961547852,-2.1245298385620117,0.2418632060289383,-0.1828663945198059,0.060020141303539276
44.2,0.17841655015945435,0.5639114379882812,-1.5589218139648438,-0.03641032800078392,-0.3094550669193268,0.14483040571212769
44.25,0.44728219509124756,0.13351154327392578,-1.0215637683868408,-0.19447699189186096,-0.42553722858428955,0.26455560326576233
44.3,0.7748935222625732,-0.03802299499511719,-0.634209156036377,-0.25036105513572693,-0.4976669251918793,0.3532892167568207
44.35,0.7020447850227356,-0.04121208190917969,-0.23155513405799866,-0.2360115945339203,-0.48194408416748047,0.35259711742401123
44.4,0.6112235188484192,0.06118011474609375,-0.1141151487827301,-0.16313382983207703,-0.47401076555252075,0.2866196036338806
44.45,0.31408512592315674,0.015814781188964844,-0.014570385217666626,-0.1534927636384964,-0.4353087544441223,0.10960742831230164
44.5,-0.29781588912010193,-0.22319507598876953,0.45376795530319214,-0.22230398654937744,-0.3647814393043518,-0.04497815668582916
44.55,-0.5855326056480408,-0.31627464294433594,0.7052972912788391,-0.2036903202533722,-0.3316120505332947,-0.05902338773012161
44.6,-0.6811409592628479,-0.1546192169189453,0.8621498346328735,-0.11097677052021027,-0.3200327754020691,-0.024320218712091446
44.65,-0.6412889957427979,0.08562374114990234,0.8585460782051086,-0.01189899630844593,-0.32024094462394714,0.021518521010875702
44.7,-0.5105182528495789,0.06578350067138672,0.8058032393455505,0.03186692297458649,-0.32017114758491516,0.04436305910348892
44.75,-0.4498877227306366,0.010175704956054688,0.7107640504837036,0.06827414780855179,-0.31096693873405457,0.02633785642683506
44.8,-0.33148425817489624,0.055294036865234375,0.6150894165039062,0.09821467101573944,-0.28927549719810486,0.002976052463054657
44.85,-0.2776152193546295,0.059271812438964844,0.3777245283126831,0.11612428724765778,-0.2550179064273834,-0.02619531750679016
44.9,-0.2663596272468567,-0.03444385528564453,0.28575342893600464,0.0916857197880745,-0.2380829155445099,-0.08632508665323257
44.95,-0.3078760802745819,-0.09816837310791016,0.32679569721221924,0.07185812294483185,-0.2121398001909256,-0.1500808298587799
45.0,-0.3452241122722626,0.06038951873779297,0.39078089594841003,0.04919362813234329,-0.15909254550933838,-0.12336764484643936
45.05,-0.25643831491470337,0.03442955017089844,0.27868854999542236,0.07053421437740326,-0.10346025228500366,-0.03737957030534744
45.1,-0.23515650629997253,0.02151966094970703,-0.08399844169616699,0.13420753180980682,-0.06003093346953392,0.029007669538259506
45.15,-0.24223650991916656,0.07828235626220703,-0.3077433109283447,0.14706337451934814,-0.0651276633143425,0.04999992251396179
45.2,-0.22329369187355042,0.2698640823364258,-0.41393405199050903,0.12402276694774628,-0.09535536170005798,0.039398349821567535
45.25,-0.04803916811943054,0.3620319366455078,-0.4915345013141632,0.0844554752111435,-0.11931448429822922,0.059682346880435944
45.3,0.1209026426076889,0.2424001693725586,-0.528682291507721,0.03633469343185425,-0.1292150318622589,0.0629708394408226
45.35,0.14476275444030762,0.25023937225341797,-0.6069399118423462,0.0032503576949238777,-0.12284138053655624,0.029915690422058105
45.4,0.12131805717945099,0.26709461212158203,-0.6439948678016663,-0.042543284595012665,-0.11352753639221191,-0.008281594142317772
45.45,0.0690602958202362,0.2127532958984375,-0.6228736042976379,-0.10858311504125595,-0.1025596559047699,-0.04752514138817787
45.5,0.07375364005565643,0.23422622680664062,-0.536730170249939,-0.1673942655324936,-0.0962311252951622,-0.07821778953075409
45.55,0.010532945394515991,0.1454019546508789,-0.3322618305683136,-0.23479187488555908,-0.08599264919757843,-0.09691501408815384
45.6,-0.07337526977062225,0.05719470977783203,-0.053077928721904755,-0.2839359641075134,-0.05536460131406784,-0.08192232996225357
45.65,-0.005363043397665024,-0.033603668212890625,0.09035314619541168,-0.29080504179000854,-0.023491688072681427,-0.05240369588136673
45.7,-0.01698797196149826,-0.07757282257080078,0.17328032851219177,-0.2651374042034149,-0.0009615384042263031,-0.05717775970697403
45.75,-0.11965342611074448,-0.08257484436035156,0.2064233422279358,-0.2242228388786316,0.0036214739084243774,-0.08402916043996811
45.8,-0.2073383331298828,0.0001392364501953125,0.18964722752571106,-0.19188690185546875,-0.005278244614601135,-0.09552378952503204
45.85,-0.2239987850189209,-0.0030231475830078125,0.13284307718276978,-0.1797308474779129,-0.014668464660644531,-0.0796673595905304
45.9,-0.19485889375209808,-0.017595291137695312,0.07253707200288773,-0.1646958440542221,-0.0023249275982379913,-0.03773725405335426
45.95,-0.2375454604625702,0.007779121398925781,0.05801115930080414,-0.1449817717075348,0.017824001610279083,-0.00837744027376175
46.0,-0.2608258128166199,0.04898834228515625,0.05008377879858017,-0.12191075086593628,0.008455420844256878,-0.00043139606714248657
46.05,-0.186282217502594,0.08635234832763672,-0.026896826922893524,-0.1267160177230835,-0.021155182272195816,0.018005535006523132
46.1,-0.07171628624200821,-0.054213523864746094,-0.11169072985649109,-0.15590554475784302,-0.04158434271812439,0.04082326218485832
46.15,-0.1479206383228302,0.03692340850830078,-0.0851086974143982,-0.12903019785881042,-0.03735249489545822,0.017233237624168396
46.2,-0.1615588366985321,0.1157989501953125,-0.014005467295646667,-0.07819986343383789,-0.050945162773132324,-0.02644193544983864
46.25,-0.06555795669555664,0.2178020477294922,-0.08336218446493149,-0.05769715458154678,-0.0581325963139534,-0.025464709848165512
46.3,-0.02096514403820038,0.2355966567993164,-0.1783139407634735,-0.08776230365037918,-0.04255738481879234,-0.011894244700670242
46.35,-0.01256590336561203,0.2010793685913086,-0.17801010608673096,-0.12327387928962708,-0.0435028150677681,-0.027451612055301666
46.4,0.002184852957725525,0.16940593719482422,-0.07258433103561401,-0.14189393818378448,-0.04550129920244217,-0.04930843412876129
46.45,0.02996142767369747,0.18435287475585938,-0.06595782190561295,-0.14662623405456543,-0.02967640943825245,-0.057801730930805206
46.5,0.023775991052389145,0.12229347229003906,-0.15412908792495728,-0.15593349933624268,-0.023887135088443756,-0.06718775629997253
46.55,0.015921421349048615,0.017348289489746094,-0.2581860423088074,-0.17121195793151855,-0.019556600600481033,-0.06585530936717987
46.6,0.06299959123134613,-0.12978172302246094,-0.24953481554985046,-0.16025163233280182,0.020746275782585144,-0.0571715384721756
46.65,0.000249229371547699,-0.10865497589111328,-0.22317376732826233,-0.09879342466592789,0.07835208624601364,-0.06953667849302292
46.7,-0.12364353984594345,-0.018489837646484375,-0.2195129543542862,-0.02823980525135994,0.11246219277381897,-0.08675231039524078
46.75,-0.13034728169441223,0.061844825744628906,-0.27760815620422363,0.019858021289110184,0.11579994857311249,-0.10234806686639786
46.8,-0.1408744752407074,0.14896297454833984,-0.3797057867050171,0.046540483832359314,0.10907884687185287,-0.12488412857055664
46.85,-0.24447403848171234,0.15824317932128906,-0.5078115463256836,0.04752317816019058,0.09355445951223373,-0.14177115261554718
46.9,-0.36253681778907776,0.23567676544189453,-0.521134078502655,0.014440972357988358,0.06311087310314178,-0.11905420571565628
46.95,-0.20128843188285828,0.23153018951416016,-0.39662373065948486,-0.04632284492254257,0.018825428560376167,-0.058724623173475266
47.0,-0.04734990745782852,0.10498714447021484,-0.2522321343421936,-0.09223432838916779,-0.01755804941058159,-0.036163292825222015
