Time [s],Acc_x [m/s^2],Acc_y [m/s^2],Acc_z [m/s^2],Gyro_x [1/s],Gyro_y [1/s],Gyro_z [1/s]
0.0,-0.06338338553905487,0.05680563300848007,-0.09081143885850906,0.013709352351725101,-0.033797215670347214,-0.006529293954372406
0.05,-0.10008910298347473,0.09827806055545807,-0.02661505527794361,0.015774648636579514,-0.038374464958906174,-0.011320425197482109
0.1,-0.14374861121177673,0.13963890075683594,0.049432337284088135,0.02161354199051857,-0.04338500648736954,-0.017226265743374825
0.15,-0.12861104309558868,0.09537220001220703,0.06697384268045425,0.02572929486632347,-0.0374600850045681,-0.021100545302033424
0.2,-0.04616321995854378,0.03810499608516693,0.09811188280582428,0.02445378713309765,-0.026829352602362633,-0.017720531672239304
0.25,0.059181079268455505,0.03859996050596237,0.07588449120521545,0.016623161733150482,-0.02233642153441906,-0.002617773599922657
0.3,0.02768353372812271,0.07313727587461472,0.06872277706861496,0.00862407498061657,-0.027477556839585304,0.008115348406136036
0.35,-0.030913017690181732,0.11662579327821732,0.04043262451887131,0.009619683027267456,-0.019199123606085777,0.026853172108530998
0.4,-0.020623287186026573,0.19921401143074036,-0.03429020196199417,0.009885198436677456,-0.0068864114582538605,0.022500820457935333
0.45,-0.005988885182887316,0.23567679524421692,0.0034633809700608253,0.006967185530811548,-0.022269362583756447,-0.0013296701945364475
0.5,-0.06086327135562897,0.1957388073205948,0.06631659716367722,0.008842165581882,-0.0426640659570694,-0.02018672041594982
0.55,-0.10052063316106796,0.08560656756162643,0.08131904155015945,0.010412345640361309,-0.045862261205911636,-0.03323013707995415
0.6,-0.06659528613090515,0.05828951299190521,0.12563039362430573,-0.001901765470393002,-0.03704366087913513,-0.028091363608837128
0.65,-0.06523831933736801,0.04414365813136101,0.11087221652269363,-0.012188705615699291,-0.018306424841284752,-0.00801379419863224
0.7,-0.03902766481041908,0.06261157244443893,0.06385444849729538,-0.018067654222249985,0.00039823248516768217,0.008850513957440853
0.75,-0.031002933159470558,0.12089443951845169,0.046084146946668625,-0.021349867805838585,0.005121420603245497,0.007548411376774311
0.8,-0.08625303208827972,0.10172177851200104,0.011206168681383133,-0.014157213270664215,0.00663383724167943,0.012740843929350376
0.85,-0.08312640339136124,0.101258285343647,0.022402921691536903,-0.00869035441428423,0.0181379746645689,0.009935752488672733
0.9,-0.08405724167823792,0.10377025604248047,0.08155941218137741,-0.012418808415532112,0.020824849605560303,0.0026751174591481686
0.95,-0.06045826897025108,0.1091756820678711,0.08150924742221832,-0.014293782413005829,0.013501574285328388,0.008274887688457966
1.0,-0.03679020702838898,0.1388235092163086,0.05525248497724533,-0.007394455373287201,0.009811810217797756,-0.0027791012544184923
1.05,-0.004396839998662472,0.06330013275146484,0.044852565973997116,0.00017412292072549462,0.011075945571064949,-0.00505117978900671
1.1,0.012186845764517784,0.048757560551166534,-0.004046870395541191,-0.00045814612531103194,0.008252730593085289,-0.002643261104822159
1.15,-0.02913684770464897,0.08950711041688919,-0.005919300019741058,0.0022489894181489944,-0.0019761144649237394,0.00348316109739244
1.2,-0.06733981519937515,0.1023416593670845,0.027642080560326576,0.006586708128452301,-0.003312598681077361,0.011730765923857689
1.25,-0.11244138330221176,0.09516239911317825,0.03609173372387886,0.01046063844114542,-0.0031181909143924713,0.009047430008649826
1.3,-0.09380887448787689,0.07697486877441406,0.04202140495181084,0.014067059382796288,-0.00607576547190547,0.0060144830495119095
1.35,-0.04234449565410614,0.08139514923095703,0.04448959231376648,0.009839409962296486,-0.005842315033078194,0.0046641831286251545
1.4,-0.006801757495850325,0.10556508600711823,0.0032039815559983253,0.00681982422247529,-0.0069298590533435345,0.01366390660405159
1.45,-0.03701695427298546,0.1035623699426651,0.004468897357583046,0.010485371574759483,-0.016218245029449463,0.025966249406337738
1.5,-0.06816587597131729,0.11741448193788528,0.044154874980449677,0.013156714849174023,-0.016842173412442207,0.03167808800935745
1.55,-0.06293404847383499,0.16714860498905182,0.030750811100006104,0.00826866552233696,-0.006001231726258993,0.014657259918749332
1.6,-0.08621057122945786,0.15721416473388672,0.042805224657058716,0.011169428937137127,-0.001538484008051455,0.0026944128330796957
1.65,-0.06940606236457825,0.13354873657226562,0.07492875307798386,0.010477886535227299,-0.000255813414696604,-0.0024324876721948385
1.7,-0.06536814570426941,0.13982486724853516,0.04297793284058571,0.004376914817839861,0.006952669937163591,0.0017733343411237001
1.75,-0.08909023553133011,0.09953213483095169,0.023297570645809174,0.004685947205871344,0.015939846634864807,0.009447893127799034
1.8,-0.08276605606079102,0.0656128004193306,0.008719856850802898,-0.00012148484529461712,0.023458275943994522,0.004896245896816254
1.85,-0.0969633087515831,0.4135666489601135,-0.009914143942296505,-0.0043150135315954685,0.02628912776708603,0.006606609560549259
1.9,-0.25485920906066895,0.7081747651100159,-0.007067285478115082,0.03769218921661377,0.026616938412189484,-0.09984349459409714
1.95,-0.6713166236877441,0.5083217620849609,0.14978444576263428,0.15003688633441925,0.05169038847088814,-0.2715781629085541
2.0,-0.8931528329849243,0.546933114528656,0.5457545518875122,0.3145579695701599,0.31899315118789673,-0.21238228678703308
2.05,-0.36778849363327026,0.4743727743625641,0.771247386932373,0.46105512976646423,0.8308058977127075,-0.08815144747495651
2.1,0.5848787426948547,0.1539592146873474,0.47449541091918945,0.5034394264221191,1.1300857067108154,-0.062257662415504456
2.15,1.2118861675262451,-0.10025598108768463,0.071653351187706,0.4782847464084625,1.0048625469207764,-0.053371232002973557
2.2,1.1765402555465698,-0.3022584915161133,-0.05168367922306061,0.3663075566291809,0.6208575963973999,-0.12287906557321548
2.25,0.7548074722290039,-0.34960463643074036,0.06803649663925171,0.19105668365955353,0.240604430437088,-0.20283415913581848
2.3,0.4233480393886566,-0.547483503818512,0.06284459680318832,0.07039544731378555,0.07784643769264221,-0.25501587986946106
2.35,0.3517790734767914,-0.6836262345314026,-0.09511810541152954,0.03577518090605736,0.06398124247789383,-0.1977432370185852
2.4,0.3959415853023529,-0.5147943496704102,-0.1742880493402481,0.017756279557943344,0.06624408811330795,-0.12923751771450043
2.45,0.26050814986228943,-0.4817333519458771,-0.1631259024143219,-0.025875011458992958,0.04300574213266373,-0.15584437549114227
2.5,-1.0835338830947876,0.5927962064743042,0.8639750480651855,-0.019575245678424835,-0.013242754153907299,0.0496225468814373
2.55,-2.7064096927642822,1.5791491270065308,1.9889366626739502,0.0709894448518753,0.15908682346343994,0.18158863484859467
2.6,-2.173347234725952,0.6425502300262451,1.6824151277542114,0.14611810445785522,0.5510811805725098,-0.030711272731423378
2.65,-0.3622850179672241,-0.15579715371131897,0.7513654828071594,0.08332593739032745,0.765632152557373,-0.10613400489091873
2.7,0.7589084506034851,-0.21422098577022552,-0.22858242690563202,-0.08976007252931595,0.7374945282936096,-0.04888945445418358
2.75,0.7236948013305664,-0.2922896146774292,-0.7119832634925842,-0.2280411422252655,0.5413234829902649,0.0020107112359255552
2.8,0.06629571318626404,-0.24693290889263153,-0.5563644170761108,-0.2555331885814667,0.330785870552063,0.10519863665103912
2.85,-0.5966905355453491,0.3285589814186096,-0.1334189772605896,-0.230747789144516,0.2471824437379837,0.1832096129655838
2.9,-0.7502796649932861,0.667323112487793,0.13220131397247314,-0.1624198704957962,0.2863714098930359,0.1038518100976944
2.95,-0.3582081198692322,0.25444793701171875,0.06003374233841896,-0.04715573787689209,0.3857059180736542,-0.021102095022797585
3.0,0.17401863634586334,-0.17642496526241302,-0.17739927768707275,0.031408168375492096,0.45975199341773987,-0.027115296572446823
3.05,0.45621731877326965,-0.2749146819114685,-0.4217394292354584,0.07812686264514923,0.4808692932128906,0.09367209672927856
3.1,0.35339823365211487,-0.09726323187351227,-0.6248877644538879,0.08232371509075165,0.4296914041042328,0.24731940031051636
3.15,-0.16061832010746002,0.32351604104042053,-0.6649916172027588,0.05768921971321106,0.3052690327167511,0.33730894327163696
3.2,-0.705386221408844,0.7905313372612,-0.45731237530708313,0.004747845232486725,0.13954126834869385,0.247353658080101
3.25,-0.5721150636672974,1.0950195789337158,-0.3868332803249359,-0.0736883357167244,0.0026039264630526304,0.008538159541785717
3.3,0.009818138554692268,0.7257806062698364,-0.4204674959182739,-0.08223428577184677,-0.09107663482427597,-0.20447243750095367
3.35,0.33131301403045654,-0.18634220957756042,-0.25662761926651,-0.04790816456079483,-0.1630631685256958,-0.28177177906036377
3.4,0.3095240294933319,-0.8192378282546997,-0.04329681023955345,-0.03476386144757271,-0.17660973966121674,-0.20880423486232758
3.45,0.04829695075750351,-0.795301616191864,0.23477260768413544,-0.03202204406261444,-0.15661422908306122,-0.0400046706199646
3.5,-0.23772364854812622,-0.1584511548280716,0.357489675283432,-0.0023674042895436287,-0.0870576873421669,0.12821294367313385
3.55,-0.30521640181541443,0.36424827575683594,0.2198270559310913,0.047702401876449585,-0.01282730046659708,0.17567817866802216
3.6,-0.22768087685108185,0.3402710258960724,0.06651460379362106,0.07399474084377289,-0.013175775296986103,0.11942483484745026
3.65,-0.11434102058410645,0.19239239394664764,-0.05659191682934761,0.07736655324697495,-0.03557276353240013,0.06813587993383408
3.7,-0.01919117569923401,0.13811686635017395,-0.09461101144552231,0.06509960442781448,-0.08170435577630997,0.0341961532831192
3.75,-0.01569318026304245,0.06802655011415482,0.007700055371969938,0.040206827223300934,-0.1420682668685913,0.001003619167022407
3.8,-0.1528189480304718,0.008309336379170418,0.14912272989749908,0.02742406167089939,-0.1608240008354187,0.0067734080366790295
3.85,-0.22688107192516327,0.13040731847286224,0.15628550946712494,0.019699465483427048,-0.14300742745399475,0.037776220589876175
3.9,-0.09663663804531097,0.22096921503543854,0.07915931195020676,0.0029330598190426826,-0.1304212510585785,0.02940213866531849
3.95,-0.03643215447664261,0.042215339839458466,0.061554551124572754,-0.007087712176144123,-0.12826953828334808,0.008152471855282784
4.0,-0.04397634044289589,0.07523059844970703,0.05686172842979431,-0.027951927855610847,-0.12295044958591461,0.01500711776316166
4.05,-0.0393967442214489,0.23425200581550598,0.009279996156692505,-0.050052013248205185,-0.10410130769014359,0.011578714475035667
4.1,-0.11120178550481796,0.13154317438602448,-0.006038704887032509,-0.0374707467854023,-0.07292607426643372,0.006162642035633326
4.15,-0.061522554606199265,0.05449964851140976,-0.08349601924419403,-0.018376335501670837,-0.04526166245341301,0.029404744505882263
4.2,0.08656363934278488,0.045628588646650314,-0.2038888782262802,-0.036671340465545654,-0.058023031800985336,0.03561694920063019
4.25,0.08280052244663239,0.15187077224254608,-0.12729239463806152,-0.07597900927066803,-0.11310126632452011,0.032075222581624985
4.3,-0.03282070532441139,0.33967307209968567,0.007758990861475468,-0.11031235009431839,-0.15384764969348907,0.012894713319838047
4.35,-0.05974792689085007,0.2629575729370117,0.09711115062236786,-0.12022475898265839,-0.16418138146400452,-0.02892814204096794
4.4,0.013165609911084175,0.06913278996944427,0.12998102605342865,-0.11112622171640396,-0.14917562901973724,-0.05582260712981224
4.45,0.10478263348340988,0.04030512273311615,0.10301897674798965,-0.09461801499128342,-0.1212172880768776,-0.04985785856842995
4.5,0.08833056688308716,0.005146971438080072,0.057664092630147934,-0.06580977886915207,-0.07726925611495972,-0.02351909689605236
4.55,0.05729767680168152,0.0879983901977539,0.024859944358468056,-0.039417117834091187,-0.030726449564099312,0.013753902167081833
4.6,-0.033637482672929764,0.19018082320690155,-0.05237826704978943,-0.019608421251177788,-0.0034186113625764847,0.02981465868651867
4.65,-0.11897711455821991,0.4044695794582367,-0.15507103502750397,-0.003743585664778948,0.005374939646571875,0.027378221973776817
4.7,-0.08567267656326294,0.5125475525856018,-0.16274212300777435,-0.0023002950474619865,-0.030241606757044792,-0.02272101119160652
4.75,-0.0407663956284523,0.3444872200489044,-0.07640236616134644,-0.011470140889286995,-0.10822723060846329,-0.09711218625307083
4.8,-0.08587148785591125,0.19407939910888672,0.14826655387878418,-0.04601099342107773,-0.18276141583919525,-0.15726952254772186
4.85,-0.21941882371902466,-0.12284287810325623,0.4137721359729767,-0.08931740373373032,-0.19819822907447815,-0.20999732613563538
4.9,-0.31880998611450195,-0.33297932147979736,0.5229788422584534,-0.10237982869148254,-0.11216231435537338,-0.18838493525981903
4.95,-0.25377270579338074,-0.23910056054592133,0.4413329064846039,-0.07399451732635498,0.03543982282280922,-0.07915154099464417
5.0,-0.03732173889875412,-0.05785373970866203,0.1895657777786255,-0.023971937596797943,0.1733098030090332,0.03326648846268654
5.05,0.06724067777395248,0.03505421802401543,-0.04332902282476425,0.0037250351160764694,0.2538512647151947,0.07490640878677368
5.1,-0.06864667683839798,0.07480720430612564,-0.15515448153018951,0.020046941936016083,0.27153581380844116,0.10031890124082565
5.15,-0.1551804393529892,0.19371803104877472,-0.30255430936813354,0.05028868839144707,0.2504967153072357,0.1319686472415924
5.2,-0.14982053637504578,0.29393014311790466,-0.40474653244018555,0.04774508997797966,0.1949492245912552,0.09063635021448135
5.25,-0.14811137318611145,0.2632046639919281,-0.38182738423347473,0.015266061760485172,0.10875804722309113,0.0015163193456828594
5.3,-0.09453229606151581,0.04481701925396919,-0.25017496943473816,-0.00323416106402874,0.007272183429449797,-0.06770645081996918
5.35,-0.0009360089898109436,-0.14481352269649506,-0.15520954132080078,-0.004896059166640043,-0.0674855187535286,-0.08355657756328583
5.4,0.08206158876419067,-0.03296755254268646,-0.10544896870851517,0.008587116375565529,-0.1139519140124321,-0.045725926756858826
5.45,0.07339637726545334,0.149690642952919,0.014681471511721611,0.02751089446246624,-0.14929413795471191,-0.011164331808686256
5.5,-0.040972884744405746,0.19446660578250885,0.10248608887195587,0.05036496743559837,-0.15876425802707672,-0.018451279029250145
5.55,-0.06345707178115845,0.11505793780088425,0.12312101572751999,0.07818783819675446,-0.132694274187088,-0.04337501525878906
5.6,-0.009766661562025547,0.09197138249874115,0.13416656851768494,0.10092026740312576,-0.08356232941150665,-0.05497359856963158
5.65,0.042404793202877045,0.06526470184326172,0.027379857376217842,0.12555143237113953,-0.016013022512197495,-0.03783778101205826
5.7,0.03125178441405296,0.0060625262558460236,-0.09683326631784439,0.15111418068408966,0.025537217035889626,0.003347676247358322
5.75,-0.06286806613206863,0.05889991298317909,-0.14362891018390656,0.16765590012073517,0.03381749242544174,0.04207813739776611
5.8,-0.07954547554254532,0.127472922205925,-0.13647159934043884,0.16035224497318268,0.04153691977262497,0.030827518552541733
5.85,0.015382491983473301,0.1143207922577858,-0.14100122451782227,0.14589868485927582,0.046703509986400604,0.0164196714758873
5.9,0.05996718257665634,0.21343618631362915,-0.13450250029563904,0.13552826642990112,0.03594943881034851,0.02385529689490795
5.95,-0.0668530985713005,0.3022785484790802,0.0312324371188879,0.11614964157342911,0.018973102793097496,-0.014964457601308823
6.0,-0.17599160969257355,0.2402047961950302,0.2510049641132355,0.09992793202400208,0.03708665817975998,-0.07741358876228333
6.05,0.000513298436999321,0.06187339127063751,0.29899004101753235,0.11295013129711151,0.10381593555212021,-0.057876408100128174
6.1,0.19438713788986206,-0.34304335713386536,-0.006428663618862629,0.11622267216444016,0.17235982418060303,0.006522560492157936
6.15,0.1735408753156662,-0.44371986389160156,-0.3278424143791199,0.049251385033130646,0.1671019345521927,0.053529493510723114
6.2,0.0747998058795929,-0.12630169093608856,-0.5025355815887451,-0.018867459148168564,0.10065286606550217,0.1097358986735344
6.25,-0.02869456261396408,0.49980273842811584,-0.5616985559463501,-0.05341456085443497,0.03327791020274162,0.15830783545970917
6.3,-0.049013651907444,0.36256706714630127,-0.541576623916626,-0.0909574031829834,-0.015484204515814781,0.0691966786980629
6.35,0.04077858477830887,-0.07762901484966278,-0.4723420739173889,-0.12000738084316254,-0.06406792998313904,0.016590263694524765
6.4,0.054833777248859406,-0.08994287252426147,-0.35737982392311096,-0.16996999084949493,-0.12304104119539261,0.03925018385052681
6.45,-0.05367141216993332,0.216404989361763,-0.2304076850414276,-0.21208733320236206,-0.17689473927021027,0.04617086052894592
6.5,-0.10747050493955612,0.5307779908180237,-0.0317494198679924,-0.19558560848236084,-0.21802842617034912,0.016345880925655365
6.55,-0.05084798485040665,0.42113497853279114,0.18094611167907715,-0.15132078528404236,-0.22555643320083618,-0.10427918285131454
6.6,0.06070805341005325,0.040076181292533875,0.44549012184143066,-0.08625608682632446,-0.19231775403022766,-0.2026512771844864
6.65,0.06668879091739655,-0.22285284101963043,0.6172396540641785,-0.011581582948565483,-0.10881934314966202,-0.14468632638454437
6.7,-0.0022139698266983032,-0.2280808836221695,0.6055111289024353,0.028751879930496216,-0.005452435463666916,-0.02018013224005699
6.75,-0.09855418652296066,-0.13027963042259216,0.4188854992389679,0.04005356878042221,0.07377427816390991,0.0670735165476799
6.8,-0.1696491539478302,0.20015621185302734,0.1366681307554245,0.03306552395224571,0.10717163980007172,0.10935108363628387
6.85,-0.19443771243095398,0.47744375467300415,0.05242038145661354,0.02881632000207901,0.0696805790066719,0.06439666450023651
6.9,-0.11937899142503738,0.3074808120727539,0.1333492249250412,0.054267436265945435,0.0333121232688427,-0.03444470837712288
6.95,0.005036244168877602,-0.03934290632605553,0.11880425363779068,0.08050405234098434,0.038383692502975464,-0.07591195404529572
7.0,0.053946755826473236,-0.3320474922657013,0.033528756350278854,0.0752861276268959,0.0386311411857605,-0.04874105378985405
7.05,0.109795480966568,-0.24078941345214844,-0.13120882213115692,0.07236454635858536,0.02751733548939228,0.03274950385093689
7.1,0.08674371242523193,0.002598811639472842,-0.2687962055206299,0.08866952359676361,-0.0037554579321295023,0.09334420412778854
7.15,0.01420894917100668,0.13643652200698853,-0.29107916355133057,0.09749902039766312,-0.03909030929207802,0.07956556230783463
7.2,0.03405742347240448,0.17254739999771118,-0.21154361963272095,0.10658189654350281,-0.043559905141592026,0.05444878712296486
7.25,0.1115511879324913,0.1942301243543625,-0.10334508121013641,0.13058194518089294,-0.005798394326120615,0.07628095149993896
7.3,0.07363291829824448,0.15468600392341614,-0.04036931321024895,0.15723945200443268,0.04111303389072418,0.11154196411371231
7.35,-0.08181314915418625,0.1976957470178604,0.04169933870434761,0.15183356404304504,0.07275325059890747,0.10841292142868042
7.4,-0.1939268708229065,0.33649539947509766,0.14369627833366394,0.11388280242681503,0.10165855288505554,0.05516865476965904
7.45,-0.20870159566402435,0.36534786224365234,0.19074401259422302,0.09532749652862549,0.13635823130607605,-0.0074555035680532455
7.5,-0.10058093816041946,0.15142153203487396,0.16154630482196808,0.10461641848087311,0.17596590518951416,-0.047623999416828156
7.55,0.13357415795326233,0.04309558868408203,0.029178693890571594,0.10387087613344193,0.2299852818250656,-0.016197027638554573
7.6,0.24222104251384735,-0.06909462809562683,-0.18442457914352417,0.1007712334394455,0.24957916140556335,0.041931573301553726
7.65,0.07412559539079666,0.009237352758646011,-0.3462051451206207,0.07636252790689468,0.20255710184574127,0.09145589917898178
7.7,-0.11177504807710648,0.3015070855617523,-0.36481180787086487,0.010988902300596237,0.11699633300304413,0.07202169299125671
7.75,-0.08043910562992096,0.3235188126564026,-0.21670542657375336,-0.0577109269797802,-0.013473744504153728,-0.038525041192770004
7.8,0.09927695244550705,-0.001399965025484562,-0.15565817058086395,-0.10747291147708893,-0.12062453478574753,-0.09785952419042587
7.85,0.17129872739315033,-0.30541133880615234,-0.13128294050693512,-0.16460110247135162,-0.17335060238838196,-0.04045398533344269
7.9,0.09483395516872406,-0.3839750587940216,-0.17974963784217834,-0.2245270311832428,-0.17399941384792328,0.08311548829078674
7.95,0.008375369012355804,-0.08838265389204025,-0.4252532124519348,-0.2882588505744934,-0.13903535902500153,0.2173997461795807
8.0,-0.04278602451086044,0.6898671984672546,-0.7423999309539795,-0.36138638854026794,-0.15568958222866058,0.2826553285121918
8.05,-0.04034950211644173,1.0782740116119385,-0.9081176519393921,-0.39241862297058105,-0.24091768264770508,0.13099408149719238
8.1,-0.09700435400009155,0.8605787754058838,-0.6104772686958313,-0.3378411829471588,-0.36774715781211853,-0.11765095591545105
8.15,-0.28405866026878357,0.22934342920780182,0.042644109576940536,-0.2650602459907532,-0.4278566837310791,-0.3586563766002655
8.2,-0.20925655961036682,-0.2760087549686432,0.6058136224746704,-0.1988217532634735,-0.33875709772109985,-0.47579097747802734
8.25,-0.009417809545993805,-0.7219831943511963,0.8874539732933044,-0.1215052455663681,-0.13787499070167542,-0.3735530376434326
8.3,0.17769934237003326,-0.7243215441703796,0.7596234083175659,-0.04246144741773605,0.105801522731781,-0.06001390889286995
8.35,-0.05510621517896652,-0.4060794413089752,0.4230186939239502,-0.001373710110783577,0.27248820662498474,0.19767756760120392
8.4,-0.449192613363266,0.19075967371463776,0.07174062728881836,0.0037525873631238937,0.355941504240036,0.32319408655166626
8.45,-0.36668992042541504,0.8595582842826843,-0.33082133531570435,0.01711413450539112,0.3806779682636261,0.31129464507102966
8.5,0.041499488055706024,0.82906174659729,-0.5814341306686401,0.03605407848954201,0.2938764989376068,0.10617098957300186
8.55,0.2161734253168106,0.13874350488185883,-0.44730159640312195,0.03703582286834717,0.1205216571688652,-0.10245297104120255
8.6,0.15028706192970276,-0.2417888641357422,-0.12886767089366913,0.028262782841920853,0.0018363099079579115,-0.12596891820430756
8.65,-0.0017013046890497208,-0.188754141330719,0.16192683577537537,0.010867384262382984,-0.03239663317799568,-0.05661266669631004
8.7,0.03172742947936058,-0.17911627888679504,0.05609451234340668,-0.016919752582907677,-0.014816783368587494,-0.0032353114802390337
8.75,0.17692165076732635,0.09820371121168137,-0.2067539393901825,-0.041959092020988464,-0.01616697758436203,0.047303639352321625
8.8,0.06561727821826935,0.3692198395729065,-0.1274273693561554,-0.04226614907383919,-0.06462836265563965,0.036254025995731354
8.85,-0.13619327545166016,0.25246524810791016,0.1567063331604004,-0.0014981913845986128,-0.08122765272855759,-0.016881437972187996
8.9,-0.03370733559131622,0.213682159781456,0.2522442042827606,0.0028078448958694935,-0.04493353143334389,-0.060981933027505875
8.95,0.10151375085115433,-0.02469923533499241,0.12060417979955673,-0.0210336372256279,-0.0296133104711771,-0.0945948138833046
9.0,0.14468920230865479,0.0794239342212677,-0.12779644131660461,-0.025432733818888664,-0.034147102385759354,-0.06791582703590393
9.05,-0.02839800715446472,0.48747071623802185,-0.10223858058452606,0.01551390066742897,-0.04375195503234863,-0.020375892519950867
9.1,-0.22689589858055115,0.03975006565451622,0.19181236624717712,0.043218549340963364,-0.012806066311895847,-0.08559148758649826
9.15,-0.01661069504916668,-0.5266714692115784,0.13489724695682526,0.016893360763788223,0.09795740991830826,-0.11585633456707001
9.2,0.15443900227546692,-0.5495472550392151,-0.13797807693481445,-0.026924533769488335,0.16289560496807098,-0.02424750290811062
9.25,-0.03466401994228363,0.001593634020537138,-0.24911350011825562,-0.03125468268990517,0.1359943449497223,0.10365947335958481
9.3,-0.22347402572631836,0.5835810303688049,-0.10354277491569519,0.00025458168238401413,0.116758331656456,0.1095111221075058
9.35,-0.1019461452960968,0.33355429768562317,0.02908402681350708,0.06730471551418304,0.16108164191246033,0.01370478980243206
9.4,0.1037132740020752,-0.13575458526611328,-0.03587210550904274,0.12175807356834412,0.22516568005084991,0.008703389205038548
9.45,0.028724664822220802,-0.09846017509698868,-0.19993139803409576,0.09578873217105865,0.21372368931770325,0.08319996297359467
9.5,-0.27445268630981445,0.25087079405784607,-0.3256254196166992,0.04898787662386894,0.15923237800598145,0.14011527597904205
9.55,-0.1702091544866562,0.47429195046424866,-0.5574230551719666,0.0434541329741478,0.08208294957876205,0.14339853823184967
9.6,0.03184607997536659,0.11437905579805374,-0.6231222152709961,0.0009049178916029632,-0.03595854714512825,0.012537620961666107
9.65,0.1969340741634369,-0.15207187831401825,-0.48147818446159363,-0.0634513720870018,-0.1504489928483963,-0.07385103404521942
9.7,0.1814001351594925,0.11328130215406418,-0.2150724083185196,-0.0800618901848793,-0.21948052942752838,-0.05063925310969353
9.75,-0.14515118300914764,0.155391663312912,0.20664481818675995,-0.028161950409412384,-0.24694769084453583,-0.01721535064280033
9.8,-0.2519146203994751,0.15486615896224976,0.3742905259132385,0.016409708186984062,-0.18332643806934357,0.0105913570150733
9.85,0.10057920217514038,0.08615398406982422,0.04731861129403114,-0.02727692387998104,-0.1224713996052742,-0.027670469135046005
9.9,0.3146326541900635,0.03974920138716698,-0.27494147419929504,-0.0698513388633728,-0.14540605247020721,-0.028950488194823265
9.95,0.01688816025853157,0.298621267080307,-0.28072306513786316,-0.052328936755657196,-0.18393760919570923,0.014512809924781322
10.0,-0.260198175907135,0.6941633820533752,-0.11170730739831924,-0.00020774517906829715,-0.1821378618478775,-0.004861576482653618
10.05,-0.08177144080400467,0.14943407475948334,0.12326858937740326,0.05912308394908905,-0.11620695888996124,-0.17969270050525665
10.1,0.3077918291091919,-0.5455008149147034,0.1724477857351303,0.11203228682279587,-0.02366289682686329,-0.20689639449119568
10.15,0.4736689627170563,-0.22877316176891327,0.09365560114383698,0.10976047068834305,0.025594450533390045,-0.037487342953681946
10.2,-0.08292941749095917,0.03393074870109558,0.18876634538173676,0.0928337424993515,-0.006529329344630241,0.04309958964586258
10.25,-0.3008802533149719,0.2426004707813263,-0.007458883803337812,0.09051121771335602,0.025468038395047188,0.0722910538315773
10.3,0.00510074757039547,0.4885941743850708,-0.2904771864414215,0.08661193400621414,0.057589877396821976,0.018696604296565056
10.35,0.2731936573982239,0.4588538408279419,-0.38287514448165894,0.09969551116228104,0.007196001708507538,-0.08336755633354187
10.4,0.2697993516921997,0.5012035965919495,-0.04607236012816429,0.12130392342805862,-0.05915883928537369,-0.15839290618896484
10.45,-0.07140201330184937,-0.302226185798645,0.47606536746025085,0.12494286894798279,-0.08945659548044205,-0.2535797953605652
10.5,-0.13164301216602325,-0.923635721206665,0.5266338586807251,0.08712384849786758,-0.02606828883290291,-0.17086102068424225
10.55,-0.13449373841285706,-0.44384872913360596,0.38464152812957764,0.0014735345030203462,0.08333844691514969,0.008148236200213432
10.6,-0.269272118806839,0.07057946920394897,0.3752571642398834,-0.021524321287870407,0.15431949496269226,0.10880495607852936
10.65,-0.3354233503341675,0.16075320541858673,0.3197057545185089,0.016329646110534668,0.23188821971416473,0.12346702814102173
10.7,-0.1824863702058792,-0.13064007461071014,0.1611892729997635,0.06462080776691437,0.3326275050640106,0.10925433039665222
10.75,0.1120825856924057,-0.15964505076408386,-0.23787769675254822,0.1084895133972168,0.4297003448009491,0.19521968066692352
10.8,0.1325114518404007,0.5445367693901062,-0.5404965281486511,0.1076231524348259,0.4197179675102234,0.32318153977394104
10.85,-0.3095243275165558,0.6925126910209656,-0.566977858543396,0.05832721292972565,0.27747347950935364,0.25649431347846985
10.9,-0.3529515266418457,0.4819890856742859,-0.660771906375885,0.00039177946746349335,0.11222300678491592,0.08063916116952896
10.95,0.07439903169870377,0.5256358981132507,-0.7219398021697998,-0.061643343418836594,-0.049400173127651215,-0.06545474380254745
11.0,0.27236878871917725,-0.03610507398843765,-0.452437162399292,-0.09444636106491089,-0.19820086658000946,-0.18242593109607697
11.05,0.2154897004365921,-0.4990082085132599,-0.19198504090309143,-0.09930001944303513,-0.24901148676872253,-0.16864727437496185
11.1,0.009817905724048615,-0.4342260956764221,-0.04392228275537491,-0.05063789710402489,-0.20720668137073517,-0.028119495138525963
11.15,-0.04431692883372307,0.23566249012947083,0.02235325239598751,0.008628401905298233,-0.14370796084403992,0.11593326926231384
11.2,-0.10239464789628983,0.46601203083992004,0.1505976766347885,0.05943717807531357,-0.10910970717668533,0.12369811534881592
11.25,0.015223413705825806,0.29390525817871094,0.19492276012897491,0.034937333315610886,-0.09237983077764511,0.06413137167692184
11.3,0.10828401148319244,0.2564725875854492,0.16002018749713898,-0.061631858348846436,-0.12073242664337158,0.022019486874341965
11.35,0.12428905069828033,0.39416128396987915,-0.058531902730464935,-0.16190053522586823,-0.17864647507667542,-0.034435223788022995
11.4,0.027580758556723595,0.2788887917995453,-0.2913007140159607,-0.22993220388889313,-0.2670365273952484,-0.12215556204319
11.45,0.020878033712506294,0.23602017760276794,-0.37221917510032654,-0.2093416303396225,-0.3108704388141632,-0.15044963359832764
11.5,0.09940370172262192,0.06814200431108475,-0.3334200084209442,-0.13412798941135406,-0.2920830249786377,-0.18739375472068787
11.55,0.1828484833240509,-0.01766965724527836,-0.1108805313706398,-0.06222492456436157,-0.23250256478786469,-0.20160382986068726
11.6,0.20100069046020508,-0.14876271784305573,0.03982372209429741,0.023191502317786217,-0.11947374790906906,-0.166686549782753
11.65,0.0859346017241478,-0.079409658908844,0.28293168544769287,0.06931675225496292,-0.022441640496253967,-0.053008537739515305
11.7,-0.24970607459545135,0.13538353145122528,0.45965445041656494,0.08025415241718292,0.03686508163809776,-0.0014972061617299914
11.75,-0.30706048011779785,0.4232311248779297,0.3433830738067627,0.07824191451072693,0.09207700937986374,-0.046881772577762604
11.8,-0.0908297672867775,0.3262433707714081,0.3474712669849396,0.12215470522642136,0.13169167935848236,-0.12247515469789505
11.85,0.1988665759563446,-0.3996678292751312,0.19708934426307678,0.16976502537727356,0.1995220184326172,-0.08873547613620758
11.9,0.25178954005241394,-0.7095365524291992,-0.22878852486610413,0.13350515067577362,0.2832765579223633,0.04767179489135742
11.95,-0.2041337937116623,-0.11815927922725677,-0.19994798302650452,0.03195478022098541,0.26720762252807617,0.14102955162525177
12.0,-0.560164213180542,0.37209418416023254,0.025135308504104614,0.002839207649230957,0.2219594419002533,0.13951648771762848
12.05,-0.2846641540527344,0.06431865692138672,0.006182501558214426,0.04105471447110176,0.2465197741985321,0.07698215544223785
12.1,0.16571667790412903,-0.17844867706298828,-0.09542080760002136,0.09319539368152618,0.28168562054634094,0.10214158147573471
12.15,0.2537133991718292,-0.13062666356563568,-0.17278902232646942,0.12195062637329102,0.26784276962280273,0.18480071425437927
12.2,-0.18938730657100677,0.3300485908985138,-0.055798377841711044,0.10953988134860992,0.19136959314346313,0.27459490299224854
12.25,-0.41976413130760193,0.5753355622291565,-0.15516497194766998,0.050154395401477814,0.11013739556074142,0.21176555752754211
12.3,-0.051492247730493546,0.3389092683792114,-0.5848351120948792,-0.030567433685064316,0.017497636377811432,0.05299515649676323
12.35,0.372067391872406,0.41448137164115906,-0.8489180207252502,-0.04606961831450462,-0.10806665569543839,0.026386605575680733
12.4,0.24165712296962738,0.4165021479129791,-0.5266888737678528,-0.05450934171676636,-0.2619292140007019,-0.034479010850191116
12.45,0.1448996514081955,0.0833921805024147,-0.1470862478017807,-0.06447208672761917,-0.3277341425418854,-0.1284225732088089
12.5,0.10089512169361115,-0.0582437627017498,0.029660232365131378,-0.06120280176401138,-0.3166912794113159,-0.14398212730884552
12.55,0.08583775162696838,0.0400218665599823,0.18604260683059692,-0.017327360808849335,-0.27811622619628906,-0.08084270358085632
12.6,0.0939953476190567,-0.07187467813491821,0.3144221305847168,0.038932252675294876,-0.21432717144489288,-0.03893435001373291
12.65,0.1829203963279724,0.09850499778985977,0.22441497445106506,0.05676691234111786,-0.11750981211662292,-0.0036081525031477213
12.7,0.13615943491458893,0.0007057057810015976,0.08342253416776657,0.04684078320860863,-0.08687333017587662,0.0030842069536447525
12.75,0.07061664760112762,0.13305476307868958,-0.07028158754110336,0.0033499840646982193,-0.09978707134723663,0.031930238008499146
12.8,0.0037747491151094437,0.20609672367572784,-0.26420968770980835,-0.04072819650173187,-0.11668531596660614,0.014204228296875954
12.85,-0.03713756427168846,0.26835259795188904,-0.2925758361816406,-0.048540227115154266,-0.16036531329154968,-0.022679096087813377
12.9,-0.0714138001203537,0.3525887131690979,-0.17976659536361694,-0.06348181515932083,-0.18144111335277557,-0.08539359271526337
12.95,-0.046866919845342636,0.04483987018465996,-0.04211830347776413,-0.03773394972085953,-0.141429141163826,-0.1295262575149536
13.0,0.01377769187092781,-0.17412474751472473,0.059403833001852036,0.0036753288004547358,-0.06525668501853943,-0.08212225884199142
13.05,0.021672992035746574,-0.21436505019664764,0.09479397535324097,0.0053747789934277534,0.00883948989212513,-0.027629518881440163
13.1,0.001364896772429347,0.16457463800907135,0.023562008515000343,0.012342199683189392,0.046884067356586456,0.05170855671167374
13.15,-0.11567849665880203,0.2519531846046448,-0.10633599013090134,0.021114008501172066,0.05643293634057045,0.04539386183023453
13.2,-0.22244815528392792,0.5944204926490784,-0.15277992188930511,0.02773132361471653,0.048650987446308136,-0.01165896188467741
13.25,-0.10912789404392242,1.0067998170852661,-0.09541955590248108,0.0659027025103569,0.04431901127099991,-0.10106255114078522
13.3,-0.1405252069234848,-0.04741104319691658,0.3887355923652649,0.1453397125005722,0.03305261954665184,-0.2990262508392334
13.35,-0.04267558082938194,-1.4684736728668213,0.48580634593963623,0.20211642980575562,0.12151425331830978,-0.2102012187242508
13.4,0.20571604371070862,-1.1421929597854614,0.028562050312757492,0.11584102362394333,0.314225435256958,0.14216826856136322
13.45,-0.16832111775875092,0.1118335947394371,-0.03341565281152725,0.019855035468935966,0.3611809313297272,0.38140276074409485
13.5,-0.4830251932144165,0.7774220705032349,-0.13309450447559357,0.03298670053482056,0.35420429706573486,0.40750792622566223
13.55,-0.3768215775489807,0.3682900071144104,-0.23271892964839935,0.037672463804483414,0.2998404800891876,0.21410736441612244
13.6,0.03937339782714844,0.06835944205522537,-0.34914007782936096,0.036149099469184875,0.26356372237205505,0.1069461926817894
13.65,0.3391425907611847,0.03136260807514191,-0.38360562920570374,0.01791411265730858,0.1925003081560135,0.086278535425663
13.7,0.22590000927448273,0.13573651015758514,-0.1593037098646164,-0.03672415763139725,0.045348551124334335,0.10854876041412354
13.75,-0.220420703291893,0.06999494135379791,-0.04254331812262535,-0.09195800125598907,-0.07378120720386505,0.10983224958181381
13.8,-0.1404474675655365,0.4264336824417114,-0.378760427236557,-0.08328579366207123,-0.10703819990158081,0.17545641958713531
13.85,0.04003877937793732,0.41902270913124084,-0.47138556838035583,-0.076607845723629,-0.17974717915058136,0.08145046979188919
13.9,0.19204291701316833,0.09242352098226547,-0.3950570225715637,-0.10960465669631958,-0.25561296939849854,-0.07858192920684814
13.95,0.16090579330921173,0.24077419936656952,-0.05091705918312073,-0.09844236075878143,-0.27460139989852905,-0.09248997271060944
14.0,-0.0633365586400032,0.20943257212638855,0.3413437604904175,-0.051830023527145386,-0.24782158434391022,-0.07265909761190414
14.05,-0.16657188534736633,-0.25324738025665283,0.5660250186920166,-0.003485167631879449,-0.18515120446681976,-0.0577995590865612
14.1,-0.06545249372720718,-0.3668462038040161,0.503594160079956,0.01814214140176773,-0.0750153586268425,0.07368114590644836
14.15,0.05214919522404671,-0.005856520961970091,0.041113946586847305,0.031013526022434235,0.06857438385486603,0.2405381202697754
14.2,-0.02343890815973282,0.11325652152299881,-0.2895835041999817,0.016318820416927338,0.09982085973024368,0.27480462193489075
14.25,0.0031922589987516403,0.3794175684452057,-0.46818798780441284,-0.0051635513082146645,0.07931310683488846,0.22703467309474945
14.3,0.09348996728658676,0.43704044818878174,-0.4076383113861084,-0.01540127769112587,0.01848222315311432,0.1281394064426422
14.35,0.07612404972314835,0.07682613283395767,-0.16314537823200226,0.02022773027420044,-0.007332062814384699,0.05801572650671005
14.4,0.15131692588329315,0.15345576405525208,-0.07290640473365784,0.001810373505577445,-1.7148333427030593e-05,0.025937436148524284
14.45,0.19907045364379883,0.083222396671772,0.027740783989429474,-0.04514008015394211,-0.03216586261987686,-0.04313855245709419
14.5,0.1110740527510643,0.22542861104011536,0.038363128900527954,-0.054433710873126984,-0.06013935059309006,-0.049906983971595764
14.55,-0.08823424577713013,0.29784491658210754,-0.03397386521100998,0.003236585296690464,-0.05491005629301071,-0.025430019944906235
14.6,-0.19575786590576172,0.306491881608963,0.02071613445878029,0.03413814306259155,-0.03718391805887222,-0.061360280960798264
14.65,-0.08422024548053741,-0.4224472939968109,0.11841224879026413,0.022429076954722404,-0.061238955706357956,-0.1399630755186081
14.7,0.2348911017179489,-0.2061462551355362,-0.09078413993120193,-0.07404781132936478,-0.08217091113328934,-0.04986325651407242
14.75,0.10719241201877594,0.32260236144065857,-0.35363200306892395,-0.21107620000839233,-0.14947430789470673,0.028400402516126633
14.8,-0.47485342621803284,0.6206856966018677,-0.3532443344593048,-0.25855281949043274,-0.2367861270904541,0.013475834392011166
14.85,-0.43843138217926025,0.47890007495880127,-0.4041786789894104,-0.2570401132106781,-0.2405196577310562,-0.16258548200130463
14.9,-0.034752581268548965,0.2098599225282669,-0.24732886254787445,-0.19225792586803436,-0.2182241529226303,-0.2863549590110779
14.95,0.1899525225162506,-0.3131581246852875,0.34345585107803345,-0.1204075813293457,-0.17307868599891663,-0.35863783955574036
15.0,0.20646968483924866,-1.0218117237091064,0.6686447262763977,-0.02307402715086937,-0.0217422042042017,-0.25641605257987976
15.05,0.10466837882995605,-0.43643108010292053,0.5874244570732117,0.05161641910672188,0.19184760749340057,0.11274410039186478
15.1,-0.2641875147819519,0.09155745059251785,0.3203376829624176,0.05753730237483978,0.278448224067688,0.32232189178466797
15.15,-0.3281913697719574,0.2992916703224182,-0.19045309722423553,0.033576808869838715,0.3051641285419464,0.34138020873069763
15.2,-0.10511822998523712,0.8687651753425598,-0.8529804944992065,0.03320380300283432,0.28196078538894653,0.2792890965938568
15.25,-0.039443809539079666,0.7835562229156494,-0.7868634462356567,0.04226267337799072,0.09242118149995804,0.04502211511135101
15.3,0.045956555753946304,0.24013814330101013,-0.35839125514030457,0.051389966160058975,-0.06144603341817856,-0.19208815693855286
15.35,0.079729363322258,-0.23340420424938202,0.12183030694723129,0.05884939432144165,-0.12045074999332428,-0.2717016637325287
15.4,0.08197005838155746,-0.2886124849319458,0.5110697150230408,0.06110203266143799,-0.09580507129430771,-0.16890372335910797
15.45,-0.010173017159104347,-0.26149478554725647,0.6064445376396179,0.07264522463083267,0.018635129556059837,-0.011361664161086082
15.5,0.02305632270872593,-0.26869019865989685,0.31764015555381775,0.06487028300762177,0.18970316648483276,0.07828205823898315
15.55,0.1299799233675003,-0.1348733901977539,-0.04995161294937134,0.05818167328834534,0.2898406982421875,0.18288666009902954
15.6,0.16388610005378723,0.24140939116477966,-0.31478700041770935,0.044339459389448166,0.304271936416626,0.2709497809410095
15.65,-0.016900092363357544,0.46290123462677,-0.40725940465927124,0.017305132001638412,0.24320334196090698,0.22376802563667297
15.7,-0.0867338478565216,0.6087571382522583,-0.45911717414855957,0.005739391781389713,0.16166524589061737,0.13163208961486816
15.75,0.05234234035015106,0.5682955980300903,-0.3659313917160034,-0.023207543417811394,0.03207577392458916,-0.021003568544983864
15.8,0.17737285792827606,0.04763701558113098,-0.1055651381611824,-0.06206658482551575,-0.09750643372535706,-0.15489616990089417
15.85,0.20003189146518707,-0.09606171399354935,-0.044842008501291275,-0.08587316423654556,-0.13867776095867157,-0.12013715505599976
15.9,0.1038370281457901,-0.01957034319639206,-0.04500671848654747,-0.10879303514957428,-0.14758938550949097,-0.049020685255527496
15.95,-0.09009936451911926,0.040797241032123566,-0.03606896847486496,-0.10771819204092026,-0.14129211008548737,-0.00792947318404913
16.0,0.0750807374715805,0.3309345841407776,-0.12198705971240997,-0.12466324865818024,-0.14330936968326569,-0.0007596784271299839
16.05,0.14186392724514008,0.38708314299583435,-0.15861797332763672,-0.11347154527902603,-0.2003972828388214,-0.07343903183937073
16.1,-0.10353962332010269,-0.07980635017156601,0.09124709665775299,-0.03074384480714798,-0.24254414439201355,-0.14139986038208008
16.15,-0.20552906394004822,-0.17609603703022003,0.3243195116519928,0.05974365770816803,-0.14291873574256897,-0.07778220623731613
16.2,-0.07716454565525055,-0.13481910526752472,0.36607488989830017,0.06741932034492493,0.03515090420842171,-0.0035908010322600603
16.25,-0.09262272715568542,-0.34322553873062134,0.09869271516799927,0.050089191645383835,0.129383847117424,0.10921141505241394
16.3,-0.15478180348873138,0.16178902983665466,-0.4077241122722626,-0.04648393392562866,0.13040710985660553,0.2042860984802246
16.35,-0.4462081789970398,0.49641910195350647,-0.603501558303833,-0.14648902416229248,-0.058039069175720215,0.11130240559577942
16.4,-0.3843618631362915,0.6071626543998718,-0.5578705668449402,-0.14586737751960754,-0.22774311900138855,-0.0403592623770237
16.45,-0.03365550935268402,0.3179255425930023,-0.2953954041004181,-0.13328316807746887,-0.30943021178245544,-0.22048218548297882
16.5,0.2804083228111267,-0.052090663462877274,0.07936153560876846,-0.07397525012493134,-0.29444897174835205,-0.27270638942718506
16.55,0.24408087134361267,-0.6511193513870239,0.35983139276504517,-0.02756974846124649,-0.21739855408668518,-0.23949263989925385
16.6,-0.01899689808487892,-0.4177228510379791,0.48967599868774414,0.00755792111158371,-0.0851752758026123,-0.012735613621771336
16.65,-0.36821386218070984,0.16205497086048126,0.3474692702293396,0.03413200378417969,0.09318018704652786,0.1679646223783493
16.7,-0.24738401174545288,0.650149405002594,-0.10111942887306213,0.06583087891340256,0.2220715582370758,0.179888516664505
16.75,0.012561304494738579,0.19870100915431976,-0.4026969075202942,0.10240908712148666,0.19225598871707916,0.04127051308751106
16.8,0.037055306136608124,-0.05067630857229233,-0.25786444544792175,0.11117738485336304,0.08440276235342026,-0.008820721879601479
16.85,0.023012880235910416,0.02751922607421875,0.018856022506952286,0.09035144001245499,0.04181439429521561,-0.0178078506141901
16.9,0.005360057577490807,-0.02792169898748398,0.1097579225897789,0.08840977400541306,0.07135701924562454,-0.0033358584623783827
16.95,0.023020954802632332,0.04735755920410156,0.044606152921915054,0.09134304523468018,0.14156284928321838,0.04845919460058212
17.0,0.04668781906366348,0.11900999397039413,-0.024233706295490265,0.09870274364948273,0.1862543225288391,0.09549567848443985
17.05,0.07253460586071014,0.30227187275886536,-0.07611959427595139,0.09913299977779388,0.19468876719474792,0.13637447357177734
17.1,0.1885974407196045,0.5203238725662231,-0.2605147361755371,0.0609162375330925,0.16922900080680847,0.07371558994054794
17.15,0.02902894839644432,0.4024258553981781,-0.13550043106079102,-0.005767311900854111,0.06806085258722305,-0.04829796776175499
17.2,-0.02154676243662834,0.06284143775701523,-0.07393956184387207,-0.006363885477185249,0.020356060937047005,-0.053964484483003616
17.25,0.14069415628910065,0.0069866664707660675,-0.2581993341445923,-0.042151182889938354,0.007135442923754454,-0.05853511765599251
17.3,0.1128646731376648,0.047616999596357346,-0.18176496028900146,-0.09398872405290604,-0.05605950206518173,-0.07737726718187332
17.35,0.0828491747379303,0.25443845987319946,-0.21263569593429565,-0.09338007867336273,-0.08852478861808777,-0.06086376681923866
17.4,-0.09551121294498444,0.5236025452613831,-0.09510154277086258,-0.08878615498542786,-0.12882192432880402,-0.08855497092008591
17.45,-0.12463913857936859,0.3967514634132385,0.06325694918632507,-0.022331461310386658,-0.16082391142845154,-0.20564502477645874
17.5,-0.28334441781044006,0.18667981028556824,0.27176058292388916,0.10046713054180145,-0.11974461376667023,-0.29833659529685974
17.55,-0.08956864476203918,0.17265886068344116,0.3918093144893646,0.24654804170131683,0.0212137158960104,-0.2549097239971161
17.6,0.07111608982086182,-0.02035430818796158,0.20755130052566528,0.3541141450405121,0.1611243188381195,-0.15906408429145813
17.65,-0.0052358247339725494,-0.014089606702327728,0.11417923867702484,0.31459707021713257,0.17983226478099823,-0.11019688099622726
17.7,-0.029797088354825974,0.2995481491088867,0.22347918152809143,0.1621100902557373,0.040262337774038315,-0.18554022908210754
17.75,0.12957507371902466,0.20414067804813385,0.06084568798542023,0.12696397304534912,-0.04775087535381317,-0.27841371297836304
17.8,0.3971940875053406,0.23246006667613983,-0.0928541049361229,-0.09467149525880814,-0.1414608359336853,-0.32682016491889954
17.85,0.5534869432449341,-0.41259193420410156,-0.2472228705883026,-0.23862391710281372,-0.19079555571079254,-0.3911370635032654
17.9,0.3052217662334442,-0.3973569869995117,-0.3658392131328583,-0.21578584611415863,-0.19379344582557678,-0.1730377972126007
17.95,-0.6055472493171692,-0.6476412415504456,0.06596043705940247,-0.20255832374095917,-0.17979459464550018,-0.10455071181058884
18.0,-0.5906577706336975,-0.18778425455093384,0.11011480540037155,-0.15265843272209167,0.02638343907892704,0.09557461738586426
18.05,-0.009493193589150906,0.16678716242313385,0.03030390664935112,-0.10336892306804657,0.18662263453006744,0.17081326246261597
18.1,0.1431877613067627,0.260924369096756,0.06841393560171127,0.03537056967616081,0.2492154836654663,0.2648460865020752
18.15,-0.025545820593833923,-0.13382917642593384,0.25197166204452515,0.09359301626682281,0.25488075613975525,0.32025450468063354
18.2,-0.32319480180740356,-0.06211951747536659,0.11637042462825775,0.03514699265360832,0.2788909375667572,0.3122991621494293
18.25,-0.170210063457489,0.1608019322156906,-0.20738962292671204,-0.008456500247120857,0.3165731132030487,0.2841286361217499
18.3,0.101894810795784,0.8665745258331299,-0.6287923455238342,-0.0251153577119112,0.21426211297512054,0.2790939211845398
18.35,-0.09299173951148987,0.4382573664188385,-0.5498294234275818,-0.015361964702606201,0.04033032804727554,0.07477143406867981
18.4,0.06104843318462372,0.1798316240310669,-0.5895377397537231,-0.014613784849643707,-0.02009275183081627,-0.06731169670820236
18.45,0.1399059295654297,0.30506524443626404,-0.37184417247772217,-0.009293491020798683,-0.11812376230955124,-0.14448899030685425
18.5,-0.07335308939218521,0.5249576568603516,0.1867457926273346,0.01821461133658886,-0.15556669235229492,-0.25198060274124146
18.55,-0.13154315948486328,0.021701684221625328,0.7190233469009399,0.10282556712627411,-0.10797222703695297,-0.33715376257896423
18.6,0.3426186740398407,-0.4321911036968231,0.851360023021698,0.13789485394954681,0.08238158375024796,-0.24839404225349426
18.65,0.4437237083911896,-1.7273943424224854,0.25802481174468994,0.12017729878425598,0.25356191396713257,-0.03081095963716507
18.7,0.4136218726634979,-0.5844077467918396,-0.6812870502471924,0.02320166304707527,0.36192116141319275,0.5050936937332153
18.75,-0.5840567350387573,1.3002665042877197,-0.9846308827400208,-0.08363097906112671,0.21718260645866394,0.6453067660331726
18.8,-0.7811404466629028,1.4658092260360718,-1.079749584197998,-0.16045436263084412,-0.06166424602270126,0.23584456741809845
18.85,0.04438905417919159,1.1971666812896729,-0.982546329498291,-0.2044561803340912,-0.3210580348968506,-0.18671980500221252
18.9,0.4595487713813782,0.20805750787258148,-0.38585877418518066,-0.14953076839447021,-0.5107452273368835,-0.47325941920280457
18.95,0.3979557752609253,-1.0409470796585083,0.26509416103363037,-0.09526791423559189,-0.4944426715373993,-0.5672666430473328
19.0,0.1470995545387268,-0.9366886615753174,0.7592876553535461,-0.059065837413072586,-0.30072495341300964,-0.2776777744293213
19.05,-0.2906076908111572,-0.12864035367965698,0.9216461181640625,0.020549142733216286,-0.0793512836098671,0.09190180152654648
19.1,-0.38291680812835693,0.28111737966537476,0.5437989234924316,0.047883957624435425,0.12102115154266357,0.20680886507034302
19.15,-0.09062505513429642,0.11226656287908554,-0.06444297730922699,0.0005877101793885231,0.1656743437051773,0.15785741806030273
19.2,0.21230261027812958,0.0035077156499028206,-0.5529624223709106,-0.03837563842535019,0.104751355946064,0.1688406616449356
19.25,0.09464438259601593,0.00034628857974894345,-0.5812526941299438,-0.06544886529445648,-0.013665996491909027,0.21654172241687775
19.3,-0.09529173374176025,0.44778838753700256,-0.5882241129875183,-0.14133290946483612,-0.09445097297430038,0.21476143598556519
19.35,-0.3899211287498474,0.4008723497390747,-0.3577663004398346,-0.1719619631767273,-0.19594451785087585,0.1130305677652359
19.4,-0.12848934531211853,0.5052310228347778,-0.24809148907661438,-0.15539182722568512,-0.2686942517757416,0.029158640652894974
19.45,0.12313982099294662,-0.3621378242969513,0.0053398497402668,-0.14781902730464935,-0.33522698283195496,-0.10171649605035782
19.5,0.2616208791732788,-0.05882640555500984,-0.24708515405654907,-0.1086328774690628,-0.28964608907699585,0.06874489039182663
19.55,-0.0089574558660388,0.7419138550758362,-0.11933223903179169,-0.1286526918411255,-0.3248012959957123,-0.013805903494358063
19.6,-0.30574050545692444,0.7163448333740234,0.3070002794265747,-0.06688043475151062,-0.42883023619651794,-0.31272271275520325
19.65,-0.23040521144866943,0.12893569469451904,0.7095520496368408,0.0793638750910759,-0.4563065469264984,-0.40552616119384766
19.7,-0.010116711258888245,0.14266568422317505,1.0957109928131104,0.13435012102127075,-0.3833428919315338,-0.4285052716732025
19.75,0.056397370994091034,-0.7023118734359741,1.540102481842041,0.2585756182670593,-0.16177064180374146,-0.4111715257167816
19.8,0.17194844782352448,-2.143693447113037,1.6010138988494873,0.2795170545578003,0.26635393500328064,-0.12858130037784576
19.85,1.1510089635849,-1.9911768436431885,0.20117691159248352,0.21421034634113312,0.92235267162323,0.5673964023590088
19.9,0.5674774646759033,1.86970853805542,-1.2085025310516357,0.06371182203292847,1.1133736371994019,1.2379380464553833
19.95,-2.111337900161743,2.871875047683716,-0.6141424775123596,0.0995931550860405,0.6429411768913269,0.7756238579750061
20.0,-0.7062159180641174,0.6932051181793213,-1.0701719522476196,0.15936951339244843,0.3129357099533081,-0.12028263509273529
20.05,0.6707586646080017,-0.5827702283859253,-1.0439218282699585,-0.0009329654276371002,-0.021530959755182266,-0.4556567072868347
20.1,0.6461831331253052,-0.5959815979003906,-0.36399102210998535,-0.08233439922332764,-0.2899971306324005,-0.3299292325973511
20.15,-0.2094382345676422,-0.6397601366043091,0.2443704754114151,-0.04023890569806099,-0.3051212728023529,-0.14841319620609283
20.2,-0.8803730607032776,0.01055894698947668,0.7024171352386475,0.010394196026027203,-0.15868313610553741,0.05428796261548996
20.25,-0.47312140464782715,0.23537248373031616,0.4365781843662262,0.04739405959844589,0.030893227085471153,0.13701824843883514
20.3,0.3024539351463318,0.21815308928489685,-0.3089946508407593,0.04463111609220505,0.15985329449176788,0.17193947732448578
20.35,0.18229155242443085,0.2814275324344635,-0.7237264513969421,0.02654263935983181,0.0927305594086647,0.15929996967315674
20.4,-0.44741857051849365,0.454931378364563,-0.38840505480766296,0.0024989652447402477,-0.08521416038274765,0.07759924978017807
20.45,-0.41736045479774475,0.2990169823169708,-0.02301854081451893,0.007727339398115873,-0.16784197092056274,-0.06077701225876808
20.5,0.1671605408191681,-0.06226254254579544,0.008408198133111,0.009015141054987907,-0.13091059029102325,-0.14335739612579346
20.55,0.30706900358200073,-0.27036574482917786,-0.021643254905939102,0.01915907673537731,-0.1044929102063179,-0.05628003925085068
20.6,-0.06229567900300026,-0.2004566639661789,0.043630681931972504,-0.027697734534740448,-0.10178488492965698,0.06394665688276291
20.65,-0.34028908610343933,0.04936028644442558,-0.04181944578886032,-0.05154246836900711,-0.05136847123503685,0.1367730051279068
20.7,-0.14873428642749786,0.4453660249710083,-0.34922218322753906,-0.0881996750831604,-0.033649273216724396,0.10379111021757126
20.75,-0.0349908322095871,0.448064923286438,-0.3573254942893982,-0.08151639252901077,-0.0944661796092987,0.029821140691637993
20.8,-0.0608014240860939,-0.004810326732695103,-0.042368315160274506,-0.0611104890704155,-0.14908450841903687,-0.047227893024683
20.85,0.06228034943342209,-0.1954088807106018,0.19518853724002838,-0.06390339881181717,-0.15054921805858612,-0.04775441437959671
20.9,-0.07101783901453018,-0.21995648741722107,0.33512258529663086,-0.056834328919649124,-0.10698405653238297,0.020836498588323593
20.95,-0.0782415047287941,0.16395851969718933,0.22360585629940033,-0.07981851696968079,-0.03963511064648628,0.12021569907665253
21.0,-0.03296462446451187,0.48235899209976196,-0.0581727996468544,-0.10351435840129852,-0.003844848368316889,0.13978081941604614
21.05,-0.1282733827829361,0.3697243630886078,-0.2939995527267456,-0.12388856709003448,-0.04578672721982002,0.07543451339006424
21.1,-0.038937222212553024,0.4880954325199127,-0.5270823836326599,-0.12857331335544586,-0.10526134073734283,0.0013723454903811216
21.15,-0.0007181158289313316,0.29597193002700806,-0.1988680213689804,-0.09107277542352676,-0.21917326748371124,-0.13425594568252563
21.2,-0.08565165102481842,-0.028361361473798752,0.20727846026420593,-0.017323289066553116,-0.25580480694770813,-0.19811367988586426
21.25,-0.14338363707065582,-0.3558160066604614,0.5141633152961731,0.05019838735461235,-0.18648327887058258,-0.15660344064235687
21.3,-0.008923862129449844,-0.5654804110527039,0.5924970507621765,0.08754756301641464,-0.024729937314987183,-0.055004388093948364
21.35,0.008266703225672245,-0.13648800551891327,0.134978786110878,0.11472968757152557,0.14315980672836304,0.13290338218212128
21.4,-0.0943816527724266,0.34216028451919556,-0.21256224811077118,0.10345061868429184,0.1937093734741211,0.1984483003616333
21.45,-0.029005276039242744,0.38905060291290283,-0.4004979729652405,0.1711733043193817,0.17413444817066193,0.14094525575637817
21.5,0.024444323033094406,0.26212987303733826,-0.3514464497566223,0.1755039393901825,0.04959510266780853,0.0133609464392066
21.55,-0.007378093898296356,0.20057585835456848,-0.04173813760280609,0.20323903858661652,-0.021143119782209396,-0.03764360398054123
21.6,-0.026323359459638596,-0.13474373519420624,0.12482672929763794,0.21269379556179047,-0.021932484582066536,-0.03585430607199669
21.65,-0.10467101633548737,-0.18597130477428436,0.17593646049499512,0.18108664453029633,0.00852491520345211,0.030124222859740257
21.7,-0.05121708661317825,0.13019850850105286,-0.11678065359592438,0.13134776055812836,0.0550757460296154,0.11997593194246292
21.75,-0.20483988523483276,0.5334511995315552,-0.19875995814800262,0.1022757962346077,0.020701322704553604,0.16334319114685059
21.8,-0.22573809325695038,-0.13980865478515625,-0.12824517488479614,0.09075383096933365,-0.03522561863064766,0.03933899104595184
21.85,0.19339436292648315,-0.4993705451488495,-0.4774087369441986,0.057477425783872604,-0.040640391409397125,0.07229935377836227
21.9,-0.002352539449930191,0.21818552911281586,-0.43148157000541687,-0.03701368346810341,-0.12055839598178864,0.1392367035150528
21.95,-0.34950706362724304,0.8738623857498169,-0.16910643875598907,-0.06408519297838211,-0.20019565522670746,0.0315948948264122
22.0,-0.3821296989917755,0.6007624268531799,0.09085632115602493,0.005105786025524139,-0.2555446922779083,-0.1223692074418068
22.05,0.11912966519594193,-0.3346596360206604,0.10725174844264984,0.05234081670641899,-0.23965832591056824,-0.1794900745153427
22.1,0.5249506831169128,-0.7791004776954651,-0.17653889954090118,0.017527136951684952,-0.16752533614635468,-0.0679258480668068
22.15,-0.017266467213630676,0.06783583015203476,-0.0811859741806984,-0.0551004558801651,-0.15360255539417267,0.08151218295097351
22.2,-0.6435247659683228,0.8285828828811646,0.09249592572450638,-0.07597386091947556,-0.1389230638742447,0.039151549339294434
22.25,-0.2082061618566513,0.8988142609596252,0.16531124711036682,0.01308375969529152,-0.1380762904882431,-0.07097265869379044
22.3,0.36211079359054565,0.29152679443359375,0.15816166996955872,0.08774098753929138,-0.13937130570411682,-0.22312018275260925
22.35,0.0842558965086937,-0.3144580125808716,0.5602951645851135,0.11902748048305511,-0.16466490924358368,-0.31861498951911926
22.4,-0.2912102937698364,-0.953045129776001,0.7881062030792236,0.11458569020032883,-0.01848534867167473,-0.21991221606731415
22.45,-0.16475151479244232,-0.5233022570610046,0.6207972168922424,0.05264126509428024,0.2800261080265045,0.04072699323296547
22.5,-0.09965973347425461,-0.2892609238624573,0.20986498892307281,-0.010873192921280861,0.45248740911483765,0.25159046053886414
22.55,-0.04418491572141647,0.719253659248352,-0.45426347851753235,-0.10491442680358887,0.5172886252403259,0.3982233703136444
22.6,-0.19790644943714142,1.031860589981079,-0.9482178688049316,-0.11249345541000366,0.35978060960769653,0.22563080489635468
22.65,-0.09580318629741669,0.4743043780326843,-0.6664093732833862,-0.09705772250890732,0.050719790160655975,-0.09348674863576889
22.7,0.45214951038360596,-0.2882670760154724,-0.42599618434906006,-0.0922035276889801,-0.09080147743225098,-0.23509597778320312
22.75,0.4423419237136841,-0.10513398051261902,-0.2130139321088791,-0.0956854522228241,-0.1382070928812027,-0.1650063544511795
22.8,-0.3468567728996277,-0.12109765410423279,0.3958407938480377,-0.0645369365811348,-0.15512675046920776,-0.12305030226707458
22.85,-0.2724674642086029,0.25186729431152344,0.2178056687116623,-0.017051298171281815,-0.06607901304960251,-0.033297743648290634
22.9,0.053837813436985016,0.169553741812706,0.1412791609764099,0.015226639807224274,-0.037796515971422195,-0.06254518032073975
22.95,0.202747642993927,-0.23031142354011536,0.020128414034843445,0.04807271435856819,-0.015645761042833328,-0.02813415788114071
23.0,0.08122410625219345,-0.2935972213745117,-0.16494885087013245,0.061992768198251724,0.03628306835889816,0.06763425469398499
23.05,-0.09776322543621063,0.2818356454372406,-0.271816223859787,0.03921176865696907,0.039941877126693726,0.10749980062246323
23.1,-0.2009911984205246,0.4400368928909302,-0.2820170223712921,0.07413585484027863,-0.007232812698930502,0.08017262071371078
23.15,0.07807941734790802,0.4307490289211273,-0.24029922485351562,0.09455205500125885,-0.08426766842603683,-0.01648029126226902
23.2,0.20787487924098969,0.04864789918065071,-0.04307150840759277,0.1073179617524147,-0.11780427396297455,-0.08081699162721634
23.25,-0.04102686792612076,-0.19433696568012238,0.22959651052951813,0.09804930537939072,-0.09079605340957642,-0.07068511843681335
23.3,-0.20094835758209229,-0.2705717980861664,0.26168766617774963,0.10532233864068985,0.002593589248135686,0.01199068408459425
23.35,-0.06769903004169464,-0.21252445876598358,0.08913686871528625,0.0983641967177391,0.10069302469491959,0.1121157631278038
23.4,-0.0567614808678627,0.19751740992069244,0.0889696553349495,0.04550909250974655,0.11175307631492615,0.17042894661426544
23.45,-0.1612687110900879,0.4344387650489807,-0.026019442826509476,-0.0030481023713946342,0.09714023768901825,0.1314389705657959
23.5,-0.0979139506816864,0.3864069879055023,-0.19270800054073334,-0.01829593814909458,0.052755460143089294,0.07729613035917282
23.55,0.08240324258804321,0.3587389886379242,-0.2767641246318817,-0.02507878467440605,0.0069690849632024765,0.013659856282174587
23.6,0.07608401030302048,0.13462547957897186,-0.16301482915878296,-0.03044014796614647,-0.033409856259822845,-0.07728645205497742
23.65,-0.04446977749466896,-0.18713760375976562,-0.05625579133629799,-0.003223153529688716,-0.02805182710289955,-0.03955170139670372
23.7,-0.07242430001497269,-0.18223190307617188,-0.050686515867710114,-0.004881805274635553,0.002599386963993311,0.02333441935479641
23.75,-0.11457540839910507,0.24844174087047577,-0.10174655169248581,-0.02562730759382248,0.018497571349143982,0.07631310075521469
23.8,-0.1575329750776291,0.5501118302345276,-0.04338064044713974,-0.008464365266263485,0.008571963757276535,0.05509907007217407
23.85,-0.07334534823894501,0.3949585258960724,0.14548131823539734,0.024115819483995438,-0.004888126626610756,-0.051874786615371704
23.9,0.0919463112950325,-0.34627920389175415,0.1630893498659134,0.08058557659387589,0.01445428840816021,-0.10592829436063766
23.95,0.29897499084472656,-0.7128315567970276,0.013369250111281872,0.09282459318637848,0.07549433410167694,0.001857454888522625
24.0,0.07697352766990662,-0.12049581110477448,0.0010460627963766456,0.03869476169347763,0.09757313132286072,0.10601841658353806
24.05,-0.11317886412143707,0.30389121174812317,0.051649097353219986,0.002259649336338043,0.06143099442124367,0.15659555792808533
24.1,0.04505465552210808,0.7422390580177307,-0.1318497508764267,-0.03126551955938339,0.022532673552632332,0.20732317864894867
24.15,0.08651961386203766,0.4399958848953247,-0.32994964718818665,-0.09411225467920303,-0.06709826737642288,0.11954674869775772
24.2,-0.034106720238924026,0.02635868825018406,-0.44942334294319153,-0.1697695106267929,-0.14647525548934937,-0.04827346280217171
24.25,-0.20053167641162872,0.044098906219005585,-0.2837890088558197,-0.17576093971729279,-0.19257670640945435,-0.09805989265441895
24.3,-0.19545842707157135,0.16337013244628906,0.08647342026233673,-0.12251698970794678,-0.15428951382637024,-0.1131182312965393
24.35,-0.12877684831619263,0.12380974739789963,0.43048524856567383,-0.0258257444947958,-0.0908428356051445,-0.12966440618038177
24.4,-0.010296406224370003,-0.23722754418849945,0.4555090367794037,0.07909562438726425,0.030414752662181854,-0.09965935349464417
24.45,0.20841658115386963,-0.3889075517654419,0.29008084535598755,0.10077278316020966,0.158265620470047,0.014734934084117413
24.5,0.10159174352884293,-0.042093291878700256,0.06723761558532715,0.09529370069503784,0.2222096174955368,0.1356249451637268
24.55,-0.1971849501132965,0.3571968376636505,-0.06954485923051834,0.09429889172315598,0.24814166128635406,0.177076056599617
24.6,-0.09270423650741577,0.2612029016017914,-0.2891014814376831,0.11495805531740189,0.27443692088127136,0.18059422075748444
24.65,0.09017664194107056,0.045595258474349976,-0.46838000416755676,0.08156555891036987,0.1796220988035202,0.07622972875833511
24.7,0.14444465935230255,-0.011997148394584656,-0.419673889875412,0.04923742637038231,0.06507257372140884,0.008706696331501007
24.75,0.10752438008785248,0.23252590000629425,-0.2168910652399063,0.03144196793437004,-0.018906688317656517,0.009075970388948917
24.8,-0.07872036844491959,-0.01764775812625885,0.06284698843955994,0.016540221869945526,-0.0646798312664032,-0.03504232317209244
24.85,-0.08706612884998322,-0.08942320197820663,0.08853191137313843,0.006669169291853905,-0.03941722214221954,0.006375237833708525
24.9,0.05706735700368881,0.17122653126716614,-0.055641233921051025,-0.037610750645399094,0.009135165251791477,0.0414399616420269
24.95,0.08146636933088303,0.32557398080825806,-0.17338743805885315,-0.08150974661111832,-0.012585331685841084,0.010330598801374435
25.0,-0.09294990450143814,0.27373984456062317,-0.04029100388288498,-0.10066250711679459,-0.06435254216194153,-0.03350132331252098
25.05,-0.20031465590000153,0.24477101862430573,0.053822919726371765,-0.07528667896986008,-0.06445294618606567,-0.05097274109721184
25.1,0.005735928192734718,0.16472528874874115,0.15374889969825745,-0.04994388669729233,-0.014330933801829815,-0.1303272247314453
25.15,0.09710917621850967,-0.21468932926654816,0.24227790534496307,-0.013690791092813015,0.038057293742895126,-0.17934240400791168
25.2,0.051610030233860016,-0.260348379611969,0.23323464393615723,0.009753167629241943,0.12342847883701324,-0.0620415098965168
25.25,-0.16969716548919678,-0.3949509561061859,0.2025311440229416,0.021625403314828873,0.23446157574653625,0.037911392748355865
25.3,-0.14894376695156097,-0.07746695727109909,-0.08435026556253433,0.0034931721165776253,0.30543193221092224,0.15646032989025116
25.35,-0.04476792365312576,0.6261559724807739,-0.37879297137260437,-0.03711136430501938,0.2955322861671448,0.139070063829422
25.4,-0.04279981926083565,0.7066861391067505,-0.4160892069339752,-0.020624009892344475,0.17193453013896942,0.014757059514522552
25.45,0.03163779526948929,0.39048492908477783,-0.41494813561439514,-0.018426895141601562,0.0717327669262886,-0.08007220178842545
25.5,0.15613576769828796,0.04463011398911476,-0.3255971074104309,-0.06049937754869461,0.005406190641224384,-0.19478602707386017
25.55,0.07989145815372467,-0.31409457325935364,-0.042430415749549866,-0.04649488255381584,-0.07328072190284729,-0.20126590132713318
25.6,-0.25128743052482605,-0.2466765195131302,0.22904948890209198,-0.042549144476652145,-0.037050120532512665,-0.14405901730060577
25.65,-0.15924301743507385,-0.11746983230113983,0.14933077991008759,5.670078098773956e-05,0.07023970037698746,-0.03219633176922798
25.7,0.1812421977519989,0.2940159738063812,-0.24613340198993683,0.033747732639312744,0.15282602608203888,0.04927365854382515
25.75,0.2622407078742981,0.44622528553009033,-0.3735356032848358,0.024665474891662598,0.0878676176071167,0.0637466236948967
25.8,-0.022310486063361168,0.3370285630226135,-0.24066241085529327,-0.010114548727869987,-0.02277231775224209,-0.03755098581314087
25.85,-0.13953885436058044,-0.06846906244754791,0.019220655784010887,-0.03207399696111679,-0.08863122761249542,-0.17291966080665588
25.9,-0.12378965318202972,-0.12717732787132263,0.3925960958003998,-0.016121577471494675,-0.05955875664949417,-0.17584124207496643
25.95,-0.1713094264268875,-0.758399248123169,0.5657956600189209,0.01570374332368374,0.03161155432462692,-0.1232350692152977
26.0,0.26246899366378784,-0.19068053364753723,0.043233443051576614,0.040379058569669724,0.19797123968601227,0.10975196957588196
26.05,0.28253915905952454,0.6306897401809692,-0.3303176760673523,0.027377210557460785,0.20230363309383392,0.18233701586723328
26.1,-0.19357359409332275,0.9473192095756531,-0.23984281718730927,0.047003135085105896,0.05600065737962723,0.12065897136926651
26.15,-0.17347446084022522,0.40551480650901794,-0.2186182290315628,0.025840917602181435,-0.03255636617541313,-0.10037833452224731
26.2,0.13428375124931335,-0.22231003642082214,-0.3118405342102051,-0.008066493086516857,-0.07627420127391815,-0.2073337584733963
26.25,0.0859815925359726,-0.4111681580543518,-0.03298946097493172,-0.044740304350852966,-0.13473138213157654,-0.19051335752010345
26.3,-0.3218088150024414,-0.4454251825809479,0.5050188302993774,-0.06328881531953812,-0.143310084939003,-0.1503506302833557
26.35,-0.30474284291267395,-0.39805999398231506,0.563258707523346,-0.031174015253782272,-0.04232512786984444,-0.0016415250720456243
26.4,0.034573744982481,-0.4289456605911255,0.3937459886074066,0.028660673648118973,0.08440230041742325,0.16428051888942719
26.45,0.16288024187088013,-0.3573293685913086,-0.08468455821275711,0.03645873814821243,0.20604252815246582,0.315584272146225
26.5,-0.07057719677686691,0.24150477349758148,-0.4188159704208374,-0.017820507287979126,0.2482001632452011,0.4397929608821869
26.55,-0.36518144607543945,1.0179245471954346,-0.6086333990097046,-0.07791297137737274,0.2006830871105194,0.3580072522163391
26.6,-0.5343049764633179,1.325333833694458,-0.3813435435295105,-0.08159316331148148,0.00339338555932045,0.09105636924505234
26.65,-0.17971505224704742,0.2831926643848419,0.06577753275632858,-0.0047430191189050674,-0.13505114614963531,-0.20954690873622894
26.7,0.32833507657051086,-0.7057514786720276,0.14676575362682343,0.013899443671107292,-0.11551688611507416,-0.23443195223808289
26.75,0.7397047281265259,-0.6858787536621094,-0.2769964635372162,-0.022726546972990036,0.0032109261956065893,-0.0076149688102304935
26.8,0.2040053755044937,0.2019864022731781,-0.3043990731239319,-0.05070841312408447,-0.007986498065292835,0.21572083234786987
26.85,-0.48629865050315857,0.8258373141288757,-0.21741090714931488,-0.046817485243082047,-0.07018696516752243,0.24663589894771576
26.9,-0.41108086705207825,0.6615525484085083,-0.27137258648872375,-0.05531417950987816,-0.1399000883102417,0.07644311338663101
26.95,0.14012840390205383,-0.22084805369377136,-0.3592070937156677,-0.04868433624505997,-0.1682693213224411,-0.09698031842708588
27.0,0.5602030158042908,-0.34086984395980835,-0.4293588697910309,-0.0599399134516716,-0.19664990901947021,-0.06676370650529861
27.05,0.15372169017791748,0.06739424914121628,0.09436027705669403,-0.10643897950649261,-0.28271034359931946,0.005078804679214954
27.1,-0.32415473461151123,-0.23009119927883148,0.3698829710483551,-0.08289217203855515,-0.23366764187812805,0.027987943962216377
27.15,-0.08348014950752258,0.021931618452072144,0.16915009915828705,-0.07788272202014923,-0.10269621759653091,0.06969048082828522
27.2,0.12323089689016342,0.5262499451637268,-0.08378418534994125,-0.09689013659954071,-0.058879829943180084,0.07204872369766235
27.25,0.013101387768983841,0.5990410447120667,-0.07567577809095383,-0.0575694739818573,-0.05378246679902077,0.03683310002088547
27.3,-0.043332550674676895,0.3450680077075958,-0.05640807002782822,-0.023739714175462723,-0.024807710200548172,-0.05456196144223213
27.35,0.04807243123650551,0.5237351059913635,-0.006240139715373516,-0.0011840835213661194,0.012358920648694038,-0.1363331377506256
27.4,-0.02544635720551014,0.03090665116906166,0.16854757070541382,0.08991463482379913,0.03870701789855957,-0.2139577716588974
27.45,-0.06786000728607178,-0.8664104342460632,0.24933594465255737,0.18093746900558472,0.12728054821491241,-0.11751662939786911
27.5,0.12680114805698395,-0.8602390885353088,-0.20953835546970367,0.14153096079826355,0.28491416573524475,0.13973887264728546
27.55,-0.021236885339021683,0.12107193470001221,-0.5825588703155518,0.0556366890668869,0.32893770933151245,0.34943369030952454
27.6,-0.3215066194534302,1.1827890872955322,-0.7034630179405212,0.03393559902906418,0.21733665466308594,0.35852912068367004
27.65,-0.43250012397766113,1.1864311695098877,-0.42591017484664917,0.021568194031715393,-0.012365355156362057,0.06842842698097229
27.7,-0.06267492473125458,0.13454057276248932,-0.013107780367136002,-0.024621572345495224,-0.20097053050994873,-0.2587945759296417
27.75,0.2828301787376404,-0.6714344620704651,0.1540965437889099,-0.046938542276620865,-0.24449943006038666,-0.2876635789871216
27.8,0.24331532418727875,-0.5296269059181213,0.07091738283634186,-0.05184054747223854,-0.19926804304122925,-0.1038576290011406
27.85,-0.1708570271730423,0.24756622314453125,0.120875783264637,-0.059846118092536926,-0.15681877732276917,0.0267415102571249
27.9,-0.25590482354164124,0.5794516205787659,0.06876711547374725,-0.01299018133431673,-0.06666223704814911,0.008698118850588799
27.95,0.092219777405262,0.34350305795669556,-0.12111884355545044,0.08300227671861649,0.0158294178545475,-0.011391608975827694
28.0,0.23432466387748718,0.11143020540475845,-0.1138375997543335,0.10391324013471603,-0.004581325221806765,-0.03579593449831009
28.05,0.1629345715045929,0.29248812794685364,0.03411082923412323,0.05450381338596344,-0.06081552430987358,-0.07170568406581879
28.1,-0.2717016339302063,0.2287721335887909,0.3205338716506958,0.045205358415842056,-0.11137384921312332,-0.14395667612552643
28.15,-0.3735249936580658,-0.593969464302063,0.4410915970802307,0.09538125991821289,-0.09793593734502792,-0.19724704325199127
28.2,0.1690724492073059,-0.7255831360816956,0.09506705403327942,0.08298633247613907,0.021349923685193062,-0.06043277308344841
28.25,0.4616315960884094,-0.30694580078125,-0.18050053715705872,0.02836187370121479,0.12795767188072205,0.10340308398008347
28.3,0.021235626190900803,0.06921867281198502,-0.16032207012176514,0.02176401950418949,0.14444711804389954,0.2346445471048355
28.35,-0.5368303656578064,0.5621615052223206,-0.10955050587654114,0.024758337065577507,0.1186431422829628,0.31767135858535767
28.4,-0.47205090522766113,0.7655936479568481,-0.12408851087093353,-0.011388630606234074,0.08290892839431763,0.2122648060321808
28.45,0.19217132031917572,0.374639630317688,-0.4190797209739685,-0.05373428761959076,0.04141197353601456,0.01647336035966873
28.5,0.3422531187534332,0.32316696643829346,-0.3996117115020752,-0.09187211096286774,-0.08863318711519241,-0.06383944302797318
28.55,-0.35021117329597473,0.4237089455127716,0.10232044756412506,-0.10853835195302963,-0.23936526477336884,-0.1481429636478424
28.6,-0.36557847261428833,0.3245391845703125,0.21400396525859833,-0.05960775166749954,-0.23415914177894592,-0.2560310959815979
28.65,0.21977253258228302,0.21924592554569244,0.13382230699062347,0.007345092482864857,-0.1890798956155777,-0.3197208642959595
28.7,0.3369351625442505,-0.3901721239089966,0.288185179233551,0.07041419297456741,-0.14119133353233337,-0.3654991686344147
28.75,-0.033636145293712616,-1.2646580934524536,0.26773273944854736,0.11807819455862045,-0.01548794936388731,-0.185576394200325
28.8,-0.11610833555459976,-0.492465078830719,-0.046398747712373734,0.09887248277664185,0.21071521937847137,0.24838700890541077
28.85,-0.34351179003715515,0.429603636264801,-0.034168023616075516,0.07649587094783783,0.3420843183994293,0.4019795358181
28.9,-0.5277186036109924,0.3108091652393341,0.016631465405225754,0.07575245201587677,0.36054089665412903,0.2947249412536621
28.95,-0.4390794038772583,0.20258712768554688,0.11006120592355728,0.06798160821199417,0.3126155436038971,0.2022799253463745
29.0,-0.059299714863300323,-0.027044307440519333,0.040974415838718414,0.05985752493143082,0.25732284784317017,0.11948901414871216
29.05,0.3691478669643402,-0.02572915516793728,-0.1277504563331604,0.06903522461652756,0.21215695142745972,0.11109282076358795
29.1,0.27179551124572754,0.29482561349868774,-0.17553521692752838,0.05390698462724686,0.1568237841129303,0.1774289309978485
29.15,-0.13054130971431732,0.2851611077785492,-0.25957611203193665,0.023792387917637825,0.13532954454421997,0.1999601125717163
29.2,-0.16529971361160278,0.39768996834754944,-0.5547956228256226,0.025273580104112625,0.12970991432666779,0.22029557824134827
29.25,0.06952578574419022,0.49306222796440125,-0.8080323934555054,-0.00017807073891162872,0.03486332669854164,0.11557798832654953
29.3,0.22903181612491608,0.10014737397432327,-0.6206405162811279,-0.06087429076433182,-0.1496974229812622,-0.0883171334862709
29.35,0.3668317198753357,0.05459030717611313,-0.3999088704586029,-0.05367013067007065,-0.252839058637619,-0.08933606743812561
29.4,0.1555647999048233,0.0965595468878746,-0.0184630136936903,-0.05252104625105858,-0.3288978636264801,-0.06759729236364365
29.45,-0.04773859679698944,-0.028142988681793213,0.306852251291275,-0.0769185796380043,-0.36380258202552795,-0.09618338197469711
29.5,0.06566087901592255,-0.1000109389424324,0.277255654335022,-0.0675017386674881,-0.2790616452693939,-0.08379434794187546
29.55,0.20774997770786285,0.07475566118955612,0.09756866842508316,-0.05488793924450874,-0.1948956847190857,-0.02225787192583084
29.6,0.11076738685369492,0.2228384166955948,0.07954876124858856,-0.05769764259457588,-0.16594897210597992,-0.0023445107508450747
29.65,-0.061992097645998,0.37313082814216614,0.057867806404829025,-0.07049312442541122,-0.12293986976146698,-0.007522305939346552
29.7,-0.06028537452220917,0.38390833139419556,-0.08386890590190887,-0.06467285007238388,-0.06997691839933395,-0.03700317069888115
29.75,-0.028919409960508347,0.5804949998855591,-0.1918901950120926,-0.03866459056735039,-0.058960262686014175,-0.09281449764966965
29.8,-0.3280169665813446,0.45495131611824036,0.1055813580751419,0.0290398970246315,-0.07481532543897629,-0.21562018990516663
29.85,-0.3725048899650574,-0.2851582467556,0.38285771012306213,0.13807830214500427,-0.023428812623023987,-0.24197813868522644
29.9,0.027298104017972946,-0.7957316637039185,0.15883831679821014,0.17124566435813904,0.10978996753692627,-0.09350219368934631
29.95,-0.024218875914812088,-0.8202859163284302,-0.04959053173661232,0.09194253385066986,0.18720906972885132,0.11148501932621002
30.0,-0.3982870876789093,0.021039027720689774,-0.12550891935825348,-0.03315724804997444,0.16104766726493835,0.2779107689857483
30.05,-0.5292313694953918,0.6233416795730591,-0.3732163608074188,-0.12686215341091156,0.06104538217186928,0.23089353740215302
30.1,-0.2485494315624237,0.7648031115531921,-0.4186306595802307,-0.17429675161838531,-0.15242090821266174,0.008368334732949734
30.15,-0.04458322003483772,-0.127775177359581,-0.15212102234363556,-0.19806765019893646,-0.3716353476047516,-0.2532443106174469
30.2,0.16144071519374847,-0.1539316326379776,0.02030015178024769,-0.16500993072986603,-0.38275304436683655,-0.234198659658432
30.25,0.0025104451924562454,-0.21521195769309998,0.3203630745410919,-0.08460082113742828,-0.28849753737449646,-0.1808420717716217
30.3,-0.20482005178928375,-0.5968819856643677,0.3925195038318634,0.01274053007364273,-0.14568574726581573,-0.08359768241643906
30.35,0.14975495636463165,-0.18884949386119843,0.05417858809232712,0.06118952855467796,0.07554606348276138,0.1379072219133377
30.4,0.2958332598209381,0.5302420258522034,-0.12848655879497528,0.066905677318573,0.2142825424671173,0.2617243826389313
30.45,-0.11037487536668777,0.7881585359573364,0.007824302650988102,0.11350960284471512,0.24858856201171875,0.2611722946166992
30.5,-0.40039217472076416,0.03943062573671341,-0.050995588302612305,0.1493338942527771,0.25541114807128906,0.14087750017642975
30.55,-0.20923781394958496,-0.19276520609855652,-0.31095391511917114,0.058911025524139404,0.18741875886917114,0.08980083465576172
30.6,0.039619483053684235,0.24628841876983643,-0.5136004090309143,-0.04366566613316536,0.02889334037899971,0.04985756054520607
30.65,-0.018960976973176003,0.44699394702911377,-0.31057822704315186,-0.07318776845932007,-0.17723506689071655,-0.046825747936964035
30.7,-0.04237261041998863,0.3181791603565216,0.0014698866289108992,-0.08669696748256683,-0.3019867539405823,-0.1835298389196396
30.75,-0.01468866690993309,-0.017161423340439796,0.2892596423625946,-0.08153802901506424,-0.3132239878177643,-0.23941263556480408
30.8,0.21826133131980896,-0.37350091338157654,0.36856868863105774,-0.03935837745666504,-0.19926267862319946,-0.1584499627351761
30.85,0.29120513796806335,-0.5181704759597778,0.2223360538482666,-0.008340569213032722,-0.025526948273181915,0.008647418580949306
30.9,0.057711921632289886,-0.14868737757205963,-0.024633755907416344,0.0018162140622735023,0.13723695278167725,0.17130623757839203
30.95,-0.16823099553585052,0.4351273477077484,-0.19275830686092377,-0.011082803830504417,0.21421805024147034,0.24686627089977264
31.0,-0.18260975182056427,0.7040063142776489,-0.29056453704833984,-0.014808077365159988,0.19458532333374023,0.18481160700321198
31.05,0.024428093805909157,0.31150540709495544,-0.3259676992893219,-0.007199875079095364,0.08788582682609558,0.04257943108677864
31.1,0.060013286769390106,-0.08139608800411224,-0.12609973549842834,-0.053713373839855194,-0.037490762770175934,-0.060188088566064835
31.15,-0.00855943188071251,-0.03039456158876419,0.020958390086889267,-0.09011459350585938,-0.08487556874752045,-0.04761486127972603
31.2,-0.016153860837221146,-0.027967454865574837,-0.010961047373712063,-0.0747079849243164,-0.06365977227687836,-0.018860753625631332
31.25,-0.014183785766363144,0.053652770817279816,-0.00569100072607398,-0.06726007163524628,-0.05488990992307663,-0.0011092154309153557
31.3,0.08968914300203323,0.2264890968799591,0.026524454355239868,-0.05480804294347763,-0.030596932396292686,0.004450712352991104
31.35,0.13190458714962006,0.3284168243408203,0.13486063480377197,-0.024217216297984123,0.024373598396778107,0.00898082833737135
31.4,0.02538435347378254,0.18290041387081146,0.1523401439189911,-0.021712688729166985,0.10955294966697693,-0.010555779561400414
31.45,-0.04411863535642624,0.14377212524414062,0.05948624387383461,-0.044079989194869995,0.17783120274543762,-0.011043494567275047
31.5,-0.07490149140357971,0.0038233124651014805,-0.1827256828546524,-0.04170065000653267,0.198325052857399,-0.007974157109856606
31.55,-0.03582581505179405,0.13458357751369476,-0.4823109805583954,-0.02027866244316101,0.17091302573680878,0.021292822435498238
31.6,0.0029477886855602264,0.33949199318885803,-0.670043408870697,-0.0159655399620533,0.08984047174453735,-0.02256218157708645
31.65,-0.056167565286159515,0.5159265398979187,-0.5976075530052185,-0.010935485363006592,-0.035785600543022156,-0.09457182139158249
31.7,-0.16686509549617767,0.4030972719192505,-0.3960011899471283,-0.0004973616451025009,-0.1480737328529358,-0.1874329149723053
31.75,-0.381496399641037,0.027802519500255585,-0.3001921772956848,-0.002010328695178032,-0.21338534355163574,-0.25595512986183167
31.8,-0.41488051414489746,0.07263476401567459,-0.35176190733909607,0.005804967135190964,-0.20772819221019745,-0.2342996895313263
31.85,-0.22361639142036438,0.3178187608718872,-0.4609145522117615,0.10833614319562912,-0.18202592432498932,-0.17031538486480713
31.9,-0.051319368183612823,0.4799119532108307,-0.4745098650455475,0.25014159083366394,-0.13906103372573853,-0.16694313287734985
31.95,-0.35255104303359985,0.6072550415992737,0.10562556236982346,0.28244611620903015,-0.09181803464889526,-0.3665231764316559
32.0,-0.7645784020423889,-0.1650077998638153,1.0295119285583496,0.23655757308006287,-0.033780671656131744,-0.5377200245857239
32.05,-0.7927405834197998,-0.8779605627059937,1.287736415863037,0.21910995244979858,0.10478408634662628,-0.3207773268222809
32.1,-0.33728888630867004,-1.137422800064087,0.6506457924842834,0.2908701002597809,0.31499239802360535,0.17371493577957153
32.15,0.32260215282440186,-1.1661806106567383,-0.6016205549240112,0.07612494379281998,0.47002965211868286,0.3724871575832367
32.2,1.0532828569412231,-0.3612763583660126,-1.5713975429534912,-0.32803893089294434,0.23828564584255219,0.30936726927757263
32.25,1.521127462387085,0.8357633948326111,-1.6495623588562012,-0.5292847156524658,-0.27087342739105225,0.11381314694881439
32.3,1.5272905826568604,1.4494003057479858,-1.1857359409332275,-0.4952441155910492,-0.7487460970878601,-0.09475649148225784
32.35,0.9646449685096741,1.5672420263290405,-0.5598104000091553,-0.19062824547290802,-0.9716107249259949,-0.05721428990364075
32.4,0.45592254400253296,1.0275498628616333,0.010545111261308193,0.12502332031726837,-0.922082245349884,-0.052164167165756226
32.45,0.1445593237876892,0.43548867106437683,0.510769248008728,0.3184320330619812,-0.7764381766319275,-0.04173100367188454
32.5,-0.3678724765777588,0.007367891259491444,1.0824679136276245,0.4576645791530609,-0.6951842308044434,0.03482948616147041
32.55,-0.865422248840332,-0.42316949367523193,1.5787413120269775,0.50295490026474,-0.5385105609893799,0.11639676243066788
32.6,-0.8356609344482422,-0.6294921636581421,1.683406949043274,0.3727317452430725,-0.2581709623336792,0.1680375188589096
32.65,-0.6089244484901428,-0.7944216132164001,1.4977487325668335,0.21714146435260773,-0.05204973369836807,0.1555885374546051
32.7,-0.6498274803161621,-0.6152051091194153,1.2152501344680786,0.12706749141216278,0.12083753198385239,0.13169965147972107
32.75,-0.77443528175354,-0.10448473691940308,0.8629968762397766,0.14241330325603485,0.36856406927108765,0.21362809836864471
32.8,-0.9733400940895081,0.6680784225463867,0.36298829317092896,0.3560994863510132,0.8271898627281189,0.43319523334503174
32.85,-0.9761037826538086,0.5963440537452698,-0.167226180434227,0.8550201058387756,1.5516209602355957,0.7203746438026428
32.9,-0.21190114319324493,0.3007395565509796,-1.3508987426757812,1.3310456275939941,2.164886236190796,1.415949821472168
32.95,0.5772309303283691,1.2168097496032715,-2.042239189147949,1.5696654319763184,1.9588794708251953,1.9972116947174072
33.0,0.6448764801025391,1.7194666862487793,-1.178432822227478,1.6417782306671143,1.1182206869125366,1.6079994440078735
33.05,0.5068456530570984,0.3794279396533966,0.1511077880859375,1.3999266624450684,0.3233393728733063,0.7033474445343018
33.1,0.32267555594444275,-0.6685602068901062,0.8340801000595093,0.9334087371826172,-0.1551373451948166,0.2327081710100174
33.15,0.18912896513938904,-1.6208118200302124,0.5568427443504333,0.5023282170295715,-0.41704684495925903,0.10015416890382767
33.2,-0.2760886549949646,-1.0322705507278442,0.22944507002830505,0.2524452805519104,-0.6140168905258179,0.39160454273223877
33.25,-0.5309488773345947,-0.1873960942029953,0.17026802897453308,0.13135266304016113,-0.6311734914779663,0.46435144543647766
33.3,-0.4735848307609558,0.5378046631813049,0.011066879145801067,0.0747915655374527,-0.4108806252479553,0.3737466037273407
33.35,-0.17571307718753815,0.8259555101394653,0.03341413661837578,0.018287349492311478,-0.2750542461872101,0.0853324756026268
33.4,0.10839367657899857,0.1181936115026474,0.17492541670799255,0.052799127995967865,-0.22056302428245544,-0.24590608477592468
33.45,0.06087065488100052,0.0981568917632103,0.2868136465549469,0.11685402691364288,-0.23821742832660675,-0.26430073380470276
33.5,-0.6629342436790466,-0.535836398601532,0.535720944404602,0.0836494117975235,-0.2500288784503937,-0.5218220353126526
33.55,-2.5733461380004883,-1.5795027017593384,2.093578815460205,0.03710629791021347,-0.32740363478660583,-0.8285951018333435
33.6,-2.518097162246704,-2.9904286861419678,2.950180768966675,-0.0766468495130539,-0.2742147147655487,-1.1341557502746582
33.65,-0.5485740303993225,-2.8468685150146484,1.1981556415557861,-0.19262078404426575,-0.10264015942811966,-0.7367693185806274
33.7,-1.3822792768478394,-2.7132937908172607,1.976951241493225,-0.23333410918712616,-0.40111660957336426,0.14231228828430176
33.75,-2.3811941146850586,-4.285691738128662,3.2322378158569336,-0.3556002974510193,-0.5981383919715881,0.8762938976287842
33.8,-0.20460398495197296,-1.538977861404419,0.20050781965255737,-0.7968980073928833,-0.23775158822536469,1.329193115234375
33.85,1.467414379119873,-2.0987226963043213,0.26617059111595154,-0.940038800239563,-0.6707153916358948,1.8720283508300781
33.9,0.7952802777290344,-0.8796398043632507,0.2224755883216858,-0.976626992225647,-1.2849751710891724,3.2342288494110107
33.95,-1.3904047012329102,1.6073335409164429,-0.48618221282958984,-0.7489320039749146,-1.5672239065170288,3.5125632286071777
34.0,-2.966458797454834,3.151406764984131,-0.6385738253593445,0.027601495385169983,-0.9172759652137756,2.0451438426971436
34.05,-0.4973239004611969,3.295448064804077,-1.1683074235916138,0.6869980692863464,0.06069132685661316,-0.08000633865594864
34.1,1.8413658142089844,1.1746762990951538,-0.9052560925483704,1.0655441284179688,0.18372699618339539,-0.6671135425567627
34.15,-0.2472277283668518,-0.17638126015663147,0.7211209535598755,0.9389464259147644,-0.32876935601234436,-0.0008479273528791964
34.2,-1.5627354383468628,-2.2234935760498047,0.811760425567627,0.5487932562828064,-0.13037298619747162,-0.12025423347949982
34.25,-1.0931249856948853,-0.8088445663452148,-0.7281497120857239,-0.07354194670915604,0.4995640814304352,-0.1100582405924797
34.3,-0.9492502212524414,1.7714838981628418,-1.2669367790222168,-0.33276689052581787,0.6979658603668213,-0.22322045266628265
34.35,0.5169592499732971,1.0971921682357788,-1.2338303327560425,-0.07222092151641846,0.7866132855415344,-0.9917734861373901
34.4,1.238279938697815,-0.03166086599230766,-0.8709360957145691,-0.01764601469039917,0.43128708004951477,-0.886521577835083
34.45,1.0246918201446533,0.46202388405799866,-0.35307395458221436,0.1323302537202835,-0.1392114907503128,-0.010870727710425854
34.5,0.433976411819458,0.01667683944106102,0.3972637951374054,0.28656846284866333,-0.6044612526893616,-0.12314920127391815
34.55,0.7492336630821228,-1.552074670791626,0.08968950062990189,0.009353239089250565,-0.6155205368995667,-0.9890828132629395
34.6,0.6826349496841431,-1.3662482500076294,0.268100380897522,-0.31667283177375793,-0.7351009249687195,-0.8843754529953003
34.65,0.15233978629112244,-0.5799238085746765,0.7036641836166382,-0.3936788737773895,-0.8227103352546692,-0.3605065643787384
34.7,-0.20184831321239471,0.8445454239845276,0.21294300258159637,-0.5382789373397827,-0.7367393970489502,-0.4680410623550415
34.75,-0.7044513821601868,1.5384427309036255,0.42020338773727417,-0.5474289655685425,-0.6304253339767456,-0.5182337760925293
34.8,-1.5436931848526,0.6995819807052612,0.8960961699485779,-0.4541446268558502,-0.4745493531227112,-0.002211117185652256
34.85,-1.3168039321899414,0.4235392212867737,-0.10850244760513306,-0.37676987051963806,-0.35000476241111755,-0.010406040586531162
34.9,-1.014161467552185,-0.2202197015285492,0.2289324551820755,-0.1848035454750061,-0.32049283385276794,-0.17081809043884277
34.95,-1.3127950429916382,-0.3677941560745239,0.48010802268981934,-0.20618955790996552,-0.24659110605716705,-0.07333343476057053
35.0,-1.3371630907058716,-0.061372872442007065,0.5259993672370911,-0.37663352489471436,-0.062208451330661774,-0.14915791153907776
35.05,-0.9786759614944458,0.2943668067455292,0.2518608868122101,-0.4061657190322876,-0.05133575201034546,-0.4060898721218109
35.1,-0.922447681427002,0.046474430710077286,0.10244423896074295,-0.18729901313781738,-0.25951719284057617,-0.33415231108665466
35.15,-1.1920671463012695,-0.029062306508421898,0.10053051263093948,-0.09718646109104156,-0.32226935029029846,-0.1257694959640503
35.2,-0.7326877117156982,-0.7378445267677307,0.09071084856987,-0.05930373817682266,-0.18307113647460938,-0.36880484223365784
35.25,-0.0899873897433281,-0.8894702792167664,0.25756484270095825,-0.12568539381027222,-0.1276351511478424,-0.30148622393608093
35.3,0.2101128101348877,0.3949699401855469,0.306168794631958,-0.2921503782272339,-0.14674165844917297,0.011667389422655106
35.35,0.19156982004642487,1.0098257064819336,0.37977397441864014,-0.23363223671913147,-0.35404205322265625,-0.05735749378800392
35.4,-0.508056104183197,0.877047598361969,0.3383220136165619,-0.09228146821260452,-0.6302382349967957,-0.05857839807868004
35.45,-0.9491797089576721,-0.01115227397531271,-0.03215951845049858,0.031693555414676666,-0.6796504855155945,-0.13838942348957062
35.5,-0.7294806241989136,-0.7564144730567932,-0.2551478445529938,0.06454261392354965,-0.5635717511177063,-0.2046564519405365
35.55,-0.129710391163826,-0.33901500701904297,-0.23146995902061462,-0.03595081344246864,-0.3008706271648407,-0.1052664965391159
35.6,0.5784513354301453,0.2892342209815979,-0.16045647859573364,-0.09320775419473648,-0.0405622199177742,-0.09724500775337219
35.65,0.8137569427490234,0.38572800159454346,-0.31465867161750793,-0.058290474116802216,0.08809369057416916,0.03544967249035835
35.7,0.579486608505249,0.22465243935585022,-0.6091312170028687,0.009826533496379852,0.12331026047468185,0.22136224806308746
35.75,0.5059455037117004,0.3058168292045593,-0.7625270485877991,0.053439609706401825,0.19364957511425018,0.21339309215545654
35.8,0.6738191246986389,0.5644780993461609,-0.5612578988075256,0.08064339309930801,0.23587699234485626,0.1082853153347969
35.85,0.8027423620223999,0.6208983659744263,-0.2410280555486679,0.14681574702262878,0.14957594871520996,0.03570862486958504
35.9,0.7341070771217346,0.22338493168354034,-0.16576793789863586,0.2456045299768448,-0.014386800117790699,-0.00990071427077055
35.95,0.5179241895675659,-0.012360550463199615,-0.10286407917737961,0.28243139386177063,-0.16436319053173065,-0.008400997146964073
36.0,0.2213200330734253,0.15026095509529114,-0.05654388293623924,0.2421872913837433,-0.20259810984134674,-0.05154655873775482
36.05,-0.08385415375232697,0.3098621964454651,-0.18469983339309692,0.21117009222507477,-0.20518536865711212,-0.09210482984781265
36.1,-0.3261977732181549,0.26531705260276794,-0.38583478331565857,0.23751506209373474,-0.1908886581659317,-0.06904993951320648
36.15,-0.2570343017578125,-0.12398426979780197,-0.4905317425727844,0.2920107841491699,-0.14193955063819885,-0.09777165949344635
36.2,0.02778303436934948,-0.47375011444091797,-0.35205599665641785,0.2746414840221405,-0.07034309953451157,-0.09421353042125702
36.25,0.29278939962387085,-0.6034250259399414,-0.16366392374038696,0.18935880064964294,0.01576211117208004,-0.008352416567504406
36.3,0.4173479974269867,-0.3709850609302521,0.0447394996881485,0.10025808960199356,0.051466114819049835,0.07164143770933151
36.35,0.4074890613555908,-0.07630924135446548,0.1871819645166397,0.04851754754781723,0.032288264483213425,0.08253277093172073
36.4,0.31048476696014404,-0.1241941899061203,0.20033906400203705,0.04337259382009506,-0.03895733505487442,0.09825142472982407
36.45,0.035341762006282806,-0.202057883143425,0.11788547039031982,0.024997998028993607,-0.13295963406562805,0.16558107733726501
36.5,-0.2475288063287735,-0.22030070424079895,0.00945175252854824,-0.01313866674900055,-0.1862482726573944,0.16982494294643402
36.55,-0.5001814961433411,-0.034710898995399475,0.02595449425280094,-0.062066953629255295,-0.2112644910812378,0.11516370624303818
36.6,-0.6965473294258118,0.3741903305053711,0.11666013300418854,-0.08925200998783112,-0.21374279260635376,0.03660868480801582
36.65,-0.8204116821289062,0.566889762878418,0.14771127700805664,-0.05669889971613884,-0.22233834862709045,-0.02676178701221943
36.7,-0.8775569200515747,0.2888040542602539,0.09930197149515152,-0.002390904352068901,-0.21332034468650818,-0.059213787317276
36.75,-0.8210107684135437,-0.033077266067266464,0.07412025332450867,0.01758122816681862,-0.15541328489780426,-0.08597715944051743
36.8,-0.6636154651641846,-0.08780865371227264,0.15774084627628326,0.005060550756752491,-0.049599505960941315,-0.11796826124191284
36.85,-0.4808266758918762,0.009937244467437267,0.20608411729335785,-0.001842728815972805,0.05792709067463875,-0.13419859111309052
36.9,-0.42719581723213196,0.050020184367895126,0.21052923798561096,-4.0315091609954834e-05,0.11909554153680801,-0.09805800765752792
36.95,-0.35533490777015686,-0.027335206046700478,0.16995012760162354,-0.007372219115495682,0.18041852116584778,-0.04295871779322624
37.0,-0.23710384964942932,-0.2205372452735901,0.11706404387950897,-0.01480394322425127,0.22978177666664124,-0.011213748715817928
37.05,-0.09008792042732239,-0.46572214365005493,0.04797891899943352,-0.026447413489222527,0.24642685055732727,-0.030701419338583946
37.1,0.026390038430690765,0.12891197204589844,0.12703248858451843,-0.07409372180700302,0.24282364547252655,-0.07064463943243027
37.15,0.12390834093093872,1.069052815437317,0.17677827179431915,-0.02959829568862915,0.21095040440559387,-0.12767188251018524
37.2,-0.2707737684249878,1.0645924806594849,-0.2199709564447403,0.16292361915111542,0.11319416016340256,-0.10407733172178268
37.25,-0.9198384881019592,0.4894115626811981,-0.8172873258590698,0.34836214780807495,0.1461559385061264,-0.12470453977584839
37.3,-0.594628095626831,0.01483268104493618,-1.0621873140335083,0.3670995533466339,0.5659759044647217,-0.23690593242645264
37.35,-0.043930016458034515,0.3395739495754242,-0.37774786353111267,0.21059578657150269,1.032549500465393,-0.2079261988401413
37.4,0.49104776978492737,0.8365650177001953,0.6340163946151733,-0.04446937516331673,1.2753472328186035,-0.5352963209152222
37.45,1.2759945392608643,-0.1740351915359497,0.6550152897834778,-0.1976308375597,1.183052897453308,-0.9199017882347107
37.5,1.2740494012832642,-1.555132269859314,0.4837369918823242,-0.07472053170204163,0.47848618030548096,-0.3410281836986542
37.55,1.233674168586731,-2.1111061573028564,0.7382507920265198,-0.11742246150970459,-0.29517585039138794,0.5397177934646606
37.6,1.6008981466293335,-1.824539065361023,0.7567995190620422,-0.5329199433326721,-0.8339844942092896,1.303092360496521
37.65,0.4285767078399658,-0.14059650897979736,0.6099971532821655,-0.7632241249084473,-1.2879077196121216,2.2608275413513184
37.7,-1.4890681505203247,0.7380972504615784,-0.15780499577522278,-0.6058481931686401,-1.12742018699646,2.270369052886963
37.75,-1.1753798723220825,0.03559698536992073,-0.8265079855918884,-0.3813827335834503,-0.638899564743042,1.017544150352478
37.8,-0.033377014100551605,-0.3477696478366852,-0.7383947372436523,-0.23969456553459167,-0.4215822219848633,0.27695971727371216
37.85,0.030844613909721375,0.3380759060382843,-1.3847163915634155,-0.23625153303146362,-0.32313767075538635,0.3762611746788025
37.9,-0.30211442708969116,0.7464306354522705,-1.0664089918136597,-0.1745990663766861,-0.27153584361076355,0.4933808147907257
37.95,-0.6140491366386414,0.9977027177810669,0.10511961579322815,-0.0512976236641407,-0.30495569109916687,0.620773196220398
38.0,-0.2950604557991028,1.0395947694778442,-0.045541465282440186,0.05549653246998787,-0.26471611857414246,0.46056297421455383
38.05,-0.055707018822431564,0.17731380462646484,0.08432058244943619,0.1627669781446457,-0.22955122590065002,0.2733760476112366
38.1,-0.7041067481040955,0.2620649039745331,0.2921049892902374,0.1536630094051361,-0.190492182970047,0.22443749010562897
38.15,-0.4216455817222595,0.3831510841846466,0.114192433655262,0.2578013241291046,0.02611524797976017,-0.16110239923000336
38.2,0.037573397159576416,-0.23154740035533905,0.1219383105635643,0.3526822328567505,0.09092873334884644,-0.25105029344558716
38.25,-0.3047643303871155,-0.12102226912975311,0.14807099103927612,0.21025043725967407,0.0005060682306066155,-0.04120540991425514
38.3,-0.07692880183458328,-0.2693806290626526,0.1637871414422989,0.21951326727867126,0.04510434344410896,-0.36178719997406006
38.35,0.3100307881832123,-0.39199358224868774,0.09094671159982681,0.2568497955799103,-0.006841438822448254,-0.6209195256233215
38.4,0.3244483768939972,-0.08407499641180038,0.11413887143135071,0.20941853523254395,-0.1832573413848877,-0.4636063575744629
38.45,0.21611759066581726,-0.2107573300600052,0.22493228316307068,0.19066108763217926,-0.35208046436309814,-0.25814083218574524
38.5,-0.4058566391468048,0.02828691154718399,0.12407107651233673,0.10588143765926361,-0.43988609313964844,0.056860219687223434
38.55,-0.37910735607147217,0.3429403603076935,0.012181399390101433,0.11843135952949524,-0.26435327529907227,0.1962497979402542
38.6,-0.11834908276796341,0.13497066497802734,0.0880482867360115,0.20332440733909607,-0.13947011530399323,0.13403956592082977
38.65,-0.5308354496955872,-0.17566969990730286,0.04147205874323845,0.18575917184352875,-0.12381722778081894,0.158604234457016
38.7,-0.30306217074394226,-0.4423704743385315,-0.04368779435753822,0.09437040984630585,-0.03442298248410225,0.015457172878086567
38.75,-0.18677954375743866,-0.0013255953090265393,-0.08056573569774628,0.007148938253521919,0.03369883820414543,-0.049258723855018616
38.8,-0.4740014970302582,0.3173857033252716,0.016407720744609833,-0.05476692318916321,0.2067968100309372,0.22486776113510132
38.85,-0.2653215825557709,-0.08834747970104218,0.18816852569580078,-0.00254856888204813,0.38983315229415894,0.2604922950267792
38.9,-0.09129078686237335,-0.2937384247779846,0.17441326379776,0.024518191814422607,0.41458114981651306,0.1747152954339981
38.95,-0.0969579815864563,-0.4597979784011841,0.3135184943675995,-0.020365137606859207,0.33665066957473755,0.10475651919841766
39.0,-0.7501252293586731,-0.0583840049803257,0.2567715346813202,-0.0919259786605835,0.48229557275772095,-0.03931060805916786
39.05,-2.082810401916504,1.064784049987793,0.42755067348480225,-0.044906873255968094,1.1588786840438843,-0.5664322972297668
39.1,-0.7675508856773376,0.6736114621162415,1.2423673868179321,0.270114004611969,2.441119909286499,-2.0555646419525146
39.15,1.6807314157485962,-0.18111427128314972,0.41422179341316223,0.27515292167663574,3.184131145477295,-2.614983558654785
39.2,1.6814723014831543,0.7360965609550476,-0.4432733654975891,0.2788926661014557,2.4613282680511475,-1.4435415267944336
39.25,1.234245777130127,0.605836033821106,-0.16636858880519867,0.6476226449012756,1.4341347217559814,-0.47961702942848206
39.3,-0.3774625062942505,-0.1913510113954544,0.18961690366268158,0.8700278401374817,0.9409142732620239,0.18708942830562592
39.35,-1.7374886274337769,-1.9377230405807495,0.6663556694984436,0.31497102975845337,0.7540168762207031,0.6943802237510681
39.4,0.10561110079288483,-0.07156026363372803,1.9855070114135742,0.03874167799949646,-0.12774881720542908,1.4190152883529663
39.45,1.5459048748016357,3.7001354694366455,1.3186161518096924,0.5577009916305542,-0.6348223090171814,1.5383342504501343
39.5,-0.6619754433631897,-0.11864399909973145,1.2180142402648926,0.701850175857544,-0.3685041069984436,0.7338578701019287
39.55,-1.6052910089492798,-3.0087573528289795,1.2034294605255127,0.2056548297405243,0.18329781293869019,0.2820153832435608
39.6,0.56546550989151,-0.892491340637207,-0.7267161011695862,-0.4810263216495514,0.735203206539154,-0.3779023289680481
39.65,1.728930115699768,1.3620926141738892,-2.487161636352539,-1.087605357170105,1.4482510089874268,-1.3301241397857666
39.7,2.1670613288879395,1.640622854232788,-2.8122053146362305,-1.231374979019165,1.8681882619857788,-2.3560898303985596
39.75,1.802915334701538,0.6254724860191345,-2.041311740875244,-1.0394917726516724,0.9480951428413391,-2.420374870300293
39.8,0.7310253381729126,0.9342224597930908,-0.7650367617607117,-0.5092888474464417,-0.3562432825565338,-1.2166231870651245
39.85,0.26920267939567566,-0.46743878722190857,0.16249719262123108,0.07360997796058655,-0.8074371218681335,-0.7717476487159729
39.9,0.16949158906936646,-1.8869173526763916,0.2452256679534912,0.09880953282117844,-0.8092215657234192,-0.61091148853302
39.95,-0.09216228127479553,-1.4664965867996216,0.09130080789327621,-0.17502489686012268,-0.8284393548965454,-0.18511755764484406
40.0,-0.5339128375053406,-0.6404095888137817,0.2644389569759369,-0.3882506489753723,-0.6503453850746155,-0.0021509218495339155
40.05,-0.5883271098136902,0.36633968353271484,0.12802353501319885,-0.4672671854496002,-0.2041638195514679,0.09977293014526367
40.1,-0.4025091826915741,0.7946091890335083,-0.0301103126257658,-0.3652345836162567,0.13685205578804016,0.0919242799282074
40.15,-0.23748597502708435,0.9405842423439026,0.26070690155029297,-0.1404114067554474,0.2448430061340332,0.16696876287460327
40.2,-0.12809708714485168,0.31218621134757996,0.36481931805610657,0.05271650850772858,0.23248614370822906,0.18646058440208435
40.25,-0.14400047063827515,-0.25541406869888306,0.17934595048427582,-8.771778084337711e-05,0.23522767424583435,0.023036204278469086
40.3,0.006531756371259689,0.06577687710523605,-0.23781850934028625,-0.25613635778427124,0.3674580454826355,-0.2521558403968811
40.35,0.29003092646598816,0.6946155428886414,-0.49045372009277344,-0.4466475546360016,0.4010505974292755,-0.5319567918777466
40.4,0.26641368865966797,0.8121340274810791,-0.49754616618156433,-0.4268518388271332,0.2191513031721115,-0.6930866241455078
40.45,-0.027716558426618576,0.5496397614479065,-0.14188875257968903,-0.2152164876461029,0.00012056562263751402,-0.6024827361106873
40.5,-0.1571526974439621,-0.04767517372965813,0.17524221539497375,-0.014384087175130844,-0.014292347244918346,-0.48857834935188293
40.55,0.12950222194194794,-0.21775534749031067,0.023499956354498863,0.046283986419439316,0.13739852607250214,-0.3562898635864258
40.6,0.3447900116443634,-0.04948899522423744,-0.15853120386600494,0.029618926346302032,0.1859843134880066,-0.25050026178359985
40.65,0.29572561383247375,-0.12959954142570496,-0.19658496975898743,0.018443681299686432,0.09570274502038956,-0.21822981536388397
40.7,0.26932817697525024,-0.32649609446525574,-0.25944042205810547,-0.04255656152963638,0.019920257851481438,-0.21112635731697083
40.75,0.3753153085708618,0.06944375485181808,-0.24303112924098969,-0.11335709691047668,-0.014041274785995483,-0.1874258667230606
40.8,0.2932213842868805,0.08158212900161743,-0.2680240571498871,-0.1444718837738037,-0.017610879614949226,-0.3244171440601349
40.85,0.10964084416627884,0.0769539400935173,-0.23557960987091064,-0.14807957410812378,-0.0657869502902031,-0.2727793753147125
40.9,0.11516857147216797,0.5949335694313049,-0.025497375056147575,-0.10494926571846008,-0.13744103908538818,-0.059251729398965836
40.95,0.09425927698612213,0.5113286972045898,0.2755231261253357,-0.015471305698156357,-0.19008338451385498,-0.06948509067296982
41.0,-0.11786191165447235,-0.039919011294841766,0.5991882085800171,0.0975974053144455,-0.20115898549556732,-0.07784374803304672
41.05,-0.39844125509262085,-0.5933439135551453,0.7757760882377625,0.17690153419971466,-0.10940593481063843,0.02500401809811592
41.1,-0.45232343673706055,-0.7882091999053955,0.6208323836326599,0.12778614461421967,0.08110024034976959,0.15420778095722198
41.15,-0.24348138272762299,-0.22709660232067108,0.05967211723327637,0.014755047857761383,0.2867731750011444,0.29379093647003174
41.2,0.010240141302347183,0.700058102607727,-0.45060789585113525,-0.09275110065937042,0.34044158458709717,0.292359322309494
41.25,0.23525069653987885,1.059133768081665,-0.6772626042366028,-0.1141122356057167,0.2373936027288437,0.09082863479852676
41.3,0.28660035133361816,0.8879454135894775,-0.48720282316207886,-0.020758971571922302,0.05379808321595192,-0.12530967593193054
41.35,0.0701034814119339,0.37333109974861145,-0.03749161586165428,0.11209051311016083,-0.05760481208562851,-0.24446116387844086
41.4,-0.14467301964759827,-0.374116986989975,0.3246557414531708,0.20181336998939514,-0.04021575301885605,-0.19901804625988007
41.45,-0.060922324657440186,-0.8258230090141296,0.29382210969924927,0.20974451303482056,0.08186057209968567,0.014121017418801785
41.5,0.18041077256202698,-0.5824328064918518,0.03898372873663902,0.10223658382892609,0.17351855337619781,0.16180077195167542
41.55,0.24245202541351318,0.05360129475593567,-0.11479634791612625,-0.046068038791418076,0.12598055601119995,0.17604176700115204
41.6,0.05445670709013939,0.37476640939712524,-0.19956836104393005,-0.11180955171585083,0.011153973639011383,0.09771935641765594
41.65,-0.10575547814369202,0.5453349351882935,-0.2013997733592987,-0.08800099045038223,-0.05644203722476959,0.03866962715983391
41.7,-0.08885900676250458,0.4066687524318695,-0.1776701956987381,-0.045369457453489304,-0.04922287166118622,-0.04618667811155319
41.75,-0.12123333662748337,0.15966609120368958,-0.09519524872303009,0.03155694529414177,-0.025464579463005066,-0.05115842819213867
41.8,-0.07771094888448715,-0.0978250578045845,-0.030874019488692284,0.0980176106095314,0.03692834824323654,0.0012221221113577485
41.85,0.08309600502252579,-0.1914816051721573,-0.043575022369623184,0.10912283509969711,0.10218364000320435,0.04721612483263016
41.9,0.24059395492076874,-0.06322001665830612,-0.08723540604114532,0.07249008119106293,0.10298475623130798,0.06829775869846344
41.95,0.33587580919265747,0.0018825879087671638,-0.17116743326187134,0.024648986756801605,0.03474969416856766,0.052675213664770126
42.0,0.28086787462234497,-0.07796188443899155,-0.24591954052448273,-0.019933149218559265,-0.055291224271059036,0.0349755585193634
42.05,0.20413877069950104,-0.05130477994680405,-0.24649779498577118,-0.05478678643703461,-0.13361229002475739,0.040691569447517395
42.1,0.13909035921096802,0.1638251096010208,-0.3180871307849884,-0.06561412662267685,-0.17536099255084991,0.05193082243204117
42.15,0.06629116833209991,0.24255666136741638,-0.33867397904396057,-0.058362480252981186,-0.18706926703453064,0.026573946699500084
42.2,-0.030854854732751846,0.2400732785463333,-0.21586725115776062,-0.036871712654829025,-0.1849234700202942,0.01492395345121622
42.25,-0.06032446026802063,0.20031839609146118,-0.14336508512496948,-0.016236288473010063,-0.1576915681362152,0.0019450087565928698
42.3,-0.038994200527668,0.2076912224292755,0.01046428456902504,-0.0019853354897350073,-0.1299726963043213,-0.008376172743737698
42.35,-0.10379625856876373,0.028092360123991966,0.15264993906021118,0.0017603582236915827,-0.10491136461496353,-0.019365830346941948
42.4,-0.10929327458143234,-0.18760496377944946,0.13223296403884888,-0.031054237857460976,-0.054236505180597305,-0.015159700065851212
42.45,-0.05309868976473808,-0.24024870991706848,0.024440836161375046,-0.08761181682348251,-0.01622728817164898,0.003659456502646208
42.5,0.02856593206524849,-0.08538341522216797,-0.027631446719169617,-0.16250407695770264,0.011958777904510498,0.006623333785682917
42.55,0.1191389262676239,0.2394915223121643,-0.15689805150032043,-0.21176709234714508,0.0205827746540308,0.030518893152475357
42.6,0.10023201256990433,0.28668028116226196,-0.1773167848587036,-0.21301151812076569,-0.015929855406284332,0.028315000236034393
42.65,0.021707672625780106,0.08486178517341614,-0.14251314103603363,-0.19180655479431152,-0.0529111810028553,0.014423497021198273
42.7,-0.04488877207040787,-0.11977385729551315,-0.14628680050373077,-0.1989785134792328,-0.07444190979003906,-0.007204021792858839
42.75,-0.033370405435562134,-0.07500932365655899,-0.18633222579956055,-0.21177920699119568,-0.10053994506597519,0.041163958609104156
42.8,-0.04815763235092163,-0.03559964895248413,-0.3586668372154236,-0.2092035859823227,-0.13485898077487946,0.07626553624868393
42.85,-0.05962648242712021,0.17435845732688904,-0.3960264325141907,-0.17207804322242737,-0.16147615015506744,0.07486461848020554
42.9,-0.1469232589006424,0.40459924936294556,-0.05338778719305992,-0.11044646799564362,-0.18513372540473938,0.016360066831111908
42.95,-0.33630403876304626,0.06369013339281082,0.2943599820137024,-0.007017384748905897,-0.1593821793794632,0.022867687046527863
43.0,-0.3737870752811432,-0.083010733127594,0.2775016725063324,0.061242468655109406,-0.06307920813560486,0.1712992787361145
43.05,-0.20224817097187042,-0.024044053629040718,0.060772769153118134,0.03867292404174805,0.004866879899054766,0.18230266869068146
43.1,0.005214845295995474,-0.011364920064806938,-0.1008181944489479,0.01030978374183178,-0.00854195561259985,0.10891733318567276
43.15,0.09160085022449493,0.05245308205485344,-0.18833748996257782,-0.011473124846816063,-0.05455082282423973,0.04529551789164543
43.2,0.12140138447284698,0.32018858194351196,-0.15113404393196106,-0.026193082332611084,-0.08359237760305405,0.019987884908914566
43.25,0.14427077770233154,0.3645191788673401,-0.10908535867929459,0.0008884749840945005,-0.08344060182571411,-0.007883293554186821
43.3,0.07852508872747421,0.1291971355676651,-0.03286558389663696,0.04512574523687363,-0.086123988032341,-0.011146397329866886
43.35,0.04445306956768036,0.12759782373905182,-0.019587641581892967,0.058122992515563965,-0.07155018299818039,0.0014726705849170685
43.4,0.010766157880425453,0.19213108718395233,-0.059519968926906586,0.07031324505805969,-0.06180357187986374,0.019997242838144302
43.45,0.00022949092090129852,0.10085586458444595,-0.13302326202392578,0.08736095577478409,-0.04979681223630905,0.022995272651314735
43.5,0.002014509402215481,0.016524353995919228,-0.20555554330348969,0.0967627465724945,-0.042624279856681824,0.02968299761414528
43.55,0.014475521631538868,0.05306820943951607,-0.22815391421318054,0.1022840365767479,-0.019789187237620354,0.028308618813753128
43.6,0.019094113260507584,0.0011482586851343513,-0.19325296580791473,0.11967841535806656,0.00764663890004158,0.029632994905114174
43.65,0.03065747208893299,-0.09873007237911224,-0.16801555454730988,0.13072383403778076,0.027944518253207207,0.038158923387527466
43.7,0.022607145830988884,-0.06143185868859291,-0.18810798227787018,0.09367644786834717,0.03232398256659508,0.01921633444726467
43.75,-0.044510550796985626,0.2848702073097229,-0.10930131375789642,0.021039307117462158,0.02746429666876793,-0.012665722519159317
43.8,-0.09932135790586472,0.8820430040359497,0.05933115631341934,-0.0367133803665638,0.047522302716970444,-0.09026780724525452
43.85,-0.2881316840648651,0.8726969361305237,0.2564341425895691,0.0013510752469301224,0.06611339002847672,-0.16399481892585754
43.9,-0.48627445101737976,-0.14961056411266327,0.15612198412418365,0.08196516335010529,0.11754968017339706,-0.1548072099685669
43.95,-0.31714025139808655,-0.914826512336731,-0.1429547518491745,0.004114570561796427,0.2365296483039856,-0.12204618006944656
44.0,0.17111672461032867,-0.6425599455833435,-0.5178112983703613,-0.1693141907453537,0.3236003518104553,-0.07594344764947891
44.05,0.3666113615036011,-0.2924078702926636,-0.7332254648208618,-0.28139135241508484,0.2787460684776306,-0.09633142501115799
44.1,0.18048352003097534,-0.059175360947847366,-0.7559239864349365,-0.27474358677864075,0.18171362578868866,-0.024431027472019196
44.15,-0.040249548852443695,0.1871730238199234,-0.7073397040367126,-0.21299557387828827,0.13720080256462097,0.05625557526946068
44.2,0.0029417946934700012,0.14173997938632965,-0.6734009385108948,-0.08649663627147675,0.13538464903831482,0.10776672512292862
44.25,0.13064086437225342,0.3560754060745239,-0.4576273560523987,0.006246514618396759,0.07030096650123596,0.11552204191684723
44.3,0.038831692188978195,0.40384775400161743,-0.016869084909558296,0.04957709461450577,-0.057880014181137085,0.03357836604118347
44.35,-0.10620486736297607,0.08965298533439636,0.20230871438980103,0.07377434521913528,-0.1377640664577484,-0.019394442439079285
44.4,-0.11070984601974487,-0.2041655331850052,0.24555036425590515,0.051657263189554214,-0.15841251611709595,-0.04056033492088318
44.45,-0.009668290615081787,-0.025890393182635307,0.22005756199359894,0.00849735364317894,-0.12908989191055298,-0.031097374856472015
44.5,-0.028518687933683395,0.06760405004024506,0.11376049369573593,0.01695953868329525,-0.08657076954841614,0.0046134465374052525
44.55,0.03961089998483658,-0.02928733453154564,-0.03938445448875427,0.022173523902893066,-0.03986070677638054,0.030649151653051376
44.6,0.15376625955104828,-0.022181477397680283,-0.18666982650756836,0.0006346686277538538,-0.03570837154984474,0.034916725009679794
44.65,0.0837169960141182,0.13476377725601196,-0.23004589974880219,-0.008703060448169708,-0.07961934804916382,0.0487668551504612
44.7,0.02667076140642166,0.16995815932750702,-0.20512886345386505,0.002606983296573162,-0.11889086663722992,0.010793049819767475
44.75,-0.05727355182170868,0.10577873885631561,-0.16579626500606537,0.048157595098018646,-0.13419181108474731,0.010634182021021843
44.8,-0.042537566274404526,0.013685232028365135,-0.021148905158042908,0.08093015104532242,-0.13302770256996155,0.007265807129442692
44.85,-0.02892760932445526,0.050378795713186264,0.07062622159719467,0.10245034098625183,-0.09420567750930786,0.04184500128030777
44.9,0.03526410460472107,0.1695270538330078,0.05229431763291359,0.10719280689954758,-0.04248756915330887,0.07102310657501221
44.95,0.04310191795229912,0.17864800989627838,-0.02102932706475258,0.12289400398731232,-0.02716935984790325,0.055745672434568405
45.0,-0.08179980516433716,-0.040875427424907684,-0.07245148718357086,0.14266017079353333,-0.04307745024561882,0.04704655706882477
45.05,-0.09509771317243576,0.1011076346039772,-0.1253604143857956,0.10041335225105286,-0.03301716595888138,0.021777044981718063
45.1,-0.04781624674797058,0.31517988443374634,-0.15756991505622864,0.06318646669387817,-0.010485281236469746,-0.017376763746142387
45.15,0.05972062051296234,0.28471288084983826,-0.2651188373565674,0.06775567680597305,0.00860117468982935,-0.026954801753163338
45.2,0.04011176526546478,0.06484992057085037,-0.3170604407787323,0.08507803082466125,-0.0033652137499302626,-0.027535146102309227
45.25,0.027830183506011963,-0.16464611887931824,-0.23520086705684662,0.07518936693668365,-0.019578607752919197,-0.0346885621547699
45.3,0.15253472328186035,-0.1131114736199379,-0.21457256376743317,0.026208173483610153,-0.017163680866360664,-0.018919769674539566
45.35,0.2729374170303345,0.17028719186782837,-0.22094294428825378,-0.02302379347383976,-0.03150377795100212,0.00038166213198564947
45.4,0.10073167830705643,0.5369234681129456,-0.0909399688243866,-0.04961412772536278,-0.09518816322088242,-0.04608171433210373
45.45,-0.25553956627845764,0.46706390380859375,0.3075537383556366,-0.01411599013954401,-0.1383553296327591,-0.1398363560438156
45.5,-0.6020697355270386,-0.20605100691318512,0.507357120513916,0.06772813200950623,-0.07903347164392471,-0.11684876680374146
45.55,-0.5833300948143005,-0.5748616456985474,0.39384233951568604,0.03966308757662773,0.08364823460578918,0.022155815735459328
45.6,-0.2652917802333832,-0.5710821747779846,0.04026193544268608,-0.0813438892364502,0.22689779102802277,0.0913587287068367
45.65,0.03500880300998688,-0.362824410200119,-0.3536210060119629,-0.18234047293663025,0.22211098670959473,0.09368610382080078
45.7,0.1300412267446518,0.2827836573123932,-0.581200361251831,-0.23927702009677887,0.13790883123874664,0.008277054876089096
45.75,-0.022190507501363754,0.7466660737991333,-0.4423578679561615,-0.17386215925216675,0.05575062334537506,-0.06295209378004074
45.8,-0.07297557592391968,0.7758075594902039,-0.25195392966270447,0.010219428688287735,0.10112127661705017,-0.0868111327290535
45.85,-0.07939989119768143,0.4871845841407776,0.07459864765405655,0.20919078588485718,0.18876905739307404,-0.07315678894519806
45.9,-0.12460730969905853,-0.32435426115989685,0.2954768240451813,0.33252495527267456,0.28096529841423035,-0.03508877381682396
45.95,-0.11577510833740234,-0.8595229983329773,0.35887372493743896,0.31437256932258606,0.3456867039203644,0.09852108359336853
46.0,0.11069187521934509,-0.7037277817726135,-0.007590451743453741,0.1193762719631195,0.3588695824146271,0.2259163111448288
46.05,0.40259426832199097,-0.15663331747055054,-0.3669523000717163,-0.178219273686409,0.23968568444252014,0.1438531130552292
46.1,0.4834364056587219,0.3974410891532898,-0.5943580269813538,-0.35200831294059753,0.02368110977113247,-0.002981360536068678
46.15,0.329007089138031,0.39257925748825073,-0.7130313515663147,-0.3635089099407196,-0.18815280497074127,-0.05918753892183304
46.2,0.38666996359825134,0.4924595355987549,-0.931278645992279,-0.31844669580459595,-0.27677270770072937,-0.04724259674549103
46.25,0.441756933927536,0.6568300724029541,-0.8259345293045044,-0.25340592861175537,-0.35242196917533875,-0.12183676660060883
46.3,0.06280869245529175,0.5273076295852661,-0.4255096912384033,-0.15443159639835358,-0.42629706859588623,-0.19817855954170227
46.35,-0.39704403281211853,0.32109546661376953,0.07657584547996521,-0.07807262241840363,-0.4247952401638031,-0.2542268931865692
46.4,-0.6946108341217041,-0.22695457935333252,0.42657843232154846,-0.020606784150004387,-0.3179788291454315,-0.2789595127105713
46.45,-0.6081916689872742,-0.0975409746170044,0.5258002877235413,0.02953241392970085,-0.15399989485740662,-0.14551976323127747
46.5,-0.5079488158226013,0.02568710222840309,0.6300933361053467,0.02884051948785782,-0.0637834444642067,-0.10776826739311218
46.55,-0.23780450224876404,-0.02809818461537361,0.40061116218566895,0.017886903136968613,0.03432556986808777,-0.05383940786123276
46.6,0.039398618042469025,-0.21775250136852264,0.09994133561849594,0.009397841989994049,0.10082246363162994,-0.03629208356142044
46.65,0.27252551913261414,-0.0521983839571476,-0.17325954139232635,-0.0162334106862545,0.11683515459299088,-0.02001700922846794
46.7,0.2432461977005005,0.040475890040397644,-0.21555395424365997,-0.010570467449724674,0.09459922462701797,0.0058541265316307545
46.75,0.1461048275232315,-0.2233428806066513,-0.2566854953765869,0.025832265615463257,0.10934791713953018,0.09622734785079956
46.8,0.33883923292160034,-0.09863274544477463,-0.45372679829597473,-0.014700842089951038,0.14973019063472748,0.18256786465644836
46.85,0.5090999603271484,0.3306199610233307,-0.5680304169654846,-0.07219069451093674,0.07386638969182968,0.17703360319137573
46.9,0.3569066524505615,0.41778674721717834,-0.5404852032661438,-0.06257728487253189,-0.10171712189912796,0.10990969836711884
46.95,0.0674782395362854,0.4769173860549927,-0.3273070752620697,-0.02869255281984806,-0.2514171600341797,0.01225774735212326
47.0,-0.18825484812259674,0.4952870011329651,-0.08272947371006012,0.04052572697401047,-0.29539722204208374,-0.04053226858377457
47.05,-0.21434286236763,0.3417825698852539,0.07959580421447754,0.0906907245516777,-0.23509559035301208,-0.08404261618852615
