Time [s],Acc_x [m/s^2],Acc_y [m/s^2],Acc_z [m/s^2],Gyro_x [1/s],Gyro_y [1/s],Gyro_z [1/s]
0.0,-0.23449404537677765,0.13642124831676483,-0.1690492480993271,0.020875710994005203,-0.01671617291867733,-0.008553090505301952
0.05,0.1550782173871994,0.09436607360839844,0.08857598900794983,0.029432453215122223,-0.01882896013557911,0.0011977598769590259
0.1,-0.02323627844452858,0.06431390345096588,-0.04090890288352966,0.020546143874526024,-0.009070003405213356,0.01297710184007883
0.15,0.05039532482624054,0.11719515919685364,-0.07232697308063507,0.02832755818963051,-0.020257476717233658,0.0023091984912753105
0.2,-0.03742922842502594,0.057879459112882614,-0.018640417605638504,0.018803276121616364,-0.024312639608979225,-0.004223184194415808
0.25,-0.07147550582885742,0.11611845344305038,-0.06499974429607391,0.023738272488117218,-0.015603205189108849,-0.008448777720332146
0.3,-0.004042619839310646,0.12493804097175598,-0.06416439265012741,0.027943618595600128,-0.022086109966039658,-0.01262164767831564
0.35,-0.08148112893104553,0.09045889973640442,-0.11688990890979767,0.021478895097970963,-0.018770799040794373,-0.002543517155572772
0.4,0.0036431807093322277,0.11812974512577057,0.002032364020124078,0.02464810013771057,-0.026094727218151093,-0.012968100607395172
0.45,0.0013260160339996219,0.045187003910541534,-0.024048274382948875,0.007730318233370781,-0.016604270786046982,-0.0012800312833860517
0.5,-0.06587423384189606,0.10477831214666367,-0.059000976383686066,0.005847613327205181,-0.012036053463816643,0.0027749091386795044
0.55,-0.0212232805788517,0.05420305207371712,-0.05902464687824249,0.004105428699404001,-0.0011688645463436842,-0.013633785769343376
0.6,0.08375155925750732,0.018233301118016243,0.008523444645106792,-0.004951489623636007,0.007912486791610718,0.005510817281901836
0.65,0.03525315970182419,0.1750478744506836,0.09812311828136444,-0.007590734399855137,-0.0027130034286528826,0.009544473141431808
0.7,-0.12405253946781158,0.06608298420906067,-0.12453548610210419,-0.0036928807385265827,0.015641938894987106,-0.01605943590402603
0.75,0.13773061335086823,0.08576106280088425,0.0966244488954544,-0.010093677788972855,0.00877260509878397,0.005516758654266596
0.8,-0.06262090057134628,0.12924672663211823,0.02361944317817688,-0.024850713089108467,0.020562702789902687,0.02234748937189579
0.85,0.04638778418302536,0.1149454265832901,0.01917780376970768,-0.005220360588282347,0.016897428780794144,0.008685258217155933
0.9,0.015647845342755318,0.12011052668094635,0.020080557093024254,-0.008558057248592377,0.01824287883937359,-0.0011092587374150753
0.95,0.0650537759065628,0.1239633783698082,-0.04906509071588516,-0.0050103627145290375,0.012994328513741493,-0.0002600912703201175
1.0,0.01710541546344757,-0.009817132726311684,0.046940289437770844,0.00954821240156889,0.0053903888911008835,-0.011850490234792233
1.05,-0.002823556074872613,0.09807206690311432,-0.0009085453348234296,-0.002106853062286973,0.00898126233369112,0.005619142670184374
1.1,-0.0002566189505159855,0.06535149365663528,0.01996481791138649,0.01647467352449894,-0.0009123719064518809,-0.00489882891997695
1.15,0.0024953384418040514,0.10027028620243073,-0.004101174883544445,0.003896428272128105,-0.0026711805257946253,0.0047391075640916824
1.2,-0.027060849592089653,0.047595031559467316,0.003985014744102955,0.016531746834516525,-0.00031962941284291446,-0.012252465821802616
1.25,0.027707532048225403,0.11142923682928085,-0.0608089305460453,0.015304888598620892,-0.002948023844510317,0.003568654414266348
1.3,0.0421835295855999,0.11394598335027695,-0.02212250791490078,0.012484870851039886,-0.004001423250883818,0.0034601797815412283
1.35,-0.034555889666080475,0.0935211330652237,-0.03250080347061157,0.020613132044672966,-0.007979866117238998,-0.0017411608714610338
1.4,0.12860240042209625,-0.01876162923872471,-0.031855013221502304,0.022251682355999947,-0.0032582085113972425,-0.006271288264542818
1.45,0.07048029452562332,0.0679168775677681,0.02184353396296501,0.013277807272970676,-0.015424439683556557,0.009899761527776718
1.5,0.0282282792031765,0.0271987933665514,0.015740573406219482,0.011791052296757698,-0.003114954801276326,0.012175391428172588
1.55,0.04777678847312927,0.14054109156131744,0.03784257918596268,0.011548829264938831,0.00041560872341506183,0.024824384599924088
1.6,0.049311693757772446,0.06294918805360794,-0.0157596655189991,0.011189546436071396,0.004484121222048998,-0.003224930027499795
1.65,0.048292338848114014,0.07796193659305573,-0.05521005392074585,0.003345968434587121,0.015530828386545181,0.007550299167633057
1.7,0.07744567096233368,0.13555431365966797,0.04912511631846428,0.009329600259661674,0.009353415109217167,-0.002822528826072812
1.75,-0.03236035630106926,0.20238879323005676,-0.023678530007600784,-0.0021730391308665276,0.01469403225928545,-0.007379465736448765
1.8,0.04268535226583481,0.33287814259529114,-0.0014530393527820706,-0.004056110978126526,0.10402519255876541,0.04246136173605919
1.85,0.178330197930336,-0.11937151849269867,0.5338523387908936,0.08306773006916046,0.33746200799942017,0.08595014363527298
1.9,0.4965958893299103,0.09773916006088257,0.4529585540294647,0.17478059232234955,0.48729634284973145,-0.16573987901210785
1.95,0.2793208360671997,-0.1836538463830948,0.03711946681141853,0.1431298702955246,0.4618888795375824,-0.3995276689529419
2.0,0.15802673995494843,0.2392445057630539,-0.045224931091070175,0.017000557854771614,0.36680206656455994,-0.26427796483039856
2.05,0.37318748235702515,0.018871283158659935,0.16614526510238647,0.07734619081020355,0.29625436663627625,-0.3040722906589508
2.1,0.04572686180472374,0.17311760783195496,0.28070712089538574,0.06169166415929794,0.34916141629219055,-0.30423375964164734
2.15,0.11185568571090698,0.23873522877693176,0.03713880479335785,0.1181536540389061,0.4234285056591034,-0.27645736932754517
2.2,-0.0847630649805069,0.4194098114967346,-0.012872893363237381,0.1534029096364975,0.414949506521225,-0.2480788677930832
2.25,0.021725177764892578,-0.24523836374282837,0.13619282841682434,0.17611312866210938,0.3907196521759033,-0.3049412667751312
2.3,-0.13436472415924072,-0.6541730165481567,0.3228948712348938,0.12185195833444595,0.3552113175392151,-0.18800602853298187
2.35,-0.263365775346756,-0.21002772450447083,-0.005315551068633795,0.10718253999948502,0.3112487196922302,-0.08460889756679535
2.4,-0.2226184755563736,0.11999885737895966,0.49598512053489685,0.08197180926799774,0.3358372747898102,-0.01622243970632553
2.45,-0.6057859659194946,-0.14807812869548798,0.7819907665252686,0.12799450755119324,0.4176505208015442,0.02013213559985161
2.5,-0.24813184142112732,0.07980909943580627,0.5156957507133484,0.14334653317928314,0.581782877445221,0.12649254500865936
2.55,-0.24110692739486694,0.31481650471687317,0.05516202375292778,0.15526703000068665,0.6400008201599121,0.2413931041955948
2.6,-0.07658838480710983,0.23019415140151978,-0.13720744848251343,0.16310492157936096,0.6085895895957947,0.21263040602207184
2.65,0.11792590469121933,-0.08608715981245041,-0.39282673597335815,0.046254195272922516,0.6227214932441711,0.17428509891033173
2.7,-0.09031789004802704,-0.1531810760498047,-0.0936732143163681,-0.07929247617721558,0.5445903539657593,0.14936138689517975
2.75,-0.004653953015804291,-0.048727985471487045,-0.05829842761158943,-0.15011581778526306,0.49273622035980225,0.14314036071300507
2.8,0.02526191622018814,0.18712429702281952,-0.17005208134651184,-0.14770905673503876,0.48855406045913696,0.17291733622550964
2.85,0.18180735409259796,0.30663204193115234,0.1263238787651062,-0.10626901686191559,0.49985456466674805,0.12617187201976776
2.9,-0.16139374673366547,0.29138657450675964,0.4060473144054413,-0.024094372987747192,0.518114447593689,0.06375683099031448
2.95,0.0778416097164154,0.07172301411628723,-0.13359877467155457,0.042253393679857254,0.4566400647163391,-0.025731662288308144
3.0,0.09009648859500885,0.2738124132156372,-0.5421768426895142,0.003080039517953992,0.30177709460258484,0.036314163357019424
3.05,-0.006556909531354904,0.2141047865152359,-0.5653936862945557,0.04280031472444534,0.08845382928848267,0.06540927290916443
3.1,0.26133784651756287,-0.10117141157388687,-0.5324783325195312,-0.048567771911621094,0.0553620345890522,0.015620792284607887
3.15,0.09309422969818115,0.3559122383594513,-0.019318530336022377,-0.0885181725025177,-0.0016655176877975464,-0.0385819636285305
3.2,0.11702314019203186,0.6073599457740784,0.0401134230196476,-0.04449218511581421,-0.04631630703806877,-0.08131704479455948
3.25,-0.10722219198942184,0.21641923487186432,0.07593998312950134,-0.004753503017127514,-0.06979939341545105,-0.039558421820402145
3.3,-0.09061640501022339,-0.2878589630126953,-0.2514657974243164,0.004963234066963196,-0.005501628387719393,-0.03133612498641014
3.35,-0.10900729894638062,-0.07664871215820312,-0.059538595378398895,-0.09954027086496353,-0.03105003759264946,-0.02327880822122097
3.4,-0.02683638036251068,-0.1522550731897354,0.03839343786239624,-0.05718795955181122,-0.03718557208776474,-0.052062276750802994
3.45,0.27662473917007446,-0.31922248005867004,0.06493639200925827,-0.01310645416378975,-0.08313736319541931,-0.06676039844751358
3.5,-0.2635773718357086,0.3189820945262909,0.3150692582130432,0.026204625144600868,-0.14020007848739624,0.025865480303764343
3.55,0.3914104700088501,0.2836485207080841,0.10402736812829971,0.05778788402676582,-0.13808880746364594,0.054118506610393524
3.6,-0.06041363254189491,0.032313331961631775,0.10400673747062683,0.07047269493341446,-0.09888236224651337,0.029384037479758263
3.65,-0.08937854319810867,0.15797138214111328,0.118719682097435,0.051836512982845306,-0.14583852887153625,0.04738564044237137
3.7,-0.04679185897111893,0.12078282237052917,0.23084044456481934,0.017327841371297836,-0.14184196293354034,0.004630082752555609
3.75,-0.1448320597410202,0.10359859466552734,0.05872495099902153,0.013640152290463448,-0.13263307511806488,0.04065387696027756
3.8,0.10113667696714401,0.22614669799804688,0.1640634834766388,0.026994122192263603,-0.1363958716392517,0.05131739005446434
3.85,0.11153990775346756,0.07597445696592331,0.08399695158004761,0.011089731007814407,-0.10596729815006256,0.010094180703163147
3.9,0.112473264336586,0.009831417351961136,0.07621787488460541,-0.01566706970334053,-0.10052748769521713,0.005224536173045635
3.95,0.04183531552553177,0.17498300969600677,0.13127020001411438,-0.03660634905099869,-0.09728092700242996,0.0192306786775589
4.0,0.03735436499118805,0.2083282768726349,0.011028427630662918,-0.04226220026612282,-0.05109953135251999,-0.014914636500179768
4.05,0.19271411001682281,0.05952359363436699,-0.0005853283801116049,-0.06910470128059387,-0.04669996723532677,-0.03690951690077782
4.1,0.10716592520475388,0.2793102562427521,-0.04358374699950218,-0.08055782318115234,-0.09730234742164612,-0.017018305137753487
4.15,0.03632533922791481,0.0832977369427681,0.004278488457202911,-0.02464737370610237,-0.13614092767238617,-0.02675268054008484
4.2,0.3260364830493927,0.14628222584724426,-0.04863632470369339,-0.06743605434894562,-0.16086335480213165,0.021797481924295425
4.25,0.1479383111000061,-0.02119256742298603,0.0884404256939888,-0.15296797454357147,-0.16720908880233765,-0.03614078462123871
4.3,0.07923512160778046,0.15466687083244324,0.27643319964408875,-0.1618807017803192,-0.17614103853702545,-0.023515978828072548
4.35,0.21768708527088165,0.04743286967277527,0.23228619992733002,-0.1590786576271057,-0.14388808608055115,-0.05297638103365898
4.4,0.10160376876592636,0.03420637920498848,0.09167271107435226,-0.174131840467453,-0.13375374674797058,-0.06533472239971161
4.45,0.062280673533678055,-0.008746174164116383,0.15155147016048431,-0.17393243312835693,-0.15412819385528564,-0.1025700569152832
4.5,-0.013251755386590958,0.2912921905517578,0.09826116263866425,-0.16344307363033295,-0.13498738408088684,-0.08616194128990173
4.55,0.10293330997228622,0.12459088116884232,0.05344821885228157,-0.11033786833286285,-0.1249118521809578,-0.11898571997880936
4.6,0.015085365623235703,0.12987804412841797,0.09795831143856049,-0.11262152343988419,-0.1787916123867035,-0.10437333583831787
4.65,0.07759000360965729,0.3434314727783203,0.21962374448776245,-0.17933011054992676,-0.20281793177127838,-0.1278933584690094
4.7,-0.1488979458808899,0.19661708176136017,0.39411434531211853,-0.1785953789949417,-0.17648223042488098,-0.12845410406589508
4.75,-0.20334042608737946,0.32152649760246277,0.27889856696128845,-0.1414584070444107,-0.09576971083879471,-0.07042838633060455
4.8,-0.17364312708377838,0.20194149017333984,0.12186825275421143,-0.07729442417621613,0.040020670741796494,-0.05184564366936684
4.85,-0.2927722930908203,0.002208665246143937,0.2305116504430771,-0.027669284492731094,0.10808435827493668,-0.05908231437206268
4.9,0.004121292382478714,-0.15922263264656067,0.11393699795007706,-0.002752933418378234,0.1279340237379074,-0.04474780708551407
4.95,-0.14295648038387299,0.013642298057675362,0.07174178957939148,-0.0021625047083944082,0.14347189664840698,-0.046589404344558716
5.0,0.015545586124062538,0.1083526462316513,0.15232248604297638,-0.02208239585161209,0.13931851089000702,-0.06296884268522263
5.05,-0.0883542075753212,0.14011956751346588,-0.046916309744119644,0.012123020365834236,0.14874979853630066,-0.014846551232039928
5.1,0.07667049020528793,0.13736727833747864,-0.09296908229589462,0.02906513400375843,0.11661030352115631,-0.011833682656288147
5.15,-0.027037961408495903,0.17163565754890442,-0.12471114099025726,0.009555572643876076,0.07408614456653595,-0.03205903619527817
5.2,0.028143009170889854,0.07163335382938385,-0.023599501699209213,0.0010178692173212767,0.03600603714585304,-0.025886133313179016
5.25,-0.053470686078071594,-0.05681994929909706,0.13990549743175507,0.03387535735964775,-0.0008844067924655974,0.009851966053247452
5.3,-0.027723785489797592,-0.1196613535284996,0.025574851781129837,0.060560114681720734,-0.0416562557220459,0.027795497328042984
5.35,0.10036531090736389,-0.057926200330257416,0.08606275916099548,0.03833572939038277,-0.06200593709945679,0.018123526126146317
5.4,0.05971929803490639,0.13969798386096954,0.3028012216091156,0.01954658329486847,-0.09913414716720581,0.0110632898285985
5.45,-0.013754040002822876,0.06491939723491669,0.45341429114341736,0.038982365280389786,-0.06514201313257217,-0.007448225282132626
5.5,-0.11771981418132782,0.038651421666145325,0.26609429717063904,0.06121869757771492,0.0012863563606515527,-0.024512749165296555
5.55,0.16565322875976562,0.18057727813720703,0.09009739756584167,0.06976592540740967,0.03223859518766403,0.017077146098017693
5.6,-0.006442548707127571,0.2491779625415802,-0.03706958517432213,0.13568784296512604,0.08040788769721985,0.04241713508963585
5.65,-0.053536731749773026,0.2153330147266388,-0.022992873564362526,0.20775024592876434,0.08322608470916748,0.05053681135177612
5.7,0.003289297455921769,0.04869843274354935,0.010353714227676392,0.24466367065906525,0.09117411077022552,0.06946925818920135
5.75,0.2410678267478943,0.013150239363312721,-0.10722246766090393,0.25489604473114014,0.09137522429227829,0.0745835080742836
5.8,0.043021462857723236,0.07416346669197083,-0.12078514695167542,0.2507491707801819,0.07371338456869125,0.06879062950611115
5.85,-0.015763739123940468,0.25820353627204895,0.042628347873687744,0.22763700783252716,0.06798836588859558,0.07397302985191345
5.9,0.10140815377235413,0.26210400462150574,0.3165110945701599,0.1973837912082672,0.12859682738780975,-0.004257432650774717
5.95,0.12718814611434937,0.05091661959886551,0.3355574905872345,0.1378156989812851,0.18878428637981415,-0.07450025528669357
6.0,0.06489699333906174,-0.06636520475149155,-0.25648170709609985,0.050511039793491364,0.21421757340431213,-0.046431757509708405
6.05,0.24018427729606628,-0.0051621561869978905,-0.4507903754711151,-0.07789678871631622,0.18505100905895233,-0.08970625698566437
6.1,0.23673011362552643,-0.030626237392425537,-0.3377535045146942,-0.15282779932022095,0.13154417276382446,-0.1220238208770752
6.15,0.08584620803594589,0.44775310158729553,-0.4508473873138428,-0.10370688140392303,0.047121934592723846,-0.03827451542019844
6.2,0.11232538521289825,0.25704580545425415,-0.1632026731967926,0.024658188223838806,-0.03968092426657677,0.02289559319615364
6.25,-0.2539174258708954,-0.03915208578109741,-0.37827715277671814,-0.015674564987421036,-0.11920258402824402,0.06535908579826355
6.3,0.10562203079462051,0.40517154335975647,-0.5505957007408142,-0.09282322227954865,-0.18117204308509827,0.10467492789030075
6.35,-0.03713967651128769,0.2068376988172531,-0.08141970634460449,-0.14410118758678436,-0.2913569509983063,0.08825964480638504
6.4,-0.1952512413263321,-0.0482817217707634,0.2317507117986679,-0.11078458279371262,-0.2878433167934418,0.17201294004917145
6.45,0.1778913289308548,0.031080184504389763,0.37949392199516296,-0.13101090490818024,-0.15891103446483612,0.0984371080994606
6.5,0.22271525859832764,0.30767813324928284,0.6293941140174866,-0.17115570604801178,-0.09881136566400528,-0.03963201120495796
6.55,0.00587061420083046,0.11909279972314835,0.8726204037666321,-0.0985792875289917,-0.07449882477521896,-0.07133667171001434
6.6,0.09529640525579453,0.1592254340648651,0.23008951544761658,-0.021854925900697708,-0.006957483012229204,-0.043866876512765884
6.65,0.08460691571235657,-0.0580463781952858,0.16643601655960083,0.0036563873291015625,-0.023727044463157654,-0.0375211276113987
6.7,0.04187878221273422,0.07637114077806473,0.32554709911346436,0.002376034390181303,-0.03240437060594559,-0.01246144250035286
6.75,-0.012859882786870003,0.21279139816761017,0.37848564982414246,0.026411311700940132,-0.02385706454515457,-0.017454754561185837
6.8,0.04038942605257034,0.2292756289243698,0.5687206387519836,0.04237869381904602,-0.024044953286647797,-0.028038503602147102
6.85,-0.26110774278640747,0.07395162433385849,0.5506627559661865,0.08205454796552658,0.023492896929383278,-0.05123960226774216
6.9,0.020794210955500603,-0.040907859802246094,-0.009803458116948605,0.09603507071733475,0.03404918685555458,0.0017008273862302303
6.95,0.017254173755645752,0.10757927596569061,-0.17702524363994598,0.1266017109155655,0.03143685311079025,0.04499860480427742
7.0,0.0942179262638092,0.05646130442619324,0.21584933996200562,0.17419283092021942,0.012669449672102928,0.05095256119966507
7.05,-0.05650065839290619,-0.03727726265788078,0.20175690948963165,0.23729348182678223,0.04883834719657898,0.08164311200380325
7.1,0.23281346261501312,-0.013523077592253685,-0.1285187304019928,0.25946322083473206,0.07513577491044998,0.09890728443861008
7.15,0.1608726680278778,0.1406240612268448,-0.030080782249569893,0.26401007175445557,0.07403169572353363,0.09676622599363327
7.2,0.052579596638679504,0.26824286580085754,0.026912983506917953,0.26670172810554504,0.06998814642429352,0.1356343924999237
7.25,0.12462442368268967,0.027789127081632614,-0.03046845830976963,0.2581910192966461,0.07793684303760529,0.12035123258829117
7.3,0.05546155944466591,0.1289205551147461,0.06128416955471039,0.21240724623203278,0.10018026828765869,0.10951510816812515
7.35,-0.009383362717926502,0.3513669967651367,0.14433616399765015,0.18021425604820251,0.15851342678070068,0.08901603519916534
7.4,0.012259738519787788,0.20859335362911224,0.24522526562213898,0.185145765542984,0.237182155251503,0.048880159854888916
7.45,0.13056902587413788,0.1174764558672905,0.13411296904087067,0.1964557021856308,0.30985593795776367,0.025547485798597336
7.5,0.2669624984264374,0.01577955111861229,-0.28421860933303833,0.13998061418533325,0.26661327481269836,-0.007524535991251469
7.55,-0.13842588663101196,0.27782541513442993,-0.09286454319953918,0.05636179819703102,0.16220246255397797,-0.001039735390804708
7.6,-0.017626691609621048,-0.1839427649974823,-0.2930224537849426,-0.03295009955763817,0.15759927034378052,-0.09690316766500473
7.65,0.031158829107880592,-0.07845687121152878,-0.08410841971635818,-0.22448815405368805,0.07504494488239288,-0.1618441790342331
7.7,0.044846199452877045,-0.002663621213287115,0.05137314647436142,-0.3148518204689026,0.03853848949074745,-0.18280020356178284
7.75,-0.044638678431510925,0.3884974718093872,-0.3094465732574463,-0.30340147018432617,0.009260484017431736,-0.060135189443826675
7.8,0.16243815422058105,0.13819700479507446,-0.20179596543312073,-0.24814292788505554,-0.0701989084482193,-0.015781626105308533
7.85,-0.16685867309570312,-0.0367974229156971,-0.5979849100112915,-0.254167377948761,-0.18747125566005707,0.016353966668248177
7.9,0.13374461233615875,-0.1831921637058258,-0.6167892217636108,-0.37085020542144775,-0.2704073488712311,0.011072579771280289
7.95,0.274301141500473,0.017718438059091568,-0.6587075591087341,-0.5219275951385498,-0.2896094024181366,0.016770221292972565
8.0,0.1267854869365692,0.44079211354255676,0.22422121465206146,-0.5032666325569153,-0.3684968650341034,0.03066120855510235
8.05,0.030844449996948242,0.30734148621559143,0.6938028931617737,-0.35123392939567566,-0.259520024061203,0.07399068772792816
8.1,-0.10208787024021149,0.09494485706090927,0.6067254543304443,-0.17950715124607086,-0.11325018852949142,0.09432109445333481
8.15,-0.04715055227279663,0.12082764506340027,0.2539924383163452,-0.09853130578994751,-0.023295117542147636,0.07629965245723724
8.2,0.06661031395196915,-0.02771952748298645,0.14660848677158356,-0.0626974105834961,0.050059519708156586,0.047977011650800705
8.25,0.0687180608510971,-0.08000189810991287,0.32989513874053955,-0.012783179990947247,0.06328190118074417,0.07121486216783524
8.3,-0.01862153224647045,0.12731550633907318,0.20305408537387848,0.05972932651638985,0.11523017287254333,0.10672683268785477
8.35,0.1366845965385437,0.1553926318883896,0.1403782069683075,0.09278219938278198,0.13088521361351013,0.004914605990052223
8.4,0.11418120563030243,-0.07269291579723358,0.2147863656282425,0.02981482818722725,0.08997903764247894,-0.06642019003629684
8.45,-0.014876902103424072,0.18723483383655548,0.3103657066822052,-0.04830196127295494,0.03670722246170044,-0.06357304751873016
8.5,0.05863038823008537,0.2589387595653534,0.26386675238609314,-0.015726493671536446,0.07360250502824783,-0.03433998301625252
8.55,0.15114104747772217,-0.05351638421416283,-0.052671633660793304,0.045749738812446594,0.07795032113790512,-0.03569678217172623
8.6,0.021575283259153366,-0.01681322604417801,-0.30661624670028687,0.009248849004507065,-8.39881322463043e-05,-0.03986185044050217
8.65,0.08094939589500427,0.11761096119880676,-0.09448538720607758,-0.0452776700258255,-0.05851336568593979,-0.02889203652739525
8.7,0.01757906936109066,0.11104200780391693,0.16421237587928772,-0.0245065800845623,-0.053751587867736816,-0.013810998760163784
8.75,0.1086680069565773,0.07658854871988297,0.5186131000518799,0.015852252021431923,0.023453356698155403,-0.00593573460355401
8.8,0.15557487308979034,0.10575288534164429,0.42904728651046753,0.051311247050762177,-0.005550907459110022,0.0041678911074995995
8.85,0.06302246451377869,-0.04216572269797325,-0.19512802362442017,-0.03368831053376198,-0.131729856133461,-0.0826786607503891
8.9,0.2592815160751343,0.3241425156593323,-0.12238088995218277,-0.14127612113952637,-0.12323743104934692,-0.08143992722034454
8.95,-0.03548712655901909,0.4025954604148865,0.5919152498245239,-0.03359394147992134,-0.06801960617303848,-0.05507490038871765
9.0,-0.18910537660121918,0.043408289551734924,0.5863828659057617,0.09143412858247757,0.0063189053907990456,-0.06630337238311768
9.05,-0.29935431480407715,-0.0979146659374237,-0.2768210172653198,0.050313614308834076,0.06187650188803673,-0.011863715015351772
9.1,-0.05401432514190674,0.0777817815542221,-0.5480943918228149,-0.03561948984861374,0.09627538919448853,0.0038073803298175335
9.15,-0.01925821602344513,-0.14125065505504608,0.16138066351413727,0.044722478836774826,0.10517385601997375,0.02991371601819992
9.2,0.07219073921442032,0.09908673912286758,0.20368200540542603,0.16248834133148193,0.22107312083244324,0.10401075333356857
9.25,0.17896334826946259,-0.005002034828066826,0.0827145203948021,0.15585708618164062,0.22176691889762878,0.026505986228585243
9.3,0.06619690358638763,0.013769094832241535,0.3248525559902191,0.06567777693271637,0.14496874809265137,0.005489726085215807
9.35,-0.06755639612674713,0.21466165781021118,-0.21113063395023346,0.05157012864947319,0.1126452162861824,-0.03011101670563221
9.4,0.022237606346607208,0.2475186437368393,-0.4202181398868561,0.034853748977184296,0.07152027636766434,-0.004379894118756056
9.45,0.04963424429297447,0.2612610161304474,0.024329792708158493,0.04645488038659096,0.019763659685850143,-0.009609080851078033
9.5,0.0659710019826889,-0.07291886955499649,-0.16150476038455963,0.048385489732027054,-0.0012890310026705265,-0.015394406393170357
9.55,-0.07023757696151733,-0.06901353597640991,-0.36877235770225525,-0.0227117408066988,-0.059501633048057556,0.0016044124495238066
9.6,-0.01563161239027977,-0.02172563038766384,-0.14696632325649261,-0.062300555408000946,-0.12467833608388901,0.0182038601487875
9.65,-0.002902126871049404,0.22754667699337006,0.2595463693141937,-0.017673423513770103,-0.07799264043569565,0.04027136415243149
9.7,0.3781411945819855,0.2606754004955292,0.3174627721309662,0.048049334436655045,-0.05036136135458946,0.036249347031116486
9.75,0.18576499819755554,-0.23429395258426666,-0.032259974628686905,0.008404702879488468,-0.19819556176662445,-0.025070026516914368
9.8,0.1968296468257904,0.06191261112689972,-0.35389813780784607,-0.19761087000370026,-0.29907554388046265,-0.05535103380680084
9.85,0.10594923049211502,0.5611372590065002,0.15768256783485413,-0.23022142052650452,-0.22356948256492615,-0.06230401620268822
9.9,0.0945606380701065,0.4430684745311737,0.49981632828712463,0.013128113932907581,-0.10560635477304459,-0.036428701132535934
9.95,0.1770932674407959,-0.047394804656505585,0.25977420806884766,0.11538852751255035,-0.057459648698568344,-0.046075884252786636
10.0,0.10095694661140442,-0.011419311165809631,0.08705843985080719,0.03675055876374245,-0.07248303294181824,-0.09876888245344162
10.05,0.11670621484518051,-0.014924097806215286,0.26894697546958923,0.05777619779109955,-0.06829237937927246,-0.11835001409053802
10.1,0.13316813111305237,0.08865644782781601,-0.08705504238605499,0.0820578783750534,-0.07212132960557938,-0.07812701165676117
10.15,0.09792929142713547,0.19630149006843567,0.04313722997903824,0.07204291224479675,-0.045721348375082016,-0.08081153780221939
10.2,0.033209964632987976,0.1114492416381836,0.08453702926635742,0.08496484905481339,-0.023379690945148468,-0.10025256127119064
10.25,0.28824228048324585,0.21941472589969635,0.06961655616760254,0.08493857830762863,-0.032806795090436935,-0.10257048159837723
10.3,0.10395066440105438,0.24437233805656433,0.34118199348449707,0.0949922651052475,-0.044244151562452316,-0.12279090285301208
10.35,-0.0330023393034935,0.10774409770965576,0.7493887543678284,0.0958038717508316,-0.07065393775701523,-0.16363990306854248
10.4,-0.49275296926498413,-0.11395267397165298,0.10076598823070526,0.11206269264221191,0.037137921899557114,0.05322358384728432
10.45,-0.3499884605407715,0.04830656945705414,-0.5700464844703674,0.10431962460279465,0.17628973722457886,0.24242809414863586
10.5,-0.16309162974357605,0.015154781751334667,0.3179353177547455,0.08959471434354782,0.17748957872390747,0.11670105159282684
10.55,-0.23630669713020325,0.10832586139440536,0.6047751307487488,0.18762968480587006,0.3054596185684204,0.16049429774284363
10.6,-0.01917755976319313,-0.14783480763435364,0.12323641777038574,0.22275330126285553,0.4020059406757355,0.134430393576622
10.65,0.0668228417634964,0.011278145015239716,0.052483901381492615,0.13538075983524323,0.38646888732910156,0.10444598644971848
10.7,0.0864846333861351,0.26681333780288696,-0.18336495757102966,0.09728975594043732,0.28836503624916077,0.029522472992539406
10.75,0.1520116627216339,0.17046649754047394,-0.35696280002593994,0.03302759304642677,0.1052916944026947,-0.03304113447666168
10.8,0.19795513153076172,0.33187875151634216,-0.30799469351768494,-0.05122722312808037,0.0612022690474987,-0.0060453456826508045
10.85,0.09805376082658768,0.20522694289684296,-0.04756684973835945,0.002200538292527199,0.02908376045525074,-0.007784195244312286
10.9,0.0021205777302384377,-0.039244625717401505,-0.17160119116306305,0.015843413770198822,0.0006691403104923666,-0.04534906893968582
10.95,0.028948692604899406,-0.21597005426883698,-0.11029580235481262,-0.049761947244405746,-0.09187760204076767,-0.0518646165728569
11.0,-0.11235582828521729,0.06336881220340729,-0.06424038857221603,-0.049985770136117935,-0.10034026950597763,0.01034657470881939
11.05,-0.11218812316656113,-0.2921123802661896,0.038133177906274796,-0.006768409162759781,-0.0965905413031578,-0.027509650215506554
11.1,0.18565599620342255,0.2962951362133026,0.33106178045272827,0.008361680433154106,-0.12016251683235168,0.0142069011926651
11.15,0.0885464996099472,0.18138213455677032,0.34074437618255615,0.0018999180756509304,-0.13492362201213837,-0.03920326381921768
11.2,0.16380490362644196,0.10799986869096756,-0.26302847266197205,-0.07435499131679535,-0.15352031588554382,-0.060518451035022736
11.25,0.34300923347473145,0.2043810486793518,-0.17467030882835388,-0.21827884018421173,-0.22456543147563934,-0.08996246010065079
11.3,0.45210036635398865,0.3880043923854828,-0.13777261972427368,-0.3362748324871063,-0.26230525970458984,-0.13603730499744415
11.35,0.26598575711250305,0.23160363733768463,0.07937256991863251,-0.2894442081451416,-0.20412008464336395,-0.12267275899648666
11.4,0.04476528614759445,0.14454172551631927,0.1672404557466507,-0.17310969531536102,-0.16418564319610596,-0.05231699347496033
11.45,0.036468505859375,0.107941634953022,0.055562689900398254,-0.10167654603719711,-0.13862131536006927,-0.09857065230607986
11.5,0.12124379724264145,-0.1754809021949768,0.2558566629886627,-0.04589211568236351,-0.11043429374694824,-0.14920002222061157
11.55,0.23468737304210663,0.30206966400146484,0.14141030609607697,0.01786285825073719,-0.07777447253465652,-0.06941967457532883
11.6,-0.2993049919605255,0.19646550714969635,0.09179775416851044,0.018964378163218498,-0.06609062105417252,-0.08875299990177155
11.65,0.3008003532886505,0.17623232305049896,0.21810480952262878,0.0023053705226629972,-0.02732880786061287,-0.09096229076385498
11.7,0.1892269402742386,0.25271883606910706,0.7288849353790283,0.07801677286624908,0.062132030725479126,-0.07239433377981186
11.75,-0.32005515694618225,0.18373951315879822,0.9216305613517761,0.13183070719242096,0.09834568202495575,-0.0025036318693310022
11.8,-0.12792696058750153,0.39621466398239136,-0.6732293963432312,0.12374948710203171,0.15442034602165222,0.45420026779174805
11.85,0.08205505460500717,-0.27729979157447815,-0.5878741145133972,0.1649538278579712,0.23691004514694214,0.17656011879444122
11.9,-0.21552450954914093,-0.10935695469379425,0.33246535062789917,0.2184903472661972,0.18035845458507538,0.10172736644744873
11.95,-0.1294277459383011,0.01798625849187374,0.22156047821044922,0.27413493394851685,0.3274816870689392,0.16400673985481262
12.0,-0.1298792064189911,-0.15119460225105286,0.0624835379421711,0.2527073323726654,0.2993013560771942,0.11943327635526657
12.05,-0.09076975286006927,-0.011712106876075268,0.17219555377960205,0.17690908908843994,0.23691359162330627,0.06866609305143356
12.1,0.24450212717056274,0.3297443389892578,0.2092341035604477,0.10613825172185898,0.18097782135009766,0.023365871980786324
12.15,-0.039232030510902405,0.1819353550672531,-0.18881581723690033,0.059051595628261566,0.04039490222930908,-0.030389539897441864
12.2,0.18992449343204498,0.35392194986343384,-0.22963443398475647,-0.021235166117548943,0.004243156872689724,0.06446656584739685
12.25,0.28001606464385986,0.29032808542251587,-0.1512262374162674,0.01701822504401207,-0.015393263660371304,0.0503462590277195
12.3,0.09317753463983536,0.2889910042285919,-0.0686570331454277,0.057554177939891815,-0.11660920828580856,0.03370412439107895
12.35,0.16504716873168945,-0.0019178256625309587,-0.0654611587524414,0.00015756674110889435,-0.1882765144109726,-0.025726109743118286
12.4,0.09212452918291092,0.12529945373535156,0.08304067701101303,-0.008328773081302643,-0.1860397905111313,-0.02366306446492672
12.45,0.2276390790939331,0.09278775006532669,0.028762472793459892,0.0007423041388392448,-0.17155112326145172,-0.06198498234152794
12.5,0.16692207753658295,0.0418052040040493,0.39163175225257874,0.006570450030267239,-0.13947530090808868,-0.08693956583738327
12.55,0.3937567472457886,-0.1253090351819992,0.22588351368904114,0.03712812811136246,-0.1452125608921051,-0.07631176710128784
12.6,0.11221399158239365,-0.1120319589972496,0.04246475175023079,0.011197416111826897,-0.17538045346736908,-0.08013235777616501
12.65,0.07077803462743759,0.19057945907115936,-0.06629366427659988,-0.12035894393920898,-0.1933605968952179,-0.10435938835144043
12.7,0.16853541135787964,0.17658331990242004,-0.0744287520647049,-0.19753119349479675,-0.15797942876815796,-0.11793097853660583
12.75,0.03558484837412834,0.0253305546939373,-0.03507741913199425,-0.16786600649356842,-0.14164775609970093,-0.06852494180202484
12.8,0.10408370941877365,0.2554798126220703,0.09151799231767654,-0.13588063418865204,-0.13421441614627838,-0.058105163276195526
12.85,-0.14210863411426544,0.2731504738330841,0.060058336704969406,-0.08750811964273453,-0.07801644504070282,-0.055418241769075394
12.9,-0.11401376128196716,0.2506285011768341,0.018225928768515587,-0.031124571338295937,-0.04239041358232498,-0.011974484659731388
12.95,-0.5111895799636841,-0.08565140515565872,-0.044166937470436096,-0.0009305176790803671,-0.030493326485157013,-0.05106273293495178
13.0,0.03322847560048103,-0.03976918011903763,0.020129702985286713,0.0026212206576019526,-0.03560697287321091,-0.0008915146463550627
13.05,-0.04769635945558548,0.19277575612068176,0.018077146261930466,0.007597492076456547,-0.007311644032597542,0.006535729859024286
13.1,0.01916518062353134,0.38109782338142395,0.13398918509483337,0.011832566000521183,0.0028768046759068966,-0.019221626222133636
13.15,0.07442795485258102,0.3204765319824219,0.2034159153699875,0.033545348793268204,0.024699050933122635,-0.11890570819377899
13.2,0.12577642500400543,0.06399048119783401,0.6952242255210876,0.014120345935225487,0.011594448238611221,-0.20687012374401093
13.25,-0.4968883693218231,-0.10957733541727066,0.7618800401687622,0.07991427183151245,0.13593333959579468,-0.033777832984924316
13.3,-0.392284631729126,0.07583248615264893,-0.6540765762329102,0.2427879124879837,0.28451043367385864,0.31685298681259155
13.35,-0.04456518217921257,0.02767765149474144,-0.6268554925918579,0.22980743646621704,0.277138888835907,0.2540737986564636
13.4,-0.1865796148777008,-0.21985921263694763,0.36141788959503174,0.20341384410858154,0.21190249919891357,0.10386635363101959
13.45,-0.18412140011787415,-0.006008179392665625,0.15857912600040436,0.2128901183605194,0.27377718687057495,0.28188076615333557
13.5,0.1033155545592308,0.06519224494695663,-0.0831729993224144,0.14584706723690033,0.3259079158306122,0.21089886128902435
13.55,0.2512359023094177,-0.012814536690711975,0.08968868851661682,0.06116306781768799,0.25290074944496155,0.07464102655649185
13.6,-0.008906466886401176,-0.05119037628173828,-0.042906343936920166,-0.00814867950975895,0.07359295338392258,0.035682324320077896
13.65,0.20949095487594604,0.4936181306838989,-0.369629830121994,-0.09449908137321472,-0.048031777143478394,0.08281668275594711
13.7,0.10910572111606598,0.3755102753639221,-0.01771986111998558,-0.023199614137411118,-0.05788204446434975,0.09643783420324326
13.75,0.16648417711257935,0.072388656437397,0.00218867976218462,0.03310486301779747,-0.10402636975049973,0.07913745194673538
13.8,-0.13173465430736542,-0.04919911175966263,-0.016477590426802635,-0.0054817902855575085,-0.18380452692508698,0.06389271467924118
13.85,0.04696115478873253,0.22068119049072266,0.1611437201499939,-0.07985809445381165,-0.18434827029705048,0.03789060190320015
13.9,-0.045171260833740234,0.20177647471427917,0.3199780285358429,-0.03924259543418884,-0.1253155618906021,0.02625882998108864
13.95,0.07811170071363449,0.04381458833813667,0.4206041991710663,-0.026899222284555435,-0.10691246390342712,0.03449271246790886
14.0,0.03402434289455414,0.3221302032470703,0.13999983668327332,0.00487389974296093,-0.04691889137029648,0.11598565429449081
14.05,-0.020422063767910004,0.30654528737068176,-0.00034282990964129567,0.11613235622644424,0.02090957760810852,0.13191349804401398
14.1,0.14364629983901978,0.06801418960094452,-0.1926090568304062,0.1327107846736908,0.017837760969996452,0.11910169571638107
14.15,0.29377999901771545,-0.07581612467765808,-0.17702776193618774,0.06420820951461792,-0.009398858062922955,0.07626557350158691
14.2,0.20974883437156677,0.06876467168331146,0.15358754992485046,0.02499196119606495,-0.007163385860621929,0.07664098590612411
14.25,0.07017634063959122,0.26102447509765625,0.11578816175460815,0.04696580395102501,0.004605405032634735,0.11075077950954437
14.3,0.37259188294410706,0.033093471080064774,-0.05505429953336716,0.07923965156078339,0.044296860694885254,0.06516915559768677
14.35,0.525316059589386,-0.19272613525390625,-0.10912279784679413,0.019866349175572395,-0.018843019381165504,-0.029846787452697754
14.4,0.1473841369152069,0.27369120717048645,0.08530282229185104,-0.07928603887557983,-0.06173258274793625,0.00415361812338233
14.45,0.18768581748008728,0.5027122497558594,0.3235390782356262,-0.05473440885543823,-0.028557097539305687,-0.012228058651089668
14.5,0.20044445991516113,-0.17577844858169556,0.28141066431999207,-0.0013785315677523613,0.026199568063020706,-0.12125323712825775
14.55,-0.019253388047218323,-0.12364388257265091,-0.061686210334300995,-0.1435912847518921,-0.08158627152442932,-0.17801393568515778
14.6,0.1286223828792572,0.07792380452156067,-0.09944219887256622,-0.22256997227668762,-0.16480214893817902,-0.18454833328723907
14.65,-0.0024761036038398743,0.21806636452674866,-0.6746711730957031,-0.1977066993713379,-0.21165312826633453,-0.08969253301620483
14.7,0.06324303150177002,0.24191488325595856,-0.5505917072296143,-0.2405220866203308,-0.23048937320709229,-0.03470999374985695
14.75,-0.13236019015312195,0.2681436538696289,0.1696339249610901,-0.2887420356273651,-0.21837030351161957,-0.07113993167877197
14.8,-0.36048778891563416,-0.05156242102384567,0.56855309009552,-0.19628559052944183,-0.07429780811071396,-0.06419076025485992
14.85,-0.2963162660598755,0.0018023494631052017,0.5139520764350891,-0.10591457039117813,0.07562895119190216,0.035687100142240524
14.9,-0.03985348343849182,0.08347410708665848,0.32815492153167725,-0.06200188398361206,0.18762527406215668,0.0037133311852812767
14.95,0.13164344429969788,-0.05867869034409523,0.32321587204933167,0.030475743114948273,0.17847244441509247,0.009112830273807049
15.0,0.09448577463626862,-0.14754773676395416,-0.015216754749417305,0.0966733992099762,0.07058389484882355,0.04452279582619667
15.05,-0.021769413724541664,0.25542551279067993,-0.15792019665241241,0.017010599374771118,0.07025155425071716,0.03065207600593567
15.1,-0.005431589670479298,0.2982006371021271,-0.004461047239601612,-0.0031321304850280285,0.07167369872331619,-0.0034411356318742037
15.15,0.10544253885746002,0.1993589550256729,0.04926618933677673,0.045139946043491364,0.06528966128826141,-0.008852137252688408
15.2,0.004533302038908005,-0.04008963704109192,0.14205855131149292,0.026090824976563454,0.027766406536102295,-0.07621956616640091
15.25,-0.015235807746648788,-0.026822149753570557,0.30847442150115967,-0.013587137684226036,0.013708850368857384,-0.0836615115404129
15.3,0.04884898662567139,0.19188979268074036,-0.007295803166925907,0.02332998625934124,0.0608377642929554,-0.03990371152758598
15.35,-0.0961640328168869,0.22888661921024323,0.10164430737495422,0.1289309859275818,0.09768513590097427,0.018064262345433235
15.4,0.05394665151834488,0.05438421666622162,0.12942150235176086,0.17375890910625458,0.1458279937505722,0.04465208947658539
15.45,0.09145666658878326,0.06796838343143463,-0.040614329278469086,0.15257810056209564,0.1890535205602646,0.09086945652961731
15.5,0.05257238820195198,0.028397584334015846,-0.11270622164011002,0.1450691968202591,0.17030192911624908,0.11306636780500412
15.55,0.22328391671180725,0.21067337691783905,-0.0962250828742981,0.12573857605457306,0.1326242983341217,0.12764807045459747
15.6,0.24102811515331268,0.050050754100084305,-0.042700231075286865,0.07268446683883667,0.10729321092367172,0.06512480229139328
15.65,0.20805306732654572,0.18902496993541718,-0.06903008371591568,0.027199761942029,0.04680168256163597,0.04136524721980095
15.7,0.2130979597568512,0.12061217427253723,-0.058972932398319244,-0.06298042833805084,-0.04446498677134514,-0.03166137635707855
15.75,0.032440271228551865,0.2117033302783966,-0.03856074437499046,-0.09458257257938385,-0.04473575949668884,-0.004982694052159786
15.8,0.1390743851661682,0.20802409946918488,-0.22948937118053436,-0.07493238896131516,-0.05699024721980095,0.01094974484294653
15.85,0.0453617237508297,0.12311463057994843,-0.15828639268875122,-0.08912089467048645,-0.10253395140171051,-0.024002954363822937
15.9,0.10576272010803223,0.0451517179608345,-0.007324401289224625,-0.10462521761655807,-0.13140735030174255,-0.03632660582661629
15.95,0.14039446413516998,0.12549687922000885,0.047034814953804016,-0.1341763734817505,-0.15901653468608856,-0.03980083018541336
16.0,0.049091637134552,0.2746095359325409,0.40524929761886597,-0.12181208282709122,-0.12143131345510483,-0.06910377740859985
16.05,-0.050273455679416656,-0.005437022540718317,0.6958145499229431,-0.034192636609077454,0.010512040928006172,-0.13631150126457214
16.1,-0.08604077249765396,-0.2823229134082794,-0.043232262134552,-0.01537666842341423,-0.024608289822936058,-0.12322871387004852
16.15,-0.19971820712089539,-0.20788858830928802,-0.2580694854259491,-0.1772359311580658,-0.13698452711105347,-0.132359579205513
16.2,-0.23161175847053528,0.11480812728404999,-0.19038332998752594,-0.33973991870880127,-0.18277950584888458,-0.10188022255897522
16.25,0.054083202034235,0.2852564752101898,-0.3840833306312561,-0.3166405260562897,-0.16220761835575104,-0.041446149349212646
16.3,-0.1157016009092331,0.2960977554321289,0.13301865756511688,-0.1655559092760086,-0.14795345067977905,0.01411296147853136
16.35,-0.09574142098426819,0.2966937720775604,0.33575236797332764,-0.027444425970315933,-0.04007166996598244,0.06628783047199249
16.4,0.016979189589619637,-0.06882286816835403,0.0022669292520731688,0.04601990059018135,-0.029934309422969818,0.0018669395940378308
16.45,-0.12988878786563873,-0.20423609018325806,0.1505691111087799,-0.004799517337232828,-0.09012975543737411,-0.02672165259718895
16.5,-0.1121712177991867,0.19693468511104584,0.2677161991596222,-0.04254594072699547,-0.06588377058506012,0.03180307522416115
16.55,-0.12372564524412155,0.19023610651493073,0.03398934379220009,0.04029104858636856,0.0046134889125823975,0.015016666613519192
16.6,0.02745443396270275,0.0939951166510582,-0.03285358101129532,0.04861831292510033,0.035637255758047104,-0.010781705379486084
16.65,0.07620708644390106,0.1415833979845047,0.33610403537750244,0.010264035314321518,-0.018156778067350388,-0.03797769546508789
16.7,-0.03890993446111679,0.27515316009521484,0.17403805255889893,0.04909559711813927,0.04350272938609123,-0.003690494457259774
16.75,0.17796637117862701,0.09380247443914413,-0.03375251591205597,0.16313904523849487,0.1146550253033638,0.034738689661026
16.8,-0.014164064079523087,0.09152127057313919,-0.007587703876197338,0.24441362917423248,0.1461053490638733,0.09012363851070404
16.85,0.15530943870544434,0.057648688554763794,-0.12052933126688004,0.23986497521400452,0.13114771246910095,0.059716857969760895
16.9,0.011576848104596138,0.0847788080573082,-0.08073192834854126,0.17607757449150085,0.12272455543279648,0.03272738680243492
16.95,0.2189597338438034,0.22105127573013306,-0.12480784207582474,0.14646732807159424,0.10029486566781998,0.006012688856571913
17.0,0.278991162776947,-0.04094124585390091,0.03421531990170479,0.10450771450996399,0.07179692387580872,-0.04995403811335564
17.05,-0.2711387872695923,0.29195311665534973,-0.08009961247444153,0.0023761603515595198,0.012117356993258,-0.03953341394662857
17.1,0.04806548357009888,0.14565563201904297,0.04738203063607216,-0.039212942123413086,0.017577936872839928,-0.06272013485431671
17.15,0.1719037890434265,0.20827968418598175,-0.2083262950181961,-0.038425613194704056,0.04169134795665741,-0.0023045160342007875
17.2,0.1814405620098114,0.055914927273988724,-0.20961351692676544,-0.04378802701830864,-0.00942931603640318,-0.04729897901415825
17.25,0.23530131578445435,0.22730353474617004,-0.006885149050503969,-0.08035615086555481,-0.03937248885631561,-0.0441669225692749
17.3,0.3576467037200928,0.15100671350955963,0.008462265133857727,-0.058064382523298264,-0.04485830292105675,-0.05282243713736534
17.35,0.3974441885948181,0.125669464468956,0.2169763445854187,-0.0548749677836895,-0.07837938517332077,-0.09521821141242981
17.4,0.2880464196205139,-0.007064947858452797,0.7355290055274963,0.007531181909143925,-0.05420403182506561,-0.16576367616653442
17.45,0.15854039788246155,0.34819692373275757,0.5914420485496521,0.10092654824256897,-0.005799299571663141,-0.22189798951148987
17.5,-0.09720472246408463,0.2503833770751953,0.20140959322452545,0.10956565290689468,0.0396963506937027,-0.41035571694374084
17.55,-0.12007144093513489,-0.024183284491300583,0.03542175143957138,0.00579536147415638,0.01688234508037567,-0.5017935037612915
17.6,0.0006776787340641022,-0.1839437484741211,-0.0914468765258789,-0.12274077534675598,-0.008264229632914066,-0.48673194646835327
17.65,0.13044202327728271,-0.21147343516349792,-0.3002420961856842,-0.23225149512290955,-0.017501438036561012,-0.3869224488735199
17.7,-0.04654644429683685,0.009245931170880795,-0.32751739025115967,-0.32826077938079834,-0.04927884787321091,-0.2756154537200928
17.75,-0.1622353494167328,0.4014454782009125,-0.09502366930246353,-0.3477090001106262,-0.1064838096499443,-0.11591360718011856
17.8,-0.20282267034053802,0.41606807708740234,0.31493625044822693,-0.27823683619499207,-0.08263754099607468,-0.02290637046098709
17.85,-0.19698011875152588,0.12670132517814636,0.20233039557933807,-0.12211941182613373,0.05812494829297066,0.05601126700639725
17.9,-0.22151441872119904,-0.062359824776649475,0.021511301398277283,0.02814866229891777,0.10023995488882065,0.09163476526737213
17.95,-0.1652531921863556,-0.0669841468334198,-0.20109902322292328,0.09706499427556992,0.08082468062639236,0.08182239532470703
18.0,-0.09945020824670792,-0.1556406468153,0.20159929990768433,0.09991047531366348,0.07376028597354889,0.08920760452747345
18.05,-0.046302277594804764,0.15174388885498047,0.09676641970872879,0.0052713677287101746,0.05069668963551521,0.12989144027233124
18.1,0.19853614270687103,0.07917504012584686,-0.20873506367206573,-0.04158255457878113,0.05108065530657768,0.06171054765582085
18.15,0.13001392781734467,0.1248951107263565,-0.004657534882426262,-0.031133761629462242,0.03586810082197189,0.11246352642774582
18.2,0.08313526213169098,0.41616541147232056,-0.0368550606071949,0.030087191611528397,0.052133817225694656,0.08414918929338455
18.25,0.21221770346164703,0.09786511212587357,0.03709237650036812,0.01969911716878414,0.0350167453289032,-0.017952365800738335
18.3,0.11592165380716324,-0.15395356714725494,0.0006814896478317678,0.0027781962417066097,0.024000659584999084,-0.00836114026606083
18.35,0.15641383826732635,-0.02973269112408161,-0.08488432317972183,0.012954318895936012,-0.010538816452026367,0.009120439179241657
18.4,0.03927624970674515,0.34177589416503906,0.24230556190013885,0.03141985461115837,0.013802631758153439,-0.03538774326443672
18.45,0.2959127426147461,0.033212482929229736,1.0523734092712402,0.1314777284860611,0.17000077664852142,-0.11723572015762329
18.5,0.05485725402832031,-0.23571977019309998,0.3671542704105377,0.12548036873340607,0.2734554409980774,-0.1383907049894333
18.55,0.05030876398086548,0.34706416726112366,-0.71137535572052,-0.012235291302204132,0.21862298250198364,0.00897626020014286
18.6,0.051413461565971375,0.3442241847515106,-0.9582785367965698,-0.008718114346265793,0.08275601267814636,0.17826108634471893
18.65,0.026762705296278,-0.025643233209848404,-0.6707223653793335,-0.066310353577137,-0.09117311239242554,0.22714094817638397
18.7,0.10027115046977997,0.18688400089740753,-0.32041770219802856,-0.09357359260320663,-0.16841894388198853,0.09007933735847473
18.75,0.25525179505348206,0.3791675865650177,0.12454722076654434,-0.06499913334846497,-0.17761455476284027,0.04558853805065155
18.8,-0.034511759877204895,-0.0174751877784729,0.32315295934677124,-0.0891355648636818,-0.12447303533554077,-0.022286061197519302
18.85,0.015480145812034607,-0.16015438735485077,0.1847049444913864,-0.10161169618368149,-0.07803705334663391,-0.03354455530643463
18.9,0.11286378651857376,0.13397598266601562,0.12012555450201035,-0.025341030210256577,-0.0473119355738163,-0.022322406992316246
18.95,0.11327247321605682,0.08368205279111862,0.08252081274986267,0.009011240676045418,-0.06537114083766937,-0.044609323143959045
19.0,0.0033758869394659996,0.225496307015419,0.08050663769245148,0.017325442284345627,-0.05520845577120781,0.004361273255199194
19.05,0.0932752788066864,0.2628755569458008,0.09080609679222107,0.01702228933572769,-0.02938895858824253,0.053379401564598083
19.1,0.08415435254573822,0.09498123079538345,-0.1314413845539093,-0.009765391238033772,-0.016533512622117996,0.08633703738451004
19.15,-0.04437185451388359,-0.17030999064445496,-0.28005993366241455,-0.04475099965929985,-0.09283550828695297,0.056296102702617645
19.2,-0.01799202337861061,0.19945921003818512,-0.6244568824768066,-0.126392662525177,-0.21736276149749756,0.12261519581079483
19.25,0.21406415104866028,0.3728114366531372,-0.4983358085155487,-0.1513609141111374,-0.3579258620738983,0.10894789546728134
19.3,0.05683119595050812,-0.22845369577407837,0.14951272308826447,-0.10523229092359543,-0.44589290022850037,0.05785471573472023
19.35,0.1235196441411972,0.4308805763721466,0.18730373680591583,-0.14833694696426392,-0.4713863134384155,0.06351909041404724
19.4,-0.19830945134162903,0.28086379170417786,-0.049981530755758286,-0.09791067987680435,-0.48180195689201355,0.05178282782435417
19.45,-0.17491048574447632,-0.21314533054828644,0.209920734167099,-0.0572831891477108,-0.4421684443950653,0.03172759339213371
19.5,0.3518649935722351,-0.04570794850587845,1.3796513080596924,-0.04778379201889038,-0.36246272921562195,-0.12959355115890503
19.55,0.1369531750679016,0.10650233924388885,1.1786677837371826,0.04824933409690857,-0.15379542112350464,-0.1434108316898346
19.6,0.22734613716602325,0.4386920928955078,0.38909289240837097,0.12233560532331467,0.1394941657781601,-0.14337719976902008
19.65,0.031543102115392685,0.19083870947360992,0.7601718306541443,0.23291920125484467,0.31665006279945374,-0.38122668862342834
19.7,0.4055061638355255,-0.4149762690067291,0.5624221563339233,0.23216065764427185,0.5110074877738953,-0.4022812247276306
19.75,-0.05593240261077881,-0.2685611844062805,-1.2205220460891724,0.2082703560590744,0.41257214546203613,-0.006821122020483017
19.8,0.22712334990501404,0.5135625004768372,-1.1671054363250732,0.09266602993011475,0.1840684413909912,0.10413376241922379
19.85,0.19129224121570587,0.42920389771461487,0.7708591818809509,-0.05092863738536835,0.03824639320373535,-0.02964678592979908
19.9,-0.23363572359085083,0.30260738730430603,0.9415661096572876,-0.019797075539827347,0.09644967317581177,0.07482749223709106
19.95,-0.2423325777053833,0.07200923562049866,-0.7909944653511047,0.0858052521944046,0.23842383921146393,0.12350793182849884
20.0,-0.24005678296089172,-0.07108963280916214,-0.696322500705719,0.03525860235095024,0.13205641508102417,0.0743694081902504
20.05,-0.26508402824401855,-0.2652760148048401,0.1711680293083191,0.016738949343562126,0.05236672982573509,0.01549573428928852
20.1,-0.09245762228965759,-0.223334401845932,0.30603328347206116,0.12943820655345917,0.11142710596323013,0.07572904229164124
20.15,0.25682511925697327,0.18619541823863983,-0.13275083899497986,0.12640607357025146,0.06992850452661514,0.08755690604448318
20.2,0.19280703365802765,0.4895869791507721,-0.43365705013275146,0.03700454160571098,-0.02355901524424553,0.09051709622144699
20.25,0.1741093397140503,0.28321459889411926,0.06001878157258034,0.01688293181359768,-0.06796388328075409,0.04055400937795639
20.3,0.12166941165924072,0.30949974060058594,0.1835288107395172,0.05200471356511116,-0.03465798497200012,0.056029513478279114
20.35,0.14153259992599487,-0.005687696393579245,-0.08898097276687622,0.05425263196229935,8.378189522773027e-05,0.023914000019431114
20.4,0.15745998919010162,0.1208982765674591,-0.08559822291135788,0.016422783955931664,-0.033482179045677185,0.021522754803299904
20.45,0.012801656499505043,0.15362073481082916,0.015179766342043877,0.01475785207003355,-0.053912919014692307,0.009209010750055313
20.5,0.0940883457660675,0.05014137923717499,-0.200932115316391,0.015303373336791992,-0.042313773185014725,0.03441339731216431
20.55,-0.04104863107204437,-0.015733668580651283,-0.29173362255096436,-0.020123906433582306,-0.07162094861268997,0.04861333221197128
20.6,-0.04611524939537048,0.27677255868911743,-0.1296672374010086,-0.06106436997652054,-0.09738501906394958,0.07210440933704376
20.65,0.1112818494439125,0.12032129615545273,-0.03221796452999115,-0.05152185633778572,-0.08577506989240646,0.026703745126724243
20.7,-0.010444633662700653,0.02181433141231537,0.09644623100757599,-0.08586911857128143,-0.08149366825819016,0.013093098998069763
20.75,0.04469844326376915,0.038424476981163025,0.09708525240421295,-0.09656890481710434,-0.0651685893535614,0.02165939286351204
20.8,0.05502164363861084,-0.04700757935643196,0.06448149681091309,-0.08519407361745834,-0.031622033566236496,-0.00101618526969105
20.85,0.2862884998321533,0.03880595415830612,0.07771077007055283,-0.10113456100225449,-0.06362740695476532,0.02376708574593067
20.9,0.1710193008184433,0.14069844782352448,0.012907413765788078,-0.12118692696094513,-0.08627529442310333,0.012607239186763763
20.95,0.30103135108947754,0.16310790181159973,-0.039113208651542664,-0.20773766934871674,-0.13303129374980927,-0.04327741265296936
21.0,0.2194279432296753,0.12365438789129257,-0.02009548805654049,-0.24924519658088684,-0.18018251657485962,-0.04365940019488335
21.05,0.11610016226768494,0.4203214943408966,0.22724108397960663,-0.23169155418872833,-0.22004862129688263,-0.0334903784096241
21.1,0.00844193622469902,0.3419312834739685,0.5568879246711731,-0.09935162961483002,-0.13442909717559814,-0.057247910648584366
21.15,-0.1580849587917328,-0.08392248302698135,0.4967227876186371,0.05558460205793381,-0.05352148786187172,0.015522705391049385
21.2,-0.0038273767568171024,-0.05401802435517311,-0.013305386528372765,0.10597758740186691,0.006825676187872887,0.0015620093327015638
21.25,-0.15259107947349548,0.01123331394046545,0.08505210280418396,0.14366328716278076,0.04513096809387207,-0.04503115266561508
21.3,0.2296307235956192,0.04166599363088608,0.24386446177959442,0.18245410919189453,0.08134504407644272,-0.07506027817726135
21.35,-0.14112570881843567,-0.0016460410552099347,-0.015154140070080757,0.1521676927804947,0.08017581701278687,-0.021387888118624687
21.4,0.15039432048797607,0.17868900299072266,0.13195961713790894,0.1595526784658432,0.10075896978378296,0.02310820296406746
21.45,0.5352343320846558,0.012923188507556915,0.33743196725845337,0.22638742625713348,0.09131278842687607,0.01248344499617815
21.5,0.39164865016937256,0.13924027979373932,0.008178387768566608,0.22047126293182373,0.09496896713972092,0.05437584966421127
21.55,-0.05794506147503853,-0.06955907493829727,-0.17935703694820404,0.2243645042181015,0.07202529907226562,0.012600927613675594
21.6,-0.017857270315289497,0.37191206216812134,-0.24834653735160828,0.19634930789470673,0.024762360379099846,0.06316222250461578
21.65,0.09187333285808563,0.12122824788093567,-0.0971292033791542,0.16525650024414062,-0.011513253673911095,-0.004681958816945553
21.7,-0.09192422032356262,0.06438735127449036,-0.11324434727430344,0.11452112346887589,-0.02065407671034336,-0.015667911618947983
21.75,-0.6587371230125427,-0.4075508117675781,-0.454269140958786,0.031197378411889076,-0.050291508436203,0.058382049202919006
21.8,0.0007918458431959152,0.4743701219558716,-0.40910616517066956,-0.007136394269764423,-0.10849987715482712,0.21863968670368195
21.85,0.44105926156044006,0.4795417785644531,0.31623268127441406,0.04116053134202957,-0.16091814637184143,0.1293734461069107
21.9,0.5450325608253479,0.11155316233634949,0.29307714104652405,0.04400581493973732,-0.07633079588413239,0.024497954174876213
21.95,0.08666291832923889,-0.27708911895751953,-0.1345999389886856,0.03841793164610863,-0.09019771218299866,-0.05555684119462967
22.0,-0.12194997072219849,0.34959134459495544,-0.2934270203113556,-0.044605229049921036,-0.1336146742105484,0.08251706510782242
22.05,-0.04248188063502312,0.3278961479663849,0.007656670641154051,-0.02171366661787033,-0.14560912549495697,0.04552442580461502
22.1,0.199810191988945,0.3136138916015625,0.20634235441684723,0.021837634965777397,-0.12034627050161362,0.04050212725996971
22.15,0.3052087128162384,0.21449565887451172,0.199885755777359,0.04789494350552559,-0.08140314370393753,-0.10295535624027252
22.2,0.1648179441690445,0.0002841414825525135,0.31100302934646606,0.0192696712911129,-0.07741539925336838,-0.11903427541255951
22.25,-0.17756405472755432,0.1459416300058365,0.6804965138435364,0.017136212438344955,-0.03359609097242355,-0.1517130583524704
22.3,-0.4324020445346832,-0.11007609218358994,0.6763505935668945,0.027222629636526108,0.10235773772001266,-0.12053827196359634
22.35,-0.19102045893669128,-0.09967804700136185,-0.04773677513003349,0.0629175454378128,0.28751900792121887,0.0213499516248703
22.4,0.07177497446537018,0.18112953007221222,-0.34582623839378357,-0.0653010681271553,0.22828906774520874,0.014035961590707302
22.45,0.2725006639957428,0.6576234698295593,-0.5428428053855896,-0.12469320744276047,0.18948538601398468,0.09325670450925827
22.5,0.33426469564437866,0.17909815907478333,-0.05342722311615944,-0.04621463641524315,0.12159113585948944,0.07307977229356766
22.55,0.29681286215782166,-0.01590058021247387,-0.16422751545906067,-0.10126415640115738,0.07037654519081116,-0.06731051206588745
22.6,-0.31872811913490295,-0.04183485358953476,0.0829143151640892,-0.14623616635799408,0.0008304669754579663,-0.10895363986492157
22.65,-0.27661386132240295,0.3131857216358185,0.061810050159692764,-0.13862727582454681,-0.016662610694766045,0.07110217958688736
22.7,0.2102552354335785,0.062019363045692444,-0.021033581346273422,-0.04978950694203377,-0.012031911872327328,-0.04337790980935097
22.75,0.19884589314460754,-0.038381628692150116,0.27452152967453003,0.005153469741344452,-0.048178531229496,-0.05828574672341347
22.8,0.17045016586780548,0.01173684187233448,0.17630615830421448,0.06726562976837158,0.006214509718120098,-0.09008762240409851
22.85,0.08141003549098969,-0.011462230235338211,0.1049947664141655,0.03569153696298599,0.0020661603193730116,-0.0801883339881897
22.9,-0.3102570176124573,0.16592122614383698,-0.040301613509655,-0.0006853161030448973,-0.01411352213472128,0.0026250446680933237
22.95,-0.09429777413606644,0.40168383717536926,0.09431423991918564,0.05781072750687599,-0.012106439098715782,0.0366610586643219
23.0,0.34038305282592773,-0.010392197407782078,0.06616047024726868,0.16017881035804749,-0.0003569064137991518,0.03854955732822418
23.05,0.09454543888568878,-0.03486821800470352,-0.13959133625030518,0.19857190549373627,-0.04581570252776146,0.07430486381053925
23.1,0.2611396610736847,-0.022795675322413445,-0.0009889494394883513,0.18131141364574432,-0.05953654274344444,-0.0082551883533597
23.15,-0.04502014070749283,0.16946697235107422,0.10208100825548172,0.10025354474782944,-0.05520806461572647,0.007315910421311855
23.2,-0.20890957117080688,0.18964385986328125,0.1501425951719284,0.10058023780584335,-0.005058063194155693,0.014386424794793129
23.25,-0.24460895359516144,0.038526516407728195,0.11463519185781479,0.10120037943124771,0.02596425637602806,0.06762769818305969
23.3,-0.029070088639855385,0.2980375587940216,-0.052450478076934814,0.10117463767528534,0.02204500511288643,0.12522704899311066
23.35,-0.008389103226363659,0.2420969307422638,0.00484878895804286,0.11257213354110718,0.02596278116106987,0.06738777458667755
23.4,0.07302286475896835,0.30684858560562134,-0.13157150149345398,0.041215285658836365,0.0376087911427021,0.10084781795740128
23.45,0.2798657715320587,0.10542681813240051,-0.08450507372617722,0.0343230776488781,0.05037597939372063,0.015216713771224022
23.5,0.13265371322631836,0.05207537114620209,0.13144268095493317,0.015388257801532745,0.005001980811357498,0.026912599802017212
23.55,-0.027541594579815865,0.043678294867277145,-0.03664844483137131,0.011353928595781326,0.015977531671524048,0.01957128942012787
23.6,-0.015186694450676441,0.05736925080418587,-0.05690750852227211,0.020075982436537743,0.0037596342153847218,0.024947909638285637
23.65,-0.26556089520454407,0.458834707736969,-0.06515946984291077,0.025444895029067993,-0.01660330966114998,0.0528482161462307
23.7,0.02967352233827114,0.16322706639766693,0.18991737067699432,0.04479847848415375,-0.019026750698685646,-0.0013453435385599732
23.75,0.13251198828220367,0.13947579264640808,0.28181806206703186,0.059301119297742844,0.010608156211674213,-0.01519749779254198
23.8,0.04978542774915695,-0.012988148257136345,0.3151105046272278,0.06246432289481163,0.06007944792509079,-0.07067189365625381
23.85,-0.4810981750488281,-0.06680590659379959,0.2884605824947357,0.03778136894106865,0.1446690857410431,-0.0028835313860327005
23.9,0.13030289113521576,0.22079186141490936,-0.0836622342467308,0.06360813975334167,0.231647789478302,0.01963241957128048
23.95,0.18715158104896545,-0.0768260806798935,-0.125589981675148,0.02044028416275978,0.22364789247512817,-0.1068248301744461
24.0,0.46823787689208984,0.17586812376976013,-0.4004315733909607,-0.038416314870119095,0.1317993402481079,-0.06949044018983841
24.05,0.16892899572849274,0.3889094293117523,-0.19669589400291443,-0.1553562730550766,-0.07943055033683777,-0.06152902916073799
24.1,0.31623753905296326,0.3873426020145416,-0.45788633823394775,-0.27421411871910095,-0.14643904566764832,-0.02679729089140892
24.15,-0.0353320874273777,0.18105411529541016,0.06878155469894409,-0.20108363032341003,-0.14724960923194885,0.07503829151391983
24.2,-0.3515317440032959,-0.03026495687663555,0.5318761467933655,-0.01992335170507431,-0.05143902450799942,0.12713131308555603
24.25,-0.04935881868004799,-0.026697253808379173,0.509821355342865,0.06525696814060211,0.0721704512834549,0.10458200424909592
24.3,0.26836127042770386,-0.12871558964252472,0.35465285181999207,0.08770928531885147,0.15756568312644958,0.024850472807884216
24.35,0.1556706428527832,-0.4459019899368286,0.2995942533016205,0.07767505198717117,0.18823622167110443,-0.013672122731804848
24.4,-0.0018310463055968285,0.1430101841688156,-0.12797681987285614,0.03770075738430023,0.163030207157135,0.002058542100712657
24.45,0.07913368195295334,0.3409452438354492,0.09954015910625458,0.04263089597225189,0.15542824566364288,9.139424219029024e-05
24.5,0.06879476457834244,0.1552601009607315,-0.031149258837103844,0.05793048068881035,0.1456097662448883,-0.02442902885377407
24.55,-0.03817303478717804,0.21082697808742523,-0.41679856181144714,0.06841345876455307,0.09547588229179382,0.07330148667097092
24.6,0.08811384439468384,-0.07824894040822983,-0.2348320335149765,0.039858005940914154,0.045230377465486526,0.03847695142030716
24.65,-0.04909288138151169,-0.154361754655838,0.05148185417056084,0.03561105206608772,0.03415582329034805,0.03174222260713577
24.7,0.022598013281822205,0.28076171875,0.12025744467973709,0.023036275058984756,0.04792485758662224,0.04936392232775688
24.75,-0.054181892424821854,0.26052477955818176,-0.08443326503038406,0.002520284615457058,0.027209404855966568,0.0033427898306399584
24.8,0.09783191978931427,0.10730749368667603,-0.2557586133480072,-0.008456703275442123,-0.031534548848867416,-0.016432927921414375
24.85,0.27395927906036377,0.18545058369636536,-0.10131481289863586,-0.04871153458952904,-0.03826271742582321,-0.04142476245760918
24.9,0.23208510875701904,0.3532715141773224,0.041525471955537796,-0.12293672561645508,-0.06371315568685532,-0.06896521151065826
24.95,0.08264629542827606,0.29868412017822266,0.2204471081495285,-0.1268131583929062,-0.06117021664977074,-0.06809740513563156
25.0,0.2914102077484131,0.034251172095537186,0.2683223485946655,-0.09381037205457687,-0.03425941243767738,-0.0828351303935051
25.05,-0.24585914611816406,-0.12408839166164398,0.5036805272102356,-0.05329177528619766,-0.027795325964689255,-0.04826630651950836
25.1,-0.18190217018127441,0.17922593653202057,-0.01771402172744274,0.01868155226111412,0.12776479125022888,0.003480734070762992
25.15,0.043147437274456024,-0.11429119855165482,-0.055463243275880814,-0.030794989317655563,0.16031238436698914,-0.05651813745498657
25.2,-0.0701959952712059,0.2553320527076721,-0.1688648909330368,-0.05908690020442009,0.15376214683055878,0.004861342720687389
25.25,0.1392391473054886,0.1534786820411682,-0.24336346983909607,-0.0075454870238900185,0.13574478030204773,-0.02604762651026249
25.3,0.0714552104473114,0.3100557029247284,0.38283640146255493,-0.04198572784662247,0.11161726713180542,-0.09434983134269714
25.35,0.2856084108352661,0.0847807303071022,-0.15114302933216095,-0.003214577678591013,0.08275306969881058,-0.11043712496757507
25.4,-0.10093346238136292,0.08547506481409073,-0.5174338817596436,-0.051137398928403854,-0.06951750069856644,-0.055897582322359085
25.45,-0.1695983111858368,0.05826084315776825,0.4578796327114105,-0.09126615524291992,0.031130123883485794,-0.0477597638964653
25.5,-0.20586851239204407,-0.13292129337787628,0.29923760890960693,-0.010295295156538486,0.11762060970067978,-0.09114623814821243
25.55,0.07013420760631561,0.18591029942035675,-0.30748218297958374,0.0027910745702683926,0.14733323454856873,-0.025374002754688263
25.6,0.31854984164237976,0.2885666489601135,-0.12263685464859009,0.03593289107084274,0.08999055624008179,-0.11704179644584656
25.65,0.2863835394382477,0.10371208935976028,0.07947070896625519,0.027919746935367584,-0.028154265135526657,-0.1547049731016159
25.7,0.039417166262865067,0.0009499283623881638,-0.38238364458084106,-0.029775429517030716,-0.14968585968017578,-0.09360755980014801
25.75,-0.15537108480930328,0.1329774409532547,0.3528909981250763,-0.06416387856006622,-0.09152033925056458,-0.02028549648821354
25.8,-0.2826501727104187,-0.01324377115815878,0.510891854763031,0.007912884466350079,0.06206178665161133,-0.03434106707572937
25.85,-0.15859055519104004,-0.05500321090221405,0.19484880566596985,0.0646073967218399,0.17064529657363892,0.0156147675588727
25.9,0.09991252422332764,0.041723307222127914,-0.27969950437545776,0.06560160964727402,0.13842299580574036,0.01148726511746645
25.95,0.6097854375839233,0.3574419319629669,0.05354256555438042,0.0227576345205307,0.07748561352491379,-0.06180771067738533
26.0,0.4856202304363251,0.3076763153076172,0.2698630690574646,0.033089954406023026,-0.029961390420794487,-0.10864648967981339
26.05,0.0722549706697464,0.12924577295780182,0.018901625648140907,0.023766450583934784,-0.09330261498689651,-0.06421153247356415
26.1,-0.20418843626976013,0.2986021637916565,-0.12160176783800125,-0.007967030629515648,-0.10068316757678986,0.069047711789608
26.15,-0.4283060133457184,-0.22952087223529816,0.18660347163677216,-0.004122465383261442,-0.020961100235581398,0.009638238698244095
26.2,-0.10746205598115921,-0.10071661323308945,0.015512318350374699,-0.02740674838423729,0.054167233407497406,0.036682941019535065
26.25,-0.02916053496301174,-0.06330877542495728,0.2835600972175598,0.02834859862923622,0.03682766482234001,0.06698619574308395
26.3,-0.19739755988121033,-0.23405662178993225,0.6284438967704773,0.08333520591259003,0.09506375342607498,0.12529785931110382
26.35,-0.2970733940601349,0.16017819941043854,-0.04558434709906578,0.09392791241407394,0.1600511372089386,0.1768176257610321
26.4,-0.0789133608341217,0.15838919579982758,-0.5368050932884216,0.012768195942044258,0.08474366366863251,0.16204816102981567
26.45,0.022965479642152786,0.13138681650161743,-0.2740257978439331,-0.08581811189651489,0.024026384577155113,0.1298580914735794
26.5,0.10545875132083893,0.45760154724121094,0.41629543900489807,-0.09097914397716522,0.012959077022969723,0.1055082231760025
26.55,0.09514365345239639,0.24917496740818024,0.7585378885269165,-0.04481415078043938,0.09712079912424088,0.019982194527983665
26.6,0.1338096410036087,0.10292433202266693,0.19511500000953674,0.047741204500198364,0.2149706482887268,-0.014650583267211914
26.65,0.0693325400352478,0.14339371025562286,-1.019811987876892,0.05041529983282089,0.10610448569059372,0.013471503742039204
26.7,0.2207670360803604,0.3187047243118286,-0.41788721084594727,-0.04843032732605934,-0.06293946504592896,-0.01805143803358078
26.75,0.1324695646762848,0.0992249846458435,0.41703280806541443,-0.004764559678733349,-0.1463329792022705,-0.08045995235443115
26.8,-0.15473277866840363,0.19361595809459686,-0.11274316906929016,0.01168951764702797,-0.09768568724393845,0.03250568360090256
26.85,-0.00034179165959358215,0.08505256474018097,-0.37503111362457275,-0.06054859608411789,-0.12471872568130493,0.025131259113550186
26.9,-0.03494150936603546,0.0007209557224996388,0.12179137021303177,-0.0910024493932724,-0.1438378244638443,0.025953201577067375
26.95,0.2135392725467682,-0.05626298859715462,0.07656682282686234,-0.011372140608727932,-0.10030374675989151,0.012807447463274002
27.0,0.2586251199245453,-0.21190929412841797,-0.16380293667316437,-0.033067598938941956,-0.09775488823652267,0.06631481647491455
27.05,-0.01379133015871048,0.03563403710722923,0.04229147732257843,-0.057799603790044785,-0.1335926055908203,0.12289894372224808
27.1,0.500344455242157,0.44811537861824036,0.12068402767181396,-0.05440991371870041,-0.14709866046905518,0.12103569507598877
27.15,0.287747323513031,0.2348928451538086,0.17484213411808014,-0.04176171123981476,-0.07544691860675812,0.035134557634592056
27.2,0.19003954529762268,0.3520832061767578,0.20161235332489014,-0.04084250330924988,-0.042690031230449677,0.044086940586566925
27.25,0.11945760250091553,0.34332275390625,0.09277889877557755,-0.03918715938925743,0.010913577862083912,-0.059432853013277054
27.3,0.3576943278312683,-0.0025845251511782408,0.40222468972206116,-0.05298621580004692,-0.004223358817398548,-0.1259443610906601
27.35,-0.3191814422607422,-0.1826878786087036,0.5826759934425354,0.03752274811267853,0.09205425530672073,-0.07568030804395676
27.4,-0.2892698049545288,-0.27527517080307007,-0.5429105758666992,0.09131534397602081,0.17940369248390198,-0.04509339854121208
27.45,-0.24629095196723938,0.14511795341968536,-1.0222985744476318,-0.011044446378946304,0.05396300554275513,0.028964346274733543
27.5,0.2552374005317688,0.49043282866477966,-0.17148062586784363,-0.05457707494497299,-0.07947468012571335,-0.0445893332362175
27.55,-0.0008106119930744171,0.1821059137582779,0.6287523508071899,0.043003033846616745,-0.12541906535625458,-0.052070967853069305
27.6,-0.02998637966811657,0.14103032648563385,0.03288223221898079,0.005987696349620819,-0.03588033467531204,0.024359438568353653
27.65,-0.24628934264183044,0.007782973349094391,-0.22086569666862488,-0.08833537250757217,-0.06593871116638184,-0.03219033405184746
27.7,-0.19512315094470978,0.07161710411310196,0.1573144793510437,-0.06528174132108688,-0.08359548449516296,-0.026291916146874428
27.75,-0.041425131261348724,0.045516934245824814,0.20133934915065765,0.025843195617198944,-0.0014111497439444065,0.0038054739125072956
27.8,0.16817855834960938,0.1844358593225479,0.004979522433131933,0.05510789528489113,0.006853692699223757,-0.009382911957800388
27.85,0.24296003580093384,0.15519331395626068,0.2103567272424698,0.07481525093317032,-0.015242454595863819,-0.03257976844906807
27.9,0.17810474336147308,0.26283931732177734,0.14997556805610657,0.06803152710199356,-0.03866126015782356,-0.04731116071343422
27.95,0.14851756393909454,0.1778002381324768,-0.21093939244747162,0.05203092098236084,-0.06464483588933945,-0.10756082087755203
28.0,0.3358823359012604,0.18842031061649323,0.11423420161008835,-0.00018535926938056946,-0.12605591118335724,-0.12236488610506058
28.05,-0.24418148398399353,-0.2754060924053192,0.9306119084358215,0.017170283943414688,-0.10491453111171722,-0.11919397115707397
28.1,-0.3341786861419678,-0.13886454701423645,0.09151221066713333,0.12122702598571777,0.0863955020904541,0.03370962664484978
28.15,-0.2618304491043091,-0.2975711226463318,-0.5578328967094421,0.06915082037448883,0.1265517920255661,0.01605871692299843
28.2,0.1463015079498291,0.39474305510520935,-0.09347187727689743,-0.04739558696746826,0.07526031881570816,0.08997823297977448
28.25,-0.015606098808348179,0.3383150100708008,0.2371664196252823,0.0512874536216259,0.027164161205291748,0.09894496947526932
28.3,-0.040614932775497437,0.19260796904563904,-0.37823811173439026,0.0626983493566513,0.039470527321100235,0.13657259941101074
28.35,0.25426366925239563,0.18247422575950623,-0.4096338450908661,-0.06198998540639877,-0.047611482441425323,0.017703285440802574
28.4,-0.08607124537229538,0.2657727897167206,0.25646665692329407,-0.15005016326904297,-0.15984368324279785,-0.03536554053425789
28.45,0.17966853082180023,0.35574814677238464,0.2663891315460205,-0.12598925828933716,-0.1219787746667862,-0.08402755111455917
28.5,0.30210283398628235,0.09873580932617188,0.11622095853090286,-0.058840516954660416,-0.1055331826210022,-0.14167889952659607
28.55,0.22410336136817932,0.2154502272605896,0.5558175444602966,0.008672114461660385,-0.10226795077323914,-0.18279896676540375
28.6,-0.050261240452528,-0.13126103579998016,0.8375250697135925,0.091965451836586,0.008452498354017735,-0.17201334238052368
28.65,-0.4152684211730957,-0.24137607216835022,0.6689851880073547,0.15322646498680115,0.09696169942617416,0.11661267280578613
28.7,-0.621647298336029,0.6351903080940247,-1.2437797784805298,0.06905029714107513,0.1699543297290802,0.6568499207496643
28.75,-0.2343933880329132,-0.49882981181144714,-0.47869062423706055,0.07149994373321533,0.22725792229175568,0.07329666614532471
28.8,-0.31970441341400146,0.08629218488931656,0.4601399898529053,0.07631421089172363,0.14023055136203766,0.1857938915491104
28.85,-0.021023955196142197,0.3724403381347656,0.16364486515522003,0.10455575585365295,0.31544360518455505,0.23278957605361938
28.9,0.27648380398750305,-0.1366243064403534,-0.2495054006576538,0.16490228474140167,0.36781781911849976,0.14456702768802643
28.95,0.21700848639011383,-0.24065884947776794,0.32005688548088074,0.16489121317863464,0.2935154438018799,0.06734009832143784
29.0,0.1442938894033432,0.12188626080751419,0.06762135773897171,0.11917359381914139,0.2865813970565796,0.03935781866312027
29.05,0.19621708989143372,0.6918670535087585,-0.5801630020141602,0.0669156163930893,0.18310582637786865,0.03834863752126694
29.1,0.2368478775024414,0.4196787476539612,-0.04693736508488655,0.07282821089029312,0.09988513588905334,0.0013182255206629634
29.15,0.2855447828769684,-0.11992454528808594,-0.06766707450151443,0.08173948526382446,0.06623011082410812,-0.06907504796981812
29.2,0.23924848437309265,0.09446343779563904,-0.42154332995414734,0.0006571128033101559,-0.027094293385744095,-0.057411473244428635
29.25,0.18175777792930603,0.16355039179325104,-0.01754053123295307,-0.02269899658858776,-0.11702878773212433,-0.08339465409517288
29.3,0.20489712059497833,0.16441822052001953,0.12426096946001053,0.025678273290395737,-0.12402904033660889,-0.03806918486952782
29.35,0.25304150581359863,-0.021316509693861008,-0.09521462768316269,0.008434370160102844,-0.12625063955783844,-0.018157877027988434
29.4,0.1871149092912674,0.13109970092773438,0.0716964453458786,-0.009875013493001461,-0.1413719356060028,0.028781387954950333
29.45,0.29167044162750244,0.08306693285703659,0.10618630796670914,-0.003391148755326867,-0.13941501080989838,0.011240744963288307
29.5,0.19189798831939697,0.2912864685058594,0.14433127641677856,0.0009538214653730392,-0.09754540771245956,0.033042795956134796
29.55,0.2848360240459442,0.24623967707157135,0.09757069498300552,-0.01700747013092041,-0.08095236867666245,-0.012444340623915195
29.6,0.37930333614349365,0.4040165841579437,-0.12586326897144318,-0.07217898219823837,-0.10708700120449066,-0.03312944248318672
29.65,0.3370616137981415,0.35657602548599243,-0.13053235411643982,-0.08623891323804855,-0.12644082307815552,-0.1133713647723198
29.7,0.2322983592748642,0.27760979533195496,0.34352943301200867,-0.08538024872541428,-0.14474788308143616,-0.22062388062477112
29.75,-0.11730334162712097,0.19659791886806488,0.9211516976356506,-0.04123595729470253,-0.15510468184947968,-0.2406967431306839
29.8,-0.5779422521591187,-0.24279791116714478,0.10437491536140442,0.08618512004613876,-0.015070946887135506,-0.18019172549247742
29.85,-0.5109319090843201,-0.1424340158700943,-0.7331244945526123,-0.06465508788824081,-0.09366138279438019,0.043377507477998734
29.9,-0.2957424521446228,-0.1720818132162094,-0.8501099348068237,-0.29406461119651794,-0.1609918177127838,-0.07850641757249832
29.95,-0.37917616963386536,-0.10149574279785156,-0.1264425814151764,-0.20478329062461853,-0.19014348089694977,-0.08947818726301193
30.0,-0.08758619427680969,0.08176321536302567,0.3112552762031555,-0.15840990841388702,-0.1224631667137146,8.946610614657402e-05
30.05,-0.11925499141216278,0.26326653361320496,0.32015377283096313,-0.17526639997959137,-0.0807269737124443,0.07936737686395645
30.1,-0.12784436345100403,0.09839912503957748,0.3035106360912323,-0.06718264520168304,-0.08462734520435333,0.06025949865579605
30.15,0.2516445517539978,-0.02192407287657261,0.3095351755619049,0.0058746314607560635,0.0016416712896898389,0.019258351996541023
30.2,0.05144215002655983,-0.18950948119163513,0.3401130735874176,0.06418103724718094,0.03709718957543373,-0.03470198065042496
30.25,0.0023184753954410553,0.051992397755384445,0.15544672310352325,0.13535815477371216,0.09828194975852966,0.09375889599323273
30.3,0.09560434520244598,0.35823920369148254,-0.06228051707148552,0.20395201444625854,0.1449451446533203,0.15088330209255219
30.35,0.17242591083049774,0.25465869903564453,0.11082538962364197,0.15592187643051147,0.12856563925743103,0.04528828710317612
30.4,0.21352311968803406,0.11938005685806274,-0.2456478476524353,0.031045328825712204,0.102389857172966,-0.018780168145895004
30.45,0.15079417824745178,0.1391955465078354,-0.5317342877388,-0.036932673305273056,0.02749771811068058,-0.03177311643958092
30.5,0.13777372241020203,0.34621816873550415,-0.21771499514579773,-0.016966817900538445,-0.07653257995843887,-0.0302237868309021
30.55,-0.12124543637037277,-0.10500913113355637,0.18388071656227112,-0.004443048033863306,-0.09708424657583237,-0.06272738426923752
30.6,0.10646180808544159,0.002893405267968774,0.24768714606761932,0.033692847937345505,-0.08291048556566238,-0.051524482667446136
30.65,-0.24856065213680267,-0.0809679627418518,0.27891823649406433,0.02171405777335167,-0.05923270061612129,-0.04645465686917305
30.7,0.04953768476843834,0.21831798553466797,0.19691452383995056,0.0380559079349041,0.012491670437157154,-0.005266364198178053
30.75,0.12514011561870575,-0.10529422014951706,-0.09922794252634048,0.02666248381137848,0.04383695870637894,0.010287612676620483
30.8,0.12648914754390717,0.09130575507879257,-0.054821714758872986,0.009294860064983368,0.054383743554353714,0.06834312528371811
30.85,0.12926317751407623,0.1380930095911026,-0.002780997660011053,0.03531916067004204,0.050685472786426544,0.02353227138519287
30.9,0.2244139462709427,0.1948586106300354,-0.11964278668165207,0.021019939333200455,0.040222227573394775,0.05375223606824875
30.95,0.1332511305809021,0.024049755185842514,0.05371953174471855,-0.021974917501211166,0.01045524887740612,0.016436543315649033
31.0,0.18149782717227936,-0.00011253220145590603,0.004397435579448938,-0.06010786071419716,0.005429156124591827,0.00812340248376131
31.05,0.19385112822055817,0.28125670552253723,-0.02612553909420967,-0.052054595202207565,0.016864005476236343,0.05001773685216904
31.1,0.13396164774894714,0.21209244430065155,-0.03685460612177849,-0.047764457762241364,0.009691081009805202,0.008223988115787506
31.15,0.24982666969299316,0.04768561199307442,0.11487597972154617,-0.04924366623163223,-0.025805050507187843,-0.001407202915288508
31.2,0.09874343872070312,0.11647603660821915,0.21178875863552094,-0.04105624556541443,0.0016257285606116056,-0.021068809553980827
31.25,0.019355501979589462,-0.16796879470348358,0.18219250440597534,-0.010736580938100815,0.021474050357937813,-0.02367464080452919
31.3,0.040098704397678375,-0.049895353615283966,0.34031838178634644,-0.021762287244200706,0.05278634652495384,0.03127966448664665
31.35,0.10976020246744156,0.4735766351222992,-0.15887373685836792,-0.033881109207868576,0.07522515207529068,0.10780023038387299
31.4,0.15790708363056183,0.3428898751735687,-0.24877311289310455,-0.09425906091928482,0.09213096648454666,0.04876751825213432
31.45,0.1254705786705017,0.37966638803482056,-0.013936461880803108,-0.10269627720117569,0.052288368344306946,0.051103319972753525
31.5,0.012534234672784805,0.2503271698951721,-0.1332819014787674,-0.023734159767627716,0.02068188600242138,-0.04664889723062515
31.55,0.1215447261929512,0.4388619661331177,-0.24875175952911377,-0.0098570566624403,-0.052269838750362396,-0.0896746963262558
31.6,-0.14708726108074188,0.4854183793067932,0.017652438953518867,-0.019492944702506065,-0.13300204277038574,-0.20216035842895508
31.65,0.03703637048602104,0.5997248291969299,-0.11679137498140335,-0.004201618954539299,-0.15757888555526733,-0.2901029884815216
31.7,0.20075145363807678,0.13868246972560883,-0.47200217843055725,-0.03842565789818764,-0.14083662629127502,-0.382968008518219
31.75,0.09007424861192703,0.31244194507598877,-0.4575098156929016,-0.18472585082054138,-0.23977580666542053,-0.2751673460006714
31.8,-0.593173086643219,-0.20031732320785522,-0.5007897615432739,-0.1570645123720169,-0.25143662095069885,-0.3511606752872467
31.85,-0.5168780088424683,-0.7467214465141296,0.47440144419670105,0.038635894656181335,-0.24075248837471008,-0.33651190996170044
31.9,-0.23418475687503815,-1.3575117588043213,0.8192833662033081,-0.08954925835132599,-0.1762905716896057,-0.26355940103530884
31.95,-0.10517715662717819,-0.414948433637619,-0.4745471179485321,-0.19169853627681732,-0.29787737131118774,-0.10226301103830338
32.0,-0.09079574048519135,-0.4683055281639099,-0.6836119890213013,-0.1878681480884552,-0.5159025192260742,-0.08226072788238525
32.05,0.12568765878677368,-0.23183520138263702,-1.0831513404846191,-0.2791907489299774,-0.7923256158828735,0.08368448168039322
32.1,0.785509467124939,0.3619483411312103,-1.6673941612243652,-0.4070834219455719,-1.0492116212844849,0.23871058225631714
32.15,0.5697321891784668,0.38030433654785156,0.3118424415588379,-0.2895602881908417,-1.0803204774856567,0.15038979053497314
32.2,-0.12750984728336334,0.03227504342794418,0.8936805129051208,-0.10248289257287979,-0.9626328349113464,0.053950872272253036
32.25,0.05444531887769699,0.08018961548805237,0.5297077894210815,-0.0715334340929985,-0.7349574565887451,-0.06112651154398918
32.3,0.17487378418445587,0.4165840148925781,0.40848782658576965,-0.10377103090286255,-0.6361434459686279,-0.07364865392446518
32.35,-0.03569585457444191,0.3685893416404724,0.5299807786941528,-0.10572350770235062,-0.5965642929077148,-0.10891738533973694
32.4,0.0012273937463760376,0.0509260892868042,0.7078241109848022,-0.06246579810976982,-0.4213850796222687,-0.10995571315288544
32.45,0.3691633939743042,0.08566278964281082,0.37214186787605286,0.014198420569300652,-0.24977652728557587,-0.07339154183864594
32.5,0.4778709411621094,0.1299295276403427,0.16816897690296173,0.013953604735434055,-0.18265552818775177,-0.030542772263288498
32.55,0.2441379278898239,0.07804294675588608,0.2592454254627228,0.022471224889159203,-0.11716631799936295,-0.0013818888692185283
32.6,0.2221267819404602,0.05875297635793686,0.25534573197364807,0.04248103126883507,-0.04889732599258423,-0.0017498721135780215
32.65,0.02041880041360855,0.14547060430049896,0.1314259022474289,0.06943827867507935,0.023455530405044556,-0.012973647564649582
32.7,0.0565890371799469,0.016497602686285973,0.06392327696084976,0.09455087780952454,0.07786556333303452,0.0024134081322699785
32.75,-0.2449498474597931,-0.41754066944122314,0.3400443196296692,0.056742049753665924,0.16618965566158295,0.1120014637708664
32.8,0.07238519936800003,-0.03022959642112255,0.1434878557920456,-0.07289707660675049,0.2565761208534241,0.3678734004497528
32.85,0.49561628699302673,0.6418591737747192,-0.23108606040477753,-0.027149589732289314,0.22306688129901886,0.38508734107017517
32.9,0.5338802337646484,0.3930264115333557,0.007442237343639135,0.08962593972682953,0.08331751823425293,0.1053071916103363
32.95,0.06447060406208038,0.1540166139602661,-0.6040577292442322,0.2362765222787857,0.0287318117916584,-0.024432441219687462
33.0,0.2646926939487457,0.039016854017972946,-0.6862213015556335,0.3016834557056427,-0.06791291385889053,-0.05148930475115776
33.05,-0.009224630892276764,0.027627142146229744,-0.8304874897003174,0.1491234451532364,-0.1845189779996872,-0.03995684161782265
33.1,-0.03586631268262863,0.7227479219436646,-0.4184843599796295,-0.004669926129281521,-0.35084831714630127,-0.04244641587138176
33.15,-0.03424787521362305,0.26124098896980286,-0.00253717927262187,-0.022989962249994278,-0.4511369466781616,-0.15153592824935913
33.2,-0.2329336404800415,-0.10091118514537811,0.15878522396087646,-0.04129152372479439,-0.4943729639053345,-0.21160325407981873
33.25,-0.20652998983860016,-0.049186769872903824,0.2954525947570801,-0.0250241719186306,-0.44243618845939636,-0.17809021472930908
33.3,-0.08604270964860916,0.14437676966190338,-0.008258195593953133,-0.04682694375514984,-0.3758445084095001,-0.1185530424118042
33.35,-0.09824560582637787,0.13423635065555573,-0.02117125131189823,-0.03123684972524643,-0.2949625551700592,-0.06575831770896912
33.4,-0.2620807886123657,-0.016813285648822784,0.015942804515361786,0.039852552115917206,-0.26747098565101624,-0.026432977989315987
33.45,-0.16591084003448486,0.016462301835417747,0.13617709279060364,0.029616931453347206,-0.17683234810829163,-0.05183206871151924
33.5,-0.16849063336849213,0.011554660275578499,0.31686264276504517,0.04728345945477486,-0.1096937283873558,-0.032414231449365616
33.55,0.009701850824058056,0.02911374345421791,0.16378630697727203,0.0059770881198346615,-0.03805934637784958,-0.01329126674681902
33.6,0.10938368737697601,-0.05008605495095253,0.1624784618616104,-0.03985758125782013,0.027340447530150414,-0.022656193003058434
33.65,0.31514760851860046,0.18935488164424896,0.3020676076412201,-0.00860387459397316,0.05812635272741318,0.04280276596546173
33.7,0.09640997648239136,0.09826086461544037,0.18363206088542938,0.03395716845989227,0.07339992374181747,0.12445739656686783
33.75,0.10828106850385666,-0.48121461272239685,0.12046920508146286,0.023001521825790405,0.09995017200708389,0.13999393582344055
33.8,0.14117026329040527,0.4099904000759125,-0.1747349500656128,-0.02074582874774933,0.15051640570163727,0.1875404566526413
33.85,0.04743877053260803,-0.14464950561523438,-0.05476360395550728,-0.002550913020968437,0.1174054741859436,0.2860381305217743
33.9,0.16579173505306244,-0.04592225328087807,-0.1474551558494568,0.062198489904403687,0.18043451011180878,0.26948603987693787
33.95,0.5642449259757996,0.17284969985485077,-0.16591984033584595,0.06753679364919662,0.1979464888572693,0.23680885136127472
34.0,0.3032114505767822,0.7123920321464539,-0.4957919716835022,0.08975125849246979,0.30678871273994446,0.16018825769424438
34.05,0.29818835854530334,0.45513635873794556,0.04170560464262962,0.11572441458702087,0.3611381947994232,0.05279383808374405
34.1,0.8584372401237488,0.48912930488586426,-0.8938548564910889,0.06734823435544968,0.4290444254875183,-0.019062740728259087
34.15,0.6796283721923828,-0.1169440969824791,-1.2544230222702026,0.05626799538731575,0.3587683439254761,-0.1960940659046173
34.2,0.08281915634870529,-0.5173158645629883,-0.36249110102653503,0.011789673008024693,0.16008417308330536,-0.03437156602740288
34.25,0.29106178879737854,0.2366420328617096,-0.6512216925621033,-0.06339643150568008,0.12679226696491241,-0.0816030204296112
34.3,0.3725436329841614,0.25258463621139526,-0.8108628392219543,-0.048953212797641754,0.05593614652752876,-0.27891960740089417
34.35,0.7902712821960449,0.7067214846611023,-0.5320408940315247,-0.081952765583992,-0.14491263031959534,-0.2484225481748581
34.4,0.6096673607826233,0.26572903990745544,-0.24777430295944214,-0.14374084770679474,-0.38622358441352844,-0.2624019980430603
34.45,0.33421382308006287,-0.5359392762184143,0.009675568901002407,-0.20439325273036957,-0.6017307043075562,-0.2542692720890045
34.5,0.16690845787525177,-0.24493131041526794,0.37107428908348083,-0.23847883939743042,-0.701015055179596,-0.235993891954422
34.55,0.08985362201929092,0.006309433840215206,0.4339744448661804,-0.2030182033777237,-0.7226323485374451,-0.2668914496898651
34.6,-0.09613252431154251,0.03546709567308426,0.3134918808937073,-0.0654500424861908,-0.7423070669174194,-0.33776283264160156
34.65,-0.6157597303390503,0.4205903708934784,0.42833444476127625,-0.046940241008996964,-0.7251314520835876,-0.27399224042892456
34.7,-0.3071099519729614,0.6414632201194763,0.5441237092018127,-0.15568684041500092,-0.6510726809501648,-0.21099433302879333
34.75,-0.20251497626304626,-0.10256582498550415,0.22390291094779968,-0.2611580193042755,-0.549637496471405,-0.18283484876155853
34.8,-0.5547055006027222,-0.47307220101356506,0.528724730014801,-0.2075042873620987,-0.5337825417518616,-0.13948532938957214
34.85,-0.5211548209190369,-0.1752854287624359,0.36760959029197693,-0.15847338736057281,-0.44793274998664856,-0.15115152299404144
34.9,-0.5877741575241089,0.27676865458488464,0.27399367094039917,-0.19100788235664368,-0.4650852084159851,-0.19117027521133423
34.95,-0.9940024018287659,0.23394392430782318,0.20579390227794647,-0.227467343211174,-0.4594058692455292,-0.22473059594631195
35.0,-1.1605451107025146,0.06630035489797592,0.17970816791057587,-0.20647913217544556,-0.3415681719779968,-0.09698556363582611
35.05,-0.6289949417114258,0.406162291765213,0.1630937159061432,-0.07560963928699493,-0.30100366473197937,0.0775052085518837
35.1,-0.3780983090400696,0.42705628275871277,0.4620150923728943,0.013833814300596714,-0.326526939868927,0.08204393088817596
35.15,-1.1186009645462036,-0.2919389605522156,0.7717971205711365,0.07212508469820023,-0.3288083076477051,0.07024212926626205
35.2,-1.1992957592010498,-0.16296018660068512,0.622230052947998,0.1801374852657318,-0.3117077052593231,0.06626403331756592
35.25,-0.8593190908432007,0.19983187317848206,0.5787550806999207,0.2604355812072754,-0.29299870133399963,-0.02465740032494068
35.3,-0.5564014315605164,0.7302370071411133,0.24827717244625092,0.20495909452438354,-0.1878594309091568,-0.041241057217121124
35.35,0.10137294232845306,0.07608985155820847,0.10459379106760025,0.1460694968700409,-0.08103930950164795,-0.03482489660382271
35.4,0.6571152210235596,-0.5925836563110352,-0.2155430167913437,-0.020471516996622086,0.03139687702059746,-0.0176138486713171
35.45,0.5902863144874573,-0.8105069994926453,0.24711713194847107,-0.06168965995311737,-0.001675302512012422,0.023380514234304428
35.5,0.005489146336913109,0.36555859446525574,0.2941493093967438,-0.09494946151971817,-0.016645029187202454,0.11847826838493347
35.55,0.9446099400520325,0.5462542176246643,-0.09820552915334702,-0.024659538641572,0.07207592576742172,0.12824420630931854
35.6,1.0732289552688599,0.04415047913789749,-0.6235798597335815,-0.02761952206492424,0.01244750339537859,0.13121353089809418
35.65,0.4595028758049011,-0.15105439722537994,0.020720258355140686,0.025157015770673752,-0.11207432299852371,0.11712910979986191
35.7,0.24952328205108643,-0.08825109899044037,-0.11155781894922256,-0.046142712235450745,-0.026001332327723503,0.0997702032327652
35.75,1.1224219799041748,0.5550795793533325,-0.3854069411754608,-0.19860872626304626,0.05674193426966667,0.0850202664732933
35.8,0.87017422914505,0.2122574895620346,-0.36627811193466187,-0.09012540429830551,0.04451635479927063,0.0727224200963974
35.85,0.5892805457115173,0.07804877310991287,-0.29030829668045044,0.014978494495153427,-0.025604769587516785,0.12554559111595154
35.9,0.4813312590122223,0.24322517216205597,-0.2085288166999817,0.11082732677459717,-0.007329982705414295,0.08989585191011429
35.95,0.483111709356308,0.280862957239151,-0.6118480563163757,0.09820568561553955,0.019803248345851898,0.08352938294410706
36.0,0.48952895402908325,-0.05609498172998428,-0.7927224636077881,0.03345184773206711,-0.007180813234299421,0.06833113729953766
36.05,0.4638647437095642,0.1414128839969635,-0.7550731301307678,0.025106163695454597,-0.005446709226816893,0.005375562701374292
36.1,0.5789661407470703,0.19320213794708252,-0.4209975302219391,0.02453434281051159,0.0025565549731254578,-0.044128987938165665
36.15,0.4781098961830139,0.22802363336086273,-0.3560308814048767,0.07995283603668213,-0.03293854743242264,-0.0324983075261116
36.2,0.3710167407989502,0.16513732075691223,-0.09945785254240036,0.16882073879241943,-0.08779505640268326,-0.03496412932872772
36.25,-0.09235268831253052,-0.08322715759277344,-0.053198955953121185,0.20393569767475128,-0.13010941445827484,0.01173324417322874
36.3,-0.19780239462852478,-0.05086038261651993,-0.18822751939296722,0.14592036604881287,-0.09130404144525528,0.05823245644569397
36.35,0.0476226843893528,0.0012903406750410795,-0.1043253168463707,0.10446379333734512,-0.03545170649886131,0.03809410333633423
36.4,0.09759696573019028,0.037920042872428894,-0.22069479525089264,0.03585759550333023,-0.02924167737364769,0.03357362747192383
36.45,-0.05452636629343033,0.09209826588630676,-0.14920781552791595,0.023747852072119713,-0.05855903401970863,0.05763540044426918
36.5,-0.1330745816230774,0.08590028434991837,0.14222751557826996,0.04242413491010666,-0.060797203332185745,0.032568734139204025
36.55,-0.26641055941581726,0.23261740803718567,0.0023482709657400846,0.02165742963552475,-0.04126046597957611,-0.017467493191361427
36.6,-0.0648314356803894,0.043726906180381775,0.10275144875049591,-0.03649076819419861,-0.012062059715390205,-0.02551821991801262
36.65,-0.07842608541250229,0.16687963902950287,0.15678253769874573,-0.0402982272207737,0.004764281213283539,-0.041933007538318634
36.7,-0.0909036248922348,0.1354503482580185,0.16369669139385223,-0.01486223191022873,0.016110802069306374,-0.07946104556322098
36.75,-0.16387759149074554,0.06606099754571915,0.1441899687051773,-0.0014133802615106106,0.02783687599003315,-0.10107047110795975
36.8,-0.1325588971376419,0.15842054784297943,0.12141822278499603,0.019819986075162888,0.05195043981075287,-0.11113955080509186
36.85,-0.3118496835231781,0.05917166545987129,0.09013036638498306,0.027857450768351555,0.08420270681381226,-0.1140236109495163
36.9,-0.16948148608207703,0.0926503986120224,0.11570146679878235,-0.02263990044593811,0.11696191132068634,-0.0863652378320694
36.95,0.10748321563005447,0.12445831298828125,0.0722569152712822,-0.05962781980633736,0.14725840091705322,-0.04070058465003967
37.0,0.028918474912643433,0.06932447850704193,0.1266869604587555,-0.0013657626695930958,0.12857741117477417,-0.03133778274059296
37.05,-0.05997806414961815,-0.10915664583444595,0.14172151684761047,0.06235659494996071,0.11411961168050766,-0.05113280937075615
37.1,-0.6013820171356201,0.0213822890073061,0.20654387772083282,0.015260744839906693,0.12282636761665344,-0.04936583340167999
37.15,-0.10178609192371368,0.2619132697582245,0.3077978789806366,-0.002609607530757785,0.29830074310302734,-0.005677639972418547
37.2,1.1397409439086914,0.55938720703125,0.4574441611766815,-0.049415472894907,0.3258349299430847,0.12265787273645401
37.25,0.45083123445510864,0.501661479473114,-0.6046684384346008,0.12385258823633194,0.16284309327602386,0.017678573727607727
37.3,-0.06549027562141418,-0.17540650069713593,0.14423438906669617,0.2504929006099701,0.03709009662270546,-0.1974690556526184
37.35,-0.9590848684310913,-0.29880812764167786,-0.09215658158063889,-0.0026282016187906265,0.15148471295833588,-0.2026398777961731
37.4,0.20705163478851318,0.019684895873069763,-0.5571501851081848,-0.12086522579193115,0.353846937417984,-0.07237092405557632
37.45,0.5038466453552246,0.32083427906036377,-0.5212427973747253,-0.11760182678699493,0.26672810316085815,0.007527848239988089
37.5,-0.4092942774295807,0.016775120049715042,0.04861884564161301,-0.16373150050640106,0.0783175379037857,-0.036373257637023926
37.55,-0.2530336081981659,0.10000703483819962,0.19389089941978455,-0.188882976770401,0.09871343523263931,-0.0760766863822937
37.6,0.23245814442634583,0.14631180465221405,-0.12362471222877502,-0.1907314509153366,0.15345048904418945,0.045711178332567215
37.65,0.455213725566864,0.11734683811664581,-0.31019338965415955,-0.035213105380535126,0.06705811619758606,0.05364822596311569
37.7,-0.007729129865765572,0.1435270458459854,-0.006320033222436905,0.017074374482035637,-0.053732722997665405,0.027401234954595566
37.75,-0.031023237854242325,0.2000475376844406,-0.04871688783168793,-0.017511719837784767,-0.09995660930871964,0.05804133042693138
37.8,-0.14438068866729736,0.20065028965473175,-0.2551669478416443,0.03663350269198418,-0.11169449985027313,0.07567901164293289
37.85,-0.008643255569040775,0.003190071554854512,-0.1712019294500351,0.04829832538962364,-0.14955320954322815,0.06292125582695007
37.9,0.003641897812485695,0.36879926919937134,-0.1936166137456894,0.03221679851412773,-0.1308985948562622,0.06198470667004585
37.95,0.09488803148269653,0.24884513020515442,-0.018483320251107216,0.08896694332361221,-0.15468202531337738,0.060513079166412354
38.0,-0.04907684028148651,-0.015030873008072376,0.05311215668916702,0.08027806878089905,-0.19703331589698792,0.07637794315814972
38.05,0.04201006144285202,-0.07653240114450455,0.17702104151248932,0.056491728872060776,-0.17535755038261414,0.04962683096528053
38.1,-0.2691531181335449,-0.07192137092351913,0.061927322298288345,0.02689739316701889,-0.13111993670463562,0.04607147350907326
38.15,-0.008120963349938393,0.18888475000858307,0.04764196276664734,-0.03296930342912674,-0.08191768825054169,0.09504542499780655
38.2,0.4863433241844177,0.2631903290748596,-0.175580695271492,-0.08790571987628937,-0.14035168290138245,0.010116948746144772
38.25,0.2659461498260498,0.0006866473704576492,0.007622030563652515,-0.07288019359111786,-0.20401625335216522,-0.0060789198614656925
38.3,0.043947942554950714,0.04422855004668236,0.04675799980759621,-0.010293416678905487,-0.2536536455154419,0.012564122676849365
38.35,0.023823555558919907,0.2767486870288849,0.006507279351353645,0.01664341613650322,-0.19476498663425446,-0.013062252663075924
38.4,-0.14362004399299622,0.08625789731740952,0.22323668003082275,0.043780576437711716,-0.18453814089298248,-0.0021391231566667557
38.45,-0.14476913213729858,0.11554526537656784,0.1118353083729744,0.03412239998579025,-0.11663076281547546,-0.03314733877778053
38.5,-0.060396868735551834,0.0514364093542099,0.11548922955989838,-0.02000240609049797,-0.07680951803922653,-0.036416810005903244
38.55,0.138613760471344,0.11272622644901276,-0.005917621310800314,-0.03318276256322861,-0.04051746055483818,-0.03568239510059357
38.6,0.06405629217624664,0.08731557428836823,-0.03558596968650818,-0.034713372588157654,-0.024956421926617622,-0.036266688257455826
38.65,0.07649138569831848,0.08562852442264557,-0.0524018257856369,-0.021062858402729034,-0.014502743259072304,-0.048482101410627365
38.7,0.05598440766334534,0.10582253336906433,0.24290703237056732,-0.019516145810484886,0.0072762854397296906,-0.05304335802793503
38.75,-0.1139296367764473,0.09754182398319244,-0.008817239664494991,-0.0020281763281673193,0.052687834948301315,-0.05068192258477211
38.8,0.1200164258480072,-0.012262361124157906,0.09382720291614532,0.0035120330285280943,0.10662662237882614,-0.02691422589123249
38.85,0.06197395175695419,0.03432367369532585,0.12519049644470215,-0.03267049044370651,0.07908739894628525,-0.0233610887080431
38.9,-0.032128456979990005,0.14454461634159088,-0.012116940692067146,-0.03836642578244209,0.0943753644824028,-0.022112669423222542
38.95,0.03480564430356026,-0.01844787783920765,0.007132474333047867,-0.021054929122328758,0.09745597839355469,-0.006654003169387579
39.0,-0.07523760199546814,-0.016947725787758827,-0.12839150428771973,-0.02270442061126232,0.11682133376598358,-0.0006833519437350333
39.05,0.08477243036031723,-0.08630367368459702,-0.23666590452194214,0.015304125845432281,0.12831787765026093,-0.012307760305702686
39.1,-0.020209329202771187,0.25897982716560364,0.03763257712125778,-0.05032350867986679,0.08986927568912506,0.035522885620594025
39.15,-0.10065178573131561,0.4357061982154846,0.015003999695181847,-0.17070487141609192,0.15122362971305847,0.05992600694298744
39.2,-0.45097362995147705,0.19423003494739532,0.37757551670074463,-0.07678192108869553,0.28897953033447266,0.082068532705307
39.25,-0.7568809390068054,-0.15719713270664215,0.5942742824554443,0.029257141053676605,0.36348995566368103,0.08928672969341278
39.3,-0.7774143815040588,-0.12282285839319229,0.4041224718093872,0.02426018938422203,0.4668431282043457,-0.06369853019714355
39.35,-0.20168845355510712,0.5503854751586914,0.20007172226905823,0.05776555463671684,0.5332907438278198,-0.15118539333343506
39.4,-0.6001863479614258,0.3924550414085388,0.6203861832618713,0.17748653888702393,0.6113857626914978,-0.08538180589675903
39.45,-0.5288143754005432,0.19784817099571228,0.964978039264679,0.04702465236186981,0.9066038131713867,-0.05075641721487045
39.5,0.0251923818141222,0.04730316996574402,0.20218278467655182,0.008970215916633606,1.1884500980377197,0.1615419089794159
39.55,1.1670080423355103,0.07070738822221756,-0.27125656604766846,-0.21676915884017944,1.1655882596969604,0.5692461133003235
39.6,0.4237741529941559,0.8832446336746216,0.041638921946287155,0.014973921701312065,0.8430112600326538,-0.05656817927956581
39.65,-0.25974205136299133,0.005207964219152927,0.2716611325740814,-0.0477580651640892,0.7681559324264526,-0.15452325344085693
39.7,-0.1268380731344223,-0.46229368448257446,-0.0843154713511467,0.10561304539442062,0.7368646860122681,-0.1345532387495041
39.75,0.27872756123542786,0.28206074237823486,-0.5429004430770874,0.05571361631155014,0.7279033064842224,-0.19806362688541412
39.8,0.5250790119171143,0.25871190428733826,-0.3221094608306885,0.06904512643814087,0.721583902835846,-0.2303384244441986
39.85,-0.20084035396575928,-0.2532529830932617,-0.16997654736042023,0.08597708493471146,0.6368602514266968,-0.004769401159137487
39.9,0.2830372750759125,-0.12729349732398987,-0.5380793213844299,0.12265206128358841,0.5730862021446228,0.10577895492315292
39.95,0.23742035031318665,-0.23949909210205078,-0.14983069896697998,0.04723919928073883,0.5181422233581543,0.1743907928466797
40.0,-0.1364055722951889,-0.17449189722537994,0.0018010125495493412,0.054486438632011414,0.4471520781517029,0.24604402482509613
40.05,-0.4119746685028076,-0.6075136661529541,1.012497901916504,0.14639906585216522,0.49264609813690186,0.1824721097946167
40.1,-0.0910123959183693,0.04385655000805855,0.407859742641449,-0.015034269541501999,0.5979527831077576,0.20304074883460999
40.15,0.48506712913513184,0.3280651569366455,-1.1359915733337402,-0.11856506019830704,0.5715763568878174,0.23215597867965698
40.2,0.698987603187561,0.08521668612957001,-0.8131793737411499,-0.08561640232801437,0.2760797142982483,0.2044520229101181
40.25,-0.006880005821585655,0.23960112035274506,0.2307215929031372,-0.030471647158265114,0.06318074464797974,0.2630489766597748
40.3,0.13669565320014954,0.5050211548805237,0.034524865448474884,0.07997143268585205,0.11223296076059341,0.29395678639411926
40.35,0.09229876101016998,0.005826007574796677,-0.05402107536792755,0.11553903669118881,0.11579883843660355,0.1429566890001297
40.4,0.11701557785272598,0.09869193285703659,0.14950419962406158,0.05094254016876221,0.12918108701705933,-0.00431356206536293
40.45,0.17022822797298431,0.28223809599876404,-0.2813989222049713,0.04833647608757019,0.10998540371656418,-0.035393282771110535
40.5,0.2352992296218872,0.15102103352546692,-0.10403157025575638,0.0423392727971077,0.027055252343416214,-0.06352842599153519
40.55,0.17936818301677704,0.11309432983398438,0.08404486626386642,0.0056252083741128445,-0.01463655661791563,-0.019503090530633926
40.6,-0.1889936327934265,0.18669991195201874,-0.1924452781677246,0.022981809452176094,-0.03706209361553192,0.009992189705371857
40.65,0.10445572435855865,0.04425816610455513,-0.2494039684534073,0.026147635653614998,-0.0884290412068367,-0.02454475685954094
40.7,-0.07462065666913986,0.011435529217123985,-0.11287400871515274,0.021505536511540413,-0.13025076687335968,-0.008601275272667408
40.75,-0.03415554389357567,-0.1952686607837677,0.028827326372265816,-0.0540352500975132,-0.18802902102470398,-0.05343852937221527
40.8,0.160100519657135,0.19306470453739166,0.11028604209423065,-0.149103045463562,-0.17452962696552277,-0.06268138438463211
40.85,-0.069800965487957,0.25088968873023987,0.7079194784164429,-0.12020054459571838,-0.16674081981182098,-0.04004370793700218
40.9,-0.13340605795383453,0.332391619682312,0.7882323861122131,-0.029976239427924156,-0.009431177750229836,0.03338943421840668
40.95,-0.061111871153116226,0.034383729100227356,0.2694903612136841,0.12118355184793472,0.08899715542793274,0.04857489839196205
41.0,0.017135128378868103,-0.08132648468017578,-0.028334010392427444,0.14332260191440582,0.10794875025749207,0.09897292405366898
41.05,-0.07079985737800598,-0.10818764567375183,-0.25702834129333496,0.13049252331256866,0.049003101885318756,0.12717068195343018
41.1,-0.05852875858545303,0.16602614521980286,-0.08826100826263428,0.03577176481485367,-0.02073981612920761,0.09873654693365097
41.15,-0.11831759661436081,0.2654886543750763,0.07232338935136795,-0.032457850873470306,0.005988487973809242,0.10269307345151901
41.2,0.020471829921007156,0.23974604904651642,0.3937087655067444,-0.02354992926120758,0.05643530935049057,0.04768785834312439
41.25,-0.024302206933498383,0.18738263845443726,0.4284975826740265,0.038430701941251755,0.10914891958236694,-0.00781261082738638
41.3,0.004919493570923805,-0.07156378030776978,0.27835187315940857,0.07924260199069977,0.1486896127462387,-0.050848666578531265
41.35,0.20292839407920837,0.1046982854604721,-0.46864914894104004,0.01760641299188137,0.07888650894165039,-0.03552399203181267
41.4,-0.08007735013961792,0.2053413838148117,-0.0706961378455162,0.07761874049901962,0.008256710134446621,0.037058956921100616
41.45,0.08601976931095123,-0.03698921203613281,-0.0141083262860775,0.1077948734164238,-0.016370128840208054,0.02119196578860283
41.5,0.003366001881659031,0.02514462172985077,-0.23077914118766785,0.033459343016147614,-0.02629772759974003,0.05176922678947449
41.55,-0.08676499128341675,0.10624882578849792,0.22791710495948792,-0.04060095548629761,-0.06799826771020889,0.029426386579871178
41.6,-0.03364049643278122,0.1040773093700409,0.2614694833755493,-0.016873668879270554,-0.023778241127729416,0.019117562100291252
41.65,-0.15513522922992706,0.25565338134765625,0.14683525264263153,0.004224309232085943,0.014273397624492645,0.07529757916927338
41.7,-0.03802265599370003,0.08558082580566406,0.047970231622457504,0.03418875113129616,0.01971694640815258,0.028392117470502853
41.75,0.015436636283993721,-0.0740194320678711,-0.05214551091194153,0.031998295336961746,0.006494899746030569,0.007150054909288883
41.8,0.06233735755085945,0.054675132036209106,-0.11201292276382446,0.006446116138249636,-0.02299731783568859,-0.008429997600615025
41.85,0.03235194832086563,0.12335778027772903,0.0340329147875309,-0.01377579104155302,-0.044032949954271317,-0.01382161770015955
41.9,-0.011040707118809223,0.0785522535443306,0.004223490133881569,-0.02066226862370968,-0.042855147272348404,-0.0019114997703582048
41.95,0.037626318633556366,0.18283656239509583,-0.12091968208551407,-0.014106468297541142,-0.04282931983470917,0.005308474879711866
42.0,0.04380468651652336,0.04373360052704811,0.00064394052606076,0.015562203712761402,-0.07250471413135529,9.148230674327351e-06
42.05,0.002574886428192258,0.19585517048835754,-0.01283797062933445,0.023857034742832184,-0.08436977118253708,0.02944803610444069
42.1,-0.06543293595314026,0.12765125930309296,-0.1615321934223175,0.004680112469941378,-0.09832984209060669,0.014776120893657207
42.15,-0.011885378509759903,0.22873786091804504,-0.04113803431391716,0.004695055540651083,-0.07155247777700424,0.015271363779902458
42.2,0.0710531696677208,0.0706930011510849,0.12574036419391632,0.002699150238186121,-0.04536697641015053,-0.007750955875962973
42.25,0.08008650690317154,0.09672453254461288,-0.03154950961470604,-0.019422762095928192,-0.02529206871986389,-0.02127213403582573
42.3,0.1009615883231163,0.11783792823553085,-0.041593629866838455,-0.03514588251709938,-0.031957097351551056,-0.027911411598324776
42.35,0.09251541644334793,0.03631783649325371,-0.03369099274277687,-0.04427368938922882,-0.018086835741996765,-0.025646289810538292
42.4,0.08005384355783463,0.0664377510547638,-0.13646435737609863,-0.07084903120994568,-0.019974812865257263,-0.0046105943620204926
42.45,0.09411703050136566,0.11789321154356003,0.13550837337970734,-0.07667263597249985,-0.03602469712495804,-0.012274139560759068
42.5,-0.09116746485233307,0.06836605817079544,-0.006264368072152138,-0.12359984964132309,-0.05591566860675812,0.048366282135248184
42.55,0.1151738166809082,-0.10184577852487564,0.15263943374156952,-0.1662091314792633,-0.01826358214020729,-0.026766996830701828
42.6,-0.014169079251587391,-0.07984546571969986,0.16821883618831635,-0.21175506711006165,-0.03250367194414139,-0.06206987798213959
42.65,0.011820031329989433,-0.08805082738399506,-0.14060820639133453,-0.2859426438808441,-0.08027948439121246,-0.017463337630033493
42.7,-0.0023434050381183624,0.23343665897846222,-0.25471052527427673,-0.27407869696617126,-0.11225378513336182,0.047758881002664566
42.75,0.07526197284460068,0.19004251062870026,0.1224038302898407,-0.13937191665172577,-0.12045776098966599,0.10112888365983963
42.8,-0.4709077477455139,-0.05019765719771385,0.23425844311714172,-0.06927910447120667,-0.14524497091770172,0.10891037434339523
42.85,-0.09574054181575775,-0.15150749683380127,0.5439253449440002,-0.062280211597681046,-0.1285112053155899,0.05406375601887703
42.9,-0.344422310590744,0.36300379037857056,-0.13540279865264893,-0.05350600183010101,-0.06567440927028656,0.12331089377403259
42.95,-0.01195021066814661,0.08021261543035507,-0.06842069327831268,0.003829819615930319,-0.11367050558328629,0.06134563311934471
43.0,-0.1458650827407837,-0.007257535122334957,0.39708197116851807,-0.04729235917329788,-0.14203330874443054,0.006076872814446688
43.05,-0.012755262665450573,-0.10919290781021118,0.257529079914093,0.0015618703328073025,-0.10867331922054291,0.0067927781492471695
43.1,-0.13261033594608307,0.196659117937088,-0.023622801527380943,-0.02593606524169445,-0.11161442846059799,0.03392122685909271
43.15,0.20902656018733978,0.22146698832511902,0.3077348470687866,-0.003924498334527016,-0.07838329672813416,-0.02941896580159664
43.2,0.01649283617734909,-0.01661684550344944,0.13074927031993866,-0.015001798048615456,-0.047950517386198044,0.012295657768845558
43.25,0.265245258808136,0.007751469034701586,-0.00014390471915248781,0.005314299836754799,-0.03779005631804466,-0.011482572183012962
43.3,0.02154725044965744,0.27013397216796875,0.10239012539386749,0.019537540152668953,-0.05235219746828079,0.0063158986158668995
43.35,-0.1008043959736824,0.1524381786584854,-0.017590859904885292,0.053721342235803604,-0.027219433337450027,0.021840156987309456
43.4,-0.04913812875747681,0.05220793932676315,0.07612816244363785,0.07524117827415466,-0.008705091662704945,0.017364876344799995
43.45,-0.00206498010084033,0.1822347790002823,-0.006407705135643482,0.07995565235614777,0.013595842756330967,0.03126084804534912
43.5,0.05490471050143242,0.07378008216619492,-0.07279074192047119,0.10708116739988327,0.047381650656461716,0.03629237785935402
43.55,0.3515143394470215,-0.11095046997070312,-0.04599617049098015,0.10856393724679947,0.043786678463220596,0.0500122494995594
43.6,-0.10640513151884079,-0.2756405770778656,0.25181296467781067,0.04630652442574501,0.05660104751586914,0.08324938267469406
43.65,0.14250512421131134,0.4578791558742523,-0.08319272845983505,0.09507590532302856,0.0385892391204834,0.03592380881309509
43.7,-0.2563347816467285,0.43006613850593567,0.06919126212596893,0.08225136995315552,0.06804286688566208,-0.12067940831184387
43.75,0.314571738243103,0.4697170853614807,0.051179125905036926,0.06845713406801224,0.17214402556419373,-0.22578361630439758
43.8,-0.24782738089561462,0.1687440574169159,0.19777974486351013,-0.003106987103819847,0.2297382652759552,-0.2690517008304596
43.85,0.17302478849887848,-0.08737081289291382,-0.3825070261955261,-0.0810403823852539,0.32301145792007446,-0.15147054195404053
43.9,0.2650197744369507,0.5314791202545166,-1.032052755355835,-0.23671120405197144,0.24264664947986603,0.15853457152843475
43.95,0.08198049664497375,-0.2893494963645935,-0.4463113248348236,-0.04685615748167038,0.07531081885099411,-0.07115503400564194
44.0,-0.6558411717414856,-0.5807762742042542,0.0730709433555603,-0.016227981075644493,0.01452593319118023,0.041598424315452576
44.05,-0.3657815456390381,0.04665669798851013,-0.5054237246513367,-0.04779917001724243,0.09448916465044022,0.11431976407766342
44.1,0.13973493874073029,-0.03917215019464493,-0.1404472291469574,-0.03848954662680626,0.05192025005817413,-0.08175557106733322
44.15,-0.40190503001213074,-0.01660635694861412,0.10679961740970612,-0.053331974893808365,-0.04827193543314934,-0.13305765390396118
44.2,0.07364550232887268,-0.012762151658535004,0.45411208271980286,-0.033531129360198975,-0.07239719480276108,-0.1723003089427948
44.25,0.27739226818084717,0.34484100341796875,0.13128122687339783,-0.07400768995285034,-0.022974276915192604,-0.11137843132019043
44.3,0.20190280675888062,0.20911888778209686,-0.09937426447868347,0.03768286854028702,-0.010827123187482357,0.04691934585571289
44.35,0.25686967372894287,0.2075939029455185,0.2760936915874481,0.0866767093539238,-0.0831104964017868,0.052680402994155884
44.4,0.17067047953605652,-0.03017239086329937,0.23588022589683533,0.06620728224515915,-0.08839251101016998,-0.0031022317707538605
44.45,0.1664683222770691,-0.0036192135885357857,0.11828882992267609,0.03236939385533333,-0.11211381107568741,0.013945473358035088
44.5,0.16624443233013153,0.07560060173273087,0.16008499264717102,0.04011702910065651,-0.12349250912666321,0.031998179852962494
44.55,0.10525181144475937,-0.009465223178267479,0.03523958846926689,0.013934969902038574,-0.1424848735332489,0.08441358804702759
44.6,0.16868582367897034,0.5082092881202698,0.05720324069261551,0.023600561544299126,-0.12607228755950928,0.24200838804244995
44.65,0.045937903225421906,-0.15440087020397186,0.19321520626544952,0.08869052678346634,-0.10926970094442368,0.0810118019580841
44.7,0.06913475692272186,-0.01956942491233349,0.1493271440267563,0.06005306914448738,-0.10239043831825256,0.035530976951122284
44.75,-0.003453582525253296,-0.009755188599228859,0.2970563769340515,0.08323053270578384,-0.09246616065502167,0.028815867379307747
44.8,0.004272943362593651,0.25896263122558594,0.10297270864248276,0.07819502800703049,-0.01249638944864273,0.00947872269898653
44.85,0.1287350356578827,0.02285478450357914,0.1321168690919876,0.10064171254634857,0.018415000289678574,-0.046563584357500076
44.9,-0.16307543218135834,0.20000556111335754,-0.03714226558804512,0.07297497987747192,0.09493901580572128,-0.05648266151547432
44.95,0.4713354706764221,0.2890997529029846,-0.10911353677511215,0.09087193757295609,0.10091861337423325,0.020211318507790565
45.0,-0.07472985237836838,0.458651602268219,-0.057036109268665314,0.04928191378712654,0.10613352060317993,0.0320570133626461
45.05,0.21344919502735138,0.20600803196430206,-0.26987960934638977,0.08592577278614044,0.08573019504547119,0.007648573722690344
45.1,0.12656858563423157,0.10797223448753357,-0.40817081928253174,0.10618185251951218,0.050672970712184906,0.03746860846877098
45.15,0.18279939889907837,-0.06042955443263054,-0.13257469236850739,0.08881937712430954,0.0057225218042731285,-0.04856711998581886
45.2,0.06916539371013641,0.09109406173229218,-0.21421782672405243,0.07473835349082947,-0.027494223788380623,-0.06684783101081848
45.25,0.09175210446119308,0.12766748666763306,-0.27652084827423096,0.04747377336025238,-0.06686283648014069,-0.09667029976844788
45.3,-0.060196008533239365,0.2498989701271057,-0.1368645876646042,-0.008887083269655704,-0.11749765276908875,-0.1190796047449112
45.35,-0.07026904076337814,-0.051610108464956284,0.595481276512146,-0.012249620631337166,-0.06595560908317566,-0.22463183104991913
45.4,-0.6836225986480713,0.20140349864959717,0.7615984082221985,-0.04030703753232956,0.05327298119664192,-0.19937969744205475
45.45,-0.08681970834732056,0.7363835573196411,-0.26137465238571167,-0.055815741419792175,0.22209930419921875,-0.12408725172281265
45.5,0.2869780957698822,0.09863290935754776,-0.45727384090423584,-0.0073233237490057945,0.1038338765501976,-0.149342879652977
45.55,-0.22110281884670258,-0.1716604381799698,-0.05583854019641876,-0.01938946731388569,0.06421154737472534,-0.02053220383822918
45.6,0.03869917616248131,0.00030328246066346765,-0.07588983327150345,0.020634256303310394,0.060596104711294174,0.14595367014408112
45.65,-0.14623412489891052,-0.13172534108161926,0.04236917197704315,0.07737883925437927,0.09240888804197311,0.09981964528560638
45.7,-0.09944453835487366,0.015408433973789215,0.4656350910663605,0.047611188143491745,0.1158074140548706,-0.027426613494753838
45.75,-0.11035773158073425,0.3401431441307068,0.5266719460487366,0.07964778691530228,0.20409634709358215,-0.09077779203653336
45.8,0.11470243334770203,0.11003299057483673,0.34041333198547363,0.16182070970535278,0.28273943066596985,-0.09576773643493652
45.85,-0.02248958684504032,-0.42434126138687134,0.023010047152638435,0.12296130508184433,0.25699278712272644,-0.13009558618068695
45.9,0.10324418544769287,-0.006026163697242737,-0.5844806432723999,-0.030174782499670982,0.17659704387187958,-0.023541845381259918
45.95,0.38608548045158386,0.29722708463668823,-0.7721630334854126,-0.12105238437652588,0.07166730612516403,0.039227746427059174
46.0,0.2804061472415924,0.20773513615131378,-0.20581354200839996,-0.13977129757404327,-0.07361072301864624,-0.002356818411499262
46.05,-0.0055538080632686615,-0.010281567461788654,0.02079397439956665,-0.15126191079616547,-0.16682779788970947,-0.037987709045410156
46.1,0.6776541471481323,0.274081289768219,-0.20273427665233612,-0.21924473345279694,-0.16688257455825806,0.06438851356506348
46.15,0.2717060446739197,0.6285829544067383,0.22981826961040497,-0.12674546241760254,-0.217804417014122,0.1486874520778656
46.2,-0.16915954649448395,0.3206843435764313,0.5803883671760559,-0.02076733484864235,-0.2522246539592743,0.10771900415420532
46.25,-0.0067912507802248,0.1416369080543518,-0.22731995582580566,-0.009539349004626274,-0.17106600105762482,0.16349418461322784
46.3,0.227931410074234,-0.1631450206041336,-0.3137991428375244,0.008640713058412075,-0.09357648342847824,0.15514585375785828
46.35,0.07036619633436203,0.015127160586416721,0.13333193957805634,-0.05187498778104782,-0.16778205335140228,-0.0014185933396220207
46.4,-0.22476263344287872,-0.30659493803977966,0.3527902662754059,-0.09534329175949097,-0.17451435327529907,-0.26077979803085327
46.45,-0.14032843708992004,0.18149946630001068,0.1822785884141922,-0.13997167348861694,-0.057521022856235504,-0.11962602287530899
46.5,-0.10065343230962753,0.3945971131324768,0.059965018182992935,-0.05381690338253975,-0.023668676614761353,0.014014143496751785
46.55,0.03976784273982048,-0.03250123932957649,0.09270045161247253,0.023441927507519722,0.015688957646489143,0.04398265480995178
46.6,0.13179339468479156,0.13578510284423828,0.10443855077028275,0.04732587933540344,0.028823573142290115,0.0005600261501967907
46.65,0.04821828380227089,-0.23709969222545624,0.1084030419588089,0.0649312436580658,0.01262261625379324,-0.02304537408053875
46.7,0.07823137193918228,-0.05145162716507912,-0.34090039134025574,-0.008594011887907982,0.02277454547584057,0.12428286671638489
46.75,0.15324698388576508,0.5189639329910278,-0.3968419134616852,-0.06305360049009323,-0.013777059502899647,0.2389560490846634
46.8,0.043906889855861664,0.18682575225830078,0.12221942842006683,0.013158926740288734,-0.04678738862276077,0.1460324376821518
