Time [s],Acc_x [m/s^2],Acc_y [m/s^2],Acc_z [m/s^2],Gyro_x [1/s],Gyro_y [1/s],Gyro_z [1/s]
0.0,0.10470666736364365,-0.1764707714319229,-0.012238489463925362,0.014817845076322556,0.0034202788956463337,0.002906513400375843
0.05,0.03772672265768051,-0.08710957318544388,-0.00399647606536746,0.010550186969339848,-0.005143275950103998,-0.0016248396132141352
0.1,-0.027161292731761932,0.0066404384560883045,-0.02006261795759201,0.005564953200519085,-0.01346546970307827,-0.006202903110533953
0.15,0.05640661343932152,0.006628997623920441,-0.03387326002120972,0.007054082117974758,-0.008414939977228642,-0.005510319489985704
0.2,0.021643221378326416,0.02235603891313076,-0.01904052123427391,0.005779743194580078,-0.008029312826693058,-0.0044969068840146065
0.25,-0.0029355341102927923,-0.05328274145722389,-0.028137922286987305,0.004910956136882305,-0.013057592324912548,-0.002185648074373603
0.3,0.07140325009822845,-0.05595016852021217,-0.006794694345444441,0.009539179503917694,-0.011832842603325844,-0.0011434375774115324
0.35,-0.003075797576457262,-0.044582366943359375,-0.01627020537853241,0.01636800915002823,-0.010207939893007278,0.007235371507704258
0.4,0.04039515182375908,-0.06551933288574219,-0.03472117707133293,0.02000601403415203,-0.02298339270055294,0.007448000367730856
0.45,0.024213075637817383,-0.02391720376908779,0.008061530068516731,0.02223849482834339,-0.008929663337767124,0.0045641944743692875
0.5,0.041536424309015274,-0.015228271484375,-0.006445367820560932,0.021468207240104675,0.00031730515183880925,0.001075737178325653
0.55,-0.022548425942659378,0.009098066948354244,-0.07668717950582504,0.015168989077210426,0.0003256466588936746,-0.0054781814105808735
0.6,-0.0001847902312874794,-0.04224108159542084,-0.09992305189371109,0.01743302308022976,0.015180794522166252,-0.002800366375595331
0.65,0.04921498894691467,-0.022752756252884865,-0.036592815071344376,0.02373860776424408,0.014870001934468746,-0.0005446485010907054
0.7,-0.003909998573362827,-0.0004749251529574394,-0.026689857244491577,0.019595041871070862,0.008518031798303127,-0.007744366303086281
0.75,0.050282638520002365,-0.041594501584768295,-0.04429830610752106,0.011870987713336945,-0.0002591504598967731,-0.0206445399671793
0.8,-0.05994342640042305,-0.04817676171660423,-0.07056557387113571,0.011906212195754051,-0.007418240886181593,-0.027285734191536903
0.85,0.002904636086896062,-0.05342864990234375,-0.04924136772751808,0.012734107673168182,0.006947442889213562,-0.024014558643102646
0.9,0.007917783223092556,-0.0016288767801597714,0.004998089279979467,0.01076488010585308,0.009907053783535957,-0.017431287094950676
0.95,0.033401161432266235,-0.006402968894690275,-0.0053657363168895245,0.007515728008002043,-0.006478307768702507,-0.014802654273808002
1.0,0.05215570330619812,-0.0060701328329741955,-0.024003615602850914,0.0027114436961710453,-0.012785399332642555,-0.01650173030793667
1.05,-0.043750714510679245,-0.03464984521269798,-0.04792047664523125,0.0017420619260519743,-0.007832471281290054,-0.00869468878954649
1.1,0.03780599683523178,-0.03712654486298561,-0.006281922105699778,-0.00045007397420704365,-0.0044671581126749516,-0.00829185638576746
1.15,-0.013269593007862568,0.00011730184633051977,-0.00027193056303076446,-0.007576500065624714,-0.010450098663568497,-0.010182281956076622
1.2,0.028284979984164238,0.020505912601947784,-0.027288248762488365,-0.012291528284549713,-0.021058648824691772,-0.010115244425833225
1.25,0.010224340483546257,0.027875903993844986,0.005553132854402065,-0.01086247619241476,-0.021253174170851707,-0.007497448939830065
1.3,0.03866257891058922,-0.043089866638183594,-0.0121693667024374,-0.006808001082390547,-0.015068997628986835,-0.0034109156113117933
1.35,0.05256406590342522,-0.02289867401123047,-0.0056370277889072895,-0.008123347535729408,-0.013261718675494194,-0.0047187344171106815
1.4,-0.0038017069455236197,-0.020990367978811264,-0.029836485162377357,-0.0076773823238909245,-0.021675879135727882,-0.006472453474998474
1.45,0.044285085052251816,-0.006680487189441919,-0.010315158404409885,-0.00286655081436038,-0.018923697993159294,-0.004813862964510918
1.5,0.021789897233247757,0.026185031980276108,0.0387108214199543,-0.0034400930162519217,-0.0029930169694125652,0.0006935323472134769
1.55,0.07131792604923248,0.009402267634868622,0.049657195806503296,-0.008120350539684296,-0.007233255077153444,-0.007809482980519533
1.6,-0.06890059262514114,0.024804117158055305,0.0020107764285057783,-0.0023536663502454758,-0.015697604045271873,-0.0097908154129982
1.65,-0.032801445573568344,-0.042214393615722656,-0.013954274356365204,0.0038434448651969433,0.0028126488905400038,0.002329873852431774
1.7,0.017059871926903725,-0.03614235296845436,0.00833806674927473,-5.129770579515025e-05,0.0062177833169698715,-0.0017793630249798298
1.75,-0.04311503469944,-0.03910541534423828,-0.015573632903397083,-0.004968422930687666,0.0009745590505190194,-0.007762137800455093
1.8,-0.017661234363913536,-0.006078721024096012,-0.0024202782660722733,0.0021595051512122154,0.01402408815920353,-0.007662855088710785
1.85,-0.1684032827615738,0.030058884993195534,-0.12985117733478546,0.03923603147268295,0.056060951203107834,0.013692226260900497
1.9,-0.031333137303590775,-0.05218790844082832,-0.10333327203989029,0.05509556084871292,0.18933932483196259,0.05503930523991585
1.95,0.15186598896980286,-0.10976223647594452,0.19215044379234314,0.05484551191329956,0.27940139174461365,0.05305139347910881
2.0,0.235094353556633,-0.18033890426158905,0.22157876193523407,0.07743243128061295,0.15054042637348175,0.019097356125712395
2.05,0.271432101726532,-0.06616120785474777,0.26498252153396606,0.013915413990616798,-0.09471862763166428,-0.025986632332205772
2.1,-0.04301029443740845,0.22233203053474426,0.03526664897799492,-0.04037311673164368,-0.3766166567802429,-0.07239634543657303
2.15,-0.3152906596660614,0.30204781889915466,-0.30092835426330566,0.03482072800397873,-0.4268522262573242,0.05429723486304283
2.2,-0.6383193135261536,-1.6437979936599731,-0.6478732228279114,0.1854802966117859,-0.18075917661190033,0.29858240485191345
2.25,-0.38623741269111633,-2.398498296737671,-0.43973037600517273,0.29788556694984436,-0.05006514489650726,0.39985695481300354
2.3,-0.3137741982936859,-0.17493347823619843,0.14490634202957153,0.23326297104358673,-0.12321315705776215,0.36461058259010315
2.35,-0.4161560833454132,-0.06947039067745209,-0.1369411051273346,-0.0003816913813352585,-0.00571858836337924,0.4438738524913788
2.4,-0.13617658615112305,-0.14501279592514038,-0.4220540225505829,-0.42633968591690063,0.28483346104621887,0.5955841541290283
2.45,0.35569092631340027,0.07773219048976898,-0.5126729607582092,-0.7512121200561523,0.5140392184257507,0.540330171585083
2.5,0.3181970715522766,0.2348404824733734,-0.3163127601146698,-1.016270399093628,-0.08015014231204987,0.08440965414047241
2.55,-0.4174923002719879,0.6454696655273438,0.47211286425590515,-1.2179043292999268,-0.9409414529800415,-0.31859639286994934
2.6,0.4139670431613922,0.7237613201141357,1.5664905309677124,-0.8579451441764832,-0.8375202417373657,-0.25488072633743286
2.65,0.9335619211196899,0.9645421504974365,2.1133368015289307,-0.430730938911438,-0.6728348731994629,-0.13749364018440247
2.7,0.5830899477005005,0.46132543683052063,1.5886311531066895,0.0011298712342977524,-0.6560875177383423,-0.27640023827552795
2.75,0.031024543568491936,-0.6197014451026917,0.010484963655471802,0.4863494336605072,-0.7359984517097473,-0.5020642280578613
2.8,-0.5042723417282104,-0.9740808010101318,-1.9832191467285156,0.6258562803268433,-0.9808019399642944,-0.49971675872802734
2.85,-0.8351942896842957,-1.6623064279556274,-3.5359222888946533,0.42190513014793396,-0.8940248489379883,-0.41649100184440613
2.9,-0.6280420422554016,-2.3244075775146484,-3.8888769149780273,-0.19442901015281677,-0.30142247676849365,-0.5154072642326355
2.95,-0.1514270007610321,-1.366174340248108,-2.5384275913238525,-1.1329705715179443,-0.05306006222963333,-0.4398046135902405
3.0,-0.14206013083457947,-0.5859432220458984,-0.3531237542629242,-1.318466305732727,0.04861702024936676,-0.045765865594148636
3.05,0.3278869390487671,0.0738302692770958,1.9286433458328247,-0.8535410761833191,0.34393739700317383,0.08633309602737427
3.1,0.6311798095703125,0.7775084376335144,2.459460973739624,-0.3142606019973755,0.05631238967180252,0.03629094362258911
3.15,0.5039578080177307,0.7071408033370972,1.1611273288726807,-2.230517566204071e-06,-0.20517857372760773,0.03284851089119911
3.2,0.9238185882568359,0.6443670988082886,0.9702045917510986,-0.06499011069536209,0.03751792386174202,0.20379716157913208
3.25,0.9427559971809387,0.4571799337863922,0.9533799290657043,-0.008470157161355019,-0.017124006524682045,0.538160502910614
3.3,0.02726658061146736,0.007296553812921047,0.05525902286171913,0.17376451194286346,-0.552605926990509,0.5477771162986755
3.35,-0.4797864854335785,-0.6589335203170776,-1.1084312200546265,0.25339728593826294,-0.7824967503547668,0.14604966342449188
3.4,-0.3003154993057251,-0.9645146131515503,-1.389083743095398,0.10023169219493866,-0.4264061450958252,-0.052765607833862305
3.45,0.16798105835914612,-0.30362313985824585,-0.4183293282985687,0.011770921759307384,-0.09424968808889389,-0.12344694137573242
3.5,0.2485276609659195,0.2660694122314453,0.1859503835439682,0.1075872853398323,-0.09392352402210236,-0.07619962096214294
3.55,0.12652891874313354,0.05829812213778496,-0.003900788491591811,0.09339512884616852,-0.33475127816200256,0.16873463988304138
3.6,-0.16215398907661438,-0.3275126516819,-0.6309022307395935,0.055442214012145996,-0.492529034614563,0.26186999678611755
3.65,-0.14418292045593262,-0.3765048384666443,-0.7452764511108398,0.039619166404008865,-0.2897467613220215,0.1326228678226471
3.7,-0.12449659407138824,-0.05647652968764305,-0.3997148275375366,0.02910870686173439,-0.06019970774650574,-0.01222161017358303
3.75,-0.13532082736492157,0.0873919129371643,-0.2937370240688324,0.027612006291747093,0.003667390439659357,-0.02387683279812336
3.8,0.15484991669654846,0.19985295832157135,0.08758550137281418,0.010488839820027351,-0.016202691942453384,0.047749120742082596
3.85,0.3070110082626343,-0.05564402788877487,-0.06629031151533127,0.013759477064013481,-0.16633151471614838,0.07737147808074951
3.9,0.12168928235769272,-0.04540719464421272,-0.5799806118011475,0.037215705960989,-0.21121977269649506,0.03802153840661049
3.95,0.24152342975139618,0.03082096576690674,-0.6296125054359436,0.115163154900074,-0.058711666613817215,0.0798625499010086
4.0,1.0828361511230469,-1.1629209518432617,-0.8279421329498291,0.200176402926445,-0.02675350196659565,0.06914876401424408
4.05,0.7743754386901855,-1.726156234741211,-1.2936478853225708,-0.029605569317936897,-0.13678069412708282,-0.03709205985069275
4.1,-0.8887473344802856,-0.33244776725769043,-1.5674054622650146,-0.4188627004623413,-0.17610643804073334,-0.0458221510052681
4.15,-1.3440029621124268,0.25331616401672363,-1.2216541767120361,-0.4519965350627899,-0.07677698135375977,0.0395137220621109
4.2,-0.3777177631855011,-1.1004925966262817,-0.11409396678209305,-0.4148252606391907,-0.031401243060827255,0.09435514360666275
4.25,-0.05796382576227188,-0.8246537446975708,-0.046524398028850555,-0.4922829568386078,-0.09112029522657394,0.04751361906528473
4.3,-0.06829071044921875,-0.3501720428466797,-0.203264057636261,-0.5156830549240112,-0.12826286256313324,-0.0005209861556068063
4.35,0.7288408279418945,-1.5251573324203491,0.40014559030532837,-0.4799872040748596,-0.09388040006160736,0.029109323397278786
4.4,0.6643407344818115,-1.1824092864990234,-0.6186721324920654,-0.4735965132713318,-0.07018113136291504,0.03793705999851227
4.45,0.17703735828399658,-0.22039110958576202,-1.046562910079956,-0.4660707116127014,-0.010238938964903355,0.09401153028011322
4.5,-0.26653552055358887,-0.6424494981765747,0.2212943732738495,-0.4271676242351532,0.026345128193497658,0.15104712545871735
4.55,0.01766926795244217,-2.118485927581787,1.1876591444015503,-0.4363085627555847,0.00962757132947445,0.1951967030763626
4.6,2.1324045658111572,-1.0183976888656616,1.3931788206100464,-0.43735769391059875,0.0041819000616669655,0.17707553505897522
4.65,0.6530581116676331,1.1283999681472778,0.11502117663621902,-0.4200511872768402,0.05743444338440895,0.16829973459243774
4.7,-1.2538033723831177,1.542614221572876,-0.26494643092155457,-0.3156309723854065,0.36026495695114136,0.23424477875232697
4.75,-0.6755707859992981,1.5251963138580322,-0.34900999069213867,-0.1824033409357071,0.6801558136940002,0.14661788940429688
4.8,-0.17924556136131287,1.1059142351150513,0.12566088140010834,-0.5152875781059265,1.117769479751587,-0.07498306781053543
4.85,0.5073221921920776,0.6267402768135071,1.245676875114441,-0.6426184773445129,0.819801926612854,-0.06779039651155472
4.9,-0.2366965413093567,-0.6925477981567383,-0.2548515796661377,-0.06793416291475296,-0.34268108010292053,0.10222815722227097
4.95,-0.6480677127838135,-0.7242897152900696,-1.4146639108657837,0.1665748506784439,-0.6207483410835266,-0.032436635345220566
5.0,-0.08546680212020874,0.13743697106838226,-0.4684825837612152,0.010844027623534203,-0.10329316556453705,-0.16279621422290802
5.05,0.257453054189682,0.10755535960197449,0.2651548683643341,0.0009574508294463158,-0.05771001800894737,-0.01979731023311615
5.1,0.044480081647634506,-0.022205336019396782,-0.10332236438989639,0.15103594958782196,-0.4128042757511139,0.1297333538532257
5.15,0.28071534633636475,-0.15708155930042267,-0.28721874952316284,0.21300530433654785,-0.46246880292892456,0.12594090402126312
5.2,0.34340742230415344,0.05729195103049278,0.24293100833892822,0.13536274433135986,-0.3720758259296417,0.026557784527540207
5.25,0.8151662349700928,0.06078416854143143,1.0632193088531494,0.14108428359031677,-0.4287944436073303,-0.0541154183447361
5.3,1.3457728624343872,-0.2122587114572525,1.9989161491394043,0.3964090645313263,-0.31184613704681396,-0.04605579003691673
5.35,0.23203103244304657,0.5760580897331238,2.187892436981201,0.8398175835609436,-0.14570948481559753,-0.04159572720527649
5.4,-0.4065742790699005,0.7028605937957764,1.7940387725830078,1.1713471412658691,-0.13742846250534058,-0.16648435592651367
5.45,-0.44832098484039307,0.6397826671600342,1.731481909751892,1.4156389236450195,-0.151494562625885,-0.28465819358825684
5.5,-0.6101056337356567,1.0605230331420898,0.8204162120819092,1.5838966369628906,-0.13911254703998566,-0.37399646639823914
5.55,3.7582576274871826,-3.550985097885132,-4.425144672393799,1.5825272798538208,-0.06696146726608276,-0.4207116961479187
5.6,2.6495862007141113,-2.9676010608673096,-5.639091491699219,1.3707358837127686,-0.03568827360868454,-0.3906223177909851
5.65,-2.373875379562378,1.64444100856781,-1.0605347156524658,1.1667652130126953,0.018882086500525475,-0.281940221786499
5.7,-1.8002556562423706,1.6938194036483765,-0.8476795554161072,1.0098682641983032,0.01715763285756111,-0.23414337635040283
5.75,-1.2750095129013062,1.11953866481781,-1.0948997735977173,0.7695426344871521,-0.03394249454140663,-0.20739614963531494
5.8,-0.1545807272195816,-0.49246877431869507,-0.6912623047828674,0.6895163059234619,0.015115538612008095,-0.10086627304553986
5.85,0.6848160624504089,-1.5855568647384644,-1.6648633480072021,0.6388623118400574,0.05202518031001091,-0.060071270912885666
5.9,-0.4575716257095337,-0.3253140151500702,-3.019972085952759,0.49513986706733704,0.036843154579401016,-0.04859946668148041
5.95,-1.2273366451263428,-2.124014139175415,-5.9376749992370605,0.23274482786655426,0.3703632652759552,0.1051289364695549
6.0,-1.4412256479263306,-3.576040744781494,-5.493590831756592,-0.5609919428825378,2.0963640213012695,0.07650808990001678
6.05,-1.3616559505462646,-1.6955820322036743,-3.2164528369903564,-1.6250958442687988,2.838679075241089,-0.0013337129494175315
6.1,-1.068502426147461,-0.8239169716835022,-2.9219653606414795,-2.1694722175598145,1.315245509147644,0.10846813023090363
6.15,-0.6804571151733398,-0.6084410548210144,-2.1781935691833496,-2.211686849594116,0.18319378793239594,0.1955975741147995
6.2,0.053605008870363235,-0.6355608105659485,-1.1723213195800781,-2.0694477558135986,-0.20931413769721985,0.3765634298324585
6.25,0.28445199131965637,-0.2579754889011383,-0.6744717359542847,-1.8989322185516357,-0.651123583316803,0.5875213146209717
6.3,-0.12131817638874054,0.10156343132257462,0.20911598205566406,-1.9947372674942017,-0.8631379008293152,0.7668545246124268
6.35,0.21758954226970673,1.5082918405532837,3.5552239418029785,-2.0782201290130615,-0.5878744721412659,0.8978608846664429
6.4,0.7065634727478027,3.128188371658325,6.567625999450684,-1.3744540214538574,-0.20535343885421753,0.7528603672981262
6.45,1.2367249727249146,1.7401697635650635,5.40177059173584,-0.26429370045661926,0.11435360461473465,0.43720510601997375
6.5,0.1790507584810257,-1.0676738023757935,0.29612159729003906,0.3456844687461853,-0.5352246165275574,0.352789044380188
6.55,-0.3704898953437805,-1.4833143949508667,-1.4706008434295654,0.11347522586584091,-0.6718578934669495,0.0251481793820858
6.6,0.14208871126174927,0.4952726662158966,0.16921481490135193,-0.3634655177593231,-0.12097784131765366,-0.20566482841968536
6.65,0.2524294853210449,0.6573391556739807,-0.11822602897882462,-0.08508968353271484,-0.3014935851097107,0.15080009400844574
6.7,0.020648540928959846,-0.41357889771461487,-0.774328887462616,0.1970047950744629,-0.347678542137146,0.32675448060035706
6.75,0.24151718616485596,0.06442069262266159,0.10507600009441376,0.03385382518172264,-0.09484405070543289,0.23066027462482452
6.8,0.5404409766197205,0.27454277873039246,0.3761112093925476,-0.04635953530669212,-0.12175621092319489,0.2484670877456665
6.85,0.35877835750579834,0.09620186686515808,0.26257044076919556,-0.07772542536258698,-0.22365765273571014,0.253823846578598
6.9,0.4687017798423767,0.2608926594257355,1.4476420879364014,-0.01811915449798107,-0.2312542051076889,0.19805558025836945
6.95,0.8807297945022583,1.1694018840789795,2.3415000438690186,0.22501572966575623,-0.083716481924057,0.16526907682418823
7.0,2.8033409118652344,0.299116849899292,1.6836656332015991,0.7363922595977783,-0.049318261444568634,0.05428200960159302
7.05,2.1816539764404297,-0.7451640963554382,0.8815432786941528,1.296134114265442,-0.24867384135723114,-0.12763522565364838
7.1,-0.16516122221946716,1.069039225578308,1.0353751182556152,1.5814257860183716,-0.27748197317123413,-0.23015879094600677
7.15,1.5594332218170166,-1.5650454759597778,-0.3444567024707794,1.602253794670105,-0.21424533426761627,-0.2857937216758728
7.2,1.9808555841445923,-3.5013484954833984,-0.24055695533752441,1.556046485900879,-0.09561960399150848,-0.37937700748443604
7.25,0.7587456107139587,-1.080456018447876,0.6581494212150574,1.5171723365783691,-0.0037792054936289787,-0.38725823163986206
7.3,1.7086340188980103,-1.3546539545059204,-2.5565268993377686,1.4154361486434937,0.026511384174227715,-0.28702491521835327
7.35,1.4828979969024658,-2.119232416152954,-5.301517963409424,1.1237787008285522,0.07233311235904694,-0.20085537433624268
7.4,-4.156312465667725,-0.009042268618941307,-2.927161931991577,0.6856967210769653,0.059490084648132324,-0.12320341914892197
7.45,-1.0478514432907104,-2.0217950344085693,-3.0572094917297363,0.21355482935905457,0.05406167358160019,0.004223745781928301
7.5,2.0763585567474365,-3.6792378425598145,-4.560851097106934,-0.005208003334701061,0.33106011152267456,0.2247580736875534
7.55,-1.505372166633606,-4.2231340408325195,-4.82990837097168,0.04119103401899338,1.5146479606628418,0.18538227677345276
7.6,-2.0035080909729004,-5.221814155578613,-3.7314295768737793,-0.7231138944625854,2.8729770183563232,-0.14611870050430298
7.65,-0.5890456438064575,-3.4094860553741455,-1.7446212768554688,-1.632415533065796,2.5474019050598145,-0.3656170070171356
7.7,-0.24444785714149475,-2.3662681579589844,-1.6914159059524536,-1.5840222835540771,1.5275511741638184,-0.33461517095565796
7.75,-0.3840128779411316,-2.540721893310547,-1.7265113592147827,-1.2490655183792114,0.947905421257019,-0.09282185882329941
7.8,0.36649495363235474,-2.535493850708008,-1.0830954313278198,-1.0829479694366455,0.3109806180000305,0.16711030900478363
7.85,0.7865398526191711,-1.340282678604126,1.027037262916565,-0.8831442594528198,-0.35260969400405884,0.3885316550731659
7.9,0.47228866815567017,0.2833428382873535,2.829366445541382,-0.5900083780288696,-0.672311007976532,0.5760336518287659
7.95,0.29001384973526,3.2544562816619873,3.858241558074951,-0.6979588270187378,-0.7575935125350952,0.6233673691749573
8.0,-0.42162078619003296,5.955580234527588,4.015015125274658,-0.6243449449539185,-0.9201095104217529,0.6284775137901306
8.05,1.5512834787368774,5.469354629516602,4.088440895080566,0.01867123320698738,-0.511017918586731,0.4773238003253937
8.1,0.3602333962917328,4.157105445861816,1.5871365070343018,0.46038544178009033,-0.4759392738342285,0.7656807899475098
8.15,-1.4210515022277832,1.8540948629379272,-1.0523006916046143,0.8169012069702148,-0.8439436554908752,0.6419200301170349
8.2,-0.6583138704299927,-0.3421667218208313,-1.1372499465942383,0.857668399810791,-0.7041054964065552,0.2757263779640198
8.25,-0.6925473809242249,-1.248691439628601,-1.182199478149414,0.558883786201477,-0.4463565945625305,0.14658457040786743
8.3,-0.5303640365600586,-1.7743504047393799,-0.3652333915233612,0.35299572348594666,-0.13206447660923004,0.008030031807720661
8.35,-0.33697739243507385,-2.6227660179138184,1.3229109048843384,0.36253899335861206,0.06367690861225128,0.04895678535103798
8.4,-0.5063347220420837,-1.6022132635116577,0.3946864902973175,0.5153658390045166,-0.2411746382713318,0.022195538505911827
8.45,-0.5736772418022156,0.285741925239563,-0.556713879108429,0.37892574071884155,-0.26058411598205566,-0.13371680676937103
8.5,-0.08148804306983948,0.17458248138427734,0.09911966323852539,0.06854145973920822,-0.01894320920109749,-0.026649080216884613
8.55,-0.07716556638479233,-0.29921531677246094,-0.10400030761957169,-0.005866306833922863,-0.1385054737329483,0.12822099030017853
8.6,-0.23659634590148926,-0.14487262070178986,-0.3531651794910431,0.05395578593015671,-0.17677028477191925,0.12497873604297638
8.65,-0.4397651255130768,-1.1046172380447388,0.13955272734165192,0.14193683862686157,-0.1665927618741989,0.18944503366947174
8.7,-0.5837088823318481,-1.0003291368484497,-0.29545676708221436,0.08377545326948166,-0.2669305205345154,0.11978094279766083
8.75,0.08564801514148712,-1.7978659868240356,-0.7461149096488953,0.15148039162158966,-0.08975441753864288,-0.010663069784641266
8.8,-0.32703906297683716,-1.897823452949524,-0.38536831736564636,0.16982236504554749,0.11080477386713028,-0.00405895384028554
8.85,-0.25389164686203003,0.9246370196342468,-0.24021326005458832,0.14280295372009277,-0.03419063240289688,-0.0030440944246947765
8.9,0.12282082438468933,2.3105432987213135,0.10620748996734619,0.10069998353719711,-0.040389206260442734,0.042483918368816376
8.95,0.021454088389873505,0.677889883518219,0.05453251674771309,-0.005652507767081261,0.08467548340559006,0.14620544016361237
9.0,0.06038818508386612,-0.9736804366111755,-1.0711894035339355,-0.2580215036869049,0.21264861524105072,0.011880879290401936
9.05,0.12457765638828278,2.1552839279174805,1.9395654201507568,-0.8422127962112427,1.002856969833374,-0.41039466857910156
9.1,0.9822421073913574,4.116785526275635,4.705916404724121,-0.2084006518125534,0.9129822850227356,-0.32130613923072815
9.15,0.3692440986633301,1.3278567790985107,2.098808526992798,1.138232707977295,-0.19495812058448792,-0.0867675393819809
9.2,-0.09999138116836548,-1.5017814636230469,-1.2078297138214111,1.3646975755691528,-0.528197169303894,-0.1377403736114502
9.25,-0.35844773054122925,-2.823928117752075,-2.86562442779541,0.8614804744720459,-0.5396143198013306,-0.16868631541728973
9.3,-1.5066735744476318,-2.373539924621582,-3.9503555297851562,0.3529486060142517,-0.653171718120575,-0.05996634438633919
9.35,-1.0197659730911255,-0.5650441646575928,-1.6781879663467407,0.03881414979696274,-0.05257010459899902,-0.12346777319908142
9.4,0.18207815289497375,0.5539835691452026,1.0694514513015747,-0.03336511179804802,0.33359843492507935,-0.07730960845947266
9.45,0.10835438966751099,0.2364320307970047,0.43042415380477905,-0.009224949404597282,-0.1590297669172287,0.19326943159103394
9.5,-0.3382345736026764,-0.3381861746311188,-0.6822943091392517,0.021889496594667435,-0.3692254424095154,0.2773176431655884
9.55,-0.06420665234327316,-1.2590484619140625,-0.6147181987762451,0.10329539328813553,-0.21550296247005463,0.19702400267124176
9.6,-0.04715155437588692,-0.8173008561134338,-0.28787699341773987,0.12516111135482788,-0.19255243241786957,0.06488547474145889
9.65,0.14785704016685486,-0.9532299637794495,-0.22311843931674957,0.12466730177402496,-0.04293723776936531,-0.07033874839544296
9.7,-0.7446973919868469,-1.7121851444244385,0.09094318747520447,0.09811986237764359,0.08381185680627823,-0.08139464259147644
9.75,-0.7637270092964172,-0.27410799264907837,0.08542916178703308,0.10730715841054916,-0.06816227734088898,-0.23191805183887482
9.8,0.627984344959259,0.0662604495882988,-0.5255837440490723,0.17174182832241058,-0.19212201237678528,-0.3161340057849884
9.85,0.436554491519928,1.3278743028640747,-0.27920523285865784,0.11335408687591553,-0.10308611392974854,-0.1284942775964737
9.9,-0.0401783362030983,1.6351006031036377,-0.03348881006240845,0.05750158801674843,-0.06912437826395035,-0.01811809651553631
9.95,-0.15951165556907654,0.3899470269680023,-0.1555432379245758,0.061896469444036484,-0.03890331834554672,0.0804375484585762
10.0,-1.810378909111023,-0.2893429100513458,-0.14495156705379486,0.10393552482128143,0.002769883256405592,0.14662526547908783
10.05,-0.20151324570178986,-0.3772556185722351,0.5923581123352051,0.1339709311723709,-0.00032769408426247537,0.11240406334400177
10.1,0.27345266938209534,0.35050201416015625,0.17314158380031586,0.08896280825138092,-0.02246326021850109,0.053716111928224564
10.15,-0.28607237339019775,0.314211905002594,-0.2211378514766693,0.0063780248165130615,-0.02375389263033867,0.051618605852127075
10.2,0.11727511882781982,0.0208902470767498,-0.04456246644258499,-0.02930152416229248,-0.02368648536503315,0.04721727594733238
10.25,0.33981677889823914,-0.20904356241226196,0.2011367827653885,0.017590174451470375,-0.0031417529098689556,0.07466612756252289
10.3,0.1907259076833725,0.16172409057617188,0.0811588317155838,0.05842358618974686,0.008632920682430267,0.13671064376831055
10.35,0.26697152853012085,0.11567593365907669,0.047935113310813904,-0.09781928360462189,0.18768125772476196,0.24027664959430695
10.4,0.3363742232322693,2.088606119155884,0.3741120398044586,-0.7691879272460938,0.7947297692298889,0.34764713048934937
10.45,-0.5735520124435425,3.5396575927734375,2.5077970027923584,-0.9175822138786316,1.35524320602417,0.27576538920402527
10.5,0.5277106761932373,2.1477277278900146,2.052685260772705,-0.030712414532899857,1.0795530080795288,0.22231361269950867
10.55,0.24180562794208527,-0.5151061415672302,-0.6536552906036377,0.7393865585327148,0.31348997354507446,0.043104469776153564
10.6,-0.29511135816574097,-2.644878625869751,-2.116283416748047,0.697867214679718,-0.3673698902130127,-0.183694526553154
10.65,-0.06137871742248535,-3.259573221206665,-1.8148696422576904,0.30659765005111694,-0.4354948401451111,-0.2492271065711975
10.7,-0.2056257128715515,-2.87545108795166,-1.6016449928283691,0.23236949741840363,-0.5494351387023926,-0.19348542392253876
10.75,-0.19197401404380798,-0.6600349545478821,-1.2937721014022827,0.28534236550331116,-0.6181557178497314,-0.43184956908226013
10.8,-0.05339067056775093,0.9052249789237976,-0.18263551592826843,0.13676118850708008,-0.13065259158611298,-0.3710111081600189
10.85,0.07514305412769318,0.3238391578197479,0.409362256526947,0.03615599870681763,0.038449663668870926,0.05915168300271034
10.9,-0.020338037982583046,-0.2924995720386505,0.005894065368920565,0.15143983066082,-0.1939825415611267,0.1854735165834427
10.95,0.07047177851200104,-0.18338967859745026,-0.02828102931380272,0.2367948442697525,-0.3025791049003601,0.09413231909275055
11.0,-0.3665321469306946,0.6516333222389221,-0.023444682359695435,0.17565089464187622,-0.4177650809288025,-0.009813622571527958
11.05,-0.2776772379875183,0.1580086499452591,-0.37991586327552795,0.14687766134738922,-0.3878624141216278,-0.08910355716943741
11.1,-0.06520146131515503,-1.3326969146728516,-0.6634275317192078,0.18657511472702026,-0.06210033968091011,-0.01478896290063858
11.15,0.39679813385009766,-1.7628127336502075,-0.3222333490848541,0.0924205556511879,0.08337876945734024,-0.08485762774944305
11.2,0.3928029537200928,-3.2233119010925293,-0.48940759897232056,0.025663532316684723,-0.015502498485147953,-0.11643734574317932
11.25,-0.5300445556640625,0.04838646575808525,0.6030585765838623,0.06161293014883995,-0.09809249639511108,-0.15743470191955566
11.3,-0.7113918662071228,3.5902292728424072,0.7156193852424622,0.018886316567659378,-0.13092264533042908,-0.21805422008037567
11.35,0.05925736576318741,1.3942195177078247,-0.3105148673057556,-0.01173766516149044,-0.07920709997415543,-0.09738457947969437
11.4,0.7710784673690796,-0.6350611448287964,-1.0315632820129395,0.0031584184616804123,-0.0546344518661499,-0.011609398759901524
11.45,0.8147125840187073,0.08609112352132797,-0.353630006313324,0.025402270257472992,-0.021029818803071976,0.05594398453831673
11.5,0.5194767117500305,0.07847591489553452,0.3033545911312103,0.07767163962125778,0.014729035086929798,0.14947767555713654
11.55,0.16815871000289917,-0.16602516174316406,-0.08106893301010132,0.11638643592596054,0.015012126415967941,0.1577252298593521
11.6,-0.06638069450855255,0.3735886514186859,-0.3810253441333771,0.10468199849128723,0.011867089197039604,0.10224718600511551
11.65,0.13835211098194122,0.2333431839942932,-0.16060154139995575,0.0716337040066719,0.05664779990911484,0.10416427254676819
11.7,-0.0839492529630661,0.16056551039218903,-0.6652576923370361,0.0014050137251615524,0.14413467049598694,0.16795441508293152
11.75,0.28633975982666016,1.5030550956726074,-1.2653008699417114,-0.24310927093029022,0.46939122676849365,0.3622651994228363
11.8,0.4878475069999695,4.438423156738281,2.1534438133239746,-0.9608383774757385,1.1464927196502686,0.4453068673610687
11.85,-0.21110445261001587,4.8223772048950195,3.705390214920044,-0.5944037437438965,0.8779455423355103,0.29754990339279175
11.9,-0.49989455938339233,1.656306266784668,1.421881914138794,0.5375697016716003,0.35496386885643005,0.22305232286453247
11.95,-0.14962148666381836,-1.1025800704956055,-0.5847799181938171,0.8363040685653687,0.15407748520374298,0.08826126158237457
12.0,-0.047462448477745056,-2.7927026748657227,-1.0087136030197144,0.28862375020980835,0.14132457971572876,-0.0244198739528656
12.05,0.12369467318058014,-4.140010356903076,-0.7848816514015198,0.03920586779713631,0.06296937167644501,-0.1070895865559578
12.1,-0.27753299474716187,-4.0218610763549805,-2.610959529876709,0.11735231429338455,-0.6193936467170715,-0.4212897717952728
12.15,-0.02899433672428131,-0.6749264597892761,-1.8523615598678589,0.01021501049399376,-0.46274200081825256,-0.9811426401138306
12.2,0.5958727598190308,2.500417709350586,1.0251240730285645,-0.020586952567100525,0.11629495024681091,-0.7438766360282898
12.25,0.486061692237854,1.4387463331222534,1.0651291608810425,0.043004393577575684,-0.0533059798181057,-0.1468198150396347
12.3,-0.017397565767169,-0.11478133499622345,-0.35548636317253113,0.12314245104789734,-0.3975052535533905,0.10195169597864151
12.35,0.07530365139245987,-0.065950408577919,0.047362081706523895,0.11126597225666046,-0.33672618865966797,0.08447357267141342
12.4,0.41808614134788513,-0.24869473278522491,1.5912758111953735,0.21640273928642273,-0.610895037651062,0.09082835167646408
12.45,-0.0535196028649807,-0.015805238857865334,-0.041715942323207855,0.24656382203102112,-0.7671990394592285,-0.08742101490497589
12.5,-0.28512704372406006,-1.020793080329895,-0.34022584557533264,0.2187027931213379,-0.33050963282585144,0.020745016634464264
12.55,0.06287363171577454,-2.6415460109710693,0.5166482329368591,0.1720629334449768,-0.046652622520923615,0.07591652870178223
12.6,-0.39796799421310425,-0.8763899803161621,1.941652774810791,0.04797283560037613,-0.10007170587778091,-0.06610216945409775
12.65,-1.9890801906585693,4.196445941925049,1.1525623798370361,0.11982493102550507,-0.19453920423984528,-0.1912522166967392
12.7,-1.6575145721435547,6.387235164642334,1.284176230430603,0.24387583136558533,-0.14138366281986237,-0.177577942609787
12.75,1.9257584810256958,0.5512496829032898,-0.6916539669036865,0.2634628117084503,-0.03295575827360153,-0.11680062860250473
12.8,2.0489866733551025,-0.9053142666816711,-1.4819813966751099,0.1522390991449356,-0.029422694817185402,-0.10101983696222305
12.85,0.5990206003189087,0.7206022143363953,-0.7402640581130981,0.003200578037649393,-0.03159026429057121,-0.04153548553586006
12.9,0.25896328687667847,0.6134205460548401,-0.11551474779844284,-0.003147576469928026,0.00783609040081501,0.07835042476654053
12.95,0.0023073297925293446,0.46865278482437134,0.01439574733376503,0.08608771115541458,0.0050460416823625565,0.10774309933185577
13.0,-0.1582949161529541,-0.02793213166296482,-0.23473100364208221,0.13514550030231476,-0.010848239995539188,0.12607835233211517
13.05,-0.005286905914545059,-0.0938100665807724,-0.18726705014705658,0.12401725351810455,0.017005257308483124,0.14909985661506653
13.1,0.09711909294128418,-0.014344166032969952,-0.27864253520965576,0.1569339483976364,0.03715121001005173,0.13387173414230347
13.15,0.08291206508874893,0.1911221444606781,-0.32985374331474304,0.14545723795890808,0.03248105198144913,0.09696431457996368
13.2,-0.45429906249046326,1.375977873802185,-1.606079339981079,0.07725368440151215,0.20698171854019165,0.26455265283584595
13.25,-0.9877238869667053,2.8647375106811523,-3.870943069458008,-0.08610561490058899,1.1554474830627441,0.7485266923904419
13.3,-0.45214831829071045,3.0389907360076904,-1.2917356491088867,-1.0292892456054688,2.25484561920166,1.0019097328186035
13.35,-0.6391093134880066,2.8583695888519287,2.7652056217193604,-1.452901840209961,1.8433117866516113,0.7736051678657532
13.4,0.2733476758003235,1.3840805292129517,2.87735652923584,-0.4778972566127777,1.0134235620498657,0.6029441952705383
13.45,1.048111915588379,-2.1008758544921875,0.9535930156707764,0.3545461893081665,-0.04086833447217941,0.08799074590206146
13.5,-0.4684215486049652,-4.090674877166748,-0.5724385976791382,0.46057429909706116,-0.7806796431541443,-0.39476996660232544
13.55,0.29860734939575195,-4.298783779144287,-0.6170974969863892,0.0303599014878273,-0.7929703593254089,-0.49177685379981995
13.6,0.24677708745002747,-1.9251439571380615,-0.10829317569732666,-0.06293276697397232,-0.6182586550712585,-1.0359954833984375
13.65,-0.31507939100265503,0.5295612215995789,-0.5748955011367798,0.21820440888404846,-0.7268761396408081,-1.0957722663879395
13.7,-0.30012771487236023,0.6825582981109619,-1.0262508392333984,0.12670078873634338,-0.45151591300964355,-0.3877386152744293
13.75,0.21175026893615723,-0.12213234603404999,0.16857680678367615,-9.22507606446743e-05,-0.023111391812562943,0.1133664920926094
13.8,0.4106031060218811,-0.251968652009964,1.343195915222168,0.12944166362285614,-0.3204643130302429,0.07304264605045319
13.85,-1.4647126197814941,1.3600537776947021,-3.25777530670166,0.2573975920677185,-1.341457724571228,-0.29072898626327515
13.9,-0.858015239238739,1.0075269937515259,-2.5863771438598633,0.07974975556135178,-0.6568242311477661,-0.13962917029857635
13.95,0.3506229519844055,0.7766191959381104,-0.6959129571914673,-0.11669579893350601,0.09170322120189667,0.18241171538829803
14.0,-0.2703658938407898,2.032370090484619,-1.8575193881988525,-0.361034631729126,-0.18029102683067322,-0.01432411652058363
14.05,-0.12572872638702393,1.3649407625198364,-0.18913531303405762,-0.6148747205734253,-0.15720950067043304,-0.008780920878052711
14.1,1.020633578300476,-0.292927086353302,1.5399938821792603,-0.39528733491897583,-0.03006686083972454,0.11242636293172836
14.15,0.4832116365432739,-0.09275731444358826,0.4720664620399475,-0.08416332304477692,-0.11999942362308502,0.06429830193519592
14.2,0.20695410668849945,-0.6633710861206055,-0.28789088129997253,-0.08764869719743729,-0.05869404971599579,0.0757814422249794
14.25,0.510327935218811,-1.2646008729934692,0.07610608637332916,-0.10980391502380371,0.019314957782626152,0.0753137469291687
14.3,0.4061627686023712,-1.7736923694610596,0.11190641671419144,-0.048246126621961594,-0.004287400748580694,0.02531021647155285
14.35,-0.09625419974327087,-0.6885833740234375,-0.4157259166240692,0.011128180660307407,0.0005870376480743289,-0.03470566123723984
14.4,-0.7701521515846252,0.29873982071876526,-2.093132734298706,0.06180287525057793,0.23432449996471405,0.05178266391158104
14.45,-2.0574610233306885,-2.379342555999756,-4.478257179260254,-0.18196499347686768,1.8805485963821411,0.08003685623407364
14.5,-0.8240031003952026,-4.354522228240967,-2.382195472717285,-1.2716807126998901,3.6156041622161865,0.0030588859226554632
14.55,0.9938200116157532,-2.872332811355591,0.5497888326644897,-1.9113401174545288,1.966749668121338,-0.3259976804256439
14.6,0.8408321142196655,-0.4746134877204895,1.4268245697021484,-1.30311918258667,-0.3403867781162262,-0.18784049153327942
14.65,0.3417077660560608,1.8851088285446167,2.2055511474609375,-0.372814416885376,-0.8535174131393433,0.2821957767009735
14.7,0.08313971757888794,3.6091935634613037,3.438286066055298,0.315123051404953,-0.6032517552375793,0.577784538269043
14.75,0.3592095971107483,3.448845624923706,3.537400245666504,0.7855532169342041,-0.6151036620140076,0.6915280818939209
14.8,-1.6745883226394653,2.244082450866699,0.5632548332214355,0.980868935585022,-1.1459929943084717,0.6489426493644714
14.85,-0.6697931885719299,0.5030537247657776,-0.03159867972135544,1.198057770729065,0.04780874401330948,0.27889883518218994
14.9,0.4338345527648926,-1.4027001857757568,-1.9458882808685303,1.1682511568069458,-0.07086734473705292,-0.11057355254888535
14.95,-0.2511001527309418,-1.758620023727417,-2.862945079803467,0.6556867361068726,-1.229663372039795,-0.4273313283920288
15.0,-0.04871710017323494,-0.6675042510032654,-0.7688100934028625,0.1513567417860031,-0.6279211044311523,-0.28548744320869446
15.05,-0.2651482820510864,0.19010744988918304,-0.43374013900756836,0.2520003914833069,-0.18021820485591888,-0.10990010201931
15.1,-0.04886842146515846,0.18740083277225494,-0.013651058077812195,0.2689872086048126,-0.14897145330905914,-0.02108491025865078
15.15,0.28387314081192017,-0.29250627756118774,0.1148465946316719,0.15021400153636932,-0.41034185886383057,0.002304935595020652
15.2,0.06900229305028915,-0.4432334303855896,-0.6021367907524109,0.10428071022033691,-0.5287297368049622,-0.09029101580381393
15.25,0.26789748668670654,-0.15313999354839325,-0.4511534869670868,0.059258848428726196,-0.1901579350233078,-0.037625979632139206
15.3,-0.9847298264503479,2.073310375213623,-0.8892624974250793,-0.09730101376771927,-0.0010286516044288874,-0.13674572110176086
15.35,-0.28753662109375,1.4950077533721924,-0.9840485453605652,-0.3331463932991028,-0.061869580298662186,-0.16140051186084747
15.4,0.6548233032226562,0.92835533618927,-0.058499958366155624,-0.5471721887588501,-0.08278276771306992,-0.02890881523489952
15.45,0.5087196826934814,0.2813577950000763,0.04249883070588112,-0.5360084772109985,-0.04467209801077843,0.08847571164369583
15.5,0.5485084652900696,-0.6263009309768677,0.3104161024093628,-0.4212489128112793,0.0015432509826496243,0.15550538897514343
15.55,0.7854897379875183,-1.0775845050811768,0.8559240102767944,-0.3309229612350464,-0.0027346464339643717,0.12449215352535248
15.6,1.0288152694702148,-1.8393969535827637,1.2409073114395142,-0.16658782958984375,0.002214333973824978,0.09991411864757538
15.65,0.2855952978134155,-1.716386079788208,0.1293814331293106,-0.046889498829841614,-0.021957458928227425,0.059432633221149445
15.7,-0.1364259570837021,-0.1985453963279724,-0.49006322026252747,-0.032216280698776245,-0.06256306171417236,-0.0733260065317154
15.75,-0.5180283188819885,0.8559953570365906,-0.21489840745925903,-0.07783836871385574,-0.005636582616716623,-0.05157683417201042
15.8,-0.05407315120100975,0.3013467788696289,0.11927779018878937,-0.11197812110185623,-0.005942272022366524,0.004096631892025471
15.85,-0.050711583346128464,-0.30900096893310547,-0.22454915940761566,-0.07843305170536041,-0.045831870287656784,0.026113446801900864
15.9,-0.11091973632574081,-0.07598870992660522,-0.37633371353149414,-0.01283473614603281,-0.03930589556694031,0.053770896047353745
15.95,-0.26186853647232056,0.04612936079502106,-0.7420510053634644,0.03441935032606125,0.016130179166793823,0.15556403994560242
16.0,-0.2637372314929962,-0.9401435256004333,-1.0624933242797852,0.04676273837685585,0.53262859582901,0.4240739643573761
16.05,-0.4291420876979828,-4.458771705627441,-1.579872488975525,-0.14903581142425537,1.6433182954788208,0.3905577063560486
16.1,0.532952070236206,-3.9028444290161133,0.39185279607772827,-0.6691434383392334,1.8069591522216797,-0.17939868569374084
16.15,0.39781779050827026,0.12036000192165375,2.2074811458587646,-0.4709508717060089,0.0785156860947609,-0.5292679071426392
16.2,-0.208516925573349,2.0775375366210938,0.9459109306335449,0.1597200483083725,-0.8051562309265137,-0.3619012236595154
16.25,-0.26396945118904114,3.8145012855529785,-0.3694075047969818,0.141985684633255,-0.8149970173835754,-0.2455364316701889
16.3,0.31370142102241516,3.8814759254455566,0.02924695983529091,-0.07264149188995361,-0.5293360948562622,-0.09040115773677826
16.35,0.07155903428792953,0.8318902254104614,-0.01480160467326641,-0.022332869470119476,-0.2894975244998932,0.3575761616230011
16.4,-0.09121038019657135,-0.5631103515625,-0.4021233916282654,0.10739665478467941,-0.26600489020347595,0.3652801513671875
16.45,-0.2028850018978119,-0.10475727915763855,-0.2797282934188843,0.20626987516880035,-0.1929396241903305,0.12000485509634018
16.5,-0.18339228630065918,-0.008662181906402111,-0.2526913285255432,0.17833130061626434,-0.11205136030912399,0.06567452102899551
16.55,0.18953263759613037,-0.30055344104766846,0.45913252234458923,0.13894230127334595,-0.09069675207138062,0.1062132939696312
16.6,0.3375488221645355,0.238590270280838,-0.006419634446501732,0.11548449099063873,-0.42073121666908264,-0.045917194336652756
16.65,-1.0633658170700073,0.6926741003990173,-2.047003746032715,0.043256811797618866,-0.28224804997444153,-0.06231825798749924
16.7,-1.0777430534362793,-1.0581740140914917,-1.3919261693954468,-0.1923549473285675,0.07705022394657135,0.01848001591861248
16.75,-1.5149749517440796,0.7018444538116455,-1.0431519746780396,-0.4916931092739105,-0.1135132685303688,0.0015117882285267115
16.8,-1.5032018423080444,1.1519863605499268,-0.5720254778862,-0.5890101790428162,-0.07749317586421967,0.050330646336078644
16.85,-0.32098373770713806,-0.3147926926612854,0.18024010956287384,-0.48885396122932434,-0.009115386754274368,0.06695863604545593
16.9,0.913227915763855,-0.6363680958747864,1.3287712335586548,-0.31041181087493896,-0.03212973102927208,0.05825740098953247
16.95,0.9244738817214966,-2.5219993591308594,1.1097761392593384,-0.12772883474826813,-0.02381599321961403,0.07378777116537094
17.0,0.3837975561618805,-1.5976022481918335,0.4281799793243408,-0.03795541077852249,-0.03231817111372948,0.03264978155493736
17.05,-0.01810920611023903,-0.15877340734004974,-0.16228871047496796,0.00757112680003047,-0.06251435726881027,-0.05787806212902069
17.1,0.5715343952178955,-0.3429909348487854,0.1641894280910492,-0.034850943833589554,-0.03559018298983574,-0.026833126321434975
17.15,0.24660851061344147,-0.20010949671268463,-0.06872101128101349,-0.05209057778120041,-0.0349702350795269,-0.0035301605239510536
17.2,0.0506671704351902,0.0916023775935173,-0.26763713359832764,-0.009708239696919918,-0.01125257182866335,0.014572479762136936
17.25,-0.24580340087413788,0.08611495047807693,-0.35195392370224,0.013233865611255169,0.011753176338970661,0.08197025954723358
17.3,-0.44302159547805786,0.10225029289722443,-1.0312551259994507,0.0688677653670311,0.08204766362905502,0.13379575312137604
17.35,-1.174088716506958,0.23938992619514465,-2.7462732791900635,0.058775998651981354,0.6727108955383301,0.34234070777893066
17.4,-3.079152822494507,-2.2110769748687744,-3.343895196914673,-0.26532068848609924,2.978625774383545,0.3882243037223816
17.45,0.44304734468460083,-4.497227191925049,1.2816890478134155,-1.0586999654769897,5.4559645652771,0.026487482711672783
17.5,2.6480727195739746,-3.4805147647857666,4.581003189086914,-1.4134397506713867,3.2196123600006104,-0.17894573509693146
17.55,1.0914416313171387,-2.715273141860962,5.157768726348877,-0.9525330662727356,0.11632554233074188,0.17791323363780975
17.6,1.0610554218292236,-1.3245543241500854,4.365034103393555,-0.48737573623657227,-0.5303746461868286,0.21337711811065674
17.65,0.6031259298324585,2.3010106086730957,3.990934371948242,0.01284918561577797,-0.8939893841743469,0.2389945685863495
17.7,-0.011614382266998291,5.004781723022461,2.5164084434509277,0.8963379859924316,-1.5919182300567627,0.16068822145462036
17.75,-0.21142709255218506,5.762342929840088,0.057669781148433685,1.6788629293441772,-1.2827361822128296,-0.15544874966144562
17.8,0.05906827002763748,5.381046295166016,-2.0662333965301514,2.3337645530700684,-0.36890357732772827,-0.34156447649002075
17.85,0.06241165101528168,3.179239511489868,-3.8466742038726807,2.488161563873291,0.15520863234996796,-0.26781901717185974
17.9,0.3181382119655609,1.6559571027755737,-3.4331040382385254,1.7367147207260132,-0.5023296475410461,-0.42594069242477417
17.95,-1.3383408784866333,-0.3049388527870178,-2.6570050716400146,1.1011841297149658,-1.6356067657470703,-0.9134530425071716
18.0,-1.1113965511322021,-1.6041193008422852,-1.483950138092041,0.5569776892662048,-0.9494401812553406,-0.6708582043647766
18.05,-0.38185158371925354,-2.025472640991211,-1.0750312805175781,0.24299755692481995,-0.1151953637599945,-0.23456397652626038
18.1,-0.27927589416503906,-1.7868471145629883,-1.1067702770233154,-0.03273139148950577,-0.32628577947616577,-0.3311789631843567
18.15,-0.5116352438926697,-0.9701594114303589,-1.2428028583526611,-0.1720738410949707,-0.5792623162269592,-0.5049007534980774
18.2,-0.3005744218826294,0.12029275298118591,-0.4335070252418518,-0.3460392653942108,-0.1949908286333084,-0.26438841223716736
18.25,-0.07195550948381424,-0.4869060516357422,-0.38456234335899353,-0.22988224029541016,0.039513930678367615,0.1136891096830368
18.3,0.284833163022995,-0.31202131509780884,0.16875067353248596,-0.029862336814403534,0.10872354358434677,0.2030179798603058
18.35,0.14715981483459473,-0.0675600990653038,-0.5872671604156494,0.09348498284816742,-0.012031618505716324,0.14572854340076447
18.4,0.2426842749118805,-1.5140312910079956,-1.969817876815796,-0.013151152059435844,0.17636075615882874,-0.005525361746549606
18.45,-1.193824291229248,-2.7116751670837402,-4.303945541381836,-0.7386580109596252,0.3393529951572418,-0.39441978931427
18.5,-0.24420036375522614,-1.6474833488464355,-3.694462299346924,-1.5068808794021606,0.22300618886947632,-0.42554983496665955
18.55,-0.7075910568237305,-0.7854819893836975,-2.9183857440948486,-1.709633469581604,0.06272239983081818,-0.2258492410182953
18.6,-0.4516250193119049,0.45829305052757263,-0.18454881012439728,-1.912380576133728,0.42539697885513306,0.06796075403690338
18.65,0.6502435207366943,2.3077454566955566,4.585030555725098,-1.647415280342102,0.46927696466445923,0.32356879115104675
18.7,0.6314070820808411,3.2435171604156494,6.835981369018555,-0.5559828877449036,-0.045562949031591415,0.25511184334754944
18.75,0.7171705961227417,1.3207372426986694,4.186834335327148,0.37895748019218445,-0.4281238615512848,0.44138336181640625
18.8,-0.23422549664974213,-0.36240294575691223,-0.09520314633846283,0.9001603722572327,-1.140482783317566,0.287906676530838
18.85,-0.32584449648857117,-0.7526224255561829,-1.5836962461471558,0.6350148916244507,-0.9143362045288086,0.0782022774219513
18.9,-0.2087843418121338,-1.3014897108078003,-1.0184617042541504,0.17264297604560852,-0.2944701611995697,0.07771498709917068
18.95,-0.010833583772182465,-0.6099043488502502,-0.11908284574747086,-0.007762187160551548,-0.10207446664571762,0.008865080773830414
19.0,0.19307605922222137,0.3028402328491211,0.15749455988407135,-0.03478921204805374,-0.1233004629611969,-0.07574538141489029
19.05,0.23578089475631714,0.4084826111793518,0.0699847862124443,-0.09804247319698334,-0.13327664136886597,0.1064024493098259
19.1,-0.1306118220090866,-1.2270089387893677,-0.050894636660814285,-0.033357005566358566,-0.1340419054031372,0.22259826958179474
19.15,-0.12494786828756332,-0.7303400039672852,-0.1785416454076767,0.059134047478437424,-0.07621872425079346,0.120012566447258
19.2,0.19539593160152435,-0.2893238365650177,-0.03597204387187958,0.1181173101067543,0.023898478597402573,0.0263858400285244
19.25,-0.04331614077091217,0.14580349624156952,-0.1508939564228058,0.09133628755807877,0.03284672647714615,0.010391480289399624
19.3,0.11228281259536743,0.018433600664138794,-0.14681613445281982,0.022780541330575943,0.10293081402778625,0.09756100922822952
19.35,0.0037402883172035217,0.011231454089283943,-0.1721038818359375,0.0329926535487175,0.2895162105560303,0.1934996098279953
19.4,-0.9922828674316406,1.3962558507919312,3.738715171813965,-0.3596723973751068,0.9080995917320251,0.3679327964782715
19.45,0.6854858994483948,2.0729024410247803,8.527825355529785,-0.039011433720588684,1.4259073734283447,0.38806217908859253
19.5,0.8975268006324768,0.9051060676574707,3.5101001262664795,1.5703675746917725,0.01699843443930149,-0.1868310570716858
19.55,-0.32215410470962524,-0.3581927418708801,-3.82681941986084,2.2175276279449463,-0.40200328826904297,-0.5842860341072083
19.6,-0.668085515499115,-1.265573501586914,-5.9947404861450195,1.5607454776763916,0.8046520352363586,-0.044101204723119736
19.65,0.2935154438018799,-2.706665515899658,-6.720070838928223,0.9761865735054016,0.9585450291633606,0.3135882019996643
19.7,0.1945810317993164,-2.399362564086914,-4.283019065856934,0.4647892415523529,0.7889030575752258,-0.31256696581840515
19.75,0.25293537974357605,-1.2413825988769531,-0.9089792370796204,-0.5719866156578064,0.9653881788253784,-0.2454589456319809
19.8,0.23645024001598358,1.2150044441223145,3.5580601692199707,-1.7218033075332642,0.7024582028388977,-0.32017508149147034
19.85,1.297928810119629,0.9944280982017517,3.8691816329956055,-1.1541035175323486,0.2800852656364441,-0.21268196403980255
19.9,0.03316791355609894,0.7581711411476135,0.3744789958000183,-0.35606545209884644,-1.2014257907867432,0.17890065908432007
19.95,-0.6612033247947693,1.8981221914291382,-0.6660779118537903,-0.35979777574539185,-1.2559553384780884,0.5638132095336914
20.0,-0.3080039918422699,1.0091495513916016,0.3345275819301605,-0.10180477797985077,-0.5846600532531738,0.5058784484863281
20.05,-0.3238024115562439,-0.9758835434913635,-0.19198359549045563,0.3159613013267517,-0.5392630100250244,0.2323426604270935
20.1,-0.4917040467262268,-2.723172903060913,-2.372779607772827,0.387699156999588,-0.4245181381702423,-0.10967075079679489
20.15,-0.08563987910747528,-1.258950114250183,-1.3122678995132446,0.023914918303489685,0.0040839845314621925,-0.545387327671051
20.2,0.2404022514820099,0.694880485534668,0.28417155146598816,-0.4186858832836151,-0.001782046863809228,-0.5611417293548584
20.25,0.2954733967781067,0.6162175536155701,0.7762552499771118,-0.45866426825523376,-0.009106501936912537,-0.2211986780166626
20.3,0.28838545083999634,-0.0066633629612624645,0.24035011231899261,-0.2825835049152374,-0.13669732213020325,-0.08017490059137344
20.35,0.0666518360376358,-0.18404187262058258,-0.6636025309562683,-0.05171608552336693,-0.2910112738609314,-0.13005253672599792
20.4,0.03781136870384216,-0.011475428938865662,-0.7571024298667908,-0.05883686989545822,-0.16619743406772614,-0.07020975649356842
20.45,0.10763520747423172,-0.5274094939231873,-0.6620798110961914,-0.24113647639751434,-0.11726263165473938,0.1362968534231186
20.5,0.2113160789012909,0.427308052778244,0.5036349296569824,-0.35823753476142883,-0.20990924537181854,0.12601657211780548
20.55,-0.9339596629142761,-0.2162466049194336,-0.2478800266981125,0.17151963710784912,-0.26635172963142395,0.19949425756931305
20.6,-0.4200671911239624,-0.04696352034807205,-1.037528395652771,0.28969311714172363,-0.4499467611312866,0.18931056559085846
20.65,0.7005431056022644,0.02316289395093918,-0.24030432105064392,0.1315428912639618,-0.20359359681606293,0.20541734993457794
20.7,-1.025198221206665,-0.6541322469711304,-3.5978245735168457,0.12906211614608765,-0.5489857792854309,0.21934805810451508
20.75,-1.017462968826294,-0.9424902200698853,-2.713308572769165,-0.24858450889587402,-0.23414893448352814,0.1588396430015564
20.8,-0.8172536492347717,-1.330778956413269,-1.3828999996185303,-0.5172228813171387,-0.09813898056745529,0.1530982404947281
20.85,-5.9383158683776855,2.132298707962036,-0.17199337482452393,-0.7391632795333862,-0.17100276052951813,-0.012450695969164371
20.9,-2.048517942428589,0.9642736911773682,-0.8146637678146362,-0.8628459572792053,-0.19897131621837616,-0.1132698804140091
20.95,1.8533034324645996,-0.38482603430747986,1.7066422700881958,-0.9594279527664185,-0.18792307376861572,-0.14419519901275635
21.0,1.389705777168274,2.038952589035034,2.6272454261779785,-0.7605716586112976,-0.14235013723373413,-0.10921850055456161
21.05,-0.7624901533126831,4.739782810211182,0.8997762799263,-0.3491787910461426,-0.18154355883598328,-0.06564784049987793
21.1,-0.7556130290031433,2.4474949836730957,-0.84727543592453,-0.052403293550014496,-0.16975514590740204,0.0662255510687828
21.15,0.24464163184165955,-0.20168213546276093,0.11013734340667725,-0.09400364011526108,-0.05696393921971321,0.21994340419769287
21.2,1.5594922304153442,-0.9023175239562988,2.1813504695892334,0.07042735069990158,-0.17796556651592255,0.13549959659576416
21.25,1.5948455333709717,-1.539128065109253,2.5517842769622803,0.476743221282959,-0.1422920674085617,0.04785941541194916
21.3,2.717550277709961,-3.3221423625946045,0.8860440850257874,0.7993432283401489,-0.13071565330028534,-0.01681085117161274
21.35,2.7165026664733887,-2.8854260444641113,-0.5714709758758545,1.0629607439041138,-0.17737844586372375,-0.16361543536186218
21.4,-1.4129499197006226,2.8720037937164307,0.5073826909065247,1.0017304420471191,-0.2012328803539276,-0.14162546396255493
21.45,-1.3688327074050903,1.807608962059021,-1.0127266645431519,0.9032378196716309,-0.11222880333662033,-0.15655192732810974
21.5,-1.1481596231460571,0.766093909740448,-3.0542540550231934,0.7525614500045776,-0.11120197921991348,-0.14965923130512238
21.55,-0.7723392248153687,0.15091276168823242,-2.6776607036590576,0.44977349042892456,-0.06718896329402924,-0.05454885959625244
21.6,0.11631238460540771,0.7129823565483093,-0.6040602326393127,0.2607584297657013,0.026271017268300056,0.011035287752747536
21.65,0.5812179446220398,0.7964011430740356,-0.02398845925927162,0.21867777407169342,0.010605091229081154,0.06317489594221115
21.7,0.1842515468597412,0.5734741687774658,-0.9348205327987671,0.12008795142173767,-0.0614805743098259,0.05344617739319801
21.75,-0.01584981009364128,0.18576733767986298,-0.7971823215484619,0.11119202524423599,-0.023498058319091797,0.04216742515563965
21.8,-0.5818416476249695,0.400824636220932,-0.22423629462718964,0.15971823036670685,-0.002322814194485545,0.013918834738433361
21.85,0.3106657862663269,-0.26851457357406616,-0.4424448609352112,0.21876095235347748,-0.03918464109301567,-0.07722023129463196
21.9,0.5857862234115601,-0.8230181932449341,-0.12419328093528748,0.04903857037425041,-0.028314197435975075,-0.0022165868431329727
21.95,0.1676362007856369,-0.004569066688418388,0.08059065788984299,0.027651352807879448,-0.03125636279582977,-0.013356629759073257
22.0,0.00531208049505949,-0.08296488225460052,-0.12520240247249603,0.044370073825120926,-0.055902522057294846,0.026767589151859283
22.05,0.07866029441356659,-0.15052032470703125,-0.11583773046731949,0.029956813901662827,-0.02770940586924553,0.048489492386579514
22.1,0.3739561140537262,-0.3447265923023224,0.029633788391947746,0.10922954231500626,0.016237454488873482,0.039803396910429
22.15,0.18501469492912292,0.05647186562418938,-0.17622877657413483,0.1008220687508583,-0.015888165682554245,-0.006079809740185738
22.2,-0.13595277070999146,0.25376734137535095,-1.6030715703964233,0.03655354306101799,0.024871142581105232,0.05776380002498627
22.25,-0.5586177706718445,-1.414926528930664,-5.960624694824219,0.07053259015083313,0.8911501169204712,0.276513934135437
22.3,3.9554879665374756,-2.512712001800537,-3.214761734008789,-1.0122795104980469,3.627126693725586,-0.13784678280353546
22.35,1.0183511972427368,-2.4067158699035645,-1.7883647680282593,-3.191337823867798,2.489471197128296,-0.5320607423782349
22.4,0.785498321056366,-0.23259681463241577,2.18943452835083,-3.900482654571533,0.5217055082321167,-0.24525214731693268
22.45,0.7322526574134827,2.0826897621154785,4.474552154541016,-2.7486863136291504,-1.0469067096710205,0.49829116463661194
22.5,0.7291334867477417,2.534425973892212,5.859888076782227,-0.7140573263168335,-1.1946380138397217,0.6090022325515747
22.55,0.9117653965950012,0.015175136737525463,3.9009978771209717,0.6226072311401367,-0.842458963394165,0.6864505410194397
22.6,-0.7275927066802979,-2.3507163524627686,-2.7517740726470947,0.7326390743255615,-1.432233214378357,0.5174397826194763
22.65,0.09503800421953201,-0.33296868205070496,-0.3004656136035919,0.012313268147408962,-0.10636727511882782,-0.18342459201812744
22.7,0.9691934585571289,0.35827895998954773,1.7538751363754272,-0.25841522216796875,0.11896027624607086,-0.03835681453347206
22.75,-0.0754811093211174,-0.10436433553695679,-0.43867748975753784,0.06133538484573364,-0.4955575168132782,0.16897332668304443
22.8,0.11140494048595428,0.08694463223218918,-0.22352242469787598,-0.0015573669224977493,-0.247176855802536,0.15096211433410645
22.85,0.44072121381759644,0.5741022229194641,1.3273946046829224,0.07994188368320465,-0.19904299080371857,0.2734145224094391
22.9,0.3735741674900055,-0.21252527832984924,-0.6144302487373352,0.09221110492944717,-0.6219597458839417,0.23768019676208496
22.95,0.2312898486852646,0.6899766325950623,0.6613811254501343,0.06174187734723091,-0.22128507494926453,0.21091808378696442
23.0,0.6168937683105469,0.48881033062934875,1.573380947113037,0.44671446084976196,-0.24769659340381622,0.12708835303783417
23.05,0.7120963931083679,0.8679177165031433,2.5245866775512695,0.8771957755088806,-0.13902854919433594,0.17141151428222656
23.1,0.28624096512794495,0.19505861401557922,1.3854624032974243,1.2340234518051147,-0.1724325567483902,0.2542923390865326
23.15,0.24326619505882263,-1.1286907196044922,-0.36754265427589417,1.50114905834198,-0.1704157292842865,0.15684500336647034
23.2,0.10292458534240723,-1.9336603879928589,-2.1721627712249756,1.4994800090789795,-0.15813714265823364,0.05771403759717941
23.25,-0.2508251667022705,0.06173087656497955,-2.727360963821411,1.2117853164672852,-0.10818731784820557,-0.0012908696662634611
23.3,-1.3922374248504639,-0.28219011425971985,-1.3972209692001343,0.8489787578582764,0.030326515436172485,0.07427921146154404
23.35,-1.9129037857055664,0.3744805157184601,-1.4325579404830933,0.611549973487854,0.10745507478713989,0.08424242585897446
23.4,0.1191425547003746,-0.35398098826408386,-0.2949056029319763,0.504973828792572,0.11593181639909744,0.09882496297359467
23.45,-0.29782021045684814,0.417972594499588,0.06948448717594147,0.4047594368457794,0.04317183047533035,0.06740598380565643
23.5,0.6244170665740967,-0.5680066347122192,0.24112114310264587,0.38851404190063477,-0.03215790539979935,0.09417983889579773
23.55,0.01710418611764908,-0.05813424661755562,0.9051703810691833,0.2522028088569641,-0.03715262934565544,0.09663436561822891
23.6,-0.5989910960197449,0.11082368344068527,-0.24874301254749298,0.18239621818065643,-0.009706546552479267,0.13583622872829437
23.65,0.09160761535167694,-0.45981985330581665,0.01986789144575596,0.1791376918554306,0.055979348719120026,0.13486137986183167
23.7,-0.39365196228027344,0.3135262727737427,-0.5900644659996033,0.1669997274875641,0.0763464942574501,0.0685376524925232
23.75,-0.7842844724655151,0.08208868652582169,-1.226240873336792,0.12652011215686798,0.14657513797283173,0.07907678931951523
23.8,-0.14866586029529572,-2.4421186447143555,-3.7319881916046143,-0.12804600596427917,1.0120010375976562,0.5108469724655151
23.85,0.7415100932121277,-3.4293367862701416,-1.7884987592697144,-0.7584664225578308,3.470222234725952,0.14150410890579224
23.9,-1.0916519165039062,-3.125664710998535,0.3063386082649231,-2.1386101245880127,3.019836187362671,-0.33467933535575867
23.95,1.2046386003494263,-1.974562644958496,3.845857620239258,-1.524903416633606,0.6368950009346008,-0.3108368515968323
24.0,0.3152541518211365,-1.0366971492767334,3.537351131439209,0.17400744557380676,-1.322696566581726,-0.438155859708786
24.05,-0.05974142998456955,2.3313510417938232,2.6943891048431396,0.9428993463516235,-1.2187095880508423,-0.5510371327400208
24.1,0.528339147567749,4.554557800292969,1.557405710220337,0.978675365447998,-0.8909005522727966,0.0008951249183155596
24.15,0.23888608813285828,3.90690279006958,0.36778727173805237,0.9550966620445251,-0.8430142402648926,0.6616072654724121
24.2,0.6232990622520447,0.8923341035842896,0.15188822150230408,1.6803418397903442,0.02126661129295826,0.7109116315841675
24.25,-0.6096963286399841,-2.4997451305389404,-2.40376615524292,1.7584190368652344,-0.5427196025848389,0.6445685625076294
24.3,-0.19554109871387482,-3.126152515411377,-2.0914623737335205,0.5590503215789795,-0.15409786999225616,0.016413679346442223
24.35,0.5303650498390198,-2.0669236183166504,-0.7059242725372314,0.0267895869910717,0.029790209606289864,-0.3411960005760193
24.4,0.22170598804950714,-0.10864165425300598,0.08571706712245941,-0.10557708144187927,0.05802309885621071,-0.5258636474609375
24.45,0.425534725189209,0.136781707406044,0.053657643496990204,-0.2706458866596222,-0.023895742371678352,-0.09908994287252426
24.5,0.12108450382947922,0.6560811996459961,0.4469330906867981,-0.1491914689540863,-0.1121305301785469,0.0220573041588068
24.55,0.26607537269592285,0.46521371603012085,0.6043990850448608,-0.013834781013429165,-0.216215580701828,-0.031512968242168427
24.6,0.14544476568698883,-0.4373837113380432,0.05788164585828781,0.027852190658450127,-0.7421990633010864,0.13103307783603668
24.65,0.18541890382766724,-0.42464742064476013,0.15776410698890686,0.027653444558382034,-0.47879812121391296,-0.07081186026334763
24.7,-0.18848738074302673,-0.3438529372215271,-0.43661051988601685,0.15368087589740753,-0.26403316855430603,-0.20625202357769012
24.75,0.05776473134756088,-0.6754953861236572,1.0094794034957886,0.4837714731693268,0.015942314639687538,-0.07889404892921448
24.8,0.30366095900535583,0.7231436967849731,-0.19349372386932373,0.6177161335945129,0.23514291644096375,0.045599985867738724
24.85,1.1814465522766113,-2.7608418464660645,-1.7352811098098755,0.6292896866798401,0.1379537433385849,0.04999493435025215
24.9,-0.056821342557668686,0.7293931245803833,-0.23218557238578796,0.491108775138855,0.11884284019470215,0.10444160550832748
24.95,0.831361711025238,-1.210220456123352,0.020193450152873993,0.5084825158119202,0.11869321018457413,0.33954864740371704
25.0,1.583150863647461,-2.6536855697631836,-1.64644455909729,0.39003029465675354,0.179425448179245,0.48114264011383057
25.05,-0.32581621408462524,-0.540824294090271,-3.6587564945220947,-0.6109711527824402,0.9197067022323608,0.12156087160110474
25.1,-0.5173269510269165,0.6027318239212036,-0.20360010862350464,-2.0473339557647705,0.37501487135887146,-0.3412608504295349
25.15,0.5733822584152222,-0.12187252193689346,3.1664905548095703,-1.5743571519851685,-0.46327558159828186,-0.32481709122657776
25.2,1.2482812404632568,-0.8916327953338623,3.566211700439453,-0.606961727142334,-0.5336139798164368,0.14027570188045502
25.25,-0.13696260750293732,0.8437629342079163,-2.4901788234710693,0.38287362456321716,-0.9509398341178894,0.1923321932554245
25.3,-0.6076319813728333,0.5646373629570007,-0.5551414489746094,0.7441534399986267,0.07368973642587662,0.10636070370674133
25.35,0.4301657974720001,-0.9075830578804016,-1.5581133365631104,1.3889812231063843,0.3245992958545685,0.6425111889839172
25.4,0.05968305096030235,-0.6361653804779053,-1.69499671459198,0.45821645855903625,0.23636077344417572,0.39090344309806824
25.45,1.0626877546310425,1.017618179321289,0.7093169093132019,-1.3337972164154053,0.7762229442596436,-0.4320329427719116
25.5,0.9317514896392822,-1.1352028846740723,2.082015037536621,-1.166788101196289,-0.3477207124233246,-0.5080073475837708
25.55,0.6982330679893494,-6.115991115570068,-0.8353017568588257,-0.06368575990200043,-0.723670244216919,-0.2174432873725891
25.6,0.44216188788414,-1.51561439037323,-1.8703703880310059,0.28588324785232544,-0.5047380328178406,-0.20014958083629608
25.65,0.7324498295783997,2.739428758621216,0.11861441284418106,0.9312561750411987,0.3230396509170532,0.6269562244415283
25.7,0.24354435503482819,1.8043338060379028,0.35544726252555847,0.7617883086204529,0.19672733545303345,0.8283464312553406
25.75,0.679861843585968,1.0105078220367432,-0.6851288676261902,-0.6325114965438843,0.827559769153595,0.015002104453742504
25.8,-0.4463508427143097,-0.3762827217578888,-0.15983189642429352,-1.578244924545288,0.18600384891033173,-0.4755834937095642
25.85,1.3634077310562134,-1.5451716184616089,3.490827798843384,-1.0736759901046753,-0.7360894083976746,-0.374656081199646
25.9,-0.06500819325447083,-1.231385350227356,-0.010206272825598717,0.21165724098682404,-0.8130011558532715,-0.21720968186855316
25.95,6.399703025817871,-10.066061973571777,-1.1710604429244995,0.8050065040588379,-0.29641446471214294,0.12158431857824326
26.0,0.8462638854980469,-2.227409839630127,-1.093591332435608,0.9246171712875366,-0.34280914068222046,0.4401828646659851
26.05,-0.8163122534751892,1.2471847534179688,0.3799820840358734,0.28761711716651917,-0.09658573567867279,0.506671130657196
26.1,-1.7625057697296143,0.9088912606239319,-2.5484464168548584,-0.6609736084938049,0.5095012187957764,0.21729114651679993
26.15,2.684567928314209,2.956151247024536,6.041396617889404,-1.9486280679702759,2.1187992095947266,0.10276272147893906
26.2,-1.5643318891525269,1.4356608390808105,3.407362937927246,-0.4421304762363434,0.2453642189502716,-0.03321930021047592
26.25,-0.5405436158180237,-2.256648063659668,-1.6750822067260742,1.222821831703186,0.005877840332686901,0.09771201014518738
26.3,-0.15628647804260254,-2.0711004734039307,-5.525629997253418,1.1146011352539062,-0.38476815819740295,-0.3926065266132355
26.35,0.04417957365512848,-1.59764564037323,-1.7144168615341187,-0.10355256497859955,0.5643436312675476,-0.4689699709415436
26.4,-0.021515265107154846,-0.502321720123291,2.4299938678741455,-0.362624853849411,0.6296692490577698,-0.23491701483726501
26.45,0.015210993587970734,0.32084065675735474,1.171404480934143,-0.016884248703718185,0.13166075944900513,-0.2787209749221802
26.5,-0.15816649794578552,-0.222950741648674,-1.2741873264312744,0.38417816162109375,0.19900156557559967,-0.3488839864730835
26.55,-1.9235429763793945,0.2911728620529175,-4.656945705413818,0.20787306129932404,-0.21193170547485352,-0.8970390558242798
26.6,0.7010137438774109,1.00137460231781,-1.4096667766571045,-0.9147592782974243,0.2820913791656494,-0.9743337035179138
26.65,-0.022525012493133545,1.5676740407943726,4.355334758758545,-1.2629956007003784,0.0533786416053772,-0.5326288938522339
26.7,0.011328637599945068,0.6605927348136902,2.0364491939544678,0.06459712982177734,-0.5304739475250244,-0.12381011992692947
26.75,-0.2526431083679199,-0.439482182264328,-3.2667500972747803,0.6608218550682068,-1.0311121940612793,-0.02843487076461315
26.8,0.005621049553155899,0.05068106949329376,0.2950725555419922,0.13606543838977814,-0.03796537593007088,0.005648400168865919
26.85,0.18472585082054138,-0.6051046848297119,1.0785270929336548,0.2887934148311615,-0.2749233543872833,0.13146667182445526
26.9,-1.3923062086105347,-4.348464488983154,-6.412410736083984,0.37879514694213867,-1.0950024127960205,-0.08392444252967834
26.95,-0.8161815404891968,-1.7906891107559204,-3.7205617427825928,-0.12742821872234344,-0.32950717210769653,-0.3326244056224823
27.0,0.7966606020927429,-1.067623257637024,0.3378283381462097,-0.7236100435256958,-0.12704512476921082,-0.31493058800697327
27.05,0.2046915888786316,-0.11919038742780685,0.8940670490264893,-1.462705135345459,-0.31447046995162964,-0.3652624189853668
27.1,0.2705227732658386,1.6711740493774414,1.5335094928741455,-1.621925711631775,-0.19484125077724457,-0.044786322861909866
27.15,0.30311375856399536,0.6368951201438904,0.537533164024353,-1.147847294807434,-0.0990828424692154,0.10104627162218094
27.2,0.07529185712337494,-2.9861302375793457,-0.8379604816436768,-0.7200549244880676,-0.12916454672813416,0.10595918446779251
27.25,-0.22656019032001495,-0.9181279540061951,-1.1786233186721802,-0.2878772020339966,0.024637816473841667,0.053803641349077225
27.3,1.2006113529205322,-6.309739589691162,-2.8767576217651367,0.1918099820613861,0.9860877990722656,-0.0337718203663826
27.35,-2.6559548377990723,-4.707696437835693,-2.7873215675354004,-6.841868162155151e-05,3.2837305068969727,-1.1399632692337036
27.4,-1.440832257270813,-0.10199405997991562,2.6083528995513916,-0.3377445340156555,1.0886814594268799,-0.12597714364528656
27.45,0.3656189441680908,2.0369112491607666,4.994350910186768,1.0895020961761475,-0.5235232710838318,0.43714314699172974
27.5,-0.02560356631875038,1.546677827835083,-0.15613877773284912,1.7201075553894043,-1.2804261445999146,0.49104633927345276
27.55,-0.34400230646133423,0.5325807929039001,-2.0399160385131836,0.98392254114151,-1.0570851564407349,0.4273688793182373
27.6,0.07777393609285355,-0.7944995760917664,0.1963782012462616,0.41425734758377075,-0.32045307755470276,0.5478790998458862
27.65,0.002489253878593445,-0.508202850818634,1.1735153198242188,0.5636007785797119,-0.6087440252304077,0.26151785254478455
27.7,-1.3785150051116943,2.2753303050994873,-2.912688732147217,0.41779106855392456,-1.0978158712387085,-0.10333825647830963
27.75,-1.4071019887924194,0.6265932321548462,-3.1408238410949707,-0.08297114074230194,-0.14254286885261536,0.038943152874708176
27.8,0.005264692008495331,-1.5708656311035156,-1.2120089530944824,-0.853376567363739,0.17640389502048492,-0.13431961834430695
27.85,-0.44594234228134155,1.5407744646072388,0.7024038434028625,-1.62887704372406,0.15362542867660522,-0.1591205894947052
27.9,-0.09699534624814987,0.16365621984004974,0.16306127607822418,-0.710131049156189,0.010295002721250057,-0.03454918414354324
27.95,-0.3873227834701538,0.14641308784484863,-1.2752219438552856,-0.23299607634544373,-0.24455657601356506,-0.13408081233501434
28.0,-0.7731111645698547,0.05024484544992447,-2.8919522762298584,0.035671625286340714,0.10120328515768051,0.1459456980228424
28.05,-1.3570157289505005,-2.1234047412872314,-4.83286714553833,0.23738589882850647,1.6414844989776611,-0.10272454470396042
28.1,0.858071506023407,-0.8648341298103333,1.2263847589492798,-1.132315754890442,2.162046194076538,-0.6446037888526917
28.15,0.09269008040428162,3.079602003097534,4.655509948730469,-0.7370556592941284,-0.12017147243022919,-0.23905788362026215
28.2,-0.29574713110923767,1.6649380922317505,0.6092075109481812,0.8418081998825073,-0.9825625419616699,0.1531536877155304
28.25,-0.2561425566673279,0.006244962103664875,-1.7083280086517334,0.5916138887405396,-0.696097731590271,0.3290463984012604
28.3,0.312533974647522,-0.5556138157844543,1.3971364498138428,0.2191457748413086,-0.15407733619213104,0.46744441986083984
28.35,0.17085647583007812,-0.032256342470645905,1.2002853155136108,0.46544456481933594,-1.0291533470153809,0.3275684416294098
28.4,0.0906166285276413,1.1121628284454346,-0.7410198450088501,0.20381252467632294,-0.744269073009491,-0.09411248564720154
28.45,0.08106254041194916,0.9094764590263367,-0.24611252546310425,-0.5797647833824158,0.13561193645000458,0.10699368268251419
28.5,1.1682137250900269,-0.012260742485523224,1.7812222242355347,-1.0888071060180664,0.24289120733737946,0.19566643238067627
28.55,-0.12399288266897202,-0.1381521075963974,-0.1682218611240387,-0.465119332075119,0.26408320665359497,0.3333166539669037
28.6,-1.0369092226028442,0.714453399181366,-3.431920051574707,-0.18111881613731384,0.577475368976593,0.5747377872467041
28.65,-1.2111754417419434,-0.09006863087415695,-1.1762269735336304,-0.44937315583229065,2.2740113735198975,0.4808940887451172
28.7,1.6815584897994995,3.2647299766540527,6.089654445648193,-0.8250482082366943,2.5177667140960693,0.03753660246729851
28.75,-1.7283200025558472,2.235252618789673,5.31571102142334,0.5301712155342102,-0.2485782653093338,-0.31303489208221436
28.8,-0.6441778540611267,1.408591389656067,0.27935320138931274,1.8564928770065308,-1.1045364141464233,-0.49117621779441833
28.85,0.02728767693042755,-0.8125854134559631,-2.8904411792755127,2.26619029045105,0.0045342524535954,-0.5595089197158813
28.9,0.7885374426841736,-4.140485763549805,-3.1925477981567383,1.6463899612426758,0.6495468616485596,-0.11924770474433899
28.95,-1.0059086084365845,-3.778031349182129,-5.062290191650391,0.6860959529876709,-0.648056149482727,-0.5066054463386536
29.0,0.3105330467224121,-0.052243921905756,-1.5132123231887817,0.20208385586738586,-0.30822643637657166,-1.4935133457183838
29.05,0.7363744974136353,3.8887529373168945,3.304164171218872,-0.1726219654083252,-0.12314128130674362,-0.8525742292404175
29.1,0.3909178376197815,0.8637140393257141,1.6834754943847656,0.0017063645645976067,-0.3699411451816559,-0.16060256958007812
29.15,-0.12777133285999298,-0.37836652994155884,-0.03757478669285774,0.3831740617752075,-1.1416062116622925,0.10356822609901428
29.2,-0.10668091475963593,-0.2611998915672302,-0.5355040431022644,0.5822087526321411,-1.3396739959716797,-0.07131362706422806
29.25,-1.6527950763702393,0.9470065832138062,-1.6091482639312744,0.2900995910167694,-1.0272784233093262,-0.15363185107707977
29.3,0.26640868186950684,-0.17046067118644714,-0.2261604368686676,-0.13763630390167236,-0.2151063084602356,0.0395946204662323
29.35,-0.2043190896511078,-0.3798598349094391,-0.8184118866920471,-0.5185224413871765,-0.1265190690755844,-0.039067238569259644
29.4,-0.057782843708992004,-0.5066136121749878,-1.0749729871749878,-1.0209619998931885,-0.023810096085071564,-0.09215714782476425
29.45,0.7874923944473267,1.1089352369308472,1.3666224479675293,-1.2249960899353027,0.05558593198657036,-0.02568860910832882
29.5,-0.6900551915168762,0.9617348313331604,0.28396692872047424,-0.9311314821243286,-0.0781363844871521,0.04339556023478508
29.55,0.4508292078971863,-0.6656648516654968,0.6439655423164368,-0.4695323407649994,-0.09361597150564194,-0.04403630271553993
29.6,-0.13747107982635498,0.2129470407962799,-0.648249089717865,-0.05224126577377319,0.058112483471632004,0.056930530816316605
29.65,0.00507403165102005,0.19185380637645721,-1.3829801082611084,-0.16942130029201508,0.4101439118385315,0.36431053280830383
29.7,-1.0432111024856567,0.3873240351676941,-3.33551025390625,-0.1384037733078003,0.9611373543739319,0.837556779384613
29.75,-3.0046799182891846,-0.06460753828287125,-6.036308288574219,0.212877094745636,3.6437339782714844,0.5492796301841736
29.8,-0.3217431902885437,-2.4276089668273926,-3.714608669281006,-1.5156302452087402,3.59190034866333,0.013009265996515751
29.85,-0.20797428488731384,-2.45025897026062,2.3877921104431152,-2.9985275268554688,0.32151591777801514,-0.32776540517807007
29.9,0.25534844398498535,1.9013080596923828,6.720605373382568,-2.5783321857452393,-0.790937066078186,-0.1456405371427536
29.95,0.32611867785453796,2.770242691040039,6.0669355392456055,-0.32841792702674866,-1.2290877103805542,0.05986597761511803
30.0,0.6927217245101929,2.0440359115600586,0.7492634057998657,1.1753151416778564,-1.544705867767334,0.11794976145029068
30.05,-0.25258195400238037,1.3401858806610107,-3.281489372253418,1.0231443643569946,-1.504883885383606,0.009190133772790432
30.1,-0.11214888095855713,-0.6678151488304138,-0.8331378102302551,0.24200251698493958,-0.22004921734333038,0.17332546412944794
30.15,0.2717915177345276,-1.4195406436920166,0.5200921893119812,0.028400968760252,-0.0011034248163923621,0.1128375306725502
30.2,-0.6486228108406067,-1.6052082777023315,-2.1817495822906494,-0.6410894393920898,-0.7649943828582764,-0.463396817445755
30.25,-1.432336449623108,-0.4925961494445801,-3.0326406955718994,-2.1590261459350586,-0.38246670365333557,-0.6501840353012085
30.3,0.8407677412033081,1.0544135570526123,1.7584872245788574,-2.499493360519409,1.4629935026168823,-0.892869770526886
30.35,3.1668365001678467,3.4482007026672363,6.145712852478027,-1.3066235780715942,1.2138793468475342,-0.5447666645050049
30.4,-0.48290881514549255,-0.5899288058280945,0.7789064049720764,1.052545428276062,-1.4454264640808105,0.7815128564834595
30.45,-1.004054307937622,-1.951117992401123,-3.850083827972412,1.2475336790084839,-1.5372146368026733,0.6210201382637024
30.5,0.26032668352127075,0.0667971596121788,0.5829580426216125,0.24644917249679565,0.06892690807580948,0.248679980635643
30.55,0.057262469083070755,0.39706796407699585,0.6169381737709045,0.37452763319015503,-0.17434237897396088,0.3106008768081665
30.6,-0.0854170098900795,-0.36578360199928284,-0.7475307583808899,0.5913490653038025,-0.5160058736801147,0.18643812835216522
30.65,-0.18705284595489502,-0.5732879042625427,-0.6577901244163513,0.24909289181232452,-0.31182003021240234,0.288773775100708
30.7,0.1559343785047531,0.06676193326711655,0.2618241608142853,0.022449558600783348,-0.13247278332710266,0.1449708193540573
30.75,0.010574664920568466,0.05680558457970619,0.18435561656951904,0.12769044935703278,-0.26861903071403503,0.1379258781671524
30.8,1.048073649406433,-0.7998342514038086,-0.4647658169269562,0.03136342391371727,-0.5016314387321472,0.15594980120658875
30.85,-0.10854543000459671,0.15696150064468384,-0.29343798756599426,0.11808053404092789,-0.36093026399612427,-0.10302683711051941
30.9,-0.1148388683795929,1.7870513200759888,0.7364861965179443,0.22833901643753052,-0.22334633767604828,-0.1027517020702362
30.95,0.6739329099655151,-1.4038583040237427,0.11543696373701096,1.0176180601119995,-0.27447259426116943,-0.1080380454659462
31.0,-0.36300086975097656,-0.8828248381614685,-1.1749577522277832,0.4871269464492798,-0.22543556988239288,-0.0025495283771306276
31.05,0.6621545553207397,-1.0770189762115479,0.9522896409034729,0.19559651613235474,0.04180176556110382,0.07793527096509933
31.1,-0.2972080111503601,-0.2985362410545349,-0.535410463809967,0.3008255660533905,-0.2144007831811905,-0.057905763387680054
31.15,0.008173748850822449,0.1941109001636505,0.0005296991439536214,0.13979363441467285,-0.0261129941791296,0.00519524933770299
31.2,-0.017701419070363045,0.0502614788711071,0.13793978095054626,0.01948471926152706,0.022102639079093933,0.01939265802502632
31.25,-0.00774335116147995,-0.0901307612657547,-0.28460854291915894,0.10015770047903061,0.03060014359652996,0.02332126908004284
31.3,0.17199087142944336,0.7031795978546143,-0.9252817034721375,0.00901110004633665,0.2833192050457001,0.011224336922168732
31.35,-0.9836780428886414,-1.1424106359481812,1.3288649320602417,-0.35208970308303833,0.33674582839012146,-0.044139549136161804
31.4,-0.14578184485435486,0.6022176742553711,0.4056735336780548,-0.32620713114738464,-0.025160502642393112,-0.0643647089600563
31.45,-0.298471063375473,0.8864719271659851,-0.3603753447532654,-0.2097376137971878,-0.11671460419893265,0.012853567488491535
31.5,0.05817922577261925,1.7432376146316528,0.44929784536361694,-0.25724393129348755,-0.03175122290849686,0.012736883014440536
31.55,-0.05698748305439949,0.3127146065235138,-0.08038601279258728,-0.00031526340171694756,-0.03683764860033989,0.0674733892083168
31.6,-0.6664247512817383,-0.48758843541145325,-2.94054913520813,-0.13940005004405975,0.3771156966686249,0.13649509847164154
31.65,-2.370847463607788,0.17295077443122864,-5.590854167938232,-0.39217090606689453,2.306412696838379,-0.34122389554977417
31.7,-2.0953681468963623,-1.444744348526001,0.7393753528594971,-0.7110263109207153,5.162482738494873,-0.6630203127861023
31.75,1.8223824501037598,-2.8859691619873047,4.565343379974365,-0.596099853515625,5.2150421142578125,-0.19746394455432892
31.8,3.1140642166137695,-3.397629737854004,6.213772296905518,-0.3367745280265808,2.7535054683685303,0.6359149217605591
31.85,4.39584493637085,-2.8970389366149902,4.66715669631958,0.9977349638938904,0.7140692472457886,1.1800317764282227
31.9,1.9227709770202637,-3.988077163696289,0.41773757338523865,2.8438446521759033,-0.10318852961063385,1.3609411716461182
31.95,-0.9685388207435608,-4.8541579246521,-3.7524051666259766,3.7569737434387207,-0.6441746354103088,1.6565557718276978
32.0,-0.41249173879623413,-3.834782361984253,-6.378336429595947,3.233962297439575,-0.5998857617378235,2.5416688919067383
32.05,1.9825663566589355,2.895251989364624,-3.1617090702056885,1.8120604753494263,-0.8307117819786072,3.2757909297943115
32.1,-0.5413983464241028,7.220876693725586,-0.379949152469635,1.698179841041565,-1.7207452058792114,3.099963903427124
32.15,-0.289055198431015,8.686325073242188,2.6024136543273926,0.30601686239242554,-1.0473730564117432,1.9984709024429321
32.2,-2.0641164779663086,4.914949417114258,1.9995315074920654,0.28037339448928833,-1.0337069034576416,0.38960468769073486
32.25,-1.5346729755401611,0.701655387878418,0.2615494132041931,0.598892331123352,-0.7242692708969116,-0.32510554790496826
32.3,-1.3033909797668457,-1.3406621217727661,-0.12138550728559494,0.22575385868549347,-0.7680493593215942,-0.6763981580734253
32.35,-1.0767055749893188,-1.0938942432403564,0.3757549822330475,-0.371299684047699,-0.6307541728019714,-0.7544834017753601
32.4,-0.5072985291481018,-0.3821765184402466,0.36239513754844666,-0.517280101776123,-0.4078962802886963,-0.5607706308364868
32.45,-0.8983086347579956,0.026267046108841896,-0.004353775642812252,-0.41221728920936584,-0.41329869627952576,-0.3994894325733185
32.5,-0.008104419335722923,0.28591737151145935,-0.3334771692752838,-0.3782692849636078,-0.15257969498634338,-0.20564906299114227
32.55,0.2356431931257248,0.702792227268219,-0.00022554505267180502,-0.3285589814186096,-0.09487131237983704,-0.11982350051403046
32.6,0.512373685836792,0.36443138122558594,0.28281310200691223,-0.05989804491400719,-0.10605400800704956,0.0776277482509613
32.65,0.3275594413280487,-0.3541985750198364,0.6007388234138489,0.18089567124843597,-0.17323864996433258,0.26790592074394226
32.7,0.49439737200737,-1.428697943687439,1.127936840057373,0.5893474817276001,-0.5095760226249695,0.6364717483520508
32.75,-0.6435689330101013,-4.308353900909424,-0.00811221357434988,0.9054132699966431,-1.1598291397094727,1.1340025663375854
32.8,0.10171442478895187,-2.8009133338928223,1.1255955696105957,-0.7744629383087158,-0.21585480868816376,1.002246379852295
32.85,2.2434194087982178,-0.5315848588943481,0.4652186632156372,-1.264014720916748,0.1991947740316391,1.0061384439468384
32.9,0.2987131178379059,1.0100845098495483,-1.2137764692306519,-1.402642011642456,-0.8414076566696167,0.7049686312675476
32.95,0.024244841188192368,3.2216618061065674,0.6940547227859497,-2.4858624935150146,-1.0082042217254639,0.6168733835220337
33.0,-2.814208745956421,4.059514045715332,1.5659114122390747,-1.983923316001892,-1.2075201272964478,0.9240415096282959
33.05,-0.5123766660690308,3.0427134037017822,1.130454182624817,-0.6365565061569214,0.5436754822731018,0.712348997592926
33.1,0.6098787784576416,0.7791560292243958,-1.003624439239502,0.20785930752754211,0.785789430141449,-0.1242821216583252
33.15,0.0017053931951522827,-0.9750573635101318,-2.0547802448272705,0.9869853854179382,-0.2596016824245453,-0.46335816383361816
33.2,1.4941112995147705,-0.8185231685638428,-1.973326563835144,1.4294095039367676,-1.2342206239700317,0.44895073771476746
33.25,-0.1327032744884491,-0.30622637271881104,-2.2022361755371094,1.4520201683044434,-1.6265705823898315,0.2814626693725586
33.3,0.44932740926742554,0.5001831650733948,-0.13640040159225464,0.5158711671829224,-0.6676020622253418,0.2656407952308655
33.35,-0.014686619862914085,-0.2080928236246109,0.5804100632667542,0.36511796712875366,-0.3885458707809448,0.4143308997154236
33.4,-0.95965576171875,-1.317327618598938,-0.015550714917480946,0.4446086883544922,-0.325425922870636,0.4481044411659241
33.45,-1.8459811210632324,-1.1018860340118408,0.40970686078071594,0.09865540266036987,-0.00785045325756073,0.6307323575019836
33.5,6.229025840759277,-0.7907591462135315,0.21113847196102142,0.2904006540775299,0.3410341441631317,1.3288418054580688
33.55,4.250481128692627,-0.23372414708137512,-2.429776430130005,-0.023853804916143417,-0.1984587013721466,0.387416273355484
33.6,4.002261638641357,-0.7913727760314941,-3.0599875450134277,-0.9794913530349731,0.42570289969444275,0.29511234164237976
33.65,3.4070651531219482,-2.018458127975464,-2.2704195976257324,-0.6228936314582825,0.13738219439983368,0.6317613124847412
33.7,14.740187644958496,-0.5164300799369812,-3.5680251121520996,-0.8753747344017029,1.0593688488006592,0.7027779221534729
33.75,0.5858761072158813,0.7057811617851257,-0.7398107051849365,-0.19939187169075012,-0.5282439589500427,-1.2982760667800903
33.8,-0.4296560287475586,0.30600905418395996,1.448375940322876,-0.30238932371139526,0.08625701069831848,-0.1492103487253189
33.85,-4.913045406341553,2.553262233734131,-2.2682180404663086,-0.1968802809715271,0.725327730178833,-0.3295081853866577
33.9,-1.3188003301620483,-0.476165771484375,-0.46196943521499634,0.2574649453163147,1.2540199756622314,0.31353995203971863
33.95,-1.01094651222229,-0.15062302350997925,-1.8025411367416382,-0.08519218862056732,1.216203212738037,0.6450778841972351
34.0,-0.13193708658218384,-1.3753153085708618,-2.670933485031128,-0.311387300491333,1.0379558801651,1.4228804111480713
34.05,1.7696199417114258,2.4295098781585693,2.787198305130005,-1.3932870626449585,1.2843213081359863,1.245519757270813
34.1,-1.1503328084945679,1.7726891040802002,5.384846210479736,-0.9536415338516235,0.25674155354499817,-0.14546872675418854
34.15,1.3548777103424072,1.5078911781311035,-1.0446245670318604,-0.09913497418165207,0.5657243132591248,-0.17296355962753296
34.2,1.3559387922286987,-0.6902400851249695,-4.485162258148193,0.45502781867980957,0.6375809907913208,0.5805376172065735
34.25,2.789202928543091,1.9471287727355957,-0.9038991332054138,1.477207899093628,-0.12549886107444763,1.8533371686935425
34.3,3.0460174083709717,-1.1115355491638184,-2.885491371154785,2.410667657852173,-2.3085391521453857,0.5127211809158325
34.35,0.18611757457256317,-0.7859642505645752,0.8332971930503845,-0.8975369334220886,-2.8391647338867188,-1.926052451133728
34.4,-0.7685941457748413,-0.7579073905944824,1.7989388704299927,-2.6754372119903564,-1.3888914585113525,-2.7654945850372314
34.45,0.3862890601158142,0.9745566844940186,2.0824153423309326,-2.31107497215271,-0.7504405975341797,-2.5999293327331543
34.5,-0.052000969648361206,-0.024520309641957283,2.163853406906128,0.12030670046806335,-0.9673845171928406,-0.8219602108001709
34.55,-1.7810286283493042,-3.789933919906616,1.032090425491333,2.0072364807128906,-0.8197779655456543,0.7290112972259521
34.6,-1.1614609956741333,-3.0559499263763428,1.6342272758483887,0.987688422203064,0.3549010157585144,1.432745099067688
34.65,0.8473562002182007,1.3546226024627686,2.1198341846466064,-0.1673002392053604,1.360328197479248,0.964307427406311
34.7,0.47700491547584534,0.4521065950393677,-0.3021564483642578,0.2598699629306793,0.906177282333374,0.34466803073883057
34.75,1.8606593608856201,-0.42560645937919617,-1.7336286306381226,0.1403946578502655,-0.10069786757230759,0.5311623215675354
34.8,-0.9539419412612915,0.16495075821876526,-2.19468092918396,-0.5889344215393066,-1.110703468322754,0.37809306383132935
34.85,-0.7942622303962708,0.6159175634384155,-1.633716344833374,-1.1437510251998901,-0.6921700835227966,0.06288377940654755
34.9,-1.0490156412124634,-0.1173618882894516,-0.8935244679450989,-0.6422053575515747,-0.493656724691391,0.09401291608810425
34.95,-1.5495368242263794,-0.2716198265552521,-0.1337803453207016,-0.20730680227279663,-0.6863507628440857,1.2579201459884644
35.0,-1.202921986579895,1.6838475465774536,0.7918199300765991,-0.18264298141002655,-0.19707196950912476,3.1905508041381836
35.05,-1.1529020071029663,5.97836971282959,2.669294595718384,0.6950050592422485,1.1660047769546509,4.8436079025268555
35.1,4.068476676940918,1.8878066539764404,-2.5774576663970947,2.2382500171661377,2.8384268283843994,4.303986072540283
35.15,2.6234359741210938,4.272954940795898,-1.7492624521255493,-0.0930754691362381,0.035114821046590805,-1.1357665061950684
35.2,-0.12833590805530548,2.712813377380371,1.6981922388076782,0.26242876052856445,-1.6883244514465332,-5.061005115509033
35.25,-0.7286769151687622,1.402397632598877,3.475181818008423,2.053161382675171,-1.660710096359253,-4.396881103515625
35.3,-4.614419460296631,-2.5743319988250732,2.4477882385253906,2.351755380630493,-2.0026392936706543,-4.3388352394104
35.35,-5.3575568199157715,-2.0168261528015137,1.6151987314224243,1.4462467432022095,0.11009836196899414,-5.170525550842285
35.4,-1.4564967155456543,-2.148667812347412,1.3631174564361572,1.9308985471725464,0.7134912014007568,-3.150191307067871
35.45,-1.5387440919876099,-3.055959463119507,-1.3199008703231812,2.6542186737060547,-1.761400580406189,-0.6421326994895935
35.5,-0.27559909224510193,-4.554786682128906,-5.9362688064575195,1.9280644655227661,-1.822556734085083,0.18838638067245483
35.55,-0.010233059525489807,-3.2768335342407227,-3.1958868503570557,-0.5486772656440735,0.7262693047523499,-1.517922282218933
35.6,-0.26736634969711304,-0.5524092316627502,-0.010878367349505424,-2.136627674102783,1.7084181308746338,-2.066218614578247
35.65,0.5541501045227051,0.9288955330848694,2.9834518432617188,-2.2347660064697266,0.8675469756126404,0.40322235226631165
35.7,-0.280706524848938,4.280848979949951,5.937275409698486,-1.3541617393493652,0.9755455851554871,2.7328996658325195
35.75,3.084787368774414,3.4528396129608154,3.8900482654571533,0.6703242063522339,1.3707871437072754,3.400498390197754
35.8,4.956925868988037,2.205214738845825,0.30023181438446045,1.4833602905273438,2.1425256729125977,1.063018560409546
35.85,3.779851198196411,-1.54689359664917,-3.8107197284698486,1.4849733114242554,1.6453417539596558,-1.6661101579666138
35.9,1.0742037296295166,-3.4387693405151367,-5.472336769104004,0.5863884687423706,1.2675447463989258,-3.369835376739502
35.95,-0.20515243709087372,-4.360292434692383,-3.3716938495635986,-0.6529405117034912,0.2554961144924164,-2.568068504333496
36.0,-2.119392156600952,-1.3465332984924316,1.6113483905792236,-2.1955373287200928,-2.2351462841033936,-0.4564603269100189
36.05,-5.083901405334473,3.093522548675537,4.461681365966797,-2.29585599899292,-3.693086624145508,2.658195734024048
36.1,-1.4074026346206665,1.1545109748840332,3.3203861713409424,0.17056378722190857,-0.8714552521705627,4.369541168212891
36.15,3.6402580738067627,0.5690785646438599,0.035831015557050705,1.004770278930664,2.7836756706237793,1.1301486492156982
36.2,4.103046417236328,-0.09075120091438293,-2.2873549461364746,0.5746713876724243,2.0150840282440186,-0.5106344223022461
36.25,1.5043493509292603,-1.6973531246185303,-2.710057497024536,0.37020251154899597,-0.3257313072681427,0.08073930442333221
36.3,0.295039564371109,-0.8338252305984497,0.023569250479340553,-0.22064948081970215,-0.5663148164749146,-0.0834893137216568
36.35,-0.38512009382247925,0.7635954022407532,1.7013331651687622,-0.46042099595069885,-0.2207113802433014,-0.16633892059326172
36.4,-0.12768660485744476,0.03381820768117905,0.2312467396259308,0.005243613384664059,0.08539151400327682,0.16202914714813232
36.45,0.24314479529857635,0.056063681840896606,-0.10716166347265244,-0.05164382979273796,0.18881388008594513,0.09641345590353012
36.5,0.12007685750722885,-0.08356570452451706,-0.07057613879442215,-0.04677708074450493,-0.02251807227730751,0.14106152951717377
36.55,0.2134145349264145,-0.012211814522743225,0.08789290487766266,-0.015750521793961525,0.06032694876194,0.04276473820209503
36.6,-0.054932162165641785,0.07812591642141342,0.2523312568664551,-0.061068445444107056,-0.02978063002228737,-0.024416210129857063
36.65,0.018094806000590324,-0.023350771516561508,0.3067088723182678,-0.04881046712398529,0.029353847727179527,-0.022777602076530457
36.7,-0.05569400638341904,-0.1339007019996643,0.25672483444213867,-0.039440225809812546,0.037342142313718796,-0.05371105298399925
36.75,0.09528978168964386,0.053830087184906006,0.3907260596752167,-0.06453211605548859,0.05136900395154953,-0.08545340597629547
36.8,0.009276125580072403,0.3744420111179352,0.7004256248474121,-0.01740293577313423,-0.09414845705032349,0.07166159152984619
36.85,0.10266983509063721,1.7467516660690308,2.1594138145446777,0.1330173760652542,-0.3965102434158325,0.5427287817001343
36.9,-1.5655688047409058,1.7738587856292725,2.548015594482422,0.9028686285018921,-0.8829295635223389,1.966552495956421
36.95,-0.5468315482139587,-0.5000428557395935,-0.6021960377693176,1.7472459077835083,-0.19830285012722015,2.7791600227355957
37.0,0.37113475799560547,-0.7095152735710144,-2.056293249130249,1.0739727020263672,0.938421905040741,1.2240616083145142
37.05,0.4017865061759949,-0.4334200620651245,-0.9918884038925171,0.2604192793369293,0.9335846304893494,-0.21859686076641083
37.1,-1.9862761497497559,0.18599051237106323,4.301384449005127,1.0271527767181396,-0.6610323786735535,1.2882472276687622
37.15,4.849025249481201,3.5863163471221924,1.2567960023880005,1.0564647912979126,2.965651750564575,2.4280593395233154
37.2,1.4555473327636719,-1.237195372581482,-9.576600074768066,-0.8578328490257263,6.242716312408447,-2.577735662460327
37.25,-1.7253284454345703,-5.42845344543457,-9.419981956481934,-2.8497722148895264,4.082727909088135,-4.829481601715088
37.3,-8.156144142150879,-1.17232346534729,10.659078598022461,-2.3698320388793945,-4.270491123199463,-1.9404336214065552
37.35,-6.508028030395508,-1.4157456159591675,8.862320899963379,0.5414788722991943,-7.099514484405518,3.4689462184906006
37.4,0.7984268665313721,-2.942640781402588,1.8793495893478394,1.009894847869873,-1.730472445487976,3.101942300796509
37.45,2.6139614582061768,0.34708189964294434,1.728705883026123,0.03209879249334335,0.11421868205070496,1.5887601375579834
37.5,0.42654916644096375,-0.26941564679145813,-1.2902393341064453,1.2571053504943848,-1.4510895013809204,1.7484393119812012
37.55,1.8714141845703125,0.8949437737464905,-2.3309319019317627,0.6637134552001953,-0.21627968549728394,2.5933966636657715
37.6,3.221287965774536,2.4559919834136963,0.04395381361246109,-0.9187448024749756,1.1529594659805298,2.4665944576263428
37.65,1.028057336807251,0.7943610548973083,1.022894024848938,-1.1081138849258423,0.9855700135231018,1.8572088479995728
37.7,0.8164817094802856,0.34492477774620056,1.0480269193649292,-0.9839669466018677,1.3937841653823853,1.1454572677612305
37.75,1.5561226606369019,0.2570001184940338,-0.6250661015510559,-0.8743404150009155,1.2508383989334106,0.38043534755706787
37.8,1.0285018682479858,0.4925737977027893,0.11144257336854935,-0.26902511715888977,0.49881699681282043,0.15053284168243408
37.85,0.5310850143432617,1.114634394645691,1.257507085800171,-0.7016701102256775,0.2484169602394104,-0.24030257761478424
37.9,0.96991366147995,0.973063588142395,-0.0987129658460617,-0.9597451090812683,0.36648866534233093,-0.32753491401672363
37.95,-0.1027890294790268,0.47555434703826904,1.0337272882461548,-1.0005348920822144,0.05045032501220703,-0.44159525632858276
38.0,0.18302717804908752,0.6711482405662537,0.611196756362915,-0.4156687259674072,-0.16292473673820496,0.011256112717092037
38.05,1.9109779596328735,0.7446606755256653,-1.2400375604629517,-0.22856532037258148,-0.3659575283527374,0.4230315387248993
38.1,3.585484743118286,1.036182165145874,-2.9077975749969482,-0.6972844004631042,-0.8587697148323059,0.43256258964538574
38.15,1.480034589767456,0.22148029506206512,0.7241765260696411,-1.141156792640686,-2.03218150138855,-0.6258922815322876
38.2,-4.085370063781738,-0.9462547302246094,4.4828572273254395,-1.0815274715423584,-2.0923821926116943,-1.5539377927780151
38.25,-4.259702682495117,0.6977120637893677,4.8076090812683105,-0.22015325725078583,-0.09966344386339188,-0.35920941829681396
38.3,-1.5788836479187012,-0.12690654397010803,0.6374977827072144,1.0451873540878296,0.9433507323265076,1.1535232067108154
38.35,0.48980674147605896,-0.4613606929779053,-1.5860809087753296,1.1493332386016846,0.5561199188232422,1.1042776107788086
38.4,0.3727082312107086,-0.9878634214401245,-1.4647225141525269,0.7238339185714722,-0.16792353987693787,0.21617621183395386
38.45,0.18298882246017456,0.2766619920730591,-0.43615657091140747,-0.019027475267648697,-0.10915305465459824,-0.39089784026145935
38.5,0.24335801601409912,0.34310808777809143,0.6073115468025208,-0.19827356934547424,0.06757138669490814,-0.3892117142677307
38.55,-0.2305431365966797,-0.13323798775672913,0.7300906181335449,-0.48208630084991455,0.1481640636920929,-0.5522867441177368
38.6,-0.156863734126091,0.30893412232398987,0.6625836491584778,-0.6347556710243225,0.23280219733715057,-0.5311682224273682
38.65,-0.24344412982463837,-0.04899698495864868,0.2792077958583832,-0.2726386487483978,0.09968532621860504,-0.4449857175350189
38.7,0.2545182704925537,-0.10650064796209335,0.06401253491640091,-0.13435538113117218,-0.02313656359910965,-0.20924678444862366
38.75,0.9084500074386597,-0.9788274168968201,-0.8065119981765747,-0.5297975540161133,-0.03884692117571831,-0.24053572118282318
38.8,0.09673367440700531,0.6433419585227966,0.7659507989883423,-1.2202537059783936,-0.188326895236969,-0.4615863263607025
38.85,-0.7306724190711975,0.004023400135338306,0.8050351738929749,-0.3538608253002167,-0.31596991419792175,-0.04495614394545555
38.9,-1.1330679655075073,0.7199991345405579,1.2257951498031616,-0.14335939288139343,-0.12924331426620483,0.05717547610402107
38.95,0.23028071224689484,0.46979618072509766,0.41582387685775757,0.0005798125639557838,0.02289181388914585,-0.10286417603492737
39.0,1.3105162382125854,0.75665682554245,-0.1918322592973709,0.20850379765033722,-0.20646031200885773,-0.09705053269863129
39.05,0.7206265330314636,0.6785469055175781,0.345184862613678,0.24846450984477997,-0.5181143283843994,-0.21061937510967255
39.1,-1.8632757663726807,-0.8926728963851929,1.0479305982589722,0.37124788761138916,-0.7587389349937439,-0.3542017638683319
39.15,-3.439267158508301,-3.049969434738159,0.8067196011543274,0.09133829921483994,-0.4414294362068176,-0.3537028729915619
39.2,-5.49561071395874,-5.529496669769287,1.0857999324798584,-1.5785202980041504,0.08655396848917007,-1.6999411582946777
39.25,-4.36611270904541,0.4467746317386627,4.563844680786133,-3.9316565990448,1.3671846389770508,-2.9891576766967773
39.3,0.8095996975898743,6.582662105560303,2.140211343765259,-1.0784846544265747,1.1437230110168457,-0.5003083944320679
39.35,4.1586198806762695,8.878316879272461,-2.332841396331787,1.0282270908355713,-0.5838881134986877,-0.09471353888511658
39.4,-0.9661232233047485,4.244196891784668,2.7533700466156006,2.534158229827881,0.0846514105796814,-1.1286484003067017
39.45,-0.8073368668556213,1.3645325899124146,0.08059538900852203,2.2012834548950195,0.6441538333892822,-1.4257804155349731
39.5,5.373416423797607,7.6228132247924805,-6.008205413818359,-3.0011515617370605,-0.5007802844047546,-3.974062442779541
39.55,-5.488738059997559,0.9885819554328918,3.97440242767334,-1.1266740560531616,-1.535143256187439,-3.6151976585388184
39.6,-10.96246337890625,-1.2849024534225464,8.39492416381836,1.194955825805664,-2.0901060104370117,-1.4488412141799927
39.65,-0.32309702038764954,-2.1732499599456787,4.836877346038818,2.4087777137756348,-0.28125765919685364,-0.22557073831558228
39.7,3.2774484157562256,1.1785187721252441,-1.7789409160614014,2.796171188354492,0.18548591434955597,-0.8421961665153503
39.75,2.9410269260406494,0.018659016117453575,-1.912904143333435,1.6762962341308594,0.6620234251022339,-2.3688175678253174
39.8,0.1622520089149475,-1.264780044555664,-0.9528352618217468,-0.417416512966156,0.903096079826355,-2.7650790214538574
39.85,0.8954539895057678,0.8719994425773621,2.521425247192383,-1.951873779296875,1.2144383192062378,-2.352224349975586
39.9,1.0028835535049438,-0.92887282371521,3.5023140907287598,-0.6194424033164978,0.9111790060997009,-1.3311254978179932
39.95,0.20880861580371857,-3.2167727947235107,1.7441368103027344,0.7044861912727356,-0.004648834466934204,-0.6236457824707031
40.0,2.26491117477417,-7.136361598968506,0.8039402365684509,0.8371343016624451,-0.16911889612674713,-0.5094506144523621
40.05,2.4081387519836426,-5.821899890899658,-0.6456009149551392,0.18040695786476135,-0.714184582233429,-0.601683497428894
40.1,9.809510231018066,-3.2718029022216797,-1.4972482919692993,0.2583911716938019,-0.38236773014068604,-0.7030432820320129
40.15,-0.951996922492981,-2.1088926792144775,-4.794739246368408,0.5118974447250366,-1.4911621809005737,-1.2135542631149292
40.2,0.7116926908493042,3.038599729537964,-0.9648286700248718,-0.6342172026634216,-0.3075162470340729,-1.0235564708709717
40.25,0.5006410479545593,4.423356533050537,1.1411213874816895,-0.9973170161247253,0.3713606297969818,-0.4652157425880432
40.3,0.7982823848724365,1.4125232696533203,0.7432792782783508,-0.845831573009491,0.7796582579612732,0.3469833433628082
40.35,-0.05153597518801689,-1.5092192888259888,-0.5280930399894714,-0.20765545964241028,-0.7471392750740051,0.23801906406879425
40.4,-0.38653987646102905,-1.5939074754714966,-1.0197455883026123,-0.6778301000595093,-0.7279515862464905,-0.051226790994405746
40.45,-1.0232839584350586,-1.3839943408966064,0.2901109457015991,-1.3939871788024902,-0.5126610398292542,-0.08302129060029984
40.5,1.1631582975387573,1.0509800910949707,3.182511806488037,-0.7677901983261108,-0.055847711861133575,-0.13452781736850739
40.55,-0.5535757541656494,-1.0412870645523071,-2.4190661907196045,0.6263296008110046,-0.8620575666427612,0.2804277539253235
40.6,-0.543473482131958,-0.48053622245788574,-1.7742465734481812,0.538101077079773,0.07304894179105759,-0.217306450009346
40.65,0.48456358909606934,0.8785378932952881,2.1431305408477783,0.18836969137191772,0.8560394048690796,-0.3321162164211273
40.7,0.09184771776199341,0.03700454533100128,4.952023506164551,0.9004188179969788,0.279829740524292,-0.02788897417485714
40.75,-0.4431077837944031,-0.6561236381530762,2.4225690364837646,1.8525761365890503,0.3182777762413025,0.13993024826049805
40.8,0.1727445423603058,0.6517630815505981,-0.38741037249565125,1.6647533178329468,0.7785341739654541,0.21981190145015717
40.85,0.7205671072006226,0.987847089767456,-3.28717303276062,1.2311396598815918,0.4584748446941376,0.5593984723091125
40.9,-0.7718063592910767,0.7408754825592041,-6.559475898742676,0.5753563046455383,-0.48054683208465576,0.4004039466381073
40.95,0.6714196801185608,-0.027192551642656326,-2.882350206375122,-0.3424009382724762,0.07724972814321518,0.11666129529476166
41.0,0.02070053666830063,-1.4165433645248413,1.0499051809310913,-0.8959518671035767,0.8825828433036804,0.2179599404335022
41.05,-0.29381367564201355,-1.7236460447311401,3.355825424194336,-0.25227609276771545,0.3117116689682007,0.0708649680018425
41.1,-0.6951399445533752,-0.40570586919784546,1.8817641735076904,0.4774494469165802,-0.714448869228363,-0.0587146133184433
41.15,-0.46480515599250793,0.9605770707130432,0.18678322434425354,0.5732524991035461,-0.22602877020835876,0.09519890695810318
41.2,0.7074578404426575,0.7374498844146729,-1.1160755157470703,0.6601290702819824,0.48269057273864746,0.09042371809482574
41.25,0.2973865270614624,-1.1161694526672363,-3.4322750568389893,0.8782262206077576,-0.23573236167430878,0.03877389803528786
41.3,-0.43035614490509033,0.10654903203248978,-3.9915778636932373,0.2921794056892395,-0.5805486440658569,-0.35127389430999756
41.35,-0.5250124931335449,1.0661635398864746,-1.967973232269287,-0.7333417534828186,-0.24399679899215698,-0.03409804403781891
41.4,0.3036537766456604,0.475189208984375,0.3176480829715729,-1.021586537361145,-0.06019391119480133,0.21681828796863556
41.45,0.09627138078212738,-0.20612668991088867,2.4937756061553955,-0.6037077903747559,-0.25829336047172546,0.09469372779130936
41.5,0.681086003780365,0.44224971532821655,3.437020778656006,0.06013480946421623,-0.4351608455181122,-0.041266731917858124
41.55,0.521115243434906,0.4819956123828888,0.2525976300239563,0.9754737615585327,-0.4054063558578491,-0.19284680485725403
41.6,-0.049677297472953796,0.07947675883769989,-2.224069833755493,0.7817142009735107,-0.11254548281431198,-0.13585077226161957
41.65,0.3759332299232483,0.011112506501376629,-1.6133216619491577,0.05849181488156319,-0.11722814291715622,-0.1994154453277588
41.7,0.199321910738945,-0.971461296081543,-0.5565129518508911,0.004335688892751932,-0.1772560328245163,-0.07558618485927582
41.75,0.38392943143844604,-1.1553775072097778,0.3545990288257599,0.10581190884113312,0.014627890661358833,-0.06498321145772934
41.8,0.3208538293838501,-0.47845181822776794,0.1449659764766693,0.30812132358551025,-0.11562585085630417,-0.2754490375518799
41.85,-0.12640513479709625,-0.4016026556491852,-0.7674372792243958,0.33703523874282837,-0.2538905143737793,-0.08308239281177521
41.9,0.20095935463905334,0.7166319489479065,0.012324059382081032,0.01948978565633297,-0.04085979610681534,-0.03933579847216606
41.95,-0.30869585275650024,0.894851803779602,-0.08328744024038315,0.0773589015007019,-0.1998177319765091,0.1210080236196518
42.0,0.028117941692471504,0.29041486978530884,-0.08909908682107925,0.17943158745765686,-0.24623925983905792,0.15533167123794556
42.05,-0.12062637507915497,-0.04493125528097153,-0.9165299534797668,0.09106560796499252,-0.3686949610710144,0.2529481053352356
42.1,0.23854950070381165,-0.060817617923021317,-0.5846797823905945,-0.060762595385313034,-0.028939709067344666,0.11452899128198624
42.15,-0.2247386872768402,-0.3368290066719055,-1.2106306552886963,-0.2378743439912796,-0.04010777175426483,0.1419360339641571
42.2,-0.21735794842243195,-0.7759883999824524,-1.6070541143417358,-0.45561328530311584,-0.12100862711668015,0.01629815809428692
42.25,1.047490119934082,-1.9287306070327759,-0.42292141914367676,-0.7676861882209778,-0.14441190659999847,-0.08612794429063797
42.3,-0.021789178252220154,0.2101825326681137,-1.7222955226898193,-1.0404534339904785,-0.1480347067117691,-0.04911944642663002
42.35,0.21900080144405365,0.1929256170988083,-0.7672449350357056,-1.1602740287780762,-0.11058451980352402,-0.05576387420296669
42.4,0.9092312455177307,-0.6638823747634888,0.33515170216560364,-1.3767262697219849,-0.16972266137599945,-0.052092019468545914
42.45,0.13348707556724548,-0.7217997312545776,-1.131834864616394,-1.5024936199188232,-0.06997564435005188,0.02067030407488346
42.5,0.28823772072792053,-2.0988123416900635,-0.5420494675636292,-1.6896394491195679,-0.10891132056713104,0.05524377152323723
42.55,1.078233003616333,-2.598402500152588,0.8707637786865234,-1.769465684890747,-0.19324493408203125,0.07967027276754379
42.6,1.2300716638565063,-1.5484930276870728,1.825273036956787,-1.7755372524261475,-0.11092769354581833,0.08235111087560654
42.65,1.163303256034851,2.5447769165039062,1.8561015129089355,-1.747781753540039,-0.14074091613292694,0.03767409548163414
42.7,-0.5815563201904297,4.707162380218506,4.022030830383301,-0.9715040922164917,-0.03800863400101662,-0.07435238361358643
42.75,0.007324695587158203,3.129502773284912,4.696952819824219,0.10892659425735474,0.161945641040802,0.02165975049138069
42.8,-0.6598986387252808,-1.0837277173995972,-1.6583921909332275,0.17933547496795654,-0.3839184641838074,0.22896002233028412
42.85,-0.4624793231487274,-0.3571748733520508,-0.1346503347158432,0.27995625138282776,-0.04347117245197296,0.04383707046508789
42.9,-1.665164828300476,0.393791526556015,-1.5576298236846924,0.4057910144329071,0.03862954303622246,0.07706350833177567
42.95,-1.004726529121399,1.131245732307434,-0.15680676698684692,0.5310310125350952,0.03787543252110481,0.11151694506406784
43.0,-1.1316107511520386,-0.35000717639923096,0.48136433959007263,0.49996358156204224,0.028693366795778275,0.11850384622812271
43.05,0.642155110836029,-1.674529790878296,2.7433218955993652,0.4983852207660675,0.2264479100704193,0.22937238216400146
43.1,1.207741141319275,-1.99797785282135,2.2192234992980957,0.5203469395637512,0.10650380700826645,0.19012899696826935
43.15,5.178152084350586,-5.7129340171813965,3.20686411857605,0.4558655619621277,0.07955443859100342,0.16134753823280334
43.2,3.1943938732147217,-4.590186595916748,0.3381892144680023,0.3492419719696045,0.080609992146492,0.12524881958961487
43.25,-1.4805127382278442,4.341274738311768,0.1533171832561493,0.4447003901004791,0.014955786988139153,0.2162283957004547
43.3,2.050283432006836,-0.3011704981327057,0.759092390537262,0.4382057785987854,-0.05134747922420502,0.11879023909568787
43.35,-0.026336200535297394,-0.35131245851516724,-1.1933599710464478,0.5011687874794006,-0.05094413831830025,0.10300666838884354
43.4,1.6346261501312256,-1.7044527530670166,0.18042555451393127,0.5031949877738953,-0.07925543934106827,0.10192801058292389
43.45,4.200139045715332,-2.2720227241516113,-0.49669963121414185,0.42319050431251526,-0.02387838251888752,0.09941855818033218
43.5,-3.079314947128296,2.260903835296631,-1.490220069885254,0.3644982874393463,-0.0702727735042572,0.03900850936770439
43.55,-1.8134275674819946,1.4153302907943726,-1.7200108766555786,0.3291706442832947,-0.014706261456012726,0.00905526988208294
43.6,1.9175761938095093,-1.9045522212982178,0.001665400923229754,0.2889350950717926,0.042748890817165375,0.024551816284656525
43.65,1.1171702146530151,-1.1499089002609253,-0.9925113320350647,0.06842819601297379,-0.020429318770766258,0.04031405597925186
43.7,-0.5083708167076111,0.7496373653411865,-3.5957396030426025,0.08616239577531815,-0.12290268391370773,0.034105245023965836
43.75,-0.03578785061836243,1.4106005430221558,-3.7853057384490967,-0.01669551432132721,1.0745230913162231,0.2773807644844055
43.8,1.4814486503601074,0.7027291655540466,-4.573034763336182,-0.7997516989707947,2.934458017349243,-0.4430524706840515
43.85,0.6939942836761475,2.3008689880371094,-3.400054693222046,-2.7307424545288086,1.939335823059082,-0.8716329336166382
43.9,-3.0412721633911133,1.4410699605941772,-1.7012817859649658,-3.1664927005767822,0.695941150188446,-0.5202544927597046
43.95,-1.7951968908309937,-0.3949989974498749,2.0031468868255615,-2.8693814277648926,0.7023528814315796,-0.02256743051111698
44.0,1.6662781238555908,1.1183911561965942,5.443456649780273,-1.7457399368286133,0.16044487059116364,-0.07515837252140045
44.05,-2.361673355102539,-0.6734381318092346,5.0934529304504395,0.3441600501537323,-1.429729700088501,0.17501920461654663
44.1,0.5169054269790649,-2.94305419921875,4.179935455322266,0.7938181161880493,-0.8972941040992737,0.24308712780475616
44.15,-0.20767557621002197,-3.050046920776367,2.5269672870635986,0.5493083596229553,-0.8875705003738403,0.21115531027317047
44.2,-0.09107175469398499,-1.7099393606185913,0.5380458831787109,0.8262866735458374,-1.373461127281189,0.3234501779079437
44.25,-0.7650018334388733,-0.6627175807952881,-1.6744766235351562,0.8765862584114075,-1.2291090488433838,0.02335495501756668
44.3,-0.12000063061714172,0.6317597031593323,-0.1389942765235901,0.14743244647979736,-0.2911774516105652,-0.1316194385290146
44.35,-0.24355007708072662,0.2284669280052185,0.5217034816741943,-0.1620437204837799,-0.17227113246917725,0.15797388553619385
44.4,-0.31425121426582336,-0.2873487174510956,-0.2883378565311432,-0.008997960016131401,-0.4389010965824127,0.40856480598449707
44.45,-0.010695780627429485,0.2029275745153427,0.21991564333438873,0.06685151159763336,-0.27313530445098877,0.35208842158317566
44.5,-0.04252038896083832,-0.036748964339494705,0.4074220657348633,0.05012168362736702,-0.0660574734210968,0.23883278667926788
44.55,-0.10003585368394852,-0.22081489861011505,0.8996334671974182,0.11973913758993149,-0.11415139585733414,0.20539353787899017
44.6,-0.6585028767585754,-0.8347722887992859,0.30155378580093384,0.29985174536705017,-0.4970053434371948,0.17433662712574005
44.65,-1.3343454599380493,-1.4827805757522583,-0.04718087241053581,0.40175095200538635,-0.43174222111701965,0.1306842714548111
44.7,1.1172425746917725,-1.453840970993042,3.167337656021118,0.518916130065918,-0.15769241750240326,0.10661408305168152
44.75,3.8576910495758057,-4.642531871795654,4.325934410095215,0.6181401610374451,-0.06716711074113846,0.12548378109931946
44.8,-0.26999518275260925,-1.1084742546081543,2.029315710067749,0.5578868389129639,0.019866852089762688,0.0588565431535244
44.85,-0.44643184542655945,0.7989300489425659,1.3992236852645874,0.6206502914428711,-0.06745878607034683,0.025965334847569466
44.9,1.0220359563827515,-2.322558879852295,-1.1612378358840942,0.6721541285514832,-0.027199966832995415,0.010249066166579723
44.95,-0.9899633526802063,1.0319539308547974,-0.20368851721286774,0.5442562103271484,0.01811828464269638,0.09229466319084167
45.0,-0.6462152004241943,-0.3301156759262085,-3.545117139816284,0.7218976616859436,-0.1698288917541504,-0.0013212492922320962
45.05,-2.4977967739105225,2.261773109436035,-3.9739151000976562,0.670937716960907,-0.10843514651060104,0.00043040065793320537
45.1,-0.08322113752365112,1.6056562662124634,-1.7850085496902466,0.5638606548309326,-0.06193361431360245,0.03722928836941719
45.15,2.7585198879241943,-4.263818740844727,-2.5234365463256836,0.5065074563026428,-0.13586752116680145,0.017199726775288582
45.2,0.9231257438659668,-1.493240237236023,-1.2170336246490479,0.0743129551410675,-0.0717349648475647,0.09992565214633942
45.25,0.025413669645786285,-0.42502227425575256,0.42054545879364014,-0.057061128318309784,0.07108815759420395,0.15102626383304596
45.3,-0.7385687232017517,0.044154342263936996,-1.006467580795288,0.16237773001194,0.1923629194498062,0.1757136732339859
45.35,-2.2272300720214844,0.9891414642333984,-4.785390377044678,0.14085376262664795,1.1460250616073608,0.1426628828048706
45.4,-1.244457721710205,0.881441056728363,-4.34999418258667,-0.07983479648828506,3.4902124404907227,-0.3952946960926056
45.45,-0.08836893737316132,0.7824348211288452,-1.481484055519104,-1.0327199697494507,3.3817527294158936,-0.1481509953737259
45.5,-0.2639043629169464,3.6297597885131836,2.0490615367889404,-1.0020345449447632,1.2187739610671997,0.3173721134662628
45.55,0.5207372903823853,2.4707555770874023,6.141777515411377,0.4408889710903168,0.61937415599823,0.41130954027175903
45.6,-1.8307201862335205,0.782850980758667,7.20464563369751,1.5113760232925415,-0.28603214025497437,0.3748593330383301
45.65,0.013273298740386963,-1.0293350219726562,4.943964004516602,2.3023412227630615,-0.9607915878295898,0.20925167202949524
45.7,-0.4268685579299927,-3.624936580657959,0.31066492199897766,2.4458727836608887,-0.39770159125328064,-0.034381698817014694
45.75,0.34282997250556946,-5.151347637176514,-4.854330539703369,1.2456645965576172,-0.22531390190124512,-0.41454997658729553
45.8,-1.3916891813278198,-4.858259677886963,-7.087833881378174,-0.7157102227210999,-0.252431184053421,-0.8406944870948792
45.85,-0.14358484745025635,-4.166622161865234,-3.8463757038116455,-2.410879373550415,0.5726549625396729,-0.33291664719581604
45.9,0.3753959536552429,-1.4656602144241333,0.06454700976610184,-2.9206864833831787,1.074069857597351,0.020287884399294853
45.95,-0.13671869039535522,0.8121935129165649,2.5082390308380127,-2.191390037536621,0.5841654539108276,0.03167402744293213
46.0,-2.052886486053467,2.0874509811401367,1.720807671546936,-1.2660470008850098,-0.31579887866973877,0.1658833622932434
46.05,-0.1563159078359604,3.140939235687256,0.4506402909755707,-0.5963152050971985,0.15119552612304688,0.1542336791753769
46.1,0.8452748656272888,3.9884278774261475,-0.7112942934036255,-0.1393226683139801,-0.2012365758419037,-0.07749325037002563
46.15,-0.4355350434780121,4.0082316398620605,-0.6616342067718506,-0.08524572104215622,-0.7038618922233582,-0.10997341573238373
46.2,0.3097992241382599,1.2566356658935547,0.7880326509475708,0.09095549583435059,-1.0375707149505615,0.15379244089126587
46.25,-0.3962779641151428,-0.5467561483383179,1.666707158088684,0.2960209846496582,-1.170744776725769,0.18906362354755402
46.3,-0.3448903560638428,-3.032625198364258,2.095020055770874,0.4995814561843872,-0.42439407110214233,0.09332236647605896
46.35,0.18573051691055298,-2.380709409713745,2.0382394790649414,0.3084753453731537,0.06565510481595993,-0.05334780737757683
46.4,0.11210151016712189,-1.075592279434204,0.3798675835132599,0.29079166054725647,-0.4713195860385895,0.09169414639472961
46.45,-0.21613936126232147,0.6616174578666687,-0.6175777912139893,0.2428593933582306,-0.6143119931221008,-0.06383436173200607
46.5,-0.7173185348510742,0.2797071039676666,-0.7091328501701355,0.2622414231300354,-0.4871058762073517,0.228127121925354
46.55,0.08361101895570755,0.03727816045284271,0.10764984786510468,0.070882149040699,-0.35815975069999695,0.36437568068504333
46.6,-0.07431566715240479,-0.5448026657104492,-0.2487340271472931,0.03386640548706055,-0.37681135535240173,0.3317967355251312
46.65,-0.0933508425951004,-2.3190999031066895,-0.7362566590309143,0.028128044679760933,-0.4539377987384796,0.2842426300048828
46.7,-0.15284724533557892,-0.464514821767807,0.13373549282550812,-0.07835392653942108,-0.26741114258766174,0.054201509803533554
46.75,-0.10069996118545532,-0.8036090135574341,-0.10975515097379684,0.1165686696767807,-0.2454557865858078,-0.02799839898943901
46.8,0.3549672067165375,-1.5410159826278687,0.7898379564285278,0.16976310312747955,0.05757640302181244,-0.1085653230547905
46.85,-0.3259143829345703,-0.04330367222428322,0.974443793296814,0.31422269344329834,0.0993630662560463,-0.025934917852282524
46.9,-1.7851234674453735,2.0894649028778076,-2.2299671173095703,0.31143298745155334,-0.02697978913784027,-0.00344894384033978
46.95,-0.11539354920387268,1.4545902013778687,-1.1448769569396973,0.2793786823749542,-0.032821156084537506,0.04764755070209503
47.0,0.15200039744377136,2.710315227508545,-1.3829870223999023,0.022018682211637497,0.01227561105042696,0.049230314791202545
47.05,-0.7116034030914307,2.21907377243042,-1.4080214500427246,0.18372295796871185,0.02324226126074791,0.1783084273338318
47.1,-0.629725456237793,-0.21751657128334045,-2.0490925312042236,-0.0064009386114776134,0.2622055411338806,0.19614097476005554
47.15,-0.38385462760925293,-1.0738009214401245,-1.1271095275878906,-0.42971229553222656,1.3011797666549683,0.11103663593530655
47.2,1.097116470336914,4.030378341674805,3.4991769790649414,-1.0750987529754639,2.24949049949646,-0.43254363536834717
47.25,-0.3129075765609741,2.340008497238159,2.5211710929870605,0.18239249289035797,0.4481654167175293,0.10108430683612823
47.3,-0.2902509868144989,0.27745914459228516,0.16290003061294556,0.6430961489677429,-0.3818501830101013,0.20443688333034515
47.35,0.8238241672515869,-1.6737836599349976,0.7506112456321716,0.5770431160926819,0.02354430966079235,-0.016371775418519974
47.4,0.4375685155391693,-2.329308032989502,1.011591911315918,0.6269707083702087,-0.10144567489624023,-0.10772228240966797
47.45,-0.5813311338424683,-3.167360782623291,-2.5695974826812744,0.7874491810798645,-0.781611442565918,0.11430468410253525
47.5,-1.0098916292190552,-1.229638695716858,-3.035597324371338,0.3118891716003418,-0.3927721679210663,-0.1345900297164917
47.55,-0.2477695345878601,1.0393476486206055,0.842244029045105,-0.045599564909935,0.17015033960342407,-0.26933836936950684
47.6,0.1002257689833641,0.4016150236129761,1.0339690446853638,0.09039349108934402,-0.008026880212128162,0.04263344779610634
47.65,-0.039315592497587204,-0.39856335520744324,-0.4992601275444031,0.14308957755565643,-0.621215283870697,0.2406761646270752
47.7,0.6663280725479126,0.10158427804708481,1.0214027166366577,0.1183105856180191,-0.5117442011833191,0.15118221938610077
47.75,0.07858528941869736,-0.8073980212211609,0.38748088479042053,0.24227504432201385,-0.4907691180706024,0.030064351856708527
47.8,-0.18722893297672272,-1.2895119190216064,0.6500217318534851,0.269809365272522,-0.22302062809467316,-0.06979579478502274
47.85,-0.06872335821390152,-1.0402414798736572,0.42208290100097656,0.2375357449054718,-0.07109291851520538,-0.015637706965208054
47.9,-0.47741758823394775,-1.3306541442871094,-0.543125331401825,0.2055903822183609,-0.07613936811685562,0.00940669048577547
47.95,-0.8829655647277832,0.7036898136138916,-1.1445385217666626,0.1483212411403656,-0.0523206926882267,-0.0005110232741571963
48.0,-0.5520373582839966,-0.31936538219451904,-0.8113977909088135,0.07871554791927338,-0.04835662990808487,0.005147464107722044
48.05,-0.5292043685913086,0.8577296137809753,-3.154191255569458,0.0988357812166214,-0.05641047656536102,0.005572477355599403
