Time [s],Acc_x [m/s^2],Acc_y [m/s^2],Acc_z [m/s^2],Gyro_x [1/s],Gyro_y [1/s],Gyro_z [1/s]
0.0,-0.004600103944540024,0.22890090942382812,-0.0006440103170461953,-0.0012359798420220613,-0.007349653169512749,0.008848169818520546
0.05,-0.00870664231479168,0.2288980484008789,-0.0012281070230528712,-0.0012360741384327412,-0.007349646184593439,0.008848163299262524
0.1,-0.009634638205170631,0.2261495590209961,-0.002229515230283141,-0.0012361870612949133,-0.007349819876253605,0.008848002180457115
0.15,0.06090937927365303,0.1670827865600586,-0.014726861380040646,0.0030016996897757053,-0.01780283823609352,0.01566990464925766
0.2,0.028520308434963226,0.23912811279296875,-0.05669856816530228,0.0034430604428052902,-0.002714778995141387,0.013846272602677345
0.25,0.05366089195013046,0.23436641693115234,0.05663558468222618,0.0071248686872422695,0.013720771297812462,0.0008921324624679983
0.3,-0.01221449300646782,0.2859230041503906,0.043785713613033295,0.015959173440933228,0.00545325456187129,0.01565467193722725
0.35,0.09405183792114258,0.2214975357055664,-0.030903756618499756,0.01257576234638691,-0.013889577239751816,0.024881314486265182
0.4,0.08346150815486908,0.2067117691040039,-0.07934064418077469,0.008758402429521084,-0.006206206977367401,0.009397350251674652
0.45,0.05208481475710869,0.22469425201416016,-0.008473279885947704,0.000559499952942133,0.00043117988388985395,-0.004405300132930279
0.5,0.04846501350402832,0.22687721252441406,0.06445532292127609,-0.006696279160678387,-0.0072333249263465405,-0.004343951120972633
0.55,0.005841749720275402,0.23899173736572266,0.031076127663254738,-0.0029459090437740088,-0.012508081272244453,-0.00255665834993124
0.6,0.015064407140016556,0.15508079528808594,0.03626357018947601,0.007871930487453938,-0.02584794908761978,0.0010870510013774037
0.65,-0.004431125707924366,0.24667072296142578,0.030188661068677902,-0.0001850597618613392,-0.012703771702945232,-0.0012885035248473287
0.7,-0.013032183051109314,0.26450157165527344,-0.019885756075382233,-0.0006477927672676742,-0.016317598521709442,-0.0007647150196135044
0.75,0.011809250339865685,0.24085044860839844,0.00011826186528196558,-0.0034590980503708124,-0.013051841408014297,0.0021339082159101963
0.8,-0.012667207978665829,0.17362594604492188,-0.02472456358373165,-0.002633495954796672,-0.012123733758926392,0.00036537362029775977
0.85,0.07636906206607819,0.28423595428466797,0.07528818398714066,-0.005169685464352369,-0.008703239262104034,-0.004308636300265789
0.9,0.029828092083334923,0.2470245361328125,0.06190544366836548,-0.0044185626320540905,-0.004685857333242893,-0.001892878906801343
0.95,0.016792766749858856,0.23600482940673828,0.05751879885792732,-0.0037820949219167233,-0.0012367231538519263,-0.002311228308826685
1.0,-0.031583912670612335,0.22822284698486328,0.020932596176862717,0.005300687626004219,-0.006759590469300747,0.0021641321945935488
1.05,-0.0033769351430237293,0.18336868286132812,0.0045696585439145565,0.004665063228458166,-0.01043444499373436,0.010115055367350578
1.1,-0.04732158035039902,0.22414302825927734,-0.0009381387499161065,0.006995389237999916,-0.01090493518859148,0.008318371139466763
1.15,-0.015295084565877914,0.2746610641479492,0.060175903141498566,0.006099539343267679,-0.009031074121594429,0.003935327287763357
1.2,0.013972782529890537,0.25855350494384766,0.019989382475614548,0.008122189901769161,-0.009625966660678387,0.00971003994345665
1.25,0.013128585182130337,0.2197551727294922,-0.009318090975284576,0.0066667115315794945,-0.008053737692534924,0.009586771950125694
1.3,0.014113172888755798,0.18912601470947266,0.06322742998600006,0.007873237133026123,-0.0037652880419045687,0.007386630401015282
1.35,0.002438054420053959,0.1911478042602539,-0.03887804597616196,0.006698375567793846,-0.004622400738298893,0.006224540527909994
1.4,0.007152797654271126,0.2323904037475586,0.055739518254995346,0.004970944486558437,0.002662313636392355,0.006133376620709896
1.45,-0.03336036577820778,0.2288970947265625,0.018434621393680573,9.524170309305191e-06,-5.13226623297669e-05,-0.0071841152384877205
1.5,0.036959219723939896,0.2621879577636719,0.014693890698254108,-0.003355063498020172,-0.0035898396745324135,-0.0010754179675132036
1.55,-0.03440578654408455,0.2155780792236328,0.02890956960618496,-0.005098567344248295,-0.005453066900372505,-0.008042067289352417
1.6,-0.01463681273162365,0.24078845977783203,0.048535510897636414,-0.007165909744799137,-0.0042059714905917645,-0.011063511483371258
1.65,0.009457264095544815,0.22039127349853516,0.04384511336684227,-0.011728084646165371,-0.00020498104277066886,-0.01461528055369854
1.7,0.0955771803855896,0.28155517578125,0.06725726276636124,-0.010068319737911224,0.00385810574516654,-0.0237270575016737
1.75,-0.0043247113935649395,0.17714691162109375,0.028600260615348816,-0.007679827976971865,-0.0005049030296504498,-0.021175453439354897
1.8,0.058098770678043365,0.19764328002929688,0.042643964290618896,-0.003935360815376043,-0.010707436129450798,-0.010205413214862347
1.85,-0.03103547915816307,0.22599124908447266,0.03477960824966431,-0.0009618783369660378,-0.006701906211674213,-0.009484217502176762
1.9,-0.09710251539945602,0.23528289794921875,-0.0176635030657053,-0.0009822980500757694,0.002722394885495305,-0.009440789930522442
1.95,-0.0006976025179028511,0.1713724136352539,-0.023328440263867378,-0.006417311728000641,0.005697253160178661,-0.011103978380560875
2.0,0.03034680336713791,0.198944091796875,-0.02519022300839424,-0.006748469080775976,0.007232838775962591,-0.015025426633656025
2.05,-0.002948332577943802,0.21607112884521484,0.05584932118654251,-0.0007814334239810705,0.004940841346979141,-0.010568665340542793
2.1,0.007817261852324009,0.20650768280029297,0.03697124496102333,0.00321993138641119,0.004990062210708857,-0.005894096102565527
2.15,0.0687582790851593,0.22678279876708984,0.05296923220157623,0.005224547348916531,-0.006401389371603727,-0.00919302087277174
2.2,-0.00849001295864582,0.2414417266845703,-6.286103598540649e-05,0.005695735104382038,-0.002336401492357254,-0.01227409578859806
2.25,-0.05804019048810005,0.2049713134765625,0.011055045761168003,0.012904039584100246,-0.01000521145761013,0.001510653062723577
2.3,0.026617813855409622,0.2264862060546875,0.029851071536540985,0.007090386003255844,-0.00618826923891902,-0.0006352911586873233
2.35,0.05126330256462097,0.18191814422607422,0.05850643664598465,0.002578656654804945,0.0026480795349925756,-0.008293893188238144
2.4,0.02228723280131817,0.2283639907836914,0.03962172195315361,0.00561526557430625,0.004360278602689505,-0.010523932985961437
2.45,0.005954360589385033,0.2397928237915039,0.07877197861671448,0.009233378805220127,-0.003937045577913523,-0.011371959000825882
2.5,-0.019558539614081383,0.1877155303955078,0.010612886399030685,0.009894350543618202,-0.011220443993806839,-0.002270163968205452
2.55,-0.03885727375745773,0.16771221160888672,-0.04478747770190239,0.004836677107959986,-0.014974086545407772,-0.0005590927321463823
2.6,0.004353946074843407,0.240966796875,-0.020255072042346,-0.00013259588740766048,-0.008717507123947144,-0.005475265439599752
2.65,-0.015508127398788929,0.25462818145751953,0.033273760229349136,0.0007059881463646889,-0.004632794763892889,-0.009425126947462559
2.7,-0.02615763619542122,0.25469112396240234,-0.024674516171216965,0.007750076707452536,-0.0083033237606287,-0.005462482571601868
2.75,-0.04658752679824829,0.1908254623413086,0.008775899186730385,0.0016591199673712254,-0.0004696458054240793,-0.004132000729441643
2.8,-0.0057714348658919334,0.2032938003540039,0.02079300582408905,-0.0017829681746661663,0.002620649989694357,-0.0020283060148358345
2.85,-0.004052707459777594,0.2215099334716797,0.02324943244457245,-0.006370169576257467,0.0033390899188816547,-0.003603667253628373
2.9,0.03816412761807442,0.2594451904296875,0.03568509593605995,-0.00013366382336243987,-0.00034981308272108436,-0.0017023667460307479
2.95,-0.01712016388773918,0.21597766876220703,0.08936953544616699,-0.007290927693247795,0.005651992745697498,-0.011171898804605007
3.0,-0.007575390860438347,0.2535362243652344,0.05098354443907738,0.0033450941555202007,0.0041622440330684185,-0.0044146571308374405
3.05,0.010810676030814648,0.20645713806152344,0.026167741045355797,0.01030619814991951,-0.0011925549479201436,0.007428930606693029
3.1,0.04985819384455681,0.19129562377929688,0.03389037027955055,0.0056198290549218655,-0.0042443787679076195,0.0021459958516061306
3.15,-0.06596047431230545,0.1482534408569336,-0.011828781105577946,0.000927957589738071,0.0009868013439700007,-0.003677619621157646
3.2,-0.02901841700077057,0.22357940673828125,0.006576447747647762,-0.0024863313883543015,-0.003194988938048482,-0.004027547314763069
3.25,0.010619181208312511,0.19950389862060547,0.00891105830669403,-0.001318032038398087,-0.003846537321805954,0.0009019500575959682
3.3,0.013553180731832981,0.2323284149169922,0.030468463897705078,-0.001615745248273015,0.0004532878811005503,-0.006174041423946619
3.35,0.034346312284469604,0.30498313903808594,0.017943700775504112,-0.005342603661119938,0.004931984934955835,-0.007922411896288395
3.4,4.531443119049072e-05,0.2672891616821289,0.07140502333641052,-0.003292153589427471,0.0006246913690119982,-0.009097459726035595
3.45,-0.04619095101952553,0.20090007781982422,0.03802572563290596,-0.005217737518250942,0.00010593624756438658,-0.00834449753165245
3.5,-0.004863174632191658,0.2152557373046875,0.038441162556409836,0.000829235534183681,-0.005990712903439999,-0.0019085638923570514
3.55,-0.06310544162988663,0.17720603942871094,0.005940025206655264,-0.0017483588308095932,0.0017748026875779033,-0.006681207101792097
3.6,-0.014388225972652435,0.15702533721923828,-0.0028944748919457197,-0.002592044183984399,0.0034866174682974815,-0.0025336879771202803
3.65,0.0037004826590418816,0.19782066345214844,0.01829582080245018,0.0002623806067276746,0.008474422618746758,-7.860984624130651e-05
3.7,-0.02975587546825409,0.2367544174194336,0.03535345569252968,-0.0022036386653780937,0.010755590163171291,0.0019272128120064735
3.75,-0.003103252500295639,0.24811553955078125,0.0015354508068412542,-0.0027215059380978346,0.0022487363312393427,-0.0010427391389384866
3.8,-0.023442860692739487,0.24425411224365234,0.0049357665702700615,-0.006470397114753723,0.0018098813015967607,0.00529918447136879
3.85,0.004419601522386074,0.22492694854736328,-0.018504302948713303,-0.008281489834189415,-0.014080541208386421,0.00506063224747777
3.9,0.029394835233688354,0.3268089294433594,0.040142349898815155,-0.009135330095887184,-0.013084731064736843,0.01067887619137764
3.95,-0.01472717709839344,0.1946268081665039,0.008973813615739346,-0.02610703930258751,-0.03716656565666199,0.004915889352560043
4.0,0.06369087845087051,0.17541980743408203,-0.03752810135483742,-0.03173953667283058,-0.051932692527770996,-0.003102374030277133
4.05,-0.006792900152504444,0.12624263763427734,-0.027851015329360962,-0.03584422171115875,-0.04662682116031647,-0.027718205004930496
4.1,-0.08094605058431625,0.21743202209472656,-0.00019706324383150786,-0.04037875309586525,-0.05476880818605423,-0.028912000358104706
4.15,-0.02961886301636696,0.2033681869506836,0.01480869110673666,-0.050709981471300125,-0.05662252753973007,-0.031828105449676514
4.2,-0.09322880208492279,0.20599842071533203,-0.010099130682647228,-0.06677419692277908,-0.05825231596827507,-0.03991782292723656
4.25,-0.03923778235912323,0.19806385040283203,-0.02997533418238163,-0.07540002465248108,-0.06392953544855118,-0.037315793335437775
4.3,0.022960172966122627,0.23680782318115234,0.030336841940879822,-0.06832630187273026,-0.05499614030122757,-0.0356605164706707
4.35,-0.007831379771232605,0.2914867401123047,0.030708126723766327,-0.06795694679021835,-0.03838365525007248,-0.045831624418497086
4.4,-0.007056325674057007,0.21614646911621094,0.03187652677297592,-0.058462925255298615,-0.03722101449966431,-0.0375363789498806
4.45,0.0680045336484909,0.21454334259033203,0.07202785462141037,-0.04454393312335014,-0.03544596582651138,-0.033038608729839325
4.5,0.03724818304181099,0.1646890640258789,0.05552486330270767,-0.03669659420847893,-0.02628558874130249,-0.027847830206155777
4.55,0.03235872834920883,0.17339420318603516,0.0260639451444149,-0.023456700146198273,-0.01870245300233364,-0.026036180555820465
4.6,-0.00025663874112069607,0.21585941314697266,0.01062319241464138,-0.01483062468469143,-0.01690652035176754,-0.01782735250890255
4.65,0.02450389415025711,0.20874309539794922,0.005517623852938414,-0.01104686874896288,-0.019945722073316574,-0.013819603249430656
4.7,-0.001621096977032721,0.15412616729736328,0.0033132946118712425,-0.015065720304846764,-0.02250898815691471,-0.009065160527825356
4.75,0.022507352754473686,0.20767784118652344,0.012990717776119709,-0.014763728715479374,-0.026197705417871475,-0.0028471157420426607
4.8,0.00798279233276844,0.2534599304199219,0.04628425091505051,-0.01548205316066742,-0.015868697315454483,-0.010884967632591724
4.85,0.009862516075372696,0.26245975494384766,0.024777034297585487,-0.011234232224524021,-0.009670722298324108,-0.013950776308774948
4.9,0.029020845890045166,0.23557186126708984,0.02694110944867134,-0.008741588331758976,-0.007912999950349331,-0.012869313359260559
4.95,-0.017049340531229973,0.2085123062133789,0.03042229451239109,-0.009085245430469513,-0.011057103052735329,-0.010338720865547657
5.0,0.005299694836139679,0.2171163558959961,0.037729427218437195,-0.010416882112622261,-0.014546122401952744,-0.01021528523415327
5.05,0.040585096925497055,0.23915863037109375,0.04580886662006378,-0.013124721124768257,-0.012760895304381847,-0.01909908652305603
5.1,-0.010650552809238434,0.20839595794677734,0.006420185323804617,-0.0231703519821167,-0.014420329593122005,-0.02493922784924507
5.15,-0.005150497891008854,0.21770763397216797,-0.03557932749390602,-0.028983334079384804,-0.028064334765076637,-0.02733515202999115
5.2,0.00564912473782897,0.27503108978271484,-0.018147822469472885,-0.034348972141742706,-0.03834811970591545,-0.031391654163599014
5.25,0.050993673503398895,0.32392120361328125,0.22771908342838287,-0.01579643413424492,-0.05705752596259117,-0.039219893515110016
5.3,-0.06903430819511414,0.34793567657470703,0.4884181022644043,0.07303257286548615,-0.12135438621044159,-0.032570358365774155
5.35,-0.23774662613868713,0.38128185272216797,0.375593364238739,0.2718873620033264,-0.2745611369609833,0.050362251698970795
5.4,-0.21610558032989502,0.2777700424194336,-0.12045107036828995,0.4757160246372223,-0.3725869655609131,0.18103979527950287
5.45,0.18781021237373352,-0.0355977788567543,-0.7452696561813354,0.37991341948509216,-0.2833552956581116,0.24121971428394318
5.5,0.5184016823768616,-0.16366860270500183,-0.6757290363311768,-0.09517920017242432,-0.14301937818527222,0.05181598290801048
5.55,0.22412985563278198,0.06020640954375267,0.20845136046409607,-0.20829802751541138,-0.0470765121281147,-0.23577284812927246
5.6,-0.3862926959991455,0.4813098609447479,0.5735412240028381,-0.07944576442241669,0.03981432691216469,-0.1766950637102127
5.65,-0.05440188944339752,0.4536876380443573,0.6793141961097717,-0.04376193881034851,-0.06785712391138077,-0.07552123069763184
5.7,-0.14982803165912628,0.38372135162353516,0.15553463995456696,0.08579280227422714,-0.10037662088871002,0.05950680747628212
5.75,0.3194958567619324,0.07926275581121445,-0.5883342027664185,-0.035560473799705505,-0.21268261969089508,0.2599419951438904
5.8,0.42785555124282837,-0.18179987370967865,-0.16791200637817383,-0.19419482350349426,-0.061233192682266235,0.01970393769443035
5.85,-0.4478954076766968,0.11142729222774506,0.40205448865890503,-0.1071125864982605,0.13401007652282715,-0.247367262840271
5.9,-0.3678636848926544,0.5293169021606445,0.004563943482935429,0.006453687325119972,0.02638460136950016,-0.06617101281881332
5.95,0.23134221136569977,0.43437862396240234,-0.165088951587677,-0.004564747214317322,-0.06868380308151245,0.026582762598991394
6.0,0.2190878838300705,0.07460689544677734,0.021771149709820747,-0.05564612150192261,-0.030208127573132515,-0.028032781556248665
6.05,0.05777565762400627,0.12547779083251953,0.14141929149627686,-0.10184458643198013,-0.02931329607963562,-0.06390897184610367
6.1,-0.20492786169052124,0.2640399932861328,0.2892974615097046,-0.058120086789131165,0.035972710698843,-0.12501578032970428
6.15,-0.009076707065105438,0.27804088592529297,0.16267934441566467,0.003942382521927357,-0.02295733243227005,-0.038401585072278976
6.2,-0.019501108676195145,0.24383544921875,-0.13058964908123016,0.021428413689136505,-0.08684303611516953,0.03505173698067665
6.25,-0.041607700288295746,0.15952014923095703,-0.09405789524316788,0.006762847304344177,-0.07239935547113419,0.05316929891705513
6.3,-0.006064709275960922,0.23510169982910156,0.06354016810655594,0.02584403194487095,-0.011759386397898197,0.014837158843874931
6.35,-0.1690661609172821,0.2999296188354492,-0.018086431547999382,0.030602984130382538,0.06280819326639175,-0.017364712432026863
6.4,-0.048962876200675964,0.34412097930908203,-0.03919733688235283,0.027050530537962914,0.06604517996311188,0.0004005964146926999
6.45,0.08589516580104828,0.22587013244628906,0.1829061508178711,0.02877366729080677,0.033333949744701385,0.008757015690207481
6.5,-0.07298147678375244,0.2370777130126953,0.10448948293924332,0.07066088914871216,-0.017755236476659775,0.04473622888326645
6.55,-0.0064500123262405396,0.23334693908691406,0.12779875099658966,0.07617655396461487,-0.05628494545817375,0.09492787718772888
6.6,0.008841916918754578,0.24066638946533203,0.14705811440944672,0.09584358334541321,-0.051123227924108505,0.12535129487514496
6.65,0.01792042702436447,0.17470645904541016,-0.18605418503284454,0.061203502118587494,-0.05693749338388443,0.16006231307983398
6.7,0.0971859022974968,0.09449387341737747,-0.26147380471229553,-0.05099976062774658,-0.041963838040828705,0.10927920788526535
6.75,-0.01725941337645054,0.17879486083984375,-0.07716474682092667,-0.09588126838207245,-0.017351781949400902,0.00601865304633975
6.8,-0.01094639953225851,0.30303955078125,0.024338414892554283,-0.0860382616519928,-0.03491881489753723,-0.026119396090507507
6.85,0.026833651587367058,0.3345766067504883,0.061771903187036514,-0.0879722535610199,-0.03861526399850845,-0.0594264417886734
6.9,-0.07845038175582886,0.2675342559814453,0.17294424772262573,-0.09734014421701431,-0.019258230924606323,-0.0770435705780983
6.95,-0.13975299894809723,0.2336282730102539,0.147698774933815,-0.07405455410480499,-0.03833048790693283,-0.01417527999728918
7.0,-0.00017979240510612726,0.15122699737548828,-0.002769669285044074,-0.07473166286945343,-0.0693189725279808,0.05351221561431885
7.05,0.08795056492090225,0.11548328399658203,0.014115601778030396,-0.0731162279844284,-0.05887915566563606,0.036626942455768585
7.1,0.013582060113549232,0.19725704193115234,0.037812259048223495,-0.06395966559648514,-0.0325765386223793,0.007485856302082539
7.15,-0.08109165728092194,0.31561756134033203,0.0600852370262146,-0.048714280128479004,-0.008156361058354378,-0.013212352991104126
7.2,-0.06200595945119858,0.3434610366821289,0.08891358971595764,-0.027777373790740967,0.004152894951403141,-0.012442701496183872
7.25,0.025322774425148964,0.24277591705322266,0.07448750734329224,-0.01737901195883751,0.008237301371991634,0.0006479939911514521
7.3,0.05208911746740341,0.13648700714111328,0.07114606350660324,-0.018463218584656715,0.012484585866332054,0.007751877885311842
7.35,0.03607289493083954,0.14650249481201172,0.06499753147363663,-0.01911776512861252,0.01334862969815731,0.009543592110276222
7.4,-0.04537495598196983,0.26445579528808594,0.027922898530960083,-0.009805642068386078,0.018490036949515343,0.006618482992053032
7.45,-0.02198830619454384,0.2976999282836914,0.010973628610372543,-0.009127506986260414,0.025579385459423065,0.002557329135015607
7.5,0.026605460792779922,0.17883777618408203,0.07706111669540405,-0.02088029682636261,0.04980241879820824,-0.03788508474826813
7.55,-0.0058698393404483795,0.1697998046875,0.1324019730091095,-0.00023641064763069153,0.06422491371631622,-0.06490858644247055
7.6,0.007730771787464619,0.2463855743408203,0.022373024374246597,0.02742507867515087,0.056791167706251144,-0.05670023709535599
7.65,0.08220728486776352,0.20711231231689453,-0.01635631173849106,0.0044586993753910065,0.07824639976024628,-0.08479856699705124
7.7,0.01717161014676094,0.20957565307617188,0.16000863909721375,-0.019333891570568085,0.08834362030029297,-0.11979025602340698
7.75,-0.13110363483428955,0.31165218353271484,0.18492044508457184,0.011056140065193176,0.06024254485964775,-0.07739193737506866
7.8,-0.10874895751476288,0.4087257385253906,0.06798834353685379,0.0571027547121048,0.029694227501749992,-0.009736808948218822
7.85,-0.07886003702878952,0.36515140533447266,0.025506867095828056,0.06999313831329346,-0.0007223802385851741,0.027485188096761703
7.9,-0.12016719579696655,0.18482208251953125,-0.06387269496917725,0.058381907641887665,-0.012957111932337284,0.0706849992275238
7.95,-0.05682382360100746,0.10384559631347656,-0.13893364369869232,0.03633059561252594,0.016167188063263893,0.08538717031478882
8.0,0.009734943509101868,0.14590167999267578,-0.11740466207265854,0.010099515318870544,0.07239978760480881,0.054522208869457245
8.05,-0.01933891326189041,0.21636199951171875,0.08142918348312378,0.01050859410315752,0.11370325088500977,0.020672455430030823
8.1,-0.023682840168476105,0.30088138580322266,0.07845300436019897,0.020143289119005203,0.1008208692073822,0.0324578620493412
8.15,0.07189416140317917,0.32840633392333984,0.010023149661719799,0.01142122969031334,0.07528908550739288,0.03838877007365227
8.2,0.06630757451057434,0.2903013229370117,0.11138240247964859,0.006316814571619034,0.06943877041339874,0.010330534540116787
8.25,0.05890078842639923,0.2452535629272461,0.08771587163209915,0.006153588183224201,0.036664821207523346,0.01176020223647356
8.3,0.09108808636665344,0.22086620330810547,-0.00038668973138555884,-0.0026161568239331245,-0.002851017750799656,0.01787600666284561
8.35,0.07398384064435959,0.18169212341308594,-0.0767941102385521,-0.021385563537478447,-0.023458238691091537,0.00669005885720253
8.4,0.0189054012298584,0.2093334197998047,-0.08016863465309143,-0.04627029597759247,-0.0182266216725111,-0.027313141152262688
8.45,-0.008535667322576046,0.25234317779541016,0.048602666705846786,-0.06520651280879974,-0.006772640161216259,-0.06466434895992279
8.5,-0.007402103394269943,0.22978591918945312,0.0884551852941513,-0.0652056336402893,-0.013850255869328976,-0.061165399849414825
8.55,0.047629907727241516,0.19724082946777344,0.04744838923215866,-0.05772848054766655,-0.026393406093120575,-0.03925521671772003
8.6,0.09080370515584946,0.23032379150390625,0.04006589204072952,-0.044926129281520844,-0.03881864622235298,-0.032315753400325775
8.65,0.0767638236284256,0.25940608978271484,0.16276119649410248,-0.025234214961528778,-0.030225176364183426,-0.05334492027759552
8.7,0.10631474107503891,0.1564950942993164,0.30192506313323975,0.004292387515306473,-0.03225783258676529,-0.0799780935049057
8.75,0.10873353481292725,0.09606456011533737,0.2656034529209137,0.042272210121154785,-0.06012330949306488,-0.05279862508177757
8.8,0.076849564909935,0.16642093658447266,0.08297432214021683,0.0675714984536171,-0.06288928538560867,-0.0139510128647089
8.85,0.04243355989456177,0.12984561920166016,0.039990972727537155,0.13052816689014435,0.008567345328629017,-0.04284881427884102
8.9,0.03932234272360802,0.0639638900756836,0.09658773243427277,0.20181871950626373,0.06086675822734833,-0.05652979016304016
8.95,-0.1174345538020134,0.1986522674560547,0.0967194214463234,0.23997893929481506,0.04943753033876419,0.009443933144211769
9.0,-0.1428927779197693,0.41668224334716797,0.30348965525627136,0.26716089248657227,0.039894942194223404,0.025881053879857063
9.05,-0.029218219220638275,0.5321846008300781,0.22068753838539124,0.26177453994750977,0.02435947395861149,0.02275726944208145
9.1,0.04219914972782135,0.3506460189819336,-0.15918467938899994,0.24643266201019287,0.062475964426994324,0.02841479517519474
9.15,-0.03056389093399048,0.175477996468544,-0.3231256604194641,0.2406049370765686,0.11372022330760956,0.0508657768368721
9.2,-0.09237684309482574,0.1930379867553711,-0.0011041256366297603,0.2023950219154358,0.14471857249736786,0.06324276328086853
9.25,-0.15630599856376648,0.2454194873571396,0.2061440795660019,0.1698974370956421,0.11432750523090363,0.001456178375519812
9.3,-0.12512917816638947,0.25765228271484375,-0.03683160990476608,0.16890949010849,0.04863429442048073,-0.016284765675663948
9.35,-0.11280068755149841,0.3158578872680664,-0.12447752803564072,0.11988841742277145,0.039333514869213104,-0.003936289343982935
9.4,-0.042008064687252045,0.27682971954345703,-0.00468392763286829,0.03886019438505173,0.03370295464992523,-0.0402546226978302
9.45,-0.03704051673412323,0.17610454559326172,0.11828886717557907,-0.006868002936244011,0.01757008768618107,-0.0645340085029602
9.5,-0.11020660400390625,0.2754344940185547,0.19925810396671295,0.007317396812140942,0.01108004804700613,-0.04935063049197197
9.55,-0.016737431287765503,0.26818084716796875,0.12353218346834183,0.018307462334632874,-0.013823224231600761,-0.0007062367512844503
9.6,-0.04068973287940025,0.16196632385253906,0.09918912500143051,0.0034056920558214188,-0.051554251462221146,0.05158596485853195
9.65,-0.08756138384342194,0.18533992767333984,0.1330447643995285,0.012011226266622543,-0.1198350116610527,0.10366173833608627
9.7,-0.05828931927680969,0.2549600601196289,-0.016292773187160492,0.025728739798069,-0.15958133339881897,0.16672176122665405
9.75,-0.04994584992527962,0.2773561477661133,-0.13571883738040924,-0.011824164539575577,-0.08838019520044327,0.13872995972633362
9.8,-0.010987609624862671,0.27291393280029297,0.03868257626891136,-0.04976661875844002,0.021651340648531914,0.04800988361239433
9.85,0.03787052258849144,0.26874732971191406,0.07607854157686234,-0.05017901211977005,0.05135354399681091,0.012575924396514893
9.9,0.05472271144390106,0.2781991958618164,0.09369363635778427,-0.034385014325380325,0.04892021045088768,0.0035332120023667812
9.95,-0.026552435010671616,0.2842369079589844,0.16403643786907196,-0.029929297044873238,0.028369765728712082,0.012252249754965305
10.0,-0.038513779640197754,0.25345516204833984,0.1455400437116623,-0.03155498951673508,-0.024022197350859642,0.045310311019420624
10.05,-0.06997939944267273,0.16920757293701172,0.022122973576188087,-0.04819263517856598,-0.06074536591768265,0.06950284540653229
10.1,-0.11955755203962326,0.08718299865722656,-0.05100063607096672,-0.07453657686710358,-0.07336704432964325,0.06287553161382675
10.15,-0.10885728895664215,0.1421375274658203,-0.10950206220149994,-0.07725592702627182,-0.07181107997894287,0.020605044439435005
10.2,-0.18044821918010712,0.2174539566040039,-0.20191603899002075,-0.13076625764369965,-0.06760264933109283,-0.0061201173812150955
10.25,-0.17497164011001587,0.34212779998779297,-0.3703461289405823,-0.23354612290859222,-0.06694693863391876,-0.015591094270348549
10.3,-0.19696757197380066,0.43589210510253906,-0.12777303159236908,-0.3288596570491791,-0.11263299733400345,0.008257802575826645
10.35,-0.18669970333576202,0.46089744567871094,-0.023440910503268242,-0.33800196647644043,-0.17858335375785828,0.0280501339584589
10.4,0.07489269226789474,0.27690792083740234,-0.0038148679304867983,-0.31671351194381714,-0.18515563011169434,-0.0036329980939626694
10.45,0.2495671808719635,0.044640541076660156,0.11685875058174133,-0.31385406851768494,-0.16115126013755798,-0.08192344009876251
10.5,-0.0608651265501976,0.13410663604736328,0.19766147434711456,-0.2821563184261322,-0.09557893872261047,-0.08703060448169708
10.55,0.1299027055501938,0.012179369106888771,0.2554170489311218,-0.28478172421455383,-0.10310738533735275,-0.0039777192287147045
10.6,0.05730468034744263,0.27545642852783203,0.21020379662513733,-0.21987669169902802,-0.16101962327957153,0.0075323013588786125
10.65,-0.13790644705295563,0.4775094985961914,-0.23881413042545319,-0.14576128125190735,-0.10061594098806381,0.07531145215034485
10.7,-0.09337852895259857,0.37119579315185547,-0.09503044933080673,-0.10928021371364594,-0.0008827502024360001,0.014368202537298203
10.75,0.19101916253566742,0.003734587924554944,0.10928519070148468,-0.19834843277931213,-0.015512571670114994,-0.0662062019109726
10.8,0.1576559841632843,0.21024799346923828,0.17970892786979675,-0.18326951563358307,-0.08008502423763275,-0.04924707114696503
10.85,0.049346305429935455,0.32952880859375,-0.0433347187936306,-0.09923713654279709,-0.10161846876144409,0.007859029807150364
10.9,0.16691412031650543,0.053986556828022,-0.14898142218589783,-0.09403296560049057,-0.06619805097579956,-0.04036449268460274
10.95,0.1016736775636673,0.08123110979795456,0.2949489951133728,-0.12668476998806,0.0038912855088710785,-0.19260886311531067
11.0,-0.06056132912635803,0.34257984161376953,0.31373047828674316,-0.07544545829296112,-0.0050871712155640125,-0.15549986064434052
11.05,-0.011289036832749844,0.42073726654052734,0.06146329268813133,-0.011888415552675724,-0.03970165178179741,-0.033747170120477676
11.1,0.033645547926425934,0.2261514663696289,0.08145581930875778,0.005787642672657967,-0.03743037208914757,-0.06179339811205864
11.15,0.05050268396735191,0.15991497039794922,0.12767645716667175,0.016568465158343315,-0.0467396080493927,-0.05393870174884796
11.2,-0.04206637665629387,0.2160186767578125,-0.03223057836294174,0.040610771626234055,-0.053743090480566025,0.025423286482691765
11.25,-0.023100269958376884,0.19057369232177734,-0.09110482037067413,0.024879494681954384,-0.014109140262007713,0.01735178753733635
11.3,0.03185512125492096,0.14298534393310547,-0.048629119992256165,-0.05876673385500908,0.055976502597332,-0.03233373910188675
11.35,0.02023490145802498,0.13201427459716797,0.13503725826740265,-0.07383115589618683,0.06823107600212097,-0.031532302498817444
11.4,-0.012657426297664642,0.3062877655029297,-0.09959854930639267,-0.051854901015758514,0.05095946043729782,0.021456565707921982
11.45,0.055580783635377884,0.26052093505859375,-0.06413183361291885,-0.043519046157598495,0.04752661660313606,-0.0073201400227844715
11.5,-0.01626402698457241,0.20781230926513672,0.04184431955218315,-0.04289121925830841,0.045966848731040955,-0.04318913072347641
11.55,-0.1344335377216339,0.25528430938720703,0.044709932059049606,-0.023224808275699615,0.013700773939490318,0.013609133660793304
11.6,0.01316765882074833,0.26317501068115234,-0.009945348836481571,0.03042289800941944,-0.05126562342047691,0.08458556234836578
11.65,0.06186191737651825,0.3410501480102539,0.005063273943960667,0.0806015133857727,-0.06073414161801338,0.06368105113506317
11.7,-0.09448707103729248,0.3305025100708008,-0.018629174679517746,0.10790777206420898,-0.023751499131321907,0.002832166152074933
11.75,-0.16219976544380188,0.2764415740966797,-0.03539083153009415,0.10489688813686371,-0.00531314592808485,0.004419457167387009
11.8,0.05883727967739105,0.16037273406982422,0.044160183519124985,0.06449373811483383,-0.034980352967977524,0.07487808167934418
11.85,-0.0017392560839653015,0.1570568084716797,-0.1100461557507515,0.02404843457043171,-0.0057546887546777725,0.07356806099414825
11.9,0.013866636902093887,0.18471240997314453,-0.03410300239920616,-0.011638225987553596,0.003792442847043276,-0.024112742394208908
11.95,-0.0919288843870163,0.32520008087158203,0.1900937408208847,0.05396980792284012,-0.023650875315070152,-0.06822195649147034
12.0,0.04655636474490166,0.29300594329833984,0.010071315802633762,0.08587630093097687,-0.07515943795442581,0.010896528139710426
12.05,0.08935443311929703,0.17223834991455078,0.0391092523932457,0.05987514182925224,-0.0866491049528122,0.025796959176659584
12.1,0.026898622512817383,0.21152019500732422,-0.11644475907087326,0.026304855942726135,-0.067158542573452,0.018323523923754692
12.15,0.037066321820020676,0.17640972137451172,0.014247103594243526,-0.0038214661180973053,-0.05873269587755203,-0.02107725478708744
12.2,-0.024712733924388885,0.02455901727080345,0.0930003747344017,0.014929162338376045,-0.06930114328861237,-0.046164754778146744
12.25,-0.010339170694351196,0.25716590881347656,0.1870625913143158,0.0564960315823555,-0.08547701686620712,-0.017746755853295326
12.3,0.06266864389181137,0.15247154235839844,0.09773797541856766,0.04009871184825897,-0.08877545595169067,0.022867025807499886
12.35,0.0807139128446579,0.31661319732666016,0.025824783369898796,0.023341193795204163,-0.048056576400995255,-0.006855905521661043
12.4,0.016341466456651688,0.3166036605834961,0.08668296784162521,0.0489707812666893,-0.028462203219532967,-0.07054057717323303
12.45,-0.0599113330245018,0.2204427719116211,-0.0612516924738884,0.048131685703992844,-0.0376349613070488,-0.04485277831554413
12.5,-0.03350486606359482,0.13640689849853516,0.01896679773926735,0.04259862005710602,-0.04655058681964874,-0.04286470636725426
12.55,0.09403581917285919,0.14770793914794922,0.023303937166929245,0.03312841057777405,-0.05976220592856407,-0.04045124724507332
12.6,0.033239781856536865,0.21705341339111328,0.08653216063976288,0.03324972838163376,-0.04852760583162308,-0.05507168546319008
12.65,-0.20454204082489014,0.26128101348876953,0.13181285560131073,0.05587327852845192,-0.035530608147382736,-0.04824032634496689
12.7,-0.07836197316646576,0.29035282135009766,0.07198109477758408,0.0575442798435688,-0.06588748842477798,0.013350285589694977
12.75,-0.006720180623233318,0.2940835952758789,0.009747233241796494,0.04576723277568817,-0.04323751479387283,0.020963817834854126
12.8,-0.043187402188777924,0.1916351318359375,-0.0638953372836113,0.0314733162522316,-0.025622133165597916,0.019694531336426735
12.85,-0.05661299079656601,0.17768478393554688,-0.042004503309726715,0.028556380420923233,-0.021801579743623734,0.010285803116858006
12.9,-0.07160679250955582,0.2522392272949219,-0.01611701026558876,0.026227109134197235,-0.002780602313578129,-0.01928640902042389
12.95,-0.10466918349266052,0.27980518341064453,0.05562673509120941,0.018530726432800293,0.01125661563128233,-0.018903784453868866
13.0,-0.04382087290287018,0.22289276123046875,0.07244443148374557,0.0075394157320261,0.010175870731472969,-8.413963769271504e-06
13.05,-0.03477362543344498,0.21174335479736328,0.06531225889921188,0.01672891341149807,0.018510961905121803,0.006742114666849375
13.1,-0.05456409603357315,0.21004486083984375,0.017099235206842422,0.013092631474137306,0.02688535675406456,0.013104720041155815
13.15,-0.00962068885564804,0.2192668914794922,0.09257935732603073,-0.0013939496129751205,0.025737226009368896,0.014351210556924343
13.2,-0.025199735537171364,0.23371601104736328,0.06932693719863892,0.0006091680843383074,0.020879410207271576,-0.003973046317696571
13.25,-0.04721761494874954,0.2262430191040039,0.00795778725296259,-0.01177117507904768,0.022143632173538208,0.0054593211971223354
13.3,-0.011492418125271797,0.221466064453125,0.024059414863586426,-0.018577145412564278,0.027126958593726158,0.003381226910278201
13.35,-0.027602937072515488,0.2297353744506836,0.085114024579525,-0.02016843855381012,0.03278772905468941,0.004204995464533567
13.4,0.007485862821340561,0.2236785888671875,0.05642051249742508,-0.020311908796429634,0.014877666719257832,0.011196041479706764
13.45,-0.03524286299943924,0.18673038482666016,-0.06185222044587135,-0.023449020460247993,0.014802245423197746,0.0058793071657419205
13.5,0.0444718673825264,0.11826801300048828,0.06956315040588379,-0.028874041512608528,0.029813842847943306,-0.04082975164055824
13.55,-0.058213479816913605,0.24123859405517578,0.051950618624687195,-0.017819959670305252,0.049983181059360504,-0.09099162369966507
13.6,0.002607252448797226,0.24531841278076172,0.13012653589248657,-0.018332291394472122,0.06405206024646759,-0.10406991839408875
13.65,-0.0026714354753494263,0.16514110565185547,0.08242203295230865,-0.019410155713558197,0.039064690470695496,-0.04569883644580841
13.7,0.030375419184565544,0.025178909301757812,0.004360673949122429,-0.027238082140684128,0.05205675959587097,-0.021701963618397713
13.75,0.09382890164852142,0.04865741357207298,0.1754746437072754,0.005701316520571709,0.11541273444890976,-0.05100039392709732
13.8,-0.21925292909145355,0.3735160827636719,0.021860968321561813,0.0367678739130497,0.1431463062763214,-0.009931262582540512
13.85,-0.0674782246351242,0.29670238494873047,0.08889183402061462,0.053047917783260345,0.1681300699710846,0.030307544395327568
13.9,0.06450565159320831,0.10876178741455078,0.08721815049648285,0.052615053951740265,0.2132515013217926,0.0302842166274786
13.95,0.03840766102075577,0.2537975311279297,-0.09827157109975815,0.07412738353013992,0.23352298140525818,0.022406041622161865
14.0,-0.18407046794891357,0.5819120407104492,0.19247913360595703,0.1437193900346756,0.3116970658302307,0.08287207782268524
14.05,-0.12865397334098816,1.1633234024047852,0.4705173075199127,0.17330040037631989,0.31495949625968933,0.037481412291526794
14.1,-0.2127738744020462,-0.025714881718158722,0.18995633721351624,0.128454327583313,0.2390357255935669,0.20072486996650696
14.15,0.35719621181488037,-0.5924901962280273,-0.47559502720832825,0.18507149815559387,-0.003493865951895714,0.2878456115722656
14.2,0.06325101852416992,0.2864522933959961,0.12515370547771454,0.20096628367900848,0.20339441299438477,0.13469454646110535
14.25,0.025899268686771393,0.4894418716430664,0.2442256212234497,0.1299581229686737,0.3345033824443817,-0.021220749244093895
14.3,-0.2979438304901123,-0.3247213363647461,0.007019659038633108,0.15815423429012299,0.2597911059856415,-0.029250729829072952
14.35,0.6170406341552734,0.25131702423095703,-0.2648775577545166,0.22714485228061676,0.4062654972076416,-0.11225636303424835
14.4,0.3200676441192627,0.1173858791589737,-0.36085277795791626,0.13589955866336823,0.8392552137374878,-0.4307273030281067
14.45,0.2591152787208557,1.3478975296020508,0.3391853868961334,0.06883187592029572,1.0437211990356445,-0.6251778602600098
14.5,-0.23074720799922943,-0.2283191829919815,0.4759632349014282,-0.2832810580730438,1.7268015146255493,-0.8906587958335876
14.55,-0.3313010334968567,0.5354452133178711,-0.2571679949760437,0.0017545819282531738,0.7722412347793579,-0.3870232105255127
14.6,0.061442285776138306,1.5218572616577148,0.6334171295166016,-0.41194650530815125,0.6276415586471558,-0.12295325845479965
14.65,0.49749842286109924,0.7498369216918945,0.3265341818332672,-0.8711485862731934,0.28729337453842163,-0.0015224430244415998
14.7,-0.11695294082164764,-0.03663063421845436,0.05242377147078514,-1.0397306680679321,0.05785571038722992,0.0964536964893341
14.75,-0.16779789328575134,-0.6900196075439453,-0.8258130550384521,-0.7167481184005737,-0.10003550350666046,0.2863181233406067
14.8,0.35922956466674805,-1.2120819091796875,-0.8740148544311523,-0.3033701777458191,0.06632624566555023,0.2697935700416565
14.85,-0.0001413002610206604,-0.7071199417114258,-0.10798278450965881,0.07555225491523743,0.41867440938949585,-0.12597300112247467
14.9,-0.32521852850914,0.06338881701231003,0.02523321844637394,0.4158637523651123,0.5112966299057007,-0.3399176299571991
14.95,1.0848941802978516,-0.2079133540391922,-0.9278165698051453,0.4783850312232971,0.6069726943969727,-0.3937518894672394
15.0,1.1910650730133057,-0.04551025107502937,-1.0223736763000488,0.6053504347801208,0.6798371076583862,-0.16414840519428253
15.05,0.759844183921814,0.8711252808570862,-1.1952686309814453,0.8842167854309082,0.6911035180091858,0.16930779814720154
15.1,0.5798300504684448,0.7599668502807617,-0.6050996780395508,1.2613495588302612,0.8796287178993225,0.4844701886177063
15.15,-0.3637513816356659,0.9579982757568359,-0.3592439889907837,1.6446126699447632,0.8907680511474609,0.708518922328949
15.2,-1.0025452375411987,0.1605386584997177,0.23817333579063416,2.0366032123565674,0.5266451835632324,0.8564614653587341
15.25,-1.2769337892532349,0.02488325908780098,-0.15636712312698364,2.510115146636963,0.10536075383424759,0.8151673078536987
15.3,-0.4376065731048584,0.11936186999082565,0.05077100172638893,2.319847583770752,0.48169150948524475,0.41484981775283813
15.35,-0.433487206697464,0.7987279295921326,1.1376683712005615,1.932615876197815,1.1641335487365723,0.1068984642624855
15.4,-0.4011496603488922,0.051162660121917725,2.045297861099243,1.5436447858810425,1.3240787982940674,-0.09818597882986069
15.45,-0.2876473665237427,-0.7140684723854065,2.893131971359253,1.1393132209777832,0.995902419090271,-0.2553362250328064
15.5,-0.4716840386390686,-0.0028420255985111,2.5843427181243896,0.6176141500473022,0.6350467205047607,-0.260457307100296
15.55,-0.24350488185882568,0.5377129912376404,2.076803684234619,0.24618500471115112,0.08575055003166199,-0.24055233597755432
15.6,0.7082157135009766,1.3567209243774414,0.8905838131904602,0.020816415548324585,-0.3982906937599182,-0.31093958020210266
15.65,0.6125783324241638,0.3845233917236328,0.35539117455482483,-0.030965477228164673,-0.2938607335090637,-0.13656006753444672
15.7,0.23722580075263977,0.11452008038759232,-0.12577128410339355,0.162078857421875,-0.2702327370643616,0.007325656246393919
15.75,-0.34027087688446045,-0.14481830596923828,0.06613950431346893,0.19859546422958374,-0.14048580825328827,0.0979570522904396
15.8,-0.27701789140701294,-0.09609127789735794,0.1279124915599823,0.14360907673835754,-0.01832534186542034,0.012938438914716244
15.85,-0.1780153065919876,0.07948970049619675,0.1897325962781906,0.1605905294418335,-0.0513906329870224,-0.07330088317394257
15.9,0.19178664684295654,0.36013221740722656,0.12288328260183334,0.11498567461967468,-0.09796715527772903,-0.08620846271514893
15.95,-0.04539079964160919,0.36687469482421875,0.0787905901670456,0.06711205840110779,-0.020387420430779457,-0.06496162712574005
16.0,-0.05553407967090607,0.08554457873106003,0.20015478134155273,0.050669219344854355,0.005747541319578886,-0.013886824250221252
16.05,-0.15920308232307434,0.03134821727871895,0.3519582152366638,0.03922305256128311,0.002040536142885685,-0.033599935472011566
16.1,-0.12160196900367737,0.10847663134336472,0.2565908133983612,0.015906639397144318,-0.016196981072425842,-0.04623647406697273
16.15,-0.09386693686246872,0.17421720921993256,0.31703728437423706,1.1090189218521118e-05,0.0017226198688149452,-0.03267091512680054
16.2,-0.04182717949151993,0.10230540484189987,0.30217066407203674,-0.0015519922599196434,0.004674214869737625,-0.026572449132800102
16.25,-0.011843129992485046,0.13588236272335052,0.36692941188812256,-0.0002996772527694702,0.013533416204154491,-0.01988200470805168
16.3,-0.0788675919175148,0.16627787053585052,0.39056727290153503,0.01603366807103157,0.0015763031551614404,-0.019205033779144287
16.35,0.005685091018676758,0.18420980870723724,0.2781302034854889,0.023356201127171516,0.0008410847513005137,-0.009937157854437828
16.4,-0.06888288259506226,0.13444803655147552,0.3688386082649231,0.018092311918735504,0.01891067624092102,-0.000493858358822763
16.45,-0.02824380248785019,0.05952071398496628,0.2820310890674591,0.03098095953464508,0.012063154950737953,0.009804075583815575
16.5,-0.007532782852649689,0.07245349138975143,0.22946667671203613,0.021137017756700516,0.02200576290488243,0.017032692208886147
16.55,-0.003062322735786438,0.11301230639219284,0.2546869218349457,0.018128590658307076,0.031991973519325256,0.012581867165863514
16.6,0.0033684372901916504,0.20306681096553802,0.2994746267795563,0.02532459795475006,0.023195579648017883,0.010186474770307541
16.65,0.018452666699886322,0.07499217242002487,0.2997661530971527,0.022108033299446106,0.031093353405594826,0.02431255392730236
16.7,0.05007471144199371,0.11017131060361862,0.34171685576438904,0.02580728381872177,0.028578873723745346,0.021619435399770737
16.75,0.07067178934812546,0.15785980224609375,0.2864670753479004,0.02425616979598999,0.026177510619163513,0.0077412668615579605
16.8,0.036576174199581146,0.046762458980083466,0.28382688760757446,0.02661086618900299,0.016180798411369324,-0.004418575670570135
16.85,0.021425478160381317,0.07903861254453659,0.2817729115486145,0.03394804894924164,0.0011705906363204122,-0.02219417132437229
16.9,-0.023348763585090637,0.017298690974712372,0.24665042757987976,0.03658992052078247,-0.017378775402903557,-0.02885613963007927
16.95,-0.03314699977636337,0.058674804866313934,0.24475641548633575,0.02343914657831192,-0.03322387486696243,-0.040127646178007126
17.0,-0.06908611208200455,0.0696258470416069,0.18519635498523712,0.015538792125880718,-0.03235829249024391,-0.05560917407274246
17.05,-0.08063127845525742,0.08057688921689987,0.2212708592414856,0.013225599192082882,-0.01985909976065159,-0.06450513005256653
17.1,-0.11840341240167618,0.08665560930967331,0.2587854564189911,0.008883723989129066,-0.02369433082640171,-0.06929945200681686
17.15,-0.025793667882680893,0.08274649828672409,0.1868717223405838,0.0035697966814041138,-0.036629144102334976,-0.07574580609798431
17.2,-0.052687615156173706,0.07569407671689987,0.2097357213497162,-0.0052741579711437225,-0.03767357021570206,-0.08667922019958496
17.25,-0.0515868104994297,0.08864688128232956,0.2281833440065384,-0.013603068888187408,-0.041815970093011856,-0.09677550196647644
17.3,-0.07931533455848694,0.07558249682188034,0.23059095442295074,-0.01870794966816902,-0.05502018705010414,-0.10412495583295822
17.35,0.0014112666249275208,0.11829947680234909,0.21021825075149536,-0.01938624307513237,-0.06141282245516777,-0.09824004769325256
17.4,0.012456342577934265,0.13711737096309662,0.2818842828273773,-0.02193448320031166,-0.05213569849729538,-0.09204474836587906
17.45,-0.07413467764854431,0.14378643035888672,0.18069934844970703,-0.03101753070950508,-0.05665586143732071,-0.08000624924898148
17.5,-0.07115631550550461,0.06050681695342064,0.14621232450008392,-0.03354286402463913,-0.057224027812480927,-0.0682181566953659
17.55,-0.0907365009188652,0.10094641894102097,0.1614154726266861,-0.03565993905067444,-0.0451536551117897,-0.07774978876113892
17.6,-0.09136010706424713,0.1343841552734375,0.13945186138153076,-0.04867104813456535,-0.03047063760459423,-0.07983379065990448
17.65,-0.08484335243701935,0.1983966827392578,0.19711005687713623,-0.054649949073791504,-0.008941726759076118,-0.06838865578174591
17.7,-0.09442859888076782,0.2277650684118271,0.3287591338157654,-0.05432935804128647,0.01819799281656742,-0.057768333703279495
17.75,-0.08237992972135544,0.1930970996618271,0.2955407202243805,-0.05137411504983902,0.005158897023648024,-0.041716136038303375
17.8,-0.11693388968706131,0.12542055547237396,0.22168365120887756,-0.04518197849392891,-0.0029880141373723745,-0.025532064959406853
17.85,-0.11131387948989868,0.10208415240049362,0.2295440286397934,-0.03657996281981468,-0.002644352149218321,-0.013317869044840336
17.9,-0.09375819563865662,0.15814779698848724,0.24358293414115906,-0.024870462715625763,0.015532879158854485,-0.014833781868219376
17.95,-0.010650835931301117,0.16299627721309662,0.2909810543060303,-0.021802306175231934,0.006245288532227278,-0.002969656838104129
18.0,-0.08386120945215225,0.23412609100341797,0.23155367374420166,-0.01961676776409149,-0.0009922415483742952,0.007373481523245573
18.05,-0.09334810078144073,0.1417255401611328,0.1676553636789322,-0.01654011197388172,-0.01869732141494751,0.023124249652028084
18.1,-0.10366339981555939,0.103270523250103,0.15514101088047028,-0.022584009915590286,-0.0031513054855167866,0.015858974307775497
18.15,-0.07378997653722763,0.09711646288633347,0.21003486216068268,-0.020602665841579437,0.003906751051545143,0.010695465840399265
18.2,-0.060159701853990555,0.10460185259580612,0.17623616755008698,-0.01758287101984024,0.007609946187585592,0.0012768714223057032
18.25,0.0302647203207016,0.18752384185791016,0.28440427780151367,0.0021844683215022087,0.0055849733762443066,-0.005971643142402172
18.3,0.01850801706314087,0.11794852465391159,0.26245519518852234,0.010761951096355915,0.00619376078248024,0.0018937827553600073
18.35,-0.08846958726644516,0.15709303319454193,0.2654094099998474,0.016182702034711838,0.006305028218775988,0.0039001470431685448
18.4,-0.02295321598649025,0.13361072540283203,0.2125139832496643,0.027126822620630264,-0.002036371035501361,0.007503116503357887
18.45,-0.0685633048415184,0.05602263659238815,0.21906119585037231,0.028841137886047363,0.0006039308500476182,0.001933947205543518
18.5,-0.04197277873754501,0.03900908678770065,0.2413986325263977,0.02537231333553791,-0.0021814946085214615,-0.008247053250670433
18.55,-0.04535217583179474,0.05483340844511986,0.16613976657390594,0.03069688379764557,-0.02194196917116642,-0.015414857305586338
18.6,-0.08147886395454407,0.0502319298684597,0.1319120228290558,0.022888921201229095,-0.0414649173617363,-0.023666251450777054
18.65,-0.06606017798185349,0.10974311083555222,0.15550322830677032,0.016855379566550255,-0.049515463411808014,-0.02884083241224289
18.7,-0.05675555393099785,0.12360285967588425,0.2841416895389557,-0.0013298913836479187,-0.04038200527429581,-0.029061803594231606
18.75,-0.14265990257263184,0.19301985204219818,0.27720531821250916,-0.005690339021384716,-0.06320606172084808,-0.03822611644864082
18.8,-0.12634068727493286,0.14821529388427734,0.15917284786701202,-0.011550583876669407,-0.07662680745124817,-0.028871243819594383
18.85,-0.17165204882621765,0.2419252246618271,0.23506060242652893,-0.009948354214429855,-0.04384616017341614,-0.021108543500304222
18.9,-0.13577808439731598,0.28598499298095703,0.23699767887592316,-0.008330821990966797,-0.030717328190803528,-0.009110311977565289
18.95,-0.03214278444647789,0.1136474609375,0.08375273644924164,-0.01588137447834015,-0.03144431114196777,-0.003020905889570713
19.0,-0.10271449387073517,0.1361522674560547,0.20468859374523163,-0.03164614737033844,-0.0008704075589776039,-0.015003647655248642
19.05,-0.0708899050951004,0.08944510668516159,0.2754684090614319,-0.020066920667886734,-0.010341312736272812,-0.005156587343662977
19.1,-0.10127594321966171,0.12514591217041016,0.2240845113992691,-0.021051252260804176,-0.019542302936315536,-0.0022926933597773314
19.15,-0.05933472886681557,0.16948223114013672,0.22716253995895386,-0.015055017545819283,-0.013561522588133812,-0.01548784039914608
19.2,-0.03678405284881592,0.08981800079345703,0.09719959646463394,-0.025757737457752228,-0.016192752867937088,-0.011685452423989773
19.25,-0.09680482000112534,0.10158347338438034,0.19135499000549316,-0.051154814660549164,-0.005223849322646856,-0.008190198801457882
19.3,-0.07747649401426315,0.17670822143554688,0.23833763599395752,-0.03540823981165886,-0.014876958914101124,0.003011148888617754
19.35,-0.07269437611103058,0.1693248599767685,0.2692098617553711,-0.028076082468032837,0.005339247174561024,0.00040497645386494696
19.4,-0.08005128800868988,0.09010600298643112,0.23660410940647125,-0.010255270637571812,0.006306104827672243,0.0027235234156250954
19.45,-0.10646416246891022,0.03685092180967331,0.18232974410057068,0.012464562430977821,0.004872779827564955,0.004820963833481073
19.5,-0.07718547433614731,0.12090777605772018,0.19408170878887177,0.02289191633462906,0.005064704921096563,-0.0007956585031934083
19.55,-0.12282337248325348,0.1290149688720703,0.21838535368442535,0.029174216091632843,0.0004908784758299589,0.0038762884214520454
19.6,-0.09395186603069305,0.11945246905088425,0.235896497964859,0.028795555233955383,0.0038777778390794992,0.00036690954584628344
19.65,-0.1264980137348175,0.09002207964658737,0.20554038882255554,0.03498318791389465,-0.004544041119515896,0.0031667312141507864
19.7,-0.15513168275356293,0.11179541796445847,0.16306069493293762,0.032303206622600555,-0.0068530491553246975,0.0024797755759209394
19.75,-0.13244658708572388,0.09712599962949753,0.17133580148220062,0.02050033211708069,0.0005489514442160726,0.0037823650054633617
19.8,-0.10151617974042892,0.0820150300860405,0.24779541790485382,0.019688064232468605,0.007685201708227396,0.004345824010670185
