Time [s],Acc_x [m/s^2],Acc_y [m/s^2],Acc_z [m/s^2],Gyro_x [1/s],Gyro_y [1/s],Gyro_z [1/s]
0.0,-0.00879330188035965,-0.015363691374659538,0.010017049498856068,0.0022675853688269854,-0.004634671378880739,0.0069581675343215466
0.05,0.007364008575677872,0.03540324792265892,-0.021351201459765434,0.012735962867736816,-0.005605914629995823,-0.002516608452424407
0.1,0.042080968618392944,0.020809169858694077,-0.006591623183339834,0.017420142889022827,-0.004473439417779446,-0.0030052599031478167
0.15,0.0974523276090622,0.037236206233501434,-0.016190988942980766,0.02004352957010269,-0.008177537471055984,0.007282200735062361
0.2,0.0012831604108214378,0.05163669213652611,0.010296647436916828,0.02164936065673828,-0.01462278887629509,-0.0032296720892190933
0.25,0.027347035706043243,0.005471228156238794,0.003988908138126135,0.0241079144179821,-0.01548491045832634,0.010906054638326168
0.3,0.03526023030281067,0.025653837248682976,0.036137036979198456,0.02233169600367546,-0.014057159423828125,0.012732992880046368
0.35,-0.029521623626351357,0.034206390380859375,0.06004757061600685,0.0302728284150362,-0.011503633111715317,0.005791804287582636
0.4,-0.04265840724110603,0.03983020782470703,0.01878828927874565,0.04845854640007019,-0.008497553877532482,0.019826382398605347
0.45,0.09561154991388321,-0.055586811155080795,0.05839666724205017,0.06767696887254715,-0.012023711577057838,0.06501278281211853
0.5,-0.013699695467948914,0.029224403202533722,0.1948486566543579,0.10459820181131363,-0.05008963495492935,0.0468672513961792
0.55,0.08510837703943253,0.04630851745605469,0.17504319548606873,0.21724151074886322,-0.09497235715389252,0.07085108757019043
0.6,0.12038002163171768,0.05996512249112129,-0.031142309308052063,0.3257672190666199,-0.1229042112827301,0.04628405719995499
0.65,-0.003359861671924591,0.1092529147863388,-0.10417193919420242,0.3669436573982239,-0.15636691451072693,0.028167570009827614
0.7,-0.03579004481434822,0.07541083544492722,-0.036490097641944885,0.3468415141105652,-0.17320287227630615,0.05627362057566643
0.75,-0.07130441814661026,0.056575775146484375,0.04885803908109665,0.3415992856025696,-0.19125065207481384,0.09393994510173798
0.8,0.21745142340660095,0.02454756759107113,0.05811142921447754,0.36635857820510864,-0.24527543783187866,0.17873522639274597
0.85,-0.05174856632947922,0.24606800079345703,0.2136242836713791,0.33310380578041077,-0.30810973048210144,0.09214642643928528
0.9,-0.022547289729118347,0.042517662048339844,0.08194295316934586,0.21018129587173462,-0.2940657138824463,0.09955927729606628
0.95,0.25643542408943176,-0.38350582122802734,-0.1821441948413849,0.12386702746152878,-0.1827116161584854,0.1620035618543625
1.0,0.22808942198753357,-0.18600179255008698,-0.38332685828208923,0.10241811722517014,-0.07439542561769485,0.08265486359596252
1.05,0.3555534780025482,-0.05909254029393196,-0.17487159371376038,0.03429848328232765,-0.009141551330685616,0.026195108890533447
1.1,0.11465343832969666,-0.010695461183786392,0.01608775556087494,-0.04598620533943176,0.015615046955645084,-0.10289570689201355
1.15,-0.2492440640926361,0.1264791488647461,0.03650488704442978,-0.062040288001298904,0.057126253843307495,-0.06107901781797409
1.2,0.09024834632873535,0.03713320940732956,-0.017432821914553642,-0.047905176877975464,0.11521115154027939,0.19544246792793274
1.25,0.16608889400959015,0.1934508979320526,-0.13977432250976562,-0.06109842285513878,0.10239889472723007,0.15488433837890625
1.3,-0.06427435576915741,0.17779825627803802,-0.05534239113330841,-0.036864738911390305,0.05602717027068138,0.0053869285620749
1.35,0.0006283335387706757,0.07828424870967865,-0.11194349825382233,-0.01376323215663433,0.03621919825673103,0.021240103989839554
1.4,0.0429854691028595,0.06521701067686081,-0.006439968943595886,-0.035196252167224884,0.021011866629123688,0.01384397130459547
1.45,-0.0043214187026023865,0.03583717718720436,0.13653722405433655,-0.02524922415614128,0.004527588840574026,0.00028675675275735557
1.5,0.027338119223713875,0.04692172631621361,0.06081824749708176,0.014174243435263634,0.00019082718063145876,0.006755405571311712
1.55,0.09498654305934906,0.09665296971797943,-0.026929719373583794,0.03445249795913696,-0.00034142538788728416,-0.026053130626678467
1.6,0.3745518922805786,-0.011531845666468143,-0.010270102880895138,0.03332060948014259,-0.027669759467244148,-0.14801399409770966
1.65,-0.002810407429933548,0.0936126634478569,-0.019109314307570457,0.04638971388339996,-0.03518224507570267,-0.33504462242126465
1.7,-0.37887394428253174,0.14503192901611328,-0.010526918806135654,0.035837702453136444,-0.023002102971076965,-0.2821640074253082
1.75,-0.06617890298366547,0.07725143432617188,0.07190995663404465,0.006031935103237629,-0.032105762511491776,-0.028265999630093575
1.8,-0.06327353417873383,0.13251398503780365,0.07832244038581848,0.04245372116565704,-0.027904601767659187,0.03817124664783478
1.85,-0.03251637518405914,0.0629281997680664,0.0633806511759758,0.08264279365539551,-0.009518829174339771,0.03846209496259689
1.9,0.1607586145401001,0.07785987854003906,0.2915799617767334,0.12008947879076004,0.04156401380896568,0.0500810369849205
1.95,0.12717951834201813,0.12428569793701172,0.2894849479198456,0.16171029210090637,0.041909776628017426,-0.05442962795495987
2.0,0.09151194989681244,0.1368093341588974,0.11714678257703781,0.1912386417388916,0.011621521785855293,-0.08794107288122177
2.05,0.2023933231830597,-0.06541919708251953,-0.03620872274041176,0.1947845071554184,-0.0677919089794159,-0.10429006814956665
2.1,-0.016454625874757767,-0.05766772851347923,-0.010049614124000072,0.16046017408370972,-0.09472231566905975,-0.04730299860239029
2.15,0.0688055157661438,0.18451879918575287,-0.05983380600810051,0.10745390504598618,-0.22945979237556458,-0.14908449351787567
2.2,-0.1762344390153885,0.2802715003490448,-0.12264542281627655,-0.038579151034355164,-0.2117781639099121,-0.191133514046669
2.25,-0.014999025501310825,0.23223207890987396,-0.032911162823438644,-0.1403905153274536,-0.09952829778194427,-0.14008170366287231
2.3,-0.18177682161331177,0.8404693007469177,-0.06218767911195755,-0.1711488962173462,-0.03392603620886803,-0.12534406781196594
2.35,-0.591286301612854,1.1261624097824097,-0.11636517196893692,-0.26598018407821655,0.052287787199020386,0.13903412222862244
2.4,0.15908002853393555,0.6526898741722107,0.054256998002529144,-0.40896475315093994,0.17189499735832214,0.7160936594009399
2.45,0.6770219802856445,0.7186412215232849,0.043699730187654495,-0.5967472791671753,0.17542262375354767,0.7662501335144043
2.5,0.4087490737438202,1.2946757078170776,0.057485904544591904,-0.800122857093811,0.05573582276701927,0.5819277167320251
2.55,0.16630971431732178,1.175669550895691,-0.0313047431409359,-0.9970700740814209,-0.1876549869775772,0.5593365430831909
2.6,-0.2296055257320404,0.4532585144042969,0.22623825073242188,-1.1848260164260864,-0.4377039670944214,0.6157923936843872
2.65,-0.022647984325885773,0.12377262115478516,0.2473868429660797,-1.2704123258590698,-0.6226173043251038,0.7239267230033875
2.7,0.022114157676696777,-0.28872770071029663,0.5302547812461853,-1.3178057670593262,-0.7558378577232361,0.6815947890281677
2.75,-0.29776862263679504,-0.368614137172699,0.3836342394351959,-1.2497020959854126,-1.0580189228057861,0.42875799536705017
2.8,-0.13057181239128113,-0.43706125020980835,0.3452756106853485,-1.1226900815963745,-1.3520617485046387,0.2013123482465744
2.85,0.03345027565956116,-0.39211079478263855,0.2838344871997833,-0.9506219625473022,-1.5447195768356323,0.09468761086463928
2.9,0.08164598792791367,-0.4431876838207245,0.04631156846880913,-0.8511171340942383,-1.4231375455856323,0.23832115530967712
2.95,-0.055629976093769073,-0.7566069960594177,-0.24162428081035614,-0.809697151184082,-1.2565339803695679,0.2972899377346039
3.0,-0.031087815761566162,-0.7658824324607849,-0.43368256092071533,-0.7959544658660889,-1.1176170110702515,0.2646806836128235
3.05,-0.10254707932472229,-0.9666661620140076,-0.4734763503074646,-0.913388192653656,-0.7193827033042908,0.3265931308269501
3.1,-0.11478787660598755,-1.1338051557540894,-0.41188740730285645,-0.8408489227294922,-0.5017029047012329,0.2947216331958771
3.15,0.13834059238433838,-0.2634143829345703,-0.6666431427001953,-0.6359050273895264,-0.449282169342041,0.17372597754001617
3.2,0.2683921456336975,-0.0616484098136425,-0.7972666025161743,-0.65195232629776,-0.18702831864356995,0.0706651583313942
3.25,0.4855160117149353,-0.6258963942527771,0.034066684544086456,-0.7663100957870483,0.0010141159873455763,-0.019073396921157837
3.3,0.33052515983581543,-0.5083655714988708,0.03449612855911255,-0.634986162185669,-0.13437378406524658,-0.20653805136680603
3.35,-0.4569843113422394,2.15765643119812,-0.11220575124025345,-0.44427692890167236,-0.25657621026039124,-0.307994544506073
3.4,-0.011993516236543655,0.7921685576438904,-0.07145434617996216,-0.39019930362701416,-0.16918449103832245,-0.0834922268986702
3.45,-0.4143387973308563,-0.22755716741085052,-0.40238088369369507,-0.18959008157253265,-0.3279838562011719,-0.18684042990207672
3.5,0.1832706183195114,-0.2776155471801758,-0.5868513584136963,-0.1041078120470047,-0.16137439012527466,0.0008894934435375035
3.55,-0.04675791412591934,-0.3178815543651581,-0.24291302263736725,-0.13952752947807312,0.01734958402812481,0.2298295646905899
3.6,0.39034122228622437,0.2156047523021698,-0.055784087628126144,-0.1646469235420227,0.07323025166988373,0.30869120359420776
3.65,0.3413371443748474,0.19787117838859558,-0.11519256234169006,-0.11306490749120712,-0.05079119652509689,0.15186730027198792
3.7,-0.2412133514881134,0.03347110003232956,-0.33324235677719116,-0.06505577266216278,-0.14234544336795807,0.04198996722698212
3.75,-0.045685775578022,0.013372421264648438,-0.0348023883998394,-0.15587487816810608,-0.010893848724663258,0.07283297181129456
3.8,0.29221829771995544,0.012949932366609573,0.07037593424320221,-0.15573465824127197,0.01938081718981266,0.09941832721233368
3.85,0.07942714542150497,0.015634533017873764,0.016910316422581673,-0.06775201112031937,-0.08306382596492767,0.08428393304347992
3.9,0.07451952248811722,0.021189676597714424,-0.2057407796382904,-0.0695727989077568,-0.10287488996982574,0.0817733108997345
3.95,0.143798828125,-0.07721424102783203,-0.07692953944206238,-0.04725669324398041,-0.16497893631458282,0.0592038631439209
4.0,0.12977471947669983,-0.04764556512236595,0.12010039389133453,0.011955469846725464,-0.19561612606048584,0.04607836902141571
4.05,0.05610682815313339,-0.06591319292783737,-0.028545409440994263,0.020938821136951447,-0.14075127243995667,0.04995152726769447
4.1,0.12115536630153656,-0.07580471783876419,-0.18337523937225342,0.028617214411497116,-0.10093963146209717,0.05893651396036148
4.15,0.1271129995584488,-0.003893862012773752,-0.10815266519784927,0.0037646424025297165,-0.0657787099480629,0.05996112897992134
4.2,0.07751654088497162,-0.06274699419736862,0.004943814128637314,0.015206225216388702,-0.04933246597647667,0.04076056554913521
4.25,-0.03065691888332367,-0.04031848907470703,-0.11111599951982498,0.04375529661774635,-0.04948277026414871,0.03279101103544235
4.3,0.16274908185005188,-0.06770039349794388,-0.23485367000102997,0.05086761340498924,-0.05605670437216759,0.04243391752243042
4.35,0.20687684416770935,-0.050237663090229034,-0.02097218856215477,-0.015223141759634018,0.03861439228057861,0.031003126874566078
4.4,0.10448054224252701,-0.007196434773504734,-0.10460298508405685,-0.037873588502407074,0.08282475918531418,0.006182367447763681
4.45,0.0506429597735405,-0.02618885412812233,-0.10062749683856964,-0.025995180010795593,0.06114113703370094,0.0039346180856227875
4.5,0.07822538167238235,-0.037621501833200455,-0.07172371447086334,-0.0038333535194396973,0.02684852108359337,0.011140681803226471
4.55,-0.017693061381578445,-0.08148287981748581,0.022733276709914207,0.0006820163689553738,0.01120635587722063,0.01588387042284012
4.6,0.11757666617631912,0.03450106456875801,-0.07977282255887985,0.013950358144938946,-0.002663698745891452,0.0320219062268734
4.65,0.10001148283481598,-0.005873686168342829,-0.05740185081958771,0.006682549603283405,0.017112137749791145,0.025015531107783318
4.7,0.0973539650440216,-0.03306293860077858,-0.11501332372426987,0.01228359155356884,0.01898236945271492,0.01909460686147213
4.75,0.0035947635769844055,-0.0318145789206028,-0.20840570330619812,0.002312860917299986,0.017166072502732277,0.012520174495875835
4.8,0.13230301439762115,-0.01096249744296074,-0.1486165076494217,-0.021140720695257187,0.022695034742355347,0.018876813352108
4.85,0.07181265205144882,-0.07926464080810547,-0.056145671755075455,-0.024643972516059875,0.021748220548033714,0.015476475469768047
4.9,0.059880491346120834,-0.054569244384765625,-0.07246735692024231,-0.01987590454518795,0.0211811363697052,0.012488622218370438
4.95,0.05112803354859352,-0.037995338439941406,-0.06851767003536224,-0.01592123880982399,0.013471563346683979,0.009718887507915497
5.0,0.177461177110672,0.046603187918663025,-0.05186592414975166,-0.010187795385718346,0.00965095218271017,0.003972961101680994
5.05,0.04003749042749405,-0.006967549677938223,-0.09743354469537735,0.015204647555947304,0.001302870106883347,-0.0016398347215726972
5.1,0.0697140023112297,-0.05721664801239967,-0.10799006372690201,0.021727612242102623,-0.006752820685505867,0.00808451697230339
5.15,0.1284693330526352,0.010611522942781448,-0.12415027618408203,0.019796447828412056,-0.007574471645057201,0.011796839535236359
5.2,0.117216095328331,0.0656261295080185,-0.06803978234529495,0.0171880591660738,0.0006379755795933306,0.009193016216158867
5.25,0.020848028361797333,0.03195856884121895,-0.16508713364601135,0.023892756551504135,-0.00033459984115324914,0.005323371849954128
5.3,0.08785414695739746,0.030901897698640823,-0.1573483943939209,0.012946573086082935,0.004757583141326904,0.005633619148284197
5.35,0.11442641913890839,-0.01720428839325905,-0.021766366437077522,0.0003145111259073019,0.00901209469884634,0.0050211562775075436
5.4,0.05480355769395828,-0.04161739721894264,-0.09039659798145294,0.005963481962680817,0.006793297361582518,0.006333329249173403
5.45,0.044091686606407166,-0.021228794008493423,-0.07341395318508148,-0.002698372583836317,0.013520654290914536,0.011381144635379314
5.5,0.06227254495024681,-0.018013957887887955,-0.08882848918437958,-0.005069873295724392,0.0002914875221904367,0.009054523892700672
5.55,0.05520731583237648,0.00857352651655674,-0.06417735666036606,-0.0038123512640595436,-0.0009418553090654314,0.007009020075201988
5.6,0.10218526422977448,0.004641525447368622,-0.05739201232790947,-0.014535699039697647,0.01370232179760933,0.006812342442572117
5.65,0.04120355099439621,-0.04555988684296608,-0.12434084713459015,-0.00922762043774128,-0.0015777458902448416,0.005039051175117493
5.7,0.1308841109275818,-0.014596947468817234,-0.08144405484199524,-0.00900613609701395,-0.001769552007317543,0.009593102149665356
5.75,0.012659364379942417,-0.08448027819395065,-0.01597503013908863,-0.006385869346559048,-0.0030466991011053324,0.002814346691593528
5.8,0.12724614143371582,-0.030017856508493423,-0.0004147273430135101,-0.006367146968841553,0.008117606863379478,0.003936243709176779
5.85,0.09254832565784454,-0.0012941403547301888,-0.00877300649881363,-0.002593304729089141,0.008575099520385265,0.0039705196395516396
5.9,0.08495758473873138,0.014979352243244648,-0.13940761983394623,0.0002953681396320462,0.0051605855114758015,-0.002553499536588788
5.95,0.1061302050948143,0.024462690576910973,-0.08546615391969681,-0.003493794472888112,0.009100615046918392,-0.001808934728614986
6.0,0.026629425585269928,-0.04332447052001953,-0.08852045238018036,-0.007598616182804108,0.0167319867759943,-0.0022802893072366714
6.05,0.03374600037932396,-0.03474712371826172,-0.07076855003833771,-0.003274058224633336,0.008155377581715584,0.0029316945001482964
6.1,0.08672946691513062,0.006929389201104641,-0.1033237874507904,-0.003951963968575001,0.014103623107075691,0.005208323244005442
6.15,0.13497793674468994,0.014037122018635273,-0.08882085233926773,-0.006590858567506075,0.0116922277957201,0.00639972323551774
6.2,0.07054518163204193,0.01246070209890604,-0.06259534507989883,-0.00669440720230341,0.0025030598044395447,0.005181754473596811
6.25,0.04915116727352142,-0.008917813189327717,-0.08223195374011993,-0.004370575770735741,0.006956537254154682,0.0011188988573849201
6.3,0.07957936823368073,-0.04335498809814453,-0.03735681250691414,-0.005107609089463949,0.016935382038354874,-0.0005070099723525345
6.35,0.05163705348968506,-0.047562599182128906,-0.06545151025056839,-0.0001297416747547686,0.005724071525037289,-0.0005899824318476021
6.4,0.0008107889443635941,-0.061893463134765625,-0.0492926761507988,-0.0036575421690940857,0.006404398940503597,0.0002600361767690629
6.45,0.07632718235254288,-0.051392558962106705,-0.08015749603509903,0.0034200316295027733,0.005073575768619776,0.0023064103443175554
6.5,0.10099538415670395,-0.05891704931855202,-0.09270729124546051,0.00463867699727416,0.006137124262750149,-0.0037124184891581535
6.55,0.15250930190086365,0.05915163457393646,-0.1093095913529396,-0.001537990290671587,0.011397141963243484,-0.001028726575896144
6.6,0.08904774487018585,0.005535120610147715,-0.02367256209254265,-0.009293226525187492,0.02038559876382351,-0.0018147535156458616
6.65,0.08432533591985703,-0.03940105810761452,-0.07082001119852066,0.007980702444911003,-0.004852075129747391,-0.002276820130646229
6.7,0.06124958023428917,0.0047836219891905785,-0.1278345137834549,0.007779289036989212,-0.0035166158340871334,-0.00015129594248719513
6.75,0.03437318652868271,-0.011855129152536392,-0.08569519966840744,0.0002652890980243683,0.0026397565379738808,0.0023840239737182856
6.8,0.04320508986711502,-0.02784443274140358,-0.07625949382781982,0.009991033002734184,-0.010708458721637726,0.001505474210716784
6.85,0.029504189267754555,-0.05831432342529297,-0.0747336596250534,0.008841303177177906,-0.014534857124090195,0.0006993798888288438
6.9,0.0786963552236557,-0.04024028778076172,-0.028346780687570572,0.006198015064001083,-0.01605086773633957,-0.00042396594653837383
6.95,0.04776252061128616,-0.025696758180856705,-0.08623119443655014,0.011776408180594444,-0.01690094731748104,-0.0022418778389692307
7.0,0.00820031575858593,-0.08959674090147018,-0.015671024098992348,0.006402222905308008,-0.006673704832792282,-0.0027043865993618965
7.05,0.0843644067645073,-0.005479816813021898,-0.029471060261130333,0.0064783403649926186,-0.014798770658671856,-0.0005399764631874859
7.1,0.14290782809257507,0.02365969680249691,-0.04200033098459244,0.00768642034381628,-0.01314982958137989,-0.0005812676972709596
7.15,0.08993405103683472,-0.04253100976347923,0.05285092815756798,0.007429754361510277,-0.005698059685528278,-0.0020770106930285692
7.2,0.062207482755184174,0.002013199729844928,-0.09326950460672379,0.010962829925119877,-0.017348958179354668,-0.00658778753131628
7.25,0.08021610975265503,-0.0008077712845988572,-0.14070197939872742,0.006052208133041859,-0.00825999490916729,-0.00528502045199275
7.3,0.12723152339458466,-0.03909778967499733,-0.07033191621303558,0.0009514957200735807,-0.0016808041837066412,-0.0024748106952756643
7.35,0.040107518434524536,-0.06155109405517578,-0.06069713458418846,0.009576050564646721,-0.012354075908660889,-0.003122634720057249
7.4,0.11940407752990723,0.0024404465220868587,-0.01676773652434349,0.0032309778034687042,-0.005718349013477564,0.0024544624611735344
7.45,0.08814655989408493,-0.020991330966353416,-0.08800548315048218,2.740021955105476e-05,-0.013148034922778606,-0.00010561748058535159
7.5,0.06720861047506332,-0.008824354037642479,-0.08393550664186478,0.00544570991769433,-0.009378017857670784,-0.00258215656504035
7.55,0.10979066789150238,0.09752367436885834,-0.06255104392766953,-0.0002828184515237808,0.0029315545689314604,-0.002992006717249751
7.6,0.08247241377830505,-0.06268692016601562,-0.08443218469619751,-0.004900448955595493,0.010600472800433636,-0.007520568091422319
7.65,0.040807586163282394,-0.1055440828204155,-0.032219499349594116,-0.01796872541308403,0.021674374118447304,-0.00661505525931716
7.7,0.08758315443992615,0.02691744826734066,-0.09256081283092499,-0.03003448247909546,0.029493626207113266,-0.009071365930140018
7.75,0.058474697172641754,-0.019624721258878708,-0.2379727065563202,-0.06594876945018768,0.07088996469974518,-0.003167342860251665
7.8,0.016096122562885284,0.06345271319150925,0.03670843318104744,-0.12360218167304993,0.17533093690872192,-0.0007981054950505495
7.85,0.1499592661857605,0.045984260737895966,0.10026955604553223,-0.07346412539482117,0.1072419062256813,-0.019456418231129646
7.9,0.07151775062084198,-0.025469783693552017,-0.06757237017154694,-0.016364872455596924,0.04136187210679054,-0.037555497139692307
7.95,0.018203943967819214,-0.06776714324951172,-0.08292805403470993,-0.021363375708460808,0.061078839004039764,-0.032434068620204926
8.0,0.11813859641551971,-0.031586654484272,-0.1531965434551239,-0.03865353390574455,0.08320532739162445,-0.022702356800436974
8.05,0.047419361770153046,-0.060090068727731705,-0.14456868171691895,-0.06070837005972862,0.1115017980337143,-0.026542823761701584
8.1,0.03124016895890236,-0.09705257415771484,-0.10302512347698212,-0.05590795353055,0.10606233775615692,-0.023610049858689308
8.15,0.1108831912279129,-0.09083651751279831,0.04329726845026016,-0.0582626610994339,0.13755065202713013,-0.02006702683866024
8.2,0.044676121324300766,-0.09339046478271484,-0.06993366032838821,-0.03331724554300308,0.14728675782680511,-0.022810453549027443
8.25,-0.03462059050798416,-0.07360553741455078,-0.14448381960391998,-0.03898601606488228,0.20047837495803833,-0.0254366435110569
8.3,0.2076992690563202,-0.03255749121308327,-0.005751682445406914,-0.02739347703754902,0.22924832999706268,-0.03368499502539635
8.35,0.1613478660583496,-0.04297161474823952,-0.02121482603251934,0.0036052949726581573,0.19315366446971893,-0.06405077874660492
8.4,0.0095440112054348,-0.06463145464658737,-0.07168921083211899,0.034897588193416595,0.15502424538135529,-0.08788364380598068
8.45,0.024503666907548904,-0.07802294939756393,-0.0059411171823740005,0.04121914133429527,0.17155618965625763,-0.07122296094894409
8.5,0.03375661373138428,-0.07001780718564987,0.05850495025515556,0.07541796565055847,0.142844095826149,-0.04615364968776703
8.55,0.11277852952480316,-0.04038620367646217,-0.031088022515177727,0.10046953707933426,0.10613743960857391,-0.031001081690192223
8.6,0.05186497047543526,-0.08415412902832031,-0.09370959550142288,0.09160707145929337,0.08816120028495789,-0.02905236929655075
8.65,0.09693391621112823,-0.020455367863178253,-0.1349341869354248,0.07837633788585663,0.09780224412679672,-0.014754826202988625
8.7,0.0477660670876503,-0.04151630401611328,-0.01849629543721676,0.07565105706453323,0.08062298595905304,-0.01667972095310688
8.75,-0.18862494826316833,-0.13320253789424896,-0.21940240263938904,0.09528131037950516,0.005177805200219154,-0.023762863129377365
8.8,0.07672075927257538,-0.048747070133686066,-0.1801307648420334,0.03388208895921707,0.02899051085114479,0.01130242832005024
8.85,0.10182695090770721,-0.02455616556107998,-0.0603303425014019,0.0028313975781202316,0.032134585082530975,0.023932840675115585
8.9,0.09108680486679077,-0.07209872454404831,0.009298388846218586,0.005465041846036911,0.02180142141878605,0.025095442309975624
8.95,0.05871135741472244,-0.10083580762147903,-0.2545488178730011,0.02007043920457363,-0.017080111429095268,0.015092404559254646
9.0,0.09930480271577835,-0.044688235968351364,-0.2569744288921356,0.007909899577498436,-0.016040315851569176,0.01806160993874073
9.05,0.08368498831987381,0.052328091114759445,-0.23774541914463043,-0.0029007275588810444,-0.022929105907678604,0.014528566040098667
9.1,0.12271285802125931,-0.03191661834716797,0.06344277411699295,-0.01566714234650135,-0.015342074446380138,0.017936546355485916
9.15,0.07914824038743973,-0.09430216997861862,0.08734674751758575,-0.016839956864714622,-0.012775708921253681,0.012317539192736149
9.2,0.140404611825943,0.032124511897563934,0.019687594845891,-0.015582139603793621,-0.013372082263231277,0.0072443862445652485
9.25,0.10254712402820587,-0.04670524597167969,0.021190522238612175,-0.028975576162338257,0.006590610835701227,0.01142887957394123
9.3,0.08802790939807892,-0.03962230682373047,-0.00957051757723093,-0.0159689262509346,-0.012936774641275406,0.007034734357148409
9.35,0.018017634749412537,-0.03595256805419922,-0.04297105595469475,-0.013165987096726894,-0.010192385874688625,0.0061515383422374725
9.4,0.11769477277994156,-0.0950613021850586,-0.0864386186003685,-0.009003601036965847,-0.006488292943686247,0.008584617637097836
9.45,0.08843407034873962,-0.04973698407411575,-0.16374021768569946,-0.008835984393954277,-0.01900399662554264,0.0038256575353443623
9.5,0.014393646270036697,-0.029273036867380142,-0.13567230105400085,-0.01684596762061119,-0.01254670787602663,-0.0011361439246684313
9.55,0.1453472375869751,-0.06587982177734375,0.011060032993555069,-0.027362613007426262,0.004670339170843363,0.011164963245391846
9.6,0.04023271054029465,-0.034827232360839844,-0.09293746948242188,-0.01176459714770317,0.0016286933096125722,0.017062261700630188
9.65,0.09848994761705399,-0.006903655827045441,-0.0934363305568695,-0.009032263420522213,-0.011666340753436089,0.014073899947106838
9.7,0.10926138609647751,-0.0854482650756836,0.015453358180820942,-0.013914154842495918,-0.010999702848494053,0.012338019907474518
9.75,0.09285714477300644,-0.014138227328658104,-0.05231824889779091,-0.011035453528165817,-0.01989092491567135,0.0065576680935919285
9.8,0.055624645203351974,0.003390302648767829,-0.16635644435882568,-0.025315916165709496,-0.008157347328960896,0.008029504679143429
9.85,0.10659153014421463,-0.07596874237060547,-0.041782449930906296,-0.037452567368745804,0.0008775293827056885,0.007841517217457294
9.9,0.0752335637807846,-0.08462047576904297,-0.06235535815358162,-0.02706887200474739,-0.014176340773701668,0.005037572234869003
9.95,0.07946670055389404,-0.021559718996286392,-0.06298717856407166,-0.02253470942378044,-0.018676061183214188,0.0073503111489117146
10.0,0.1316424012184143,-0.02420235052704811,0.004790136124938726,-0.004807732999324799,-0.02529074437916279,0.005460123531520367
10.05,0.1167430728673935,-0.05315018072724342,-0.043540049344301224,-0.00047766859643161297,-0.016133306547999382,0.007644793950021267
10.1,0.07598499953746796,-0.05718517303466797,-0.04947785660624504,-0.00495740445330739,-0.010629160329699516,0.008526119403541088
10.15,0.05128581076860428,0.01240348070859909,-0.09587011486291885,-0.0071936557069420815,-0.010480583645403385,0.004804045893251896
10.2,0.10210105776786804,0.028096189722418785,-0.07039053738117218,-0.010557529516518116,-0.005390990991145372,0.010022319853305817
10.25,0.19563496112823486,0.008769980631768703,0.015096700750291348,-0.025652140378952026,0.02375420182943344,0.01555419247597456
10.3,0.07726462185382843,-0.03587246313691139,-0.06804408878087997,-0.005560377147048712,0.0007762586465105414,0.0041793459095060825
10.35,0.08055897057056427,-0.08326911926269531,-0.11886634677648544,-0.008251246064901352,-0.011471213772892952,0.003016940550878644
10.4,0.059292517602443695,-0.04398155212402344,-0.021233949810266495,-0.018494190648198128,-0.01449067797511816,0.011357619427144527
10.45,0.09294886887073517,0.023584358394145966,-0.05235151946544647,-0.012336896732449532,-0.01620033197104931,0.006364286877214909
10.5,0.009857596829533577,-0.03603076934814453,-0.039862800389528275,-0.009894954040646553,-0.01635541394352913,0.0031287451274693012
10.55,0.0760091245174408,-0.05019855871796608,-0.11258166283369064,-0.007451171986758709,-0.009042465128004551,0.0027399552054703236
10.6,0.06420998275279999,0.01441001147031784,-0.08039540797472,-0.016361942514777184,-0.007922613993287086,0.003543892875313759
10.65,0.11467443406581879,0.01601218245923519,-0.05680723488330841,-0.02292310632765293,-0.007701799739152193,0.008283555507659912
10.7,0.11745897680521011,0.0018396292580291629,-0.07938329875469208,-0.019663525745272636,-0.018327128142118454,0.012486735358834267
10.75,0.11691363900899887,-0.02718258462846279,-0.04009314253926277,-0.011795202270150185,-0.024521348997950554,0.0064098103903234005
10.8,0.12104920297861099,-0.004678733646869659,-0.06192366033792496,-0.008945489302277565,-0.031904805451631546,0.0048323944211006165
10.85,0.06783716380596161,-0.02285194769501686,-0.06308243423700333,-0.005664607975631952,-0.02997654117643833,0.005018208641558886
10.9,0.03771166130900383,-0.06761932373046875,-0.06408543139696121,-0.0027539068832993507,-0.030830862000584602,0.0034084892831742764
10.95,0.060662783682346344,-0.037116050720214844,-0.03401774540543556,0.007569040637463331,-0.03688936308026314,0.0057430872693657875
11.0,0.09883256256580353,-0.05202484503388405,-0.05193394795060158,0.008111124858260155,-0.04411657527089119,0.005486657377332449
11.05,0.1077161356806755,0.015933027490973473,-0.08326485008001328,0.010986330918967724,-0.031606413424015045,-0.0002535548701416701
11.1,0.07702183723449707,-0.06303977966308594,-0.027442097663879395,0.001966719049960375,-0.019283177331089973,0.004566150717437267
11.15,0.035374872386455536,-0.026148797944188118,-0.06561934947967529,-0.0038737417198717594,-0.011718704365193844,0.004282962065190077
11.2,0.07649942487478256,-0.07129573822021484,-0.07366101443767548,0.0009587269742041826,-0.010651073418557644,0.005787686910480261
11.25,0.09748221933841705,-0.015574462711811066,-0.10064884275197983,-0.001533135655336082,-0.01446125190705061,0.004043132066726685
11.3,0.11576226353645325,-0.01968860998749733,-0.03506553918123245,0.010459015145897865,-0.024020252749323845,0.0015371600165963173
11.35,0.0295857060700655,-0.037642478942871094,-0.08437473326921463,0.01679731346666813,-0.02999017760157585,-0.0006928090588189662
11.4,0.15447933971881866,0.012248978018760681,-0.16897425055503845,0.007554949726909399,-0.02224898338317871,0.005962503608316183
11.45,0.09878192096948624,-0.024538997560739517,-0.02629156969487667,0.0014085769653320312,-0.006713827606290579,0.0010743155144155025
11.5,0.1082000732421875,0.013463012874126434,-0.03628770262002945,0.01289695966988802,-0.01738911122083664,-0.0021552438847720623
11.55,0.05212309584021568,-0.0209045447409153,-0.0809347853064537,0.015296661294996738,-0.010904902592301369,-0.004804803058505058
11.6,0.025771968066692352,0.015658371150493622,-0.12555517256259918,0.01899147965013981,-0.014000404626131058,-0.0030415551736950874
11.65,0.07180703431367874,-0.027606965973973274,-0.0299766156822443,0.0052370172925293446,-0.018395787104964256,-0.0018868313636630774
11.7,0.03230194002389908,-0.04207992926239967,-0.10916552692651749,0.01396891474723816,-0.04584678262472153,-0.0026565329171717167
11.75,0.04356212541460991,-0.057785991579294205,-0.10446710884571075,0.00668967142701149,-0.049666617065668106,0.004867873154580593
11.8,0.02395203709602356,-0.0550232008099556,-0.28576892614364624,-0.01013105921447277,-0.0659366324543953,0.01789313554763794
11.85,0.21123075485229492,0.04376505687832832,0.06776859611272812,-0.04964888095855713,-0.0615270659327507,0.02667045220732689
11.9,0.11198145151138306,0.015522955916821957,0.10923932492733002,-0.0385042242705822,-0.07474049180746078,0.012351062148809433
11.95,0.026332177221775055,-0.0070161838084459305,-0.033892903476953506,-0.019236192107200623,-0.06681957095861435,0.009137175977230072
12.0,0.035185642540454865,-0.024676324799656868,-0.031389616429805756,-0.014230784960091114,-0.0594758577644825,0.02082187868654728
12.05,0.06837259232997894,-0.006484993267804384,-0.13594770431518555,0.0005682464689016342,-0.06418395787477493,0.024496909230947495
12.1,0.07071268558502197,-0.00974369328469038,-0.026042141020298004,-0.0070206476375460625,-0.0354335717856884,0.026240840554237366
12.15,0.11824741959571838,-0.05114937201142311,-0.048813097178936005,-0.029799597337841988,0.005937907844781876,0.029684102162718773
12.2,0.16543243825435638,-0.026542672887444496,-0.09455160796642303,-0.026503372937440872,-0.005321049131453037,0.02490055188536644
12.25,-0.04183777794241905,0.01036738883703947,-0.1346648931503296,-0.02333342842757702,-0.021322105079889297,0.01925644278526306
12.3,0.026449289172887802,-0.05981158837676048,0.035972557961940765,-0.038755908608436584,0.013622814789414406,0.027613483369350433
12.35,0.09407871216535568,-0.006413464900106192,-0.0337633416056633,-0.017643297091126442,-0.0060434225015342236,0.027498384937644005
12.4,0.0838790163397789,0.030436508357524872,-0.056136831641197205,-0.002245180308818817,-0.003110433230176568,0.019617153331637383
12.45,0.016927311196923256,-0.09854411333799362,-0.018480367958545685,-0.0052381763234734535,-0.0004357506113592535,0.02456842176616192
12.5,0.16118216514587402,0.019575107842683792,-0.05132005736231804,-0.016139516606926918,0.03262273222208023,0.028892727568745613
12.55,0.04466591775417328,-0.08749102801084518,-0.02426134981215,0.005091903731226921,0.01752682961523533,0.023087387904524803
12.6,0.09506194293498993,-0.03893089294433594,-0.01788024790585041,0.013851813971996307,0.029014868661761284,0.023951388895511627
12.65,0.13297249376773834,0.07507990300655365,-0.08443363755941391,0.02194180153310299,0.020407767966389656,0.020345134660601616
12.7,0.03366405516862869,-0.139768585562706,-0.02831381745636463,0.016680488362908363,0.017832614481449127,0.02127344347536564
12.75,0.032247867435216904,-0.03782368078827858,-0.11837133765220642,0.007049201056361198,0.04082935303449631,0.03107408992946148
12.8,0.05053943395614624,-0.07005595415830612,-0.025372955948114395,-0.0016746306791901588,0.04684760421514511,0.03185329958796501
12.85,0.11031284928321838,-0.08941268920898438,-0.09120839089155197,0.01332375593483448,0.03224325552582741,0.02627507783472538
12.9,0.08414995670318604,-0.0013170294696465135,-0.0405653640627861,0.022514628246426582,0.010316208936274052,0.01702606864273548
12.95,0.10399134457111359,0.02962588332593441,-0.08455941081047058,0.024517420679330826,0.007909201085567474,0.012282303534448147
13.0,0.025965485721826553,0.009502405300736427,-0.08930592983961105,0.025210335850715637,0.02774735540151596,0.009674154222011566
13.05,0.1522197276353836,0.038642872124910355,-0.03799194470047951,0.023890603333711624,0.016947893425822258,0.01658456213772297
13.1,0.16586875915527344,-0.04085255041718483,0.0038016759790480137,0.027548983693122864,0.00852659810334444,0.007461193483322859
13.15,0.03958757594227791,0.004952426068484783,-0.05615340918302536,0.033643320202827454,0.008928731083869934,0.003818362485617399
13.2,0.057131439447402954,-0.0654153823852539,-0.07205157727003098,0.030618466436862946,0.018500732257962227,0.0052297478541731834
13.25,0.02318738028407097,-0.0253753662109375,-0.036692604422569275,0.039891213178634644,-0.0007086512632668018,0.007053134962916374
13.3,0.04912951961159706,-0.06415843218564987,-0.023483263328671455,0.036213576793670654,0.014442584477365017,0.011899520643055439
13.35,0.10113419592380524,-0.009131436236202717,-0.029098205268383026,0.03811559081077576,-0.005475152749568224,0.019307315349578857
13.4,0.0647367537021637,-0.0037546236999332905,-0.1291622370481491,0.02385559491813183,0.006919063627719879,0.014835883863270283
13.45,0.13855575025081635,-0.03918838873505592,-0.04780400171875954,0.009336262941360474,0.0002168658102164045,0.019215213134884834
13.5,0.20793583989143372,-0.031515125185251236,0.06091456487774849,-0.004601128865033388,0.0273214690387249,0.016021069139242172
13.55,0.0939897745847702,-0.011677750386297703,-0.13739675283432007,0.00937952846288681,0.012660598382353783,-0.0011630428489297628
13.6,0.033523935824632645,-0.01387882512062788,-0.04997383803129196,0.00475452933460474,0.0020309665706008673,0.005993817467242479
13.65,0.06888406723737717,-0.054032329469919205,-0.07857988774776459,0.006916574202477932,-0.004201036412268877,0.0025462063495069742
13.7,0.108786441385746,0.12801741063594818,-0.036063577979803085,-0.003114014398306608,0.011546226218342781,0.0053601195104420185
13.75,0.08498277515172958,0.09866999834775925,0.009671727195382118,0.006831234320998192,-0.001251152832992375,0.0010807638755068183
13.8,0.10774457454681396,-0.019686702638864517,-0.030492151156067848,0.005489342380315065,0.01091171894222498,0.0054639652371406555
13.85,0.12386482954025269,-0.11256599426269531,-0.021769791841506958,0.01635301485657692,0.004406931344419718,0.006931445095688105
13.9,0.020714538171887398,-0.02842140384018421,-0.06280594319105148,0.012991094961762428,-0.006170133128762245,0.005844700615853071
13.95,0.0357486791908741,0.043240539729595184,-0.06164580211043358,0.016033174470067024,-0.019799964502453804,0.0037075418513268232
14.0,0.014347461983561516,-0.12911222875118256,-0.024778030812740326,0.0091994758695364,-0.001409047283232212,0.0003038790018763393
14.05,0.1014595627784729,0.0004472667642403394,-0.05024342983961105,0.015583096072077751,-0.006653976626694202,0.005669522099196911
14.1,0.09336742013692856,0.009648316539824009,-0.03667711466550827,0.008133606985211372,-0.011005766689777374,0.006067022681236267
14.15,0.0744086503982544,-0.015332231298089027,-0.1614808291196823,0.00636720098555088,0.003778191516175866,0.002492468571290374
14.2,0.06562457233667374,-0.04379940405488014,-0.10538022220134735,0.0037351585924625397,-0.008488928899168968,0.00012629821139853448
14.25,0.09040846675634384,-0.05938244238495827,-0.07295901328325272,0.0012095775455236435,-0.0045655653811991215,-0.004663059953600168
14.3,0.09826688468456268,-0.029981616884469986,-0.05160021781921387,0.001135152648203075,-0.004433436319231987,-0.004806946497410536
14.35,-0.004192132502794266,-0.058884620666503906,-0.07304804027080536,0.006917900871485472,-0.005981595255434513,-0.006488957442343235
14.4,0.07060225307941437,-0.043575286865234375,-0.021829932928085327,0.003841739147901535,0.007348292041569948,-0.004397521261125803
14.45,0.09043003618717194,-0.019918449223041534,-0.11627031117677689,0.003544563427567482,0.006161332596093416,-0.0010928511619567871
14.5,0.16094952821731567,0.03984926640987396,-0.10646063089370728,0.006890336982905865,-0.005258825141936541,0.00047386749065481126
14.55,0.12723934650421143,0.0424346849322319,0.08379043638706207,-0.001091532874852419,-0.012263047508895397,0.002127312822267413
14.6,0.07538311183452606,-0.00953579880297184,-0.17918765544891357,-0.0017328294925391674,0.011944820173084736,-0.00904072355479002
14.65,0.05199353024363518,-0.06149100884795189,0.03102453052997589,-0.009952949360013008,-0.010593924671411514,-0.0033334647305309772
14.7,0.165302112698555,-0.051943790167570114,-0.16279089450836182,-0.015494737774133682,0.010431156493723392,-0.005485524423420429
14.75,0.11484993994235992,-0.02490902505815029,-0.049685049802064896,-0.013534974306821823,-0.015031659044325352,-0.005512858275324106
14.8,0.1458776891231537,-0.03003598004579544,-0.08104413747787476,-0.01763055846095085,0.01944580115377903,-0.008154420182108879
14.85,0.03194814175367355,-0.053589824587106705,-0.12976834177970886,-0.022317584604024887,0.01807396486401558,-0.00939986389130354
14.9,0.08387263864278793,-0.0184249896556139,0.0012024875031784177,-0.017120789736509323,0.010262862779200077,-0.01002638041973114
14.95,0.1643257439136505,-0.00316620827652514,-0.06689470261335373,-0.026924729347229004,0.030377749353647232,-0.018752338364720345
15.0,0.017430167645215988,-0.019965175539255142,-0.10227122902870178,-0.017718568444252014,0.0009766379371285439,-0.026615096256136894
15.05,0.07341205328702927,-0.027047161012887955,-0.0602729469537735,-0.03757929056882858,0.02801515907049179,-0.02209450863301754
15.1,0.05963411554694176,-0.019564630463719368,-0.049316566437482834,-0.017864052206277847,-0.0002068419853458181,-0.028473615646362305
15.15,0.054600685834884644,0.017290109768509865,-0.03443169593811035,-0.025868235155940056,0.023756762966513634,-0.027410125359892845
15.2,0.13936293125152588,0.05108354985713959,-0.09912541508674622,-0.037879783660173416,0.0694914385676384,-0.02624385431408882
15.25,0.021110795438289642,-0.06276130676269531,-0.15209728479385376,-0.016589678823947906,0.03941075876355171,-0.04406397417187691
15.3,-0.028380218893289566,-0.21451853215694427,0.049823127686977386,-0.02463582530617714,0.06255646795034409,-0.04491612687706947
15.35,0.27181360125541687,-0.1397247314453125,-0.014134353958070278,-0.031129896640777588,0.08886030316352844,-0.025362977758049965
15.4,0.08609813451766968,-0.10710429400205612,0.11978226155042648,-0.013326108455657959,0.042612046003341675,-0.04380853474140167
15.45,0.030767079442739487,-0.023028377443552017,-0.11392606794834137,-0.01489407941699028,0.09636399149894714,-0.03329538553953171
15.5,0.07403938472270966,-0.04357337951660156,-0.005233691073954105,-0.005889720283448696,0.05569148436188698,-0.03219657018780708
15.55,0.09923239797353745,-0.044920921325683594,0.00908594485372305,-0.0051122745499014854,0.07531040906906128,-0.031440261751413345
15.6,0.036021601408720016,0.016074171289801598,-0.13019193708896637,-0.0009611658751964569,0.0716511607170105,-0.022185323759913445
15.65,0.021012283861637115,0.010399812832474709,-0.08915776759386063,-0.0032097026705741882,0.07816658169031143,-0.02326214499771595
15.7,0.032531142234802246,-0.02433205582201481,-0.2259700745344162,-0.005218081641942263,0.07665155827999115,-0.006766677834093571
15.75,0.06127273291349411,-0.10502052307128906,-0.1233217865228653,-0.0520193874835968,0.16201797127723694,0.016083957627415657
15.8,0.16887444257736206,0.004079808015376329,-0.0658775195479393,-0.07674025744199753,0.18646638095378876,0.027775153517723083
15.85,0.05788657069206238,-0.028922084718942642,-0.09404744952917099,-0.03591691702604294,0.10233832895755768,0.017249474301934242
15.9,0.08953998982906342,-0.05610370635986328,-0.03268368914723396,-0.030052393674850464,0.08374534547328949,0.02525174804031849
15.95,0.18042726814746857,0.040680866688489914,-0.13499081134796143,-0.015590053051710129,0.0683755949139595,0.027953647077083588
16.0,0.37380051612854004,0.04488275572657585,0.0473310612142086,-0.032853320240974426,0.06853074580430984,0.02640073373913765
16.05,0.3698838949203491,-0.08938790112733841,0.07756545394659042,0.002522125607356429,0.02618124522268772,-0.0036553791724145412
16.1,0.16352114081382751,-0.10457897186279297,-0.000474506348837167,-0.004729804582893848,0.030330678448081017,-0.0052953665144741535
16.15,-0.0024328120052814484,0.032773010432720184,-0.11021826416254044,-0.015102088451385498,0.00993042066693306,0.010975956916809082
16.2,0.09866973757743835,-0.002112398622557521,-0.1458345502614975,-0.01441859919577837,0.011954711750149727,0.014450260438024998
16.25,0.1415463387966156,-0.07841682434082031,-0.04663747176527977,-0.0029790494590997696,0.005791273433715105,0.01164562813937664
16.3,0.022462420165538788,-0.10765552520751953,-0.11894253641366959,0.011793894693255424,-0.0026828001718968153,0.002761098323389888
16.35,0.1221664771437645,-0.11337661743164062,-0.1366955041885376,0.0067377276718616486,-0.00420942809432745,0.0019898025784641504
16.4,0.10404050350189209,-0.03061676397919655,-0.026038391515612602,-0.006617122329771519,0.006803097203373909,0.001571638393215835
16.45,0.009938959032297134,-0.040551185607910156,-0.09185376763343811,0.00013644713908433914,0.0002536837419029325,5.378139394451864e-05
16.5,0.022748325020074844,-0.028095249086618423,-0.0907285287976265,0.00681912899017334,0.004092206712812185,0.0016989530995488167
16.55,0.057525500655174255,-0.03227043151855469,-0.07520067691802979,0.01495884358882904,-0.0004409571411088109,0.0010735560208559036
16.6,0.09740759432315826,-0.04282856360077858,-0.06811771541833878,0.01067066378891468,-0.0012567844241857529,0.002084794919937849
16.65,0.06970210373401642,-0.050520896911621094,-0.04623895883560181,0.01489897258579731,-0.0029586448799818754,0.0024464812595397234
16.7,0.08068256080150604,-0.022812847048044205,-0.057066332548856735,0.014416688121855259,-0.0025620716623961926,-0.0023943877313286066
16.75,0.13737894594669342,0.339844673871994,-0.04425007477402687,0.007710964418947697,-0.0006876268307678401,0.0019950256682932377
16.8,-0.06550899147987366,-0.16035936772823334,-0.05782154202461243,0.012331239879131317,0.003456420497968793,-0.0034922549966722727
16.85,-0.007635900750756264,-0.006297112908214331,-0.055367011576890945,0.01276401523500681,-0.007686777506023645,0.0031386264599859715
16.9,0.0969555526971817,-0.04291057959198952,-0.09656310081481934,0.010011238977313042,-0.005985558032989502,2.6339090254623443e-05
16.95,0.04023455083370209,-0.05104446783661842,-0.09731277078390121,0.012893347069621086,-0.006147450767457485,-0.00010609217861201614
17.0,0.14553748071193695,-0.04598332196474075,-0.16401778161525726,0.012758312746882439,-0.0025218103546649218,-4.653668383980403e-06
17.05,0.13027966022491455,-0.016731267794966698,-0.05727529525756836,0.0014149713097140193,-0.00025777603150345385,-0.0027845767326653004
17.1,0.07133417576551437,-0.006085401866585016,-0.08008380234241486,0.0030009879264980555,-0.008467163890600204,-0.004922427237033844
17.15,0.06061293184757233,0.048461902886629105,-0.11045895516872406,-0.0022625867277383804,-0.005505942739546299,-0.0010879201581701636
17.2,0.031627822667360306,-0.029961585998535156,-0.032922957092523575,-0.001392929581925273,-0.0012538987211883068,0.0007457720930688083
17.25,0.021227270364761353,-0.03052235022187233,-0.1289183795452118,0.0035537169314920902,-0.006278724875301123,-0.001283064833842218
17.3,0.1289847195148468,-0.0030679795891046524,-0.09631330519914627,0.0012642801739275455,-0.0038752162363380194,0.0020104676950722933
17.35,0.05211123824119568,-0.05047798156738281,-0.07812052965164185,0.0036840704269707203,-0.003633328713476658,-0.0028852850664407015
17.4,0.09580494463443756,-0.0044422210194170475,-0.060540612787008286,3.981195550295524e-05,0.0002539718116167933,5.6001674238359556e-05
17.45,0.13860830664634705,-0.03251076489686966,-0.10041794180870056,0.0018173393327742815,0.0021127541549503803,0.0010884945513680577
17.5,0.0920727476477623,0.020817747339606285,-0.09109237045049667,0.003219220321625471,-0.0014077594969421625,0.0032047571148723364
17.55,0.12545335292816162,-0.061600688844919205,-0.05428974702954292,0.007749403826892376,0.002723708748817444,0.0023888119030743837
17.6,0.04647502675652504,-0.06175804138183594,-0.0744747743010521,0.004629645962268114,0.0016923490911722183,0.001172463409602642
17.65,0.026368509978055954,-0.033448219299316406,-0.10393768548965454,0.0019607667345553637,-0.0015434292145073414,0.006568144075572491
17.7,0.22728954255580902,-0.009247795678675175,-0.17836061120033264,-0.013889758847653866,0.022155769169330597,0.00514413183555007
17.75,0.1003837138414383,-0.046117786318063736,-0.05633490905165672,-0.03522992879152298,0.019500702619552612,-0.00032228720374405384
17.8,0.16744832694530487,7.915255264379084e-05,0.11945438385009766,-0.04613544046878815,0.008048287592828274,0.004066405352205038
17.85,0.036129485815763474,-0.08298014849424362,0.043936777859926224,-0.005980742163956165,-0.007261332590132952,-0.01167123019695282
17.9,0.08049453794956207,-0.052145007997751236,-0.07069249451160431,0.014911964535713196,-0.01137170847505331,-0.0024028767365962267
17.95,0.02131187543272972,-0.04096412658691406,-0.09341508150100708,0.010552970692515373,-0.010466614738106728,-0.004786763805896044
18.0,0.0652647465467453,-0.010951046831905842,-0.07084520906209946,0.009350785985589027,-0.005963466130197048,-0.00649956613779068
18.05,0.09053690731525421,-0.10753726214170456,0.018760910257697105,0.009027168154716492,0.0038031109143048525,-0.0006043158937245607
18.1,0.10480553656816483,-0.017065053805708885,-0.09205130487680435,0.022593708708882332,-0.001283114543184638,0.0034423023462295532
18.15,0.18045225739479065,0.029238685965538025,-0.11300612986087799,0.02155100181698799,0.0015527913346886635,0.004349215887486935
18.2,0.12200715392827988,-0.08599185943603516,-0.1050991490483284,0.0207662396132946,0.007538666948676109,0.0033109276555478573
18.25,0.1234135702252388,0.010472286492586136,-0.11677346378564835,0.004040553700178862,0.010695415548980236,0.005047910381108522
18.3,0.08184663951396942,-0.0040550329722464085,-0.1597917526960373,-0.0014436925994232297,0.014760337769985199,-0.003502040170133114
18.35,0.01023019477725029,-0.06226825714111328,-0.06851581484079361,-0.01617824099957943,0.02421804703772068,-0.005015148315578699
18.4,0.10357581079006195,-0.05547523871064186,-0.06596577912569046,-0.018723608925938606,0.03253055363893509,-0.008719527162611485
18.45,0.033324405550956726,-0.010993003845214844,0.02157841995358467,-0.010420733131468296,0.016463233157992363,-0.013945329003036022
18.5,0.10245053470134735,-0.09375858306884766,-0.0172367375344038,-0.003570176661014557,0.008919495157897472,-0.011829381808638573
18.55,0.09698096662759781,-0.046270374208688736,-0.08563259989023209,0.0033594865817576647,0.009458792395889759,-0.005682726390659809
18.6,0.11238641291856766,0.003607742488384247,-0.05563510209321976,-0.0009685617405921221,0.004240805748850107,0.002622711006551981
18.65,-0.00595821812748909,-0.04018878936767578,-0.07562664151191711,-0.0008269048412330449,0.008766700513660908,0.000510789395775646
18.7,0.16274785995483398,-0.03787709027528763,-0.09134858846664429,-0.002698913449421525,0.0073219542391598225,0.007571733091026545
18.75,0.025181666016578674,-0.03338528051972389,-0.16848021745681763,0.0028944360092282295,0.005927159916609526,-0.0009341479744762182
18.8,0.06743738800287247,-0.019681932404637337,-0.01273584458976984,-0.0031839197035878897,0.004525250289589167,0.0040588052943348885
18.85,0.13160374760627747,-0.06293582916259766,-0.10798320174217224,0.0023936100769788027,-0.0022156713530421257,-0.0031722921412438154
18.9,0.12794063985347748,0.013875952921807766,-0.040302637964487076,0.0017060282407328486,-0.00010390436364104971,0.002440565964207053
18.95,0.08935456722974777,-0.015084270387887955,-0.026557158678770065,0.0036505383905023336,0.00011236722639296204,0.0015781725523993373
19.0,0.11895918846130371,-0.009825713001191616,-0.0666639506816864,0.007664242759346962,-0.0058110905811190605,0.0009252800373360515
19.05,0.10800154507160187,0.007716169115155935,-0.11731754243373871,0.0016859101597219706,0.005846576765179634,0.0005573651287704706
19.1,0.03862706944346428,-0.044747352600097656,-0.03671480342745781,-0.002372086513787508,0.0028447716031223536,-0.0038859357591718435
19.15,0.06607804447412491,0.022788040339946747,-0.045915547758340836,0.001807931694202125,-0.010473618283867836,0.004014555364847183
19.2,0.09197975695133209,-0.03440285101532936,-0.08120361715555191,0.0017182775773108006,-0.0021523700561374426,0.0009208658011630177
19.25,0.026503512635827065,-0.004508975427597761,-0.06507023423910141,0.004451620392501354,-0.009129106067121029,0.002875988371670246
19.3,0.03837835416197777,-0.04081153869628906,-0.08749386668205261,-0.0005507934838533401,-0.0076788123697042465,0.004843918140977621
19.35,0.12257513403892517,-0.025175100192427635,-0.03421604633331299,0.0008848590077832341,-0.008417055010795593,0.00485152518376708
19.4,0.04923558980226517,0.02699374593794346,-0.04766395315527916,0.003226126078516245,-0.0035814931616187096,0.00019671568588819355
19.45,0.055540360510349274,-0.023809436708688736,-0.08343792706727982,0.008285533636808395,-0.0011235518613830209,0.004510053433477879
19.5,0.15120954811573029,-0.03897476568818092,-0.06257464736700058,0.002491794293746352,-0.002260409062728286,0.0022578781936317682
19.55,0.08073367178440094,-0.05333518981933594,-0.04561372473835945,0.009695556946098804,-0.017679132521152496,-1.9518070985213853e-05
19.6,0.12404361367225647,-0.03153515234589577,-0.03374322131276131,0.007927368395030499,-0.01060717087239027,-0.0013284104643389583
19.65,0.05750894546508789,-0.046553611755371094,-0.014616088010370731,0.010783880017697811,-0.001407708041369915,-0.0028490135446190834
19.7,0.05573946237564087,-0.06793689727783203,-0.049457065761089325,0.014318319968879223,-0.004947488661855459,-0.0008074326324276626
19.75,0.028118211776018143,-0.03017425537109375,-0.014742804691195488,0.013118569739162922,-0.002525110961869359,6.863257294753566e-05
19.8,0.0661606714129448,-0.09141349792480469,-0.035990867763757706,0.012065769173204899,-0.0014250264503061771,-0.000477370253065601
19.85,0.049650639295578,-0.02535724826157093,-0.05257239192724228,0.012331150472164154,-0.0028871933463960886,7.632578490301967e-05
