Time [s],Acc_x [m/s^2],Acc_y [m/s^2],Acc_z [m/s^2],Gyro_x [1/s],Gyro_y [1/s],Gyro_z [1/s]
0.0,-0.09203564375638962,0.16216756403446198,-0.03364231437444687,-0.026610495522618294,0.025617390871047974,-0.03193415701389313
0.05,-0.07847856730222702,0.1599416881799698,-0.04545070230960846,-0.026616936549544334,0.025603242218494415,-0.03194012492895126
0.1,-0.037481535226106644,0.10760118067264557,0.005895405076444149,-0.032627206295728683,0.010499686934053898,-0.02863563410937786
0.15,-0.03049355186522007,0.09075450897216797,0.054999999701976776,-0.03144803270697594,0.015515190549194813,-0.019571511074900627
0.2,-0.07016383111476898,0.12323666363954544,0.014969101175665855,-0.02726232446730137,0.0248782429844141,-0.011083309538662434
0.25,-0.05637064203619957,0.11474133282899857,0.029673945158720016,-0.032677143812179565,0.015884704887866974,-0.008982307277619839
0.3,-0.04200447350740433,0.13996602594852448,0.06316007673740387,-0.03829292207956314,0.016939781606197357,-0.00879696849733591
0.35,-0.025904778391122818,0.1475973278284073,0.08155671507120132,-0.044558532536029816,0.021085070446133614,-0.010972926393151283
0.4,-0.05518091842532158,0.14043617248535156,0.046600837260484695,-0.04887452721595764,0.02908027544617653,-0.011783876456320286
0.45,-0.06776680052280426,0.12131787091493607,-0.011053865775465965,-0.051788195967674255,0.031026873737573624,-0.00908487755805254
0.5,-0.06362058222293854,0.1245422437787056,-0.024679677560925484,-0.05367413908243179,0.021329093724489212,0.00014910883328411728
0.55,-0.07588629424571991,0.12895680963993073,0.00547862658277154,-0.04748241975903511,0.004025115165859461,0.007709734607487917
0.6,-0.06008593365550041,0.13440419733524323,0.014649930410087109,-0.03139945864677429,0.0018601787742227316,0.008972350507974625
0.65,-0.07366932928562164,0.1574430614709854,-0.05013296753168106,-0.016589397564530373,0.007258520927280188,0.007832905277609825
0.7,-0.03244800865650177,0.1661377102136612,-0.03132818639278412,-0.015224811621010303,-0.018713941797614098,0.006697066128253937
0.75,-0.011616798117756844,0.175233855843544,0.01601419970393181,-0.012365415692329407,-0.03709575533866882,0.0050150929018855095
0.8,-0.03146294131875038,0.14778806269168854,-0.01670016162097454,-0.004252952989190817,-0.034050315618515015,0.0008804333047010005
0.85,0.0030885073356330395,0.1337452083826065,0.0004933292511850595,0.0005673025734722614,-0.0379565991461277,-0.005858780350536108
0.9,0.008552401326596737,0.13016702234745026,0.030173081904649734,0.007051781285554171,-0.03695889562368393,-0.012590000405907631
0.95,-0.008874613791704178,0.12526895105838776,0.03521014004945755,0.012295025400817394,-0.029402464628219604,-0.01541831623762846
1.0,0.009784515015780926,0.12066079676151276,0.005950938444584608,0.010104047134518623,-0.021046914160251617,-0.01585768349468708
1.05,0.01762230135500431,0.1483020931482315,-0.06271860003471375,-0.002433554735034704,-0.016468731686472893,-0.014058679342269897
1.1,0.1008385419845581,0.3766232430934906,-0.26684510707855225,-0.0349813774228096,-0.017932087182998657,-0.025194784626364708
1.15,-0.010821372270584106,0.5113297700881958,-0.6926516890525818,-0.06563828140497208,-0.04418925940990448,-0.10016538202762604
1.2,-0.0008672177791595459,0.41066277027130127,-0.7654961347579956,-0.05532380938529968,-0.14252479374408722,-0.19933804869651794
1.25,0.30237114429473877,0.1575060486793518,-0.3521622121334076,-0.04679567366838455,-0.27802541851997375,-0.26270270347595215
1.3,0.4904458522796631,0.06990914046764374,0.03770410269498825,-0.03424113243818283,-0.35935768485069275,-0.2813420295715332
1.35,0.4123772978782654,0.3452759385108948,0.30096888542175293,0.0821634903550148,-0.3957085907459259,-0.30246487259864807
1.4,0.28380700945854187,0.3999501168727875,0.11031091213226318,0.25779417157173157,-0.2926740348339081,-0.3356029987335205
1.45,0.17882591485977173,0.39649975299835205,-0.6493491530418396,0.3534039556980133,-0.1940687596797943,-0.3774929940700531
1.5,0.035594671964645386,0.6157141923904419,-0.8140487670898438,0.3131543695926666,-0.3945695459842682,-0.4345450699329376
1.55,-0.16370563209056854,0.767562985420227,-0.12514765560626984,0.25244081020355225,-0.6800020933151245,-0.5244044661521912
1.6,-0.2820364832878113,0.7637673020362854,0.626514196395874,0.23740532994270325,-0.729047417640686,-0.6346909403800964
1.65,-0.30925700068473816,0.24723617732524872,1.2710171937942505,0.10964393615722656,-0.6116513609886169,-0.7400712966918945
1.7,-0.32404935359954834,-0.37625429034233093,2.0501344203948975,-0.2038678228855133,-0.4613923728466034,-0.7547450661659241
1.75,-0.436504602432251,-0.7832540273666382,2.9798436164855957,-0.6041036248207092,-0.2358660250902176,-0.6698442697525024
1.8,-0.42016518115997314,-0.870139479637146,3.5331921577453613,-0.8777874708175659,0.18017324805259705,-0.5204519033432007
1.85,-0.27464210987091064,-0.5620167851448059,3.2284350395202637,-0.9250011444091797,0.7685789465904236,-0.33196136355400085
1.9,-0.020545125007629395,-0.3504897952079773,2.3212153911590576,-0.8606035709381104,1.3426252603530884,-0.18044035136699677
1.95,0.1138593852519989,-0.33330830931663513,0.9897023439407349,-0.8508468866348267,1.7052289247512817,-0.07693067193031311
2.0,-0.266970157623291,-0.3045664131641388,-0.5340849161148071,-1.006521463394165,1.6748247146606445,0.13986045122146606
2.05,-0.6516506671905518,-0.2225789576768875,-2.072493076324463,-1.1670700311660767,1.2960401773452759,0.49636760354042053
2.1,-1.007338523864746,-0.10971728712320328,-3.0501656532287598,-0.9551986455917358,0.8592848777770996,0.7733364701271057
2.15,-0.963405966758728,0.19602881371974945,-2.7597925662994385,-0.37679171562194824,0.5654261112213135,0.6687774062156677
2.2,-0.5764073133468628,0.3358956575393677,-2.214019298553467,0.21996715664863586,0.5387720465660095,0.15980206429958344
2.25,-0.32800620794296265,0.04884253069758415,-2.035454511642456,0.6479766964912415,0.5191879868507385,-0.19444698095321655
2.3,0.20384687185287476,0.13609610497951508,-1.2544000148773193,0.7806134223937988,0.24044744670391083,-0.0718783512711525
2.35,0.5742414593696594,0.34593304991722107,-0.0653667077422142,0.7063058614730835,-0.021206628531217575,0.1586112082004547
2.4,0.523361325263977,0.15145400166511536,0.43455690145492554,0.6345758438110352,-0.018348878249526024,0.2327062338590622
2.45,0.5268273949623108,0.07049660384654999,0.14598660171031952,0.6329425573348999,0.14613188803195953,0.24347466230392456
2.5,0.5112038850784302,0.250891774892807,-0.03153340891003609,0.6176468133926392,0.25735020637512207,0.2725142240524292
2.55,0.3166177570819855,0.2661753296852112,0.1685866415500641,0.4921814799308777,0.12498771399259567,0.3526756763458252
2.6,0.11236441135406494,0.39323046803474426,0.6389797329902649,0.2980169951915741,-0.12995953857898712,0.43417632579803467
2.65,0.19525744020938873,0.4789486229419708,0.6722185611724854,0.12904974818229675,-0.14720211923122406,0.3817608654499054
2.7,0.27720922231674194,0.5178938508033752,0.12711739540100098,0.07605834305286407,-0.027629725635051727,0.2856696546077728
2.75,0.03401102125644684,0.5123806595802307,-0.4112166464328766,0.07416655123233795,0.06110692396759987,0.14984314143657684
2.8,0.1266646385192871,0.4371739327907562,-0.5493693947792053,0.0784490779042244,-0.008440709672868252,0.05895652994513512
2.85,0.26244181394577026,0.2900896668434143,-0.13584557175636292,0.03949374333024025,-0.18640638887882233,0.04522118344902992
2.9,0.36330294609069824,0.07767678797245026,0.3469766676425934,0.016719717532396317,-0.2260659635066986,0.01565866358578205
2.95,0.4389520287513733,-0.11297797411680222,0.20368510484695435,0.03931384161114693,-0.050702452659606934,-0.036323003470897675
3.0,0.3516521155834198,-0.07438846677541733,-0.24521638453006744,0.05617329478263855,0.06635548174381256,-0.03741862252354622
3.05,0.19559919834136963,0.2503405213356018,-0.3526744842529297,-0.00254815979860723,-0.026681626215577126,-0.010481555014848709
3.1,0.13935339450836182,0.5302744507789612,-0.06417191028594971,-0.11591430753469467,-0.17761699855327606,-0.10557094216346741
3.15,0.36981791257858276,0.41563329100608826,0.15548911690711975,-0.20292165875434875,-0.1290556937456131,-0.22302816808223724
3.2,0.3473803400993347,0.3471994996070862,0.052245788276195526,-0.24102020263671875,0.0653325542807579,-0.2572694420814514
3.25,0.138974130153656,0.19312575459480286,0.14190717041492462,-0.2290114462375641,0.12018119543790817,-0.20845520496368408
3.3,-0.23667441308498383,0.19583414494991302,0.49015840888023376,-0.24664638936519623,0.005930843763053417,-0.13910460472106934
3.35,-0.4082062244415283,-0.19556720554828644,0.038987185806035995,-0.23323892056941986,-0.15177008509635925,-0.15868224203586578
3.4,-0.03701871633529663,-0.7516527771949768,-0.948064386844635,-0.07592078298330307,-0.24232202768325806,-0.15985922515392303
3.45,0.10562825202941895,-0.7512026429176331,-1.2846558094024658,0.11434689909219742,-0.36866578459739685,-0.04912436008453369
3.5,-0.1977221965789795,-0.2277202308177948,-1.2144180536270142,0.24782182276248932,-0.6465317606925964,0.1433088332414627
3.55,0.0717833861708641,0.23458199203014374,-0.10175668448209763,0.2756025493144989,-0.9350913166999817,0.2992583215236664
3.6,0.2413320243358612,0.19388768076896667,1.2362561225891113,0.2898140847682953,-0.8863512277603149,0.40652790665626526
3.65,0.03039383888244629,-0.17299380898475647,2.289525032043457,0.2718825936317444,-0.5015099048614502,0.4495362937450409
3.7,0.09758651256561279,-0.6089584231376648,2.464625835418701,0.3356693685054779,0.08019006252288818,0.3988915681838989
3.75,0.5446949005126953,-1.236587643623352,1.5024840831756592,0.5613069534301758,0.7658060193061829,0.359067440032959
3.8,0.5870539546012878,-1.2285853624343872,0.26274704933166504,0.8221909999847412,1.227596402168274,0.48608139157295227
3.85,-0.08291129022836685,0.1664877086877823,-0.14221465587615967,0.8981447219848633,1.1720786094665527,0.6528581976890564
3.9,-1.0034058094024658,0.9837455749511719,0.15556277334690094,0.6269122958183289,0.8308895826339722,0.5746304988861084
3.95,-0.8770763874053955,0.9380274415016174,0.07666242867708206,0.33720797300338745,0.6534909009933472,0.35795336961746216
4.0,-0.5772979259490967,0.8530178666114807,-0.13022024929523468,0.16854339838027954,0.5367244482040405,0.19097648561000824
4.05,-0.46320784091949463,0.584440290927887,-0.4231957197189331,0.051469217985868454,0.337302029132843,0.10198088735342026
4.1,-0.49113136529922485,0.5285635590553284,-0.49326276779174805,0.0264048520475626,0.15974858403205872,0.08903873711824417
4.15,-0.567837119102478,0.6341676712036133,-0.28040674328804016,0.06836888194084167,0.06902612000703812,0.04851018637418747
4.2,-0.24693132936954498,0.40668684244155884,-0.16715773940086365,0.11235200613737106,0.026203380897641182,-0.03731362521648407
4.25,-0.08667219430208206,0.22147086262702942,-0.08609094470739365,0.16464297473430634,0.04250521957874298,-0.048351727426052094
4.3,-0.08167247474193573,0.20280267298221588,0.09755981713533401,0.15639612078666687,0.03506944701075554,-0.024493172764778137
4.35,-0.04046982526779175,0.30970191955566406,0.3630327880382538,0.07403116673231125,0.004693344235420227,-0.010675872676074505
4.4,-0.2065506875514984,0.38144972920417786,0.030741559341549873,0.0434686541557312,0.006893365178257227,-0.016225483268499374
4.45,-0.1374296396970749,0.4071064591407776,-0.07683137059211731,0.06524904072284698,-0.0038217511028051376,-0.024396779015660286
4.5,0.04679672420024872,0.31850147247314453,0.34790077805519104,0.030286747962236404,-0.05907629802823067,0.010140711441636086
4.55,0.1990143358707428,0.002201045397669077,0.8771901726722717,-0.06230912730097771,0.007588255684822798,0.048566751182079315
4.6,0.6162432432174683,-0.3890839219093323,1.0159246921539307,-0.08776359260082245,0.3035523295402527,0.07268499583005905
4.65,0.7546932101249695,-0.6778593063354492,0.47480881214141846,-0.01935509219765663,0.7141285538673401,0.12316936254501343
4.7,0.20568998157978058,-0.4670133888721466,-0.4147757589817047,0.10065670311450958,0.9041932821273804,0.20982134342193604
4.75,-0.5962480902671814,0.07410145550966263,-0.8037638664245605,0.17624728381633759,0.678351104259491,0.27079087495803833
4.8,-0.7213184833526611,0.5028409957885742,-0.2610611021518707,0.1551637351512909,0.28816765546798706,0.2246985286474228
4.85,-0.5379806756973267,0.8048458695411682,0.08674021810293198,0.10520879179239273,0.06759816408157349,0.09067300707101822
4.9,-0.23985812067985535,0.6822509765625,0.23857535421848297,0.050859738141298294,0.09134728461503983,-0.05396938696503639
4.95,-0.038116417825222015,0.2147388607263565,0.07511717081069946,0.013542793691158295,0.16232261061668396,-0.1292043775320053
5.0,-0.012664519250392914,0.0127992769703269,-0.2170325517654419,0.0222787968814373,0.15178127586841583,-0.11706723272800446
5.05,0.12023057788610458,0.013896008022129536,-0.12411254644393921,0.00645151361823082,0.05410569906234741,-0.08574831485748291
5.1,0.08134019374847412,0.08195306360721588,0.0032744568306952715,-0.008944535627961159,-0.006204663775861263,-0.051259662955999374
5.15,-0.14189447462558746,0.23717215657234192,-0.08265813440084457,0.0037920260801911354,-0.03297531604766846,-0.02863740548491478
5.2,-0.1464204639196396,0.26993370056152344,0.042152293026447296,-0.0031021088361740112,-0.10231035202741623,-0.02277759276330471
5.25,0.1605372428894043,0.19684411585330963,0.3843097686767578,-0.057483330368995667,-0.19894134998321533,-0.0038827548269182444
5.3,0.41102540493011475,0.0758666917681694,0.7969397306442261,-0.10922686010599136,-0.17116999626159668,0.03205931931734085
5.35,0.4599573314189911,-0.053285617381334305,0.868371844291687,-0.1447249948978424,0.05113796889781952,0.06029708310961723
5.4,0.6313474774360657,-0.227449432015419,0.6021759510040283,-0.14668583869934082,0.39423713088035583,0.09212002903223038
5.45,0.7613991498947144,-0.5810365676879883,0.10418197512626648,-0.09877697378396988,0.7108986973762512,0.10481515526771545
5.5,0.25621283054351807,-0.49217796325683594,-0.502866268157959,0.05020390450954437,0.9112992882728577,0.17929238080978394
5.55,-0.47213515639305115,0.08526039868593216,-0.6797857284545898,0.16349197924137115,0.7527432441711426,0.2682376503944397
5.6,-1.0583105087280273,0.5021448135375977,-0.48918020725250244,0.18168070912361145,0.42425835132598877,0.19733214378356934
5.65,-0.8313924074172974,0.7349538803100586,-0.009249819442629814,0.13164322078227997,0.08592979609966278,0.036794181913137436
5.7,-0.12062060832977295,0.7434663772583008,0.3372529447078705,0.03691045194864273,-0.059559185057878494,-0.08442068845033646
5.75,0.1643572896718979,0.20305541157722473,0.2359757423400879,-0.07632695138454437,0.014558772556483746,-0.13128741085529327
5.8,-0.0030813291668891907,-0.05136203393340111,-0.18375760316848755,-0.04289039596915245,0.14115263521671295,-0.11910358816385269
5.85,-0.0930260643362999,-0.10392189770936966,-0.24911998212337494,-0.0014304593205451965,0.10699962079524994,-0.0900333970785141
5.9,-0.06949993968009949,-0.06663131713867188,-0.2062825858592987,-0.00666469894349575,-0.009636696428060532,-0.034909091889858246
5.95,0.014558300375938416,-0.019313806667923927,-0.09005261957645416,-0.0012964094057679176,-0.09524735808372498,0.0117467837408185
6.0,-0.05524253100156784,0.10433674603700638,-0.007429672870784998,0.021143333986401558,-0.11437737941741943,0.033195603638887405
6.05,-0.12735691666603088,0.14642333984375,-0.04477982595562935,0.0026790676638484,-0.1250586211681366,0.027445830404758453
6.1,-0.15529075264930725,0.5398998856544495,-0.353882372379303,-0.02053934521973133,-0.15044398605823517,0.01698065735399723
6.15,-0.8087567687034607,1.003933072090149,-0.8264108896255493,-0.04862212389707565,-0.2594640552997589,-0.008051675744354725
6.2,-1.3015905618667603,1.5082190036773682,-1.3254297971725464,-0.11083229631185532,-0.5969957113265991,-0.16535890102386475
6.25,-0.9732000231742859,1.8201019763946533,-1.3042205572128296,-0.15882691740989685,-1.112595558166504,-0.4863468408584595
6.3,-0.2243533730506897,1.6299107074737549,-0.8195977807044983,-0.09701502323150635,-1.351499319076538,-0.8826941251754761
6.35,0.20655491948127747,1.3543198108673096,-0.8649318218231201,0.0769309401512146,-1.2003545761108398,-1.1968880891799927
6.4,0.8236989378929138,0.6409532427787781,-0.7088763117790222,0.12781208753585815,-1.2720222473144531,-1.3912767171859741
6.45,1.280636191368103,-0.29340070486068726,0.5337114930152893,-0.24967241287231445,-1.7570148706436157,-1.4188512563705444
6.5,1.3341636657714844,-1.0931216478347778,2.409991979598999,-0.8297614455223083,-2.1519320011138916,-1.3501943349838257
6.55,1.1412044763565063,-1.5469297170639038,3.531741142272949,-1.0344399213790894,-1.8118447065353394,-1.2860654592514038
6.6,0.9258519411087036,-1.4181301593780518,3.3967514038085938,-0.8823993802070618,-0.8688367009162903,-1.0788763761520386
6.65,0.7579829692840576,-0.6250124573707581,1.324010968208313,-0.6976490616798401,0.18985719978809357,-0.6412414312362671
6.7,0.6945443749427795,-0.21600621938705444,-0.4175005555152893,-0.6000936031341553,0.6360601782798767,-0.3661624789237976
6.75,0.7722519636154175,-0.6782846450805664,-0.3504129648208618,-0.5075324177742004,0.8081192970275879,-0.2523980438709259
6.8,0.32043832540512085,-0.3644217848777771,-1.2922247648239136,-0.20073267817497253,1.0181587934494019,0.0026317480951547623
6.85,-0.2622499465942383,0.27566349506378174,-1.6642472743988037,0.08229685574769974,0.9473578929901123,0.07450376451015472
6.9,-0.08112743496894836,0.34661585092544556,-0.6515612006187439,0.0009270831942558289,0.5725120902061462,0.09405124187469482
6.95,0.1716010868549347,-0.051985736936330795,0.08906830102205276,0.015416033565998077,0.41484659910202026,0.09094633907079697
7.0,0.6140145659446716,-0.5406513214111328,0.38021934032440186,0.17079468071460724,0.39637526869773865,0.10675111413002014
7.05,0.650199294090271,-0.636530876159668,0.10268121212720871,0.3053252398967743,0.5028249621391296,0.20902088284492493
7.1,-0.057576507329940796,-0.10014817863702774,-0.759302020072937,0.3139292299747467,0.3434312641620636,0.34187644720077515
7.15,-0.2371079921722412,0.16486360132694244,-0.36415594816207886,-0.0075159817934036255,-0.21362659335136414,0.47773346304893494
7.2,0.19341863691806793,0.5683193802833557,0.5074805617332458,-0.21077264845371246,-0.48022449016571045,0.47203323245048523
7.25,0.41271209716796875,0.3196115791797638,0.4715301990509033,-0.14702464640140533,-0.23836952447891235,0.2961268126964569
7.3,0.4836605191230774,0.2620755136013031,-0.05768180266022682,0.012085013091564178,0.10650518536567688,0.17965172231197357
7.35,0.03544892370700836,0.252906858921051,-0.40556302666664124,-0.06007455289363861,0.07922001928091049,0.2199297696352005
7.4,0.180233895778656,0.4743834435939789,-0.2773984670639038,-0.1225726380944252,-0.12629739940166473,0.2447298765182495
7.45,0.18651732802391052,0.5305281281471252,0.009461122564971447,-0.08966922760009766,-0.07396809011697769,0.11028806120157242
7.5,-0.03569033369421959,0.41979509592056274,0.04677964001893997,-0.04508447274565697,0.07971293479204178,-0.08770682662725449
7.55,0.2549750804901123,0.1457376778125763,0.04269814491271973,-0.1821453869342804,0.11589181423187256,-0.23391123116016388
7.6,0.47571635246276855,-0.23016829788684845,-0.677420973777771,-0.23031826317310333,0.15797016024589539,-0.2333017885684967
7.65,0.7222510576248169,-0.3929910361766815,-0.5060997009277344,-0.16587451100349426,0.06845473498106003,-0.06176785007119179
7.7,0.22417044639587402,0.3733416199684143,-0.1387452334165573,-0.1129331961274147,0.03359236940741539,0.1569378674030304
7.75,-0.4357645511627197,0.22490406036376953,-0.08854728192090988,-0.2502400875091553,-0.13155116140842438,0.19615717232227325
7.8,-0.028311550617218018,-0.40047743916511536,-0.74881911277771,-0.1409369707107544,-0.15544447302818298,0.15480400621891022
7.85,0.3832782804965973,-0.7329444289207458,-1.0277634859085083,0.08085285127162933,-0.1509319245815277,0.18380597233772278
7.9,-0.01870828866958618,-0.44048115611076355,-1.28693687915802,0.16887184977531433,-0.42728191614151,0.3477785587310791
7.95,0.07980486750602722,0.3260556161403656,-0.8380885720252991,0.13792844116687775,-0.9642038941383362,0.5363278985023499
8.0,0.22444503009319305,0.616000235080719,0.3254163861274719,0.23222613334655762,-1.112911581993103,0.5491307377815247
8.05,0.08942800760269165,0.48832035064697266,1.2216030359268188,0.35624775290489197,-0.7829529047012329,0.5039768815040588
8.1,-0.11323875188827515,-0.3920099139213562,1.7521079778671265,0.38332507014274597,-0.46201252937316895,0.4490935504436493
8.15,0.3338894248008728,-0.9909994602203369,2.0414633750915527,0.5103606581687927,-0.04628285393118858,0.35798728466033936
8.2,1.2085978984832764,-1.2540637254714966,1.6106507778167725,0.7282668948173523,0.6147135496139526,0.3510627746582031
8.25,0.6802672147750854,-0.7721262574195862,0.21195025742053986,0.8486752510070801,1.1079109907150269,0.5474467277526855
8.3,-0.6420456171035767,0.8029004335403442,-0.77170729637146,0.6980525851249695,1.0499379634857178,0.7091822028160095
8.35,-1.0826146602630615,1.4787912368774414,-0.2653500735759735,0.386942595243454,0.5623834729194641,0.5616253614425659
8.4,-1.280103087425232,1.3030471801757812,-0.12687335908412933,0.172010138630867,0.19407591223716736,0.3275049924850464
8.45,-0.6045656800270081,0.8929253220558167,-0.009881403297185898,0.06299702823162079,0.07812286913394928,0.06662137806415558
8.5,-0.17571847140789032,0.5175877213478088,0.028800586238503456,0.012333564460277557,0.03711220249533653,-0.03416597470641136
8.55,-0.23351120948791504,0.35339072346687317,-0.25609293580055237,-0.007259231060743332,0.054676566272974014,-0.03847621753811836
8.6,-0.11071594059467316,0.2767162621021271,-0.12034659087657928,-0.006304980255663395,-0.013437128625810146,-0.010721809230744839
8.65,-0.2459554672241211,0.3496713638305664,0.055113181471824646,0.023668285459280014,-0.03515121713280678,0.018761947751045227
8.7,-0.39140060544013977,0.454807311296463,0.15667612850666046,0.03579083830118179,-0.05804537236690521,-0.0073547870852053165
8.75,-0.2940005958080292,0.46775153279304504,0.25202298164367676,0.02040681801736355,-0.05970035493373871,-0.06021196022629738
8.8,0.00829903781414032,0.3424549400806427,0.26231756806373596,0.023163408041000366,-0.025855625048279762,-0.10732180625200272
8.85,0.020444847643375397,0.213047057390213,0.1209997609257698,0.03338298201560974,0.007412899751216173,-0.11450925469398499
8.9,-0.03363731503486633,0.12295248359441757,-0.21775022149085999,0.040632329881191254,3.171939533785917e-05,-0.1049390360713005
8.95,-0.24211890995502472,0.349089652299881,-0.4204871356487274,0.07147293537855148,-0.06882337480783463,-0.10814183205366135
9.0,-0.24972942471504211,0.7023983597755432,-0.3294544517993927,0.07934262603521347,-0.2558039724826813,-0.11777003109455109
9.05,-0.32472550868988037,0.4477596580982208,0.24579989910125732,0.07907406240701675,-0.4306613802909851,-0.12147892266511917
9.1,0.06817907094955444,-0.34858807921409607,1.1135139465332031,0.05817291513085365,-0.3511761724948883,-0.16311460733413696
9.15,0.5496872663497925,-0.8743621110916138,1.2281838655471802,0.08188880980014801,0.14677704870700836,-0.11989352852106094
9.2,0.8947638869285583,-1.1300441026687622,0.6280481219291687,0.14802151918411255,0.6157888174057007,0.033413153141736984
9.25,0.3858581483364105,-0.5546493530273438,-0.1827060580253601,0.24167673289775848,0.8135442137718201,0.22526049613952637
9.3,-0.4598115086555481,0.29055312275886536,-0.5868510603904724,0.25277501344680786,0.675671398639679,0.3183949887752533
9.35,-0.819016695022583,0.7178382873535156,-0.2953808903694153,0.15913861989974976,0.3591383695602417,0.2816722095012665
9.4,-0.5739630460739136,0.6691160202026367,-0.012925644405186176,0.07500866055488586,0.1864258348941803,0.12809568643569946
9.45,-0.2547144293785095,0.42128756642341614,-0.041338883340358734,0.06445840001106262,0.22209209203720093,-0.0005153428064659238
9.5,-0.03978271782398224,0.282142698764801,-0.3835378587245941,0.08070047199726105,0.26721081137657166,-0.03872241824865341
9.55,0.0059419237077236176,0.11618521064519882,-0.1325092762708664,0.02032659389078617,0.15083104372024536,-0.04930264130234718
9.6,-0.04917451739311218,0.20349600911140442,-0.022267254069447517,-0.009026195853948593,0.05972305312752724,-0.02965514361858368
9.65,-0.03870512545108795,0.14237594604492188,0.08521066606044769,-0.01738295517861843,0.06134703382849693,-0.026391886174678802
9.7,-0.0051451176404953,0.20291903614997864,-0.11903845518827438,-0.015218399465084076,0.1054590567946434,-0.023687977343797684
9.75,-0.044461168348789215,0.27837565541267395,-0.20537273585796356,-0.04077381640672684,0.06348352879285812,-0.03106538951396942
9.8,-0.25086671113967896,0.4519968628883362,-0.2276553362607956,-0.04046083614230156,-0.014687852002680302,-0.0409662127494812
9.85,-0.17577406764030457,0.5460682511329651,-0.10053426027297974,-0.07042980194091797,-0.1567641943693161,-0.07670485228300095
9.9,-0.06487834453582764,0.5154667496681213,0.3782323896884918,-0.10749213397502899,-0.27180010080337524,-0.08175928890705109
9.95,0.1444755494594574,-0.032015856355428696,1.0800724029541016,-0.2269606590270996,-0.2552691698074341,-0.09681543707847595
10.0,0.5135934352874756,-0.557070791721344,1.1465935707092285,-0.22957488894462585,0.06680836528539658,-0.04790371656417847
10.05,0.722865879535675,-0.6279364228248596,0.790851891040802,-0.12931551039218903,0.539178192615509,0.0528625026345253
10.1,0.48083674907684326,-0.703892707824707,-0.02359832637012005,-0.023981183767318726,0.8832159638404846,0.1424993872642517
10.15,0.1456260085105896,-0.4180746078491211,-0.6732558608055115,0.11571352183818817,0.8953636884689331,0.25897398591041565
10.2,-0.4748922288417816,0.1895942986011505,-0.7127065062522888,0.17459212243556976,0.6692672967910767,0.290542870759964
10.25,-0.7278096675872803,0.6602039337158203,-0.43644005060195923,0.1518038809299469,0.37352070212364197,0.2019205093383789
10.3,-0.4785732626914978,0.7458763122558594,-0.03815319761633873,0.11181050539016724,0.12189891189336777,0.05102209374308586
10.35,-0.23636871576309204,0.6388712525367737,0.009713128209114075,0.10438871383666992,0.07377847284078598,-0.07386468350887299
10.4,0.0946219265460968,0.43082910776138306,0.18213078379631042,0.03963688015937805,0.024318095296621323,-0.11801692843437195
10.45,0.08038387447595596,-0.006678573787212372,-0.021308721974492073,-0.04203125089406967,0.049056779593229294,-0.10289322584867477
10.5,-0.053001586347818375,-0.06674575805664062,-0.19212926924228668,0.00793461874127388,0.10023965686559677,-0.08826180547475815
10.55,-0.06201494485139847,0.012411125935614109,-0.20198377966880798,0.028273725882172585,0.035445213317871094,-0.04972067102789879
10.6,0.033041492104530334,0.08622552454471588,-0.07259126752614975,-0.007725506089627743,-0.06696124374866486,-0.029792746528983116
10.65,0.10915277153253555,0.09619811177253723,-0.03188232704997063,-0.009775375947356224,-0.0868891105055809,-0.0006841432768851519
10.7,-0.03995416685938835,0.22817328572273254,-0.02209548093378544,-0.012543541379272938,-0.08242526650428772,0.013136298395693302
10.75,-0.02580563724040985,0.40618520975112915,0.0013234014622867107,-0.05090838670730591,-0.13394872844219208,0.01183809619396925
10.8,-0.02682393789291382,0.43037325143814087,0.17212486267089844,-0.08238766342401505,-0.19789382815361023,-0.004053940996527672
10.85,0.10396630316972733,0.39707666635513306,0.3212072551250458,-0.12786301970481873,-0.17787931859493256,-0.06376904249191284
10.9,0.14408965408802032,0.4567137360572815,0.1767779439687729,-0.15556834638118744,-0.061316512525081635,-0.09988204389810562
10.95,0.07265254110097885,0.5788002610206604,-0.31167274713516235,-0.13992729783058167,0.038377467542886734,-0.09449558705091476
11.0,-0.37551650404930115,1.7230198383331299,-0.8439682126045227,-0.13138198852539062,-0.02042221836745739,-0.12279078364372253
11.05,-1.012844204902649,2.001235246658325,-1.2039415836334229,-0.25629839301109314,-0.26249960064888,-0.4380551874637604
11.1,-1.3126970529556274,1.6102335453033447,-1.5100373029708862,-0.3641383647918701,-0.7432393431663513,-0.753462553024292
11.15,-0.14129792153835297,0.6689015030860901,0.024105766788125038,-0.7099881768226624,-1.4119597673416138,-0.9694633483886719
11.2,0.13149318099021912,-0.03087906911969185,0.9283082485198975,-0.9689284563064575,-1.522791862487793,-1.1976712942123413
11.25,0.10901898145675659,-0.27822601795196533,1.4303734302520752,-1.0132719278335571,-1.3581172227859497,-1.3590238094329834
11.3,0.06566375494003296,-0.5890561938285828,1.9230178594589233,-1.0613163709640503,-1.1902472972869873,-1.4291772842407227
11.35,0.3043307065963745,-1.4550278186798096,2.6400256156921387,-1.1230343580245972,-0.8053313493728638,-1.272088885307312
11.4,-0.040009498596191406,-1.0443594455718994,1.4983305931091309,-1.159826397895813,-0.368787556886673,-0.8139014840126038
11.45,0.9074752330780029,-1.3018323183059692,0.7588062882423401,-1.0277535915374756,0.16465361416339874,-0.5500434637069702
11.5,1.1412835121154785,-1.120009422302246,-0.6248651742935181,-0.5727463960647583,0.9040725231170654,-0.21937671303749084
11.55,0.3345019221305847,-0.6290720701217651,-2.258017063140869,0.24543780088424683,1.464506983757019,-0.014353390783071518
11.6,0.22056353092193604,0.4275333285331726,-1.8699562549591064,0.30201956629753113,1.2498492002487183,0.22555147111415863
11.65,0.21549579501152039,0.48491111397743225,-1.1005022525787354,-0.006039455533027649,0.8922474384307861,0.27604421973228455
11.7,-0.18670831620693207,-0.0714549794793129,-0.7870698571205139,0.07965417206287384,0.6479964256286621,0.3365342319011688
11.75,-0.27501118183135986,-0.7796937227249146,-0.26790738105773926,0.33988696336746216,0.5246850252151489,0.3169337809085846
11.8,0.7607307434082031,-0.44932082295417786,0.6444002389907837,0.30147698521614075,0.2889290452003479,0.3566302955150604
11.85,0.48948806524276733,0.30881983041763306,0.3494880795478821,0.21132773160934448,0.3433438837528229,0.5210468769073486
11.9,-0.14756044745445251,0.5319929718971252,0.10685452818870544,0.07933586835861206,0.2686071991920471,0.657613217830658
11.95,-0.04935113340616226,0.6086311936378479,0.07294458150863647,0.073105588555336,0.25766196846961975,0.4951637089252472
12.0,-0.3415108919143677,0.3390837013721466,-0.4246033728122711,0.17457187175750732,0.3736707866191864,0.17117242515087128
12.05,0.2506023943424225,0.285677969455719,-0.21700699627399445,0.10556921362876892,-0.019426630809903145,0.19591069221496582
12.1,0.4371819496154785,0.2894792854785919,0.41944488883018494,-0.08447697013616562,-0.24914827942848206,0.2923637330532074
12.15,0.6959763169288635,-0.04664132371544838,0.4847643971443176,-0.16767200827598572,-0.1657957136631012,0.25682738423347473
12.2,0.17820310592651367,-0.15291689336299896,-0.31954246759414673,-0.009801987558603287,0.19304721057415009,0.11632455140352249
12.25,-0.01724286377429962,0.6703034043312073,-0.4735448360443115,-0.021400613710284233,0.18310312926769257,0.07937981933355331
12.3,-0.02942468225955963,0.2577715516090393,-0.31144487857818604,-0.262458473443985,-0.11710567027330399,0.0421159528195858
12.35,0.32243287563323975,0.3641405701637268,0.14543727040290833,-0.3829626142978668,-0.2194577157497406,0.02287112921476364
12.4,0.5031681656837463,0.18451029062271118,0.07680163532495499,-0.27331727743148804,0.017121445387601852,-0.05684313178062439
12.45,0.30189257860183716,0.1335936039686203,-0.07043202966451645,-0.1516871452331543,0.3137955069541931,-0.10961209237575531
12.5,-0.09086766093969345,-0.10048198699951172,-0.3753754794597626,-0.16676273941993713,0.3354262411594391,-0.09489478915929794
12.55,0.12388414144515991,-0.3020639419555664,-0.4881766736507416,-0.1443847268819809,0.14217321574687958,-0.022519346326589584
12.6,0.10139420628547668,-0.4792919158935547,-0.6347575783729553,-0.06933661550283432,-0.04283478856086731,-0.016724927350878716
12.65,0.09258860349655151,-0.5078010559082031,-0.7413646578788757,-0.03130871802568436,-0.289919376373291,0.07208701968193054
12.7,0.2080059051513672,-0.22209641337394714,-0.5997996926307678,-0.0907086580991745,-0.577630341053009,0.2362292855978012
12.75,0.06494862586259842,0.28472620248794556,-0.2393069565296173,-0.15262314677238464,-0.8430088758468628,0.3768365681171417
12.8,0.5114943385124207,1.0592814683914185,0.6108362078666687,-0.20967720448970795,-0.9435536861419678,0.3332037925720215
12.85,0.7104020714759827,1.2159863710403442,1.0703779458999634,-0.1722332388162613,-0.5834227800369263,0.07182709872722626
12.9,0.715528130531311,0.443888783454895,0.23203431069850922,-0.09412951022386551,-0.1045907661318779,-0.20609034597873688
12.95,0.9633456468582153,0.1786567121744156,-0.5850836634635925,-0.04703911393880844,0.08082463592290878,-0.3164592981338501
13.0,0.7286368608474731,-0.0893792062997818,-0.8041576147079468,-0.08679899573326111,-0.1338299810886383,-0.17620325088500977
13.05,0.3411661684513092,-0.285824716091156,-0.9162567853927612,-0.1579810082912445,-0.4862890839576721,0.0007348820217885077
13.1,0.03581666946411133,-0.3383473753929138,-1.2967274188995361,0.08739573508501053,-0.7916632890701294,0.15206770598888397
13.15,0.21124395728111267,-0.2686624228954315,-0.5396801233291626,0.4187735915184021,-0.9250539541244507,0.17187699675559998
13.2,0.2061421126127243,-0.10397342592477798,0.6668083667755127,0.6967347860336304,-0.5869899988174438,0.25875937938690186
13.25,0.40885382890701294,-0.4198237955570221,1.9850672483444214,0.662586510181427,-0.182763934135437,0.2991730868816376
13.3,0.8742568492889404,-1.407099962234497,2.287747621536255,0.8266831636428833,0.553226113319397,0.3274560272693634
13.35,0.759637176990509,-1.7119228839874268,1.269514560699463,1.118143081665039,1.3402538299560547,0.5420898199081421
13.4,-0.006161212921142578,-0.7222481369972229,0.4465061128139496,1.1520648002624512,1.6586856842041016,0.7832688689231873
13.45,-0.9501053094863892,0.5382527709007263,0.15821963548660278,0.896634578704834,1.4785270690917969,0.8589336276054382
13.5,-1.2557023763656616,1.1522626876831055,-0.043431878089904785,0.6679114103317261,1.2455729246139526,0.7376955151557922
13.55,-1.1778312921524048,1.3692169189453125,0.03947033733129501,0.5566803812980652,1.045979619026184,0.4834069609642029
13.6,-1.1166208982467651,1.2202110290527344,-0.22068791091442108,0.4060858488082886,0.9594014883041382,0.2136734575033188
13.65,-0.9020722508430481,0.7888384461402893,-0.5753546953201294,0.21952949464321136,0.8291112184524536,0.05444030091166496
13.7,-0.6982887983322144,0.46462348103523254,-0.35076916217803955,0.07922566682100296,0.509001612663269,0.03478211537003517
13.75,-0.38715872168540955,0.21129323542118073,-0.1909753531217575,0.055004410445690155,0.2896619737148285,0.03598851338028908
13.8,-0.6195580959320068,0.267029732465744,-0.10483106970787048,0.11840888857841492,0.33540380001068115,0.04237615317106247
13.85,-0.8293150663375854,0.34377095103263855,-0.28909215331077576,0.17775318026542664,0.3390055298805237,0.014626963064074516
13.9,-0.5095735192298889,0.22295378148555756,-0.07177654653787613,0.14093437790870667,0.1509595811367035,-0.02693745866417885
13.95,-0.20494036376476288,0.13199995458126068,0.1565171331167221,0.08664003014564514,0.016707047820091248,-0.041260652244091034
14.0,-0.05517205595970154,0.1023101732134819,0.3212098479270935,0.05541862174868584,0.019672902300953865,-0.04357270523905754
14.05,-0.09570068120956421,0.09811209887266159,0.1877606064081192,0.032192278653383255,0.11065376549959183,-0.028230687603354454
14.1,-0.1675104796886444,0.07735633105039597,-0.007211081217974424,0.01288855541497469,0.13862471282482147,0.011166146956384182
14.15,-0.10800915956497192,0.2814779579639435,0.051985546946525574,0.022709263488650322,0.08494158834218979,0.05250438675284386
14.2,-0.07148806750774384,0.25283148884773254,0.080990731716156,0.006628897041082382,0.013008438050746918,0.05199958756566048
14.25,0.07047399878501892,0.24796202778816223,0.05706455931067467,-0.024452930316329002,-0.025208579376339912,0.048799771815538406
14.3,-0.07881586253643036,0.13272859156131744,-0.03576526790857315,-0.03966303542256355,-0.027179984375834465,0.05047183483839035
14.35,-0.4128832221031189,0.3818340599536896,-0.33850646018981934,-0.04618405923247337,-0.03904270753264427,0.04389812797307968
14.4,-0.8694097995758057,0.8387938737869263,-0.8454908132553101,-0.03657364845275879,-0.16514389216899872,-0.015130150131881237
14.45,-1.2118291854858398,0.7863703370094299,-1.0872101783752441,-0.004867829382419586,-0.46183085441589355,-0.16851304471492767
14.5,-0.3958711624145508,0.6022329926490784,-0.7007607817649841,-0.010887324810028076,-0.9255220293998718,-0.36942729353904724
14.55,0.8102383017539978,0.3412810266017914,0.18413561582565308,0.007759153842926025,-1.1902484893798828,-0.5270661115646362
14.6,1.0347888469696045,-0.41037848591804504,0.8823365569114685,0.174225315451622,-1.0201637744903564,-0.5606213808059692
14.65,0.8038966655731201,-0.7966490983963013,1.084612250328064,0.3748057782649994,-0.5733512043952942,-0.49439457058906555
14.7,1.0179939270019531,-1.023666501045227,0.8877474665641785,0.48953670263290405,-0.15504083037376404,-0.3632817566394806
14.75,0.7780965566635132,-0.8531990647315979,0.34886112809181213,0.5150364637374878,0.08788546919822693,-0.10363978892564774
14.8,0.4926137328147888,-0.20943737030029297,0.10456011444330215,0.45360279083251953,0.1183236688375473,0.12453185021877289
14.85,-0.14430123567581177,0.5181789994239807,0.23941712081432343,0.28992411494255066,0.055496808141469955,0.2496771216392517
14.9,-0.3075457811355591,0.6850099563598633,0.552967369556427,0.07159577310085297,-0.014091145247220993,0.219649076461792
14.95,-0.19633223116397858,0.4742880165576935,0.4351872503757477,-0.01573825255036354,0.10105426609516144,0.12623944878578186
15.0,0.037536174058914185,0.23415854573249817,0.021553775295615196,-0.036680374294519424,0.2705419361591339,0.05499092862010002
15.05,0.23654340207576752,0.09315496683120728,-0.5330831408500671,-0.05920266732573509,0.34021124243736267,0.07183815538883209
15.1,0.10594484210014343,0.1696224808692932,-0.506016731262207,-0.06897217035293579,0.1966349184513092,0.11093684285879135
15.15,-0.049859266728162766,0.11354542523622513,0.03548027202486992,-0.11042726039886475,-0.03621542453765869,0.15131884813308716
15.2,-0.16096165776252747,0.24849796295166016,0.18038739264011383,-0.10623110830783844,-0.035134777426719666,0.1725262701511383
15.25,-0.12575793266296387,0.1867055743932724,0.21607951819896698,-0.1177886426448822,0.07329700142145157,0.13685831427574158
15.3,0.05629219859838486,0.12576201558113098,-0.05867983400821686,-0.1364830583333969,0.14683207869529724,0.1022164598107338
15.35,0.08746932446956635,0.044716864824295044,-0.3404925465583801,-0.14641700685024261,0.13485075533390045,0.0970742255449295
15.4,-0.1091199591755867,0.15592005848884583,-0.34688833355903625,-0.10535753518342972,0.04191645607352257,0.1231350228190422
15.45,-0.099899522960186,0.34247782826423645,-0.1111091673374176,-0.09364539384841919,-0.10558370500802994,0.11753962188959122
15.5,-0.13544684648513794,0.4166136384010315,0.0005992936785332859,-0.09219108521938324,-0.14978133141994476,0.08403663337230682
15.55,-0.12140557169914246,0.22830964624881744,0.048750728368759155,-0.10407491773366928,-0.1761387288570404,0.031033586710691452
15.6,0.0023562461137771606,0.10473064333200455,-0.39727556705474854,-0.07283426821231842,-0.15173932909965515,-0.016377214342355728
15.65,-0.10037612915039062,0.3294525742530823,-0.8455737233161926,0.012998482212424278,-0.22084073722362518,-0.026297714561223984
15.7,-0.5502828359603882,0.5973120331764221,-0.9517393708229065,0.08067636936903,-0.5079762935638428,-0.0893370658159256
15.75,-0.20320522785186768,0.5153637528419495,-0.1738903820514679,0.040725089609622955,-0.9323723316192627,-0.2882675230503082
15.8,0.685326099395752,0.053385742008686066,0.9819186329841614,-0.06256900727748871,-1.0826025009155273,-0.39988237619400024
15.85,0.4438226521015167,-0.15322309732437134,1.291354775428772,-0.06817697733640671,-0.7474872469902039,-0.3535771071910858
15.9,0.7427458167076111,-0.4957142174243927,0.5936649441719055,-0.01909422129392624,-0.2364087700843811,-0.2813433110713959
15.95,0.34882110357284546,-0.5805320739746094,-0.7146856188774109,0.19976040720939636,0.1668190211057663,-0.13135378062725067
16.0,-0.24177759885787964,-0.3050804138183594,-0.8686385154724121,0.2066141664981842,-0.07625927031040192,-0.071572445333004
16.05,-0.1857374608516693,0.41422751545906067,0.2887299954891205,0.06530631333589554,-0.514093816280365,-0.045098260045051575
16.1,0.2991287112236023,0.2466859668493271,1.2317882776260376,-0.07118800282478333,-0.48939248919487,-0.0835939273238182
16.15,0.4659927785396576,0.095125213265419,0.6892578601837158,0.013865236192941666,0.05900098755955696,-0.07868612557649612
16.2,0.453288197517395,0.00835517980158329,0.016262024641036987,0.08853352069854736,0.4083012640476227,0.007198934908956289
16.25,0.14743942022323608,0.07567887008190155,-0.44285231828689575,0.05735684931278229,0.4094725549221039,0.08667769283056259
16.3,0.012376129627227783,-0.11594295501708984,-0.27902668714523315,-0.02959282696247101,0.22375494241714478,0.12462285906076431
16.35,-0.16422119736671448,-0.080903060734272,-0.18784867227077484,-0.019031308591365814,0.1444293111562729,0.18207429349422455
16.4,-0.10169948637485504,0.3705158531665802,-0.20342181622982025,0.052065424621105194,0.1026194840669632,0.19691160321235657
16.45,0.10089995712041855,0.3106098473072052,-0.00439936388283968,0.05225531756877899,0.0732559859752655,0.13214652240276337
16.5,0.039494432508945465,0.4507675766944885,-0.16193771362304688,0.031964339315891266,0.05011086165904999,0.10394206643104553
16.55,-0.018870286643505096,0.3636045753955841,0.1590118259191513,-0.022453557699918747,-0.02581409551203251,0.06660762429237366
16.6,-0.062283001840114594,0.2325124889612198,0.1004294753074646,0.003948664292693138,0.05039357393980026,0.045564133673906326
16.65,0.12449032068252563,0.07165434211492538,-0.10604745149612427,0.03942735865712166,0.10006149113178253,0.02524285390973091
16.7,-0.03924029320478439,0.12013627588748932,-0.09916827082633972,0.04349886626005173,0.05529550462961197,0.02619112841784954
16.75,-0.022967394441366196,0.10747529566287994,0.01017684768885374,0.012335525825619698,-0.008364883251488209,0.011036263778805733
16.8,0.0020162612199783325,0.09346963465213776,-0.11306232959032059,0.012614743784070015,0.0008433728944510221,0.01593780890107155
16.85,-0.02364659309387207,0.3757573068141937,-0.6697329878807068,0.03352038934826851,0.0018875772366300225,0.01128437090665102
16.9,-0.5473443269729614,0.7708007097244263,-0.8240748643875122,0.058355532586574554,-0.23320551216602325,-0.05102115869522095
16.95,-0.45784810185432434,0.5838051438331604,-0.41080236434936523,-0.0017173588275909424,-0.5900031924247742,-0.2081311047077179
17.0,-0.2126430869102478,0.5141401886940002,-0.0071355910040438175,-0.03726412355899811,-0.7846669554710388,-0.37478289008140564
17.05,0.1083158403635025,0.0845479816198349,0.5167341828346252,-0.012743130326271057,-0.7821071147918701,-0.5027901530265808
17.1,0.4495737552642822,-0.3101063072681427,0.5753655433654785,0.10375268757343292,-0.4609074294567108,-0.5524513125419617
17.15,0.42891573905944824,-0.832642674446106,0.561000645160675,0.21394681930541992,-0.1612318605184555,-0.42315492033958435
17.2,0.7145330905914307,-0.8287754654884338,0.4444396197795868,0.2018221914768219,0.05447662994265556,-0.18056464195251465
17.25,0.4738360643386841,-0.44739821553230286,0.2835657000541687,0.10845638811588287,0.2827065885066986,0.06887762248516083
17.3,-0.23565199971199036,0.2650146782398224,-0.28354233503341675,0.11783364415168762,0.44336622953414917,0.24858294427394867
17.35,-0.45178091526031494,0.5229434967041016,-0.09438052028417587,0.09468530863523483,0.3905319571495056,0.3308090269565582
17.4,-0.4271217882633209,0.30137917399406433,0.16020935773849487,-0.0009234994649887085,0.2823004424571991,0.2814837396144867
17.45,-0.049577612429857254,0.3581714928150177,0.007395366206765175,-0.05675571411848068,0.2948700189590454,0.18096184730529785
17.5,0.06038188189268112,0.19794562458992004,0.1116422489285469,-0.042526233941316605,0.3127307593822479,0.15280616283416748
17.55,0.14933356642723083,0.43312937021255493,0.029871199280023575,-0.03309323266148567,0.33218392729759216,0.15402016043663025
17.6,0.05901056528091431,0.434393972158432,-0.22757183015346527,-0.09087413549423218,0.34890562295913696,0.14035530388355255
17.65,-0.25787198543548584,0.969488263130188,-0.5475084185600281,-0.059208646416664124,0.31153175234794617,0.10992352664470673
17.7,-0.7142142653465271,1.4133559465408325,-0.4820212125778198,-0.1261063516139984,0.09603945165872574,-0.11056666076183319
17.75,-0.6845575571060181,1.373984456062317,-0.2728860676288605,-0.2881339490413666,-0.15170183777809143,-0.37370994687080383
17.8,-0.4275320768356323,1.0358000993728638,-0.06006946787238121,-0.5768959522247314,-0.488829106092453,-0.5469639897346497
17.85,0.14564037322998047,0.5739126205444336,1.1534769535064697,-1.0784720182418823,-0.9557961821556091,-0.7483844757080078
17.9,0.22348344326019287,0.20180314779281616,1.890587568283081,-1.5343044996261597,-1.0676010847091675,-0.9501910209655762
17.95,0.5226647853851318,-0.23294267058372498,1.8333903551101685,-1.6262671947479248,-0.690128743648529,-1.036169409751892
18.0,0.8433652520179749,0.474215567111969,1.2088030576705933,-1.4489268064498901,-0.22509637475013733,-0.9640880823135376
18.05,0.28968697786331177,0.009329816326498985,0.09366801381111145,-1.4749218225479126,-0.06899329274892807,-0.9130749702453613
18.1,1.4573471546173096,-0.5481022596359253,-0.9599116444587708,-1.1147085428237915,0.555874764919281,-0.6786103844642639
18.15,1.209114670753479,-0.9426650404930115,-1.6726127862930298,-0.4648202061653137,1.1251095533370972,-0.6721342206001282
18.2,0.6596328616142273,-1.1020212173461914,-1.9604159593582153,0.10385376214981079,1.4439719915390015,-0.6153239607810974
18.25,-0.28814083337783813,-0.6747302412986755,-2.2873454093933105,0.3335389792919159,1.2033575773239136,-0.2659761309623718
18.3,-0.5311388969421387,-0.11998270452022552,-1.2491123676300049,0.23877793550491333,0.5757264494895935,0.09802884608507156
18.35,0.7258695363998413,-0.4439707398414612,0.8308919668197632,0.06647202372550964,0.07960671186447144,0.21453094482421875
18.4,0.5353543162345886,-0.23264408111572266,0.14867307245731354,0.418227881193161,0.48706647753715515,0.1305428296327591
18.45,-0.049820661544799805,0.061290767043828964,-0.3744017481803894,0.3789651393890381,0.5436798930168152,0.26379936933517456
18.5,-0.30420631170272827,-0.2427835464477539,-0.8335890769958496,0.2739928960800171,0.09952548146247864,0.3981943726539612
18.55,-0.2785095274448395,0.4021826386451721,-0.29852285981178284,0.05681568384170532,-0.5049917101860046,0.5630207657814026
18.6,0.10619078576564789,0.4806270897388458,0.4564773142337799,-0.19865868985652924,-0.7541855573654175,0.5597814917564392
18.65,0.3511248826980591,0.3160734474658966,0.3615582585334778,-0.016372978687286377,-0.3912806808948517,0.3073144555091858
18.7,-0.22060590982437134,0.28600025177001953,0.02735307067632675,0.12028138339519501,0.04722323268651962,0.12617725133895874
18.75,-0.3052670359611511,0.3692302703857422,0.18186070024967194,0.02440105937421322,0.0805300623178482,0.08906788378953934
18.8,0.19792544841766357,0.8019324541091919,0.1661364734172821,-0.17287051677703857,-0.11818742752075195,0.06377731263637543
18.85,0.35277801752090454,0.6974745392799377,0.08723239600658417,-0.19338732957839966,-0.011276240460574627,-0.1151394471526146
18.9,0.20530441403388977,0.2312222272157669,-0.44996902346611023,-0.07086824625730515,0.19765932857990265,-0.3369237184524536
18.95,0.16838029026985168,0.017815647646784782,-0.6967601776123047,-0.0938931554555893,0.1425875723361969,-0.23347225785255432
19.0,-0.3002243638038635,-0.17438602447509766,-0.6854134798049927,-0.23291251063346863,-0.06071086972951889,-0.07861717790365219
19.05,0.1042846143245697,-0.30141735076904297,-0.5322425961494446,-0.25311750173568726,-0.34706804156303406,0.016494939103722572
19.1,0.21333587169647217,-0.35991573333740234,-0.3767816126346588,-0.10587197542190552,-0.4201046824455261,0.029619041830301285
19.15,0.4745902419090271,-0.4764385223388672,-0.3868972063064575,0.08855607360601425,-0.4291432797908783,0.010066833347082138
19.2,0.5600119233131409,-0.4128713309764862,-0.7901830673217773,0.16729500889778137,-0.5141307711601257,0.15309612452983856
19.25,0.3090791702270508,-0.22129148244857788,-1.1558983325958252,0.18693982064723969,-0.7148319482803345,0.41513895988464355
19.3,0.5740764141082764,0.15306195616722107,-0.5054247975349426,0.3264186680316925,-0.8237614631652832,0.6093373894691467
19.35,-0.1363523304462433,0.6649942994117737,0.16082775592803955,0.5582081079483032,-0.7102367281913757,0.7090012431144714
19.4,-0.2803581953048706,0.44284719228744507,1.7253320217132568,0.8152536153793335,-0.540627658367157,0.613249659538269
19.45,-0.16752934455871582,-0.07199489325284958,1.491215705871582,1.075749158859253,0.008958466351032257,0.4405067265033722
19.5,0.598617672920227,-1.1195679903030396,0.8919203877449036,1.3021502494812012,0.4492485225200653,0.40850260853767395
19.55,0.005123361945152283,-0.32802778482437134,0.4697618782520294,1.3387954235076904,0.48140156269073486,0.5612388253211975
19.6,-0.3816896080970764,0.15775293111801147,0.7677828073501587,1.0904417037963867,0.290822833776474,0.5389403104782104
19.65,-0.7665095925331116,0.5098924040794373,0.4674499034881592,0.8511232733726501,0.2900402247905731,0.40913963317871094
19.7,-0.35561954975128174,0.6843862533569336,0.012134444899857044,0.7066465020179749,0.3279665410518646,0.20384791493415833
19.75,-0.2637874484062195,0.4738159775733948,-0.13671214878559113,0.49193549156188965,0.2262522429227829,0.05217311531305313
19.8,-0.14572393894195557,0.5768538117408752,-0.07283923774957657,0.3635842800140381,0.043279122561216354,0.05636230483651161
19.85,-0.30797964334487915,0.4127378761768341,0.2997489869594574,0.22101561725139618,-0.041524242609739304,0.03820177540183067
19.9,-0.11632966995239258,0.6782474517822266,0.5080358982086182,0.1105707436800003,-0.01473440881818533,0.06243760883808136
19.95,-0.10363124310970306,0.15508173406124115,0.3511672019958496,0.00979524850845337,0.025464924052357674,0.053425852209329605
20.0,-0.26690515875816345,0.37181758880615234,-0.04242866486310959,0.038222458213567734,0.1565622091293335,0.11200625449419022
20.05,-0.2519243359565735,0.2541961669921875,-0.03580154851078987,0.01137981191277504,0.08455689251422882,0.0960167720913887
20.1,-0.08992350101470947,0.2571887969970703,0.17544376850128174,-0.03625330701470375,0.004712649621069431,0.05149276554584503
20.15,-0.15555095672607422,0.11330410838127136,0.4704453945159912,-0.08420673757791519,0.00334747601300478,0.04411428049206734
20.2,0.007978439331054688,-0.006608985830098391,0.3792663812637329,-0.11579515039920807,0.11023841798305511,0.05998268350958824
20.25,-0.28197628259658813,0.17366217076778412,0.07439736276865005,-0.08364009112119675,0.22070910036563873,0.10273939371109009
20.3,-0.09133684635162354,0.025493618100881577,-0.01123658288270235,-0.08957499265670776,0.16491319239139557,0.08026077598333359
20.35,-0.12912246584892273,0.1101388931274414,0.058452412486076355,-0.07150022685527802,0.11527436971664429,0.0956827700138092
20.4,0.024463973939418793,0.19248202443122864,0.025833504274487495,-0.03701271861791611,0.10387227684259415,0.11687623709440231
20.45,-0.21650899946689606,0.4259777367115021,-0.057906895875930786,-0.0037571601569652557,0.10930562019348145,0.11071886122226715
20.5,-0.10569800436496735,0.31975269317626953,0.1473952680826187,-0.031838953495025635,0.025388168171048164,0.048153627663850784
20.55,-0.020071037113666534,0.18955232203006744,0.1576576977968216,-0.02705477364361286,0.021584024652838707,0.007047206629067659
20.6,-0.12262871861457825,0.23366357386112213,0.020948005840182304,0.010623463429510593,0.05465203523635864,0.000752700143493712
20.65,0.07940573990345001,0.26883605122566223,-0.015127373859286308,0.016934549435973167,0.01936347782611847,-0.015850910916924477
20.7,0.21541771292686462,0.2128334492444992,0.16568778455257416,-0.007386332377791405,-0.014273282140493393,-0.00840567797422409
20.75,0.055752985179424286,0.2971201241016388,0.05531904846429825,0.004258547443896532,0.028887271881103516,0.008947187103331089
20.8,-0.021990802139043808,0.2704668343067169,0.11879637837409973,-0.01791182905435562,0.034023746848106384,-0.007569465786218643
20.85,-0.09002232551574707,0.041223518550395966,0.06556481122970581,-0.01789718121290207,0.07316195219755173,-0.05825407803058624
20.9,-0.15314197540283203,0.20947077870368958,-0.2570479214191437,0.06794077903032303,0.08701233565807343,-0.05616454780101776
20.95,0.13224712014198303,0.06716729700565338,0.015406988561153412,0.05633234232664108,-0.006472705863416195,-0.07725206762552261
21.0,0.16821636259555817,0.005998608190566301,0.3097606301307678,-0.009740576148033142,-0.023602766916155815,-0.05539104342460632
21.05,-0.1636083424091339,0.25267505645751953,0.17203985154628754,-0.020217793062329292,0.07372685521841049,-0.01587183028459549
21.1,-0.21189123392105103,0.3219766914844513,-0.29751965403556824,-0.011359330266714096,0.11234419047832489,-0.04505970701575279
21.15,-0.035692907869815826,0.21889308094978333,-0.07653765380382538,-0.051238276064395905,0.002676967065781355,-0.06777455657720566
21.2,-0.16578228771686554,0.28880786895751953,0.05192585289478302,-0.08723562955856323,-0.06949364393949509,-0.059250615537166595
21.25,0.09095326066017151,-0.02180103398859501,0.7438293099403381,-0.15629222989082336,-0.08904429525136948,-0.027560288086533546
21.3,0.30675357580184937,-0.42028531432151794,0.7918990254402161,-0.18988318741321564,0.10646290332078934,0.07603426277637482
21.35,0.31758448481559753,-0.5037680268287659,0.6250624060630798,-0.15809011459350586,0.40376049280166626,0.1620243638753891
21.4,0.4280371367931366,-0.4470062553882599,-0.05549537017941475,-0.035639651119709015,0.710086464881897,0.2119637131690979
21.45,0.01878783106803894,-0.21164225041866302,-0.724743127822876,0.1671408861875534,0.8018249869346619,0.25051721930503845
21.5,-0.1661451756954193,0.3126698136329651,-0.549070417881012,0.24806736409664154,0.5491979122161865,0.2482476383447647
21.55,-0.5095441937446594,0.604246199131012,-0.4682155251502991,0.19320830702781677,0.2633455991744995,0.19201456010341644
21.6,-0.6091809272766113,0.957792341709137,0.17141138017177582,0.15830832719802856,0.06427378207445145,0.05580281466245651
21.65,-0.42872288823127747,0.5908918380737305,0.09002017974853516,0.09883330017328262,0.03539020195603371,-0.07978184521198273
21.7,-0.0014690607786178589,0.3773031532764435,0.2807620167732239,0.003130964934825897,0.0069683147594332695,-0.15574675798416138
21.75,0.1420270800590515,-0.2981538772583008,-0.1892031580209732,-0.09003439545631409,0.058120667934417725,-0.11273576319217682
21.8,-0.05459725484251976,-0.10047150403261185,-0.19492341578006744,0.015137864276766777,0.06246744468808174,-0.05839405208826065
21.85,-0.0835052877664566,-0.021236415952444077,-0.21758727729320526,-0.008178289979696274,-0.02194678597152233,-0.020371949300169945
21.9,-0.09002552926540375,0.16224290430545807,-0.033102281391620636,-0.009241994470357895,-0.07798116654157639,0.013158091343939304
21.95,-0.25212693214416504,0.13493536412715912,0.19443686306476593,0.006107690744102001,-0.11895714700222015,0.009091843850910664
22.0,-0.05582579970359802,0.14227484166622162,0.3990776538848877,-0.0055685946717858315,-0.13370071351528168,0.0020743818022310734
22.05,0.0536799430847168,0.12700366973876953,0.27499067783355713,-0.0449240617454052,-0.05505361035466194,-0.001925310236401856
22.1,-0.07967591285705566,0.25047019124031067,-0.21706271171569824,-0.03445286676287651,0.02378150261938572,0.015070331282913685
22.15,-0.21591372787952423,0.5074711441993713,-0.4216066300868988,-0.05313515663146973,-0.07474729418754578,0.03241651505231857
22.2,-0.4168248772621155,0.7443152070045471,-0.2517876923084259,-0.12941744923591614,-0.289780855178833,0.024857450276613235
22.25,0.3541053235530853,0.3520317077636719,0.9001482129096985,-0.33039844036102295,-0.5433236360549927,-0.05719330534338951
22.3,0.2731539309024811,-0.012936624698340893,0.9163119196891785,-0.4216853380203247,-0.30826929211616516,-0.13187235593795776
22.35,0.5925245881080627,-0.5494051575660706,0.9022704362869263,-0.4159557819366455,0.0032450868748128414,-0.17590054869651794
22.4,0.6191697120666504,-0.6594439148902893,1.2511308193206787,-0.4631544351577759,0.3088274300098419,-0.14483632147312164
22.45,0.9394914507865906,-0.9457340836524963,0.38015294075012207,-0.5611186027526855,0.6253868341445923,0.05976555496454239
22.5,0.035290807485580444,-0.08918757736682892,-0.8728911876678467,-0.3149922490119934,0.8944801688194275,0.26190051436424255
22.55,-0.4555768668651581,0.5457811951637268,-1.03847336769104,-0.1719430685043335,0.9472020268440247,0.2598002851009369
22.6,-0.6164559721946716,0.3336496651172638,-0.7086320519447327,-0.12903356552124023,0.6343648433685303,0.2863296568393707
22.65,-0.6355084180831909,0.4126434922218323,-0.7244073152542114,-0.1413450688123703,0.21609297394752502,0.21316847205162048
22.7,-0.23729640245437622,0.3665190041065216,-0.4586997926235199,-0.03072117082774639,0.17370018362998962,0.08430160582065582
22.75,-0.7280166149139404,0.7542763948440552,-1.4362891912460327,0.08665250986814499,0.21121710538864136,0.023048803210258484
22.8,-1.2900604009628296,1.2643147706985474,-1.90873122215271,0.0843866765499115,-0.2532440721988678,-0.03784763440489769
22.85,-1.2628735303878784,1.4780398607254028,-1.1642518043518066,-0.03286581486463547,-1.0411268472671509,-0.18758609890937805
22.9,-0.36079034209251404,1.9140807390213013,0.576859712600708,-0.44229865074157715,-1.8619656562805176,-0.3285132646560669
22.95,0.635820746421814,0.7964620590209961,2.5137271881103516,-0.9611507654190063,-2.1265172958374023,-0.8236790299415588
23.0,0.35174745321273804,0.4109315574169159,2.1270575523376465,-1.1395645141601562,-1.5795592069625854,-1.2254114151000977
23.05,0.807148814201355,-0.4543324410915375,1.832833170890808,-0.9944480061531067,-0.9810627102851868,-1.4989110231399536
23.1,0.5344061851501465,-0.8066846132278442,0.588145911693573,-0.830030083656311,-0.3706643283367157,-1.3441519737243652
23.15,1.2176673412322998,-0.9614496231079102,-0.7415081858634949,-0.648117184638977,0.016945768147706985,-0.9722989797592163
23.2,1.1280137300491333,-1.3442096710205078,-0.9242044687271118,-0.3924870789051056,0.4052456021308899,-0.6595880389213562
23.25,0.9238521456718445,-1.069087028503418,-0.8718128204345703,-0.026506289839744568,0.6625712513923645,-0.39566606283187866
23.3,0.4180040955543518,-0.7780323624610901,-0.6633182168006897,0.08568239957094193,0.6349281668663025,-0.10543600469827652
23.35,-0.6642919778823853,0.28360944986343384,-1.2579212188720703,0.06425713002681732,0.291538268327713,0.1476890742778778
23.4,0.28149470686912537,0.4009018540382385,0.37925729155540466,-0.16336724162101746,-0.23189041018486023,0.19821906089782715
23.45,0.44674140214920044,0.3754740357398987,0.4595479965209961,-0.08399535715579987,-0.017276767641305923,0.02982219308614731
23.5,0.6905173063278198,0.3816272020339966,0.020674685016274452,0.08607026189565659,0.23863500356674194,-0.14865732192993164
23.55,0.8157821297645569,-0.02023398131132126,-0.978141188621521,0.14642351865768433,0.373744934797287,-0.15717776119709015
23.6,0.8863057494163513,-0.3712834119796753,-1.0060369968414307,0.15178853273391724,0.12185038626194,0.023216141387820244
23.65,0.6746158003807068,-0.16990366578102112,-0.8383634090423584,0.1488114446401596,-0.14222244918346405,0.2412571758031845
23.7,0.6340478658676147,-0.3293752074241638,-0.6486693024635315,0.22001807391643524,-0.19635581970214844,0.36413338780403137
23.75,0.06402730196714401,0.5949936509132385,-0.2689049541950226,0.5007832646369934,-0.09437210112810135,0.542064368724823
23.8,-0.028655827045440674,1.2317285537719727,1.086104154586792,0.42059028148651123,-0.0839436873793602,0.34693700075149536
23.85,1.2237380743026733,0.05433556064963341,2.455395221710205,0.32608163356781006,0.3779742121696472,0.12191342562437057
23.9,1.4994410276412964,-1.400687336921692,1.9091991186141968,0.7657965421676636,1.3888384103775024,0.07969405502080917
23.95,1.574505090713501,-1.5316945314407349,0.4297739565372467,1.0961079597473145,2.145355701446533,0.011992976069450378
24.0,-0.341916561126709,0.1626329869031906,-0.9449858665466309,1.0487561225891113,2.1419479846954346,0.14025838673114777
24.05,-1.423447847366333,0.7126140594482422,-1.001588225364685,0.6599037647247314,1.3841828107833862,0.14356917142868042
24.1,-1.8156609535217285,0.8999099731445312,-0.65721595287323,0.46086686849594116,0.5729318261146545,0.21969598531723022
24.15,-1.172764539718628,0.8819084763526917,-0.2868589162826538,0.34809574484825134,0.12003640085458755,0.08355671167373657
24.2,-0.8324655294418335,0.7948523163795471,-0.05659390240907669,0.20592555403709412,-0.10240210592746735,-0.11397179961204529
24.25,-0.603734016418457,0.5537509918212891,0.28107398748397827,-0.016211874783039093,-0.25642773509025574,-0.20305439829826355
24.3,-0.10333758592605591,0.6431303024291992,0.7434942126274109,-0.1509261429309845,-0.31590840220451355,-0.1836755871772766
24.35,-0.1942388415336609,0.5857000350952148,1.073973298072815,-0.22949330508708954,-0.13778747618198395,-0.20186714828014374
24.4,-0.11282634735107422,0.48425862193107605,1.2534592151641846,-0.2636851370334625,0.1462334841489792,-0.24832996726036072
24.45,0.21623951196670532,-0.09833627939224243,1.0950098037719727,-0.3558313548564911,0.42009782791137695,-0.3091321885585785
24.5,-0.023245632648468018,-0.2683477997779846,0.4423936903476715,-0.2182268351316452,0.6961482763290405,-0.3634242117404938
24.55,-0.13234448432922363,-0.09044363349676132,0.06371844559907913,-0.21610401570796967,0.7057011723518372,-0.28690311312675476
24.6,0.0768904983997345,-0.3126535415649414,-0.5401489734649658,-0.25048545002937317,0.6058535575866699,-0.1828191876411438
24.65,-0.5777004957199097,-0.45206552743911743,-0.9064829349517822,-0.17781096696853638,0.4008316099643707,-0.056233834475278854
24.7,-1.3668341636657715,0.11502547562122345,-0.9429213404655457,-0.17439712584018707,-0.1802023947238922,0.07812561839818954
24.75,-0.8125410079956055,0.6732588410377502,-0.8149197101593018,-0.13553345203399658,-0.7973629236221313,-0.09223461896181107
24.8,0.5848144292831421,0.31365686655044556,0.3853590786457062,-0.28222620487213135,-1.1131553649902344,-0.032165396958589554
24.85,0.5239600539207458,0.14740659296512604,0.7928891777992249,-0.18032287061214447,-0.8393573760986328,-0.09701412916183472
24.9,0.5174034833908081,0.26972392201423645,0.6383926272392273,-0.07251982390880585,-0.5519432425498962,-0.10333625972270966
24.95,0.15559104084968567,0.28192996978759766,0.7188106775283813,-0.07355500012636185,-0.3367288112640381,-0.02366810478270054
25.0,0.2914586365222931,0.1351776123046875,0.7597061395645142,-0.061478808522224426,-0.13000252842903137,-0.09854070842266083
25.05,0.2367599606513977,-0.05543040484189987,0.11856348067522049,0.04871681332588196,0.11618176102638245,-0.1396954208612442
25.1,0.24967487156391144,-0.06353278458118439,-0.49020838737487793,0.09862104058265686,0.15344436466693878,-0.08722704648971558
25.15,0.04273133724927902,0.19119267165660858,-0.24074327945709229,0.020574767142534256,0.04211817681789398,-0.016058385372161865
25.2,0.03184578940272331,0.3551616966724396,0.04831691086292267,-0.10844554007053375,-0.13823364675045013,0.06278343498706818
25.25,0.1319459080696106,0.5018635392189026,0.28829658031463623,-0.10758700221776962,-0.13882030546665192,0.033982954919338226
25.3,0.13030004501342773,0.26803305745124817,0.008409986272454262,-0.022175757214426994,0.0780257135629654,-0.035752005875110626
25.35,-0.16590365767478943,0.08122160285711288,-0.4905567169189453,0.05465928465127945,0.1923152059316635,-0.07242589443922043
25.4,-0.26581576466560364,-0.11223313957452774,-1.0539886951446533,0.027149192988872528,0.021641893312335014,-0.024447383359074593
25.45,-0.3373776078224182,0.3483153283596039,-1.3042160272598267,0.11265237629413605,-0.3157384693622589,0.030834224075078964
25.5,0.2385798543691635,-0.11557098478078842,-0.494951456785202,0.08157870173454285,-0.819743812084198,0.0828792154788971
25.55,0.8093119859695435,0.09932618588209152,0.48417985439300537,0.0830092579126358,-1.017953872680664,0.13716921210289001
25.6,0.7872339487075806,0.05411910265684128,1.4032424688339233,0.08406758308410645,-0.7979017496109009,0.2726195454597473
25.65,0.4188506305217743,0.0422649085521698,1.1927411556243896,0.14112862944602966,-0.23809680342674255,0.2843068242073059
25.7,0.3593316376209259,0.4348001778125763,0.8150251507759094,0.19935092329978943,0.332302451133728,0.24666836857795715
25.75,0.37787431478500366,0.10838419198989868,-0.1608421951532364,0.2965071499347687,0.6144658923149109,0.24159963428974152
25.8,0.13869687914848328,0.2350778877735138,0.24676096439361572,0.08228936791419983,0.39662110805511475,0.41028842329978943
25.85,0.3488442301750183,0.31349849700927734,0.8576034307479858,-0.14477357268333435,0.15788207948207855,0.41944241523742676
25.9,-0.37647104263305664,0.40613555908203125,0.2290814071893692,-0.0937490165233612,0.44369640946388245,0.24828945100307465
25.95,-0.0649300217628479,0.22324855625629425,-0.9133738279342651,0.15218229591846466,0.6953892111778259,0.10080288350582123
26.0,-1.1016521453857422,0.5671959519386292,-1.3628311157226562,0.09399605542421341,0.3865845799446106,0.12418169528245926
26.05,-0.8783327341079712,0.8307505249977112,-0.26075664162635803,-0.09559716284275055,-0.20850323140621185,-0.008589874021708965
26.1,0.6821247935295105,-0.2002430111169815,0.7692437767982483,-0.01739037036895752,-0.26328518986701965,-0.16572871804237366
26.15,1.0742117166519165,-1.2563276290893555,0.022274989634752274,0.14387521147727966,0.18758368492126465,-0.05514528229832649
26.2,-0.47574782371520996,0.5709848999977112,-0.3635649085044861,0.16781163215637207,0.08120997250080109,-0.04148899018764496
26.25,0.14683595299720764,0.28504183888435364,0.4620712101459503,-0.24642106890678406,-0.541232168674469,0.07177882641553879
26.3,0.31803733110427856,0.8718405365943909,1.8778218030929565,-0.27565082907676697,-0.31188759207725525,0.12361983954906464
26.35,0.10717642307281494,-0.0978364646434784,-0.5787312984466553,-0.03776004537940025,0.4022238552570343,-0.06690046191215515
26.4,-0.2816116511821747,0.23745350539684296,-0.6452569365501404,0.14579951763153076,0.6140256524085999,0.020192839205265045
26.45,-0.8582864999771118,-0.04462907835841179,-1.6303297281265259,0.01627124659717083,0.11556079983711243,-0.012481344863772392
26.5,-0.3806493878364563,0.6731042861938477,0.09808292239904404,0.026313818991184235,-0.39359575510025024,-0.09158430248498917
26.55,0.057677626609802246,1.1051349639892578,1.4726331233978271,-0.033743664622306824,-0.5043677687644958,-0.16477447748184204
26.6,1.2998110055923462,-0.7680578827857971,1.260642409324646,0.016721412539482117,0.13700447976589203,-0.33441850543022156
26.65,-0.5870869755744934,0.41608530282974243,-0.7825743556022644,0.31722041964530945,0.6449130177497864,-0.28939032554626465
26.7,-0.6506720781326294,0.2387438267469406,-1.1596310138702393,-0.04154472053050995,0.03329581394791603,-0.4421731233596802
26.75,0.42600154876708984,-0.13666239380836487,-1.0992403030395508,-0.251383513212204,-0.3778938055038452,-0.3940865397453308
26.8,0.27250105142593384,0.3738108277320862,-0.010047873482108116,-0.4854986071586609,-0.8265725374221802,-0.23789146542549133
26.85,0.5816245079040527,0.7657347321510315,1.746416687965393,-0.559339165687561,-0.9924874901771545,-0.19203966856002808
26.9,1.0737109184265137,-0.13790994882583618,2.2899420261383057,-0.6716028451919556,-0.3817819058895111,-0.07242176681756973
26.95,1.3175264596939087,-0.801028311252594,1.384347677230835,-0.5229958295822144,0.5476868748664856,0.000741002440918237
27.0,0.7321438789367676,-1.1436986923217773,-0.816582202911377,-0.1419917345046997,1.2417328357696533,-0.017539381980895996
27.05,-0.45712584257125854,-0.7171087265014648,-1.51620614528656,0.12694880366325378,1.0354514122009277,0.1430593878030777
27.1,-1.0388926267623901,0.4247751832008362,-1.492395281791687,0.24982506036758423,0.41134774684906006,0.26885509490966797
27.15,-0.21803279221057892,0.8683729767799377,0.22886791825294495,0.030543997883796692,-0.1419752538204193,0.3680792450904846
27.2,0.2657868564128876,0.5447206497192383,0.984614908695221,0.07431697845458984,-0.07900451123714447,0.22666236758232117
27.25,-0.22602000832557678,0.09788893908262253,0.0690869614481926,0.20543187856674194,0.31081342697143555,-0.00641064066439867
27.3,-0.02400532364845276,0.11065201461315155,-0.5106763243675232,0.16686369478702545,0.25799113512039185,0.014050153084099293
27.35,0.04419666528701782,0.17250733077526093,-0.3554439842700958,-0.0005687987431883812,-0.14406654238700867,0.029723133891820908
27.4,0.6120488047599792,0.41204553842544556,1.0047489404678345,-0.044061385095119476,-0.2952743172645569,0.17839638888835907
27.45,0.5222682952880859,0.19141486287117004,0.8496015667915344,-0.0756518691778183,0.11619575321674347,0.09950417280197144
27.5,-0.3898944556713104,0.436617910861969,-0.8026989102363586,0.12122441828250885,0.4497919976711273,-0.009643075987696648
27.55,-0.7002114057540894,0.09704014658927917,-0.2118651419878006,-0.02414851076900959,0.13659927248954773,0.04274429380893707
27.6,0.05089545622467995,0.07036115229129791,-0.06775937229394913,-0.03269905969500542,-0.08340217918157578,-0.0019009982934221625
27.65,-0.23416195809841156,0.8243361115455627,0.2827615439891815,0.022296767681837082,-0.12874776124954224,-0.06924648582935333
27.7,0.7480159401893616,-0.6364965438842773,0.4304109811782837,0.048586782068014145,0.046173449605703354,-0.059011053293943405
27.75,-0.6368687152862549,0.6286306381225586,-0.31936728954315186,0.16206908226013184,0.2569977343082428,-0.13958248496055603
27.8,0.39502397179603577,0.24243934452533722,-0.10667470842599869,-0.06096673011779785,-0.1122521236538887,-0.1609925925731659
27.85,0.4839574098587036,-0.2149476706981659,-0.18702182173728943,-0.13806474208831787,-0.2134048342704773,-0.1295424848794937
27.9,0.13599056005477905,-0.7343215942382812,-0.6901344656944275,-0.0781712457537651,-0.2215113639831543,-0.17349940538406372
27.95,-0.029052212834358215,-0.3966255486011505,-0.536376416683197,-0.12152403593063354,-0.40961581468582153,-0.11443707346916199
28.0,0.4145263731479645,1.0023070573806763,1.1908148527145386,-0.2552129030227661,-0.6422064304351807,-0.029614649713039398
28.05,0.49554455280303955,0.9681578278541565,1.8860610723495483,-0.189827561378479,-0.21709197759628296,-0.017484374344348907
28.1,0.8670793771743774,-0.43149855732917786,0.6832316517829895,0.05333825945854187,0.6897553205490112,-0.25018510222435
28.15,0.17057237029075623,-0.654841423034668,-1.1326223611831665,0.26791372895240784,1.1085751056671143,-0.22778873145580292
28.2,-0.04933801293373108,-0.06060214713215828,-0.8663622736930847,0.02300727739930153,0.5111269354820251,0.1174846664071083
28.25,-0.04338807612657547,0.6379128098487854,0.1952589452266693,-0.221248060464859,-0.0061120339669287205,0.333782434463501
28.3,-0.417117178440094,0.9478827118873596,0.39441946148872375,-0.13426461815834045,0.07750009000301361,0.20694363117218018
28.35,-0.3490426242351532,0.22660349309444427,0.2014196217060089,0.06141723692417145,0.3598617613315582,-0.10338657349348068
28.4,0.08384749293327332,-0.4124727249145508,-0.8801594376564026,0.1976720541715622,0.4698447287082672,-0.2524905800819397
28.45,0.2969500422477722,-0.20435619354248047,-0.17761389911174774,0.037880733609199524,0.025800999253988266,-0.0016999199287965894
28.5,0.3913796842098236,0.1999245136976242,0.35458335280418396,-0.046347908675670624,-0.2761537730693817,0.1680789589881897
28.55,-0.09057141840457916,0.5495043396949768,0.34297317266464233,0.04235523194074631,-0.1343439668416977,0.16107523441314697
28.6,-0.1227903962135315,0.43987372517585754,0.5501308441162109,0.03185929358005524,-0.04458913579583168,0.024598246440291405
28.65,-0.15150445699691772,-0.0026845799293369055,-0.4464949667453766,0.04806097596883774,0.04221341386437416,-0.02460698038339615
28.7,-0.19364984333515167,-0.14227961003780365,-0.7064864039421082,0.15194326639175415,0.015988757833838463,-0.08277825266122818
28.75,0.31764155626296997,-0.35113048553466797,-0.1874116212129593,0.12172599881887436,-0.24915359914302826,0.014227956533432007
28.8,-0.5985352993011475,0.41338637471199036,-0.536502480506897,0.20612767338752747,-0.3558523952960968,-0.06591137498617172
28.85,-0.29062843322753906,0.6248007416725159,-0.20273900032043457,0.09644525498151779,-0.6269710659980774,-0.018269134685397148
28.9,0.6479483246803284,0.14870360493659973,0.7151006460189819,-0.04194914549589157,-0.8859280943870544,0.03796783834695816
28.95,0.5972373485565186,-0.03178693354129791,1.0232348442077637,0.010943010449409485,-0.6705740690231323,0.10179337859153748
29.0,0.8484109044075012,-0.04861259087920189,1.0084608793258667,0.06676530092954636,-0.30460548400878906,0.12441170960664749
29.05,0.25203463435173035,0.03159620612859726,0.06813318282365799,0.16573669016361237,0.12705230712890625,0.11714663356542587
29.1,0.05333489924669266,0.15403273701667786,-0.18988542258739471,0.11296574026346207,0.09122186154127121,0.12436813861131668
29.15,0.1570734828710556,0.3950253427028656,-0.10906686633825302,0.11692861467599869,0.02184290438890457,0.13899749517440796
29.2,-0.40062111616134644,0.6689911484718323,-0.17445513606071472,0.15927962958812714,0.0007922736112959683,0.11726826429367065
29.25,0.24636512994766235,0.36547374725341797,0.6083604097366333,0.08338887989521027,-0.12055126577615738,0.040035124868154526
29.3,0.2226964831352234,-0.23654460906982422,-0.2546314299106598,0.03606676682829857,0.10604630410671234,-0.030204305425286293
29.35,0.5722223520278931,-0.46646976470947266,-0.1652456521987915,0.1510200947523117,0.11156930029392242,-0.017037373036146164
29.4,-0.008535727858543396,0.2482004165649414,0.4697861075401306,0.09232558310031891,-0.023913512006402016,0.14086422324180603
29.45,-0.3283454179763794,0.5520868897438049,-0.4568966031074524,0.08975255489349365,0.18999266624450684,0.10587621480226517
29.5,-0.8621034622192383,0.7440147399902344,-0.42718714475631714,0.11351224780082703,0.15282514691352844,-0.08687765896320343
29.55,-0.13943731784820557,0.5536280274391174,-0.24831204116344452,-0.08681885898113251,-0.23330527544021606,-0.23038803040981293
29.6,0.34003502130508423,-0.05022711306810379,-0.49226266145706177,0.04942619800567627,-0.2832360863685608,-0.3332577645778656
29.65,-0.10477014631032944,-0.30275729298591614,-0.32670071721076965,0.24485117197036743,-0.4012773334980011,-0.3865291476249695
29.7,-0.35135123133659363,-0.09509187191724777,0.05999487265944481,0.18968382477760315,-0.6040494441986084,-0.2970479726791382
29.75,0.3785548806190491,0.41173651814460754,1.1625733375549316,0.05386815220117569,-0.7398571968078613,-0.2805286943912506
29.8,0.8048635721206665,-0.3239670395851135,1.7815613746643066,0.06153710186481476,-0.3598007261753082,-0.2979762852191925
29.85,0.7043088674545288,-0.3988523781299591,0.7074424624443054,0.3969727158546448,0.3839171230792999,-0.2272651046514511
29.9,0.31911134719848633,-0.09201139956712723,-0.4897744655609131,0.4046022891998291,0.705973744392395,-0.09973902255296707
29.95,-0.113626629114151,0.45588499307632446,-0.09969934076070786,0.06628512591123581,0.416898250579834,0.1342826634645462
30.0,-0.07245779037475586,0.6495456695556641,0.5890136361122131,-0.17558786273002625,0.14910532534122467,0.19275185465812683
30.05,0.2181520164012909,0.6120510101318359,1.278583288192749,-0.17886847257614136,0.35492879152297974,0.09720950573682785
30.1,0.12795375287532806,0.6103163361549377,0.6667768359184265,-0.05368884652853012,0.8654888868331909,-0.058939337730407715
30.15,0.3848206400871277,0.9214431047439575,0.20342350006103516,0.14904999732971191,1.1982122659683228,-0.2623659670352936
30.2,0.8007832765579224,-0.9253931045532227,-0.4252815544605255,-0.044541340321302414,1.0656243562698364,-0.16674883663654327
30.25,-0.10513508319854736,-0.36427971720695496,-1.1390677690505981,-0.0003895685076713562,1.0647815465927124,-0.11271730810403824
30.3,-0.3042016327381134,-0.29694557189941406,-1.104036808013916,-0.2074262499809265,0.45079299807548523,0.18631337583065033
30.35,-1.0367980003356934,0.5617247223854065,-1.1229597330093384,-0.09834522008895874,0.009769289754331112,0.2603282332420349
30.4,-0.6495752930641174,0.8732224702835083,-0.8885975480079651,-0.09887877851724625,-0.5580318570137024,0.11598731577396393
30.45,0.6252172589302063,0.530655026435852,0.3644997179508209,-0.21971933543682098,-0.8857920169830322,0.0893484577536583
30.5,0.7703471183776855,0.1321306675672531,0.4978800415992737,-0.09848042577505112,-0.6156100034713745,0.02627974934875965
30.55,0.2638669013977051,0.34107688069343567,0.4481276869773865,0.011734834872186184,-0.3103567063808441,-0.0021463765297085047
30.6,-0.083669014275074,0.6196680665016174,0.25703147053718567,-0.020586010068655014,-0.17609593272209167,0.03252949193120003
30.65,-0.01800283044576645,0.41823869943618774,0.005913207773119211,-0.02264341711997986,-0.0970180556178093,-0.06754820048809052
30.7,0.06457297503948212,0.23667530715465546,-0.0548846535384655,0.0198662206530571,-0.05197310820221901,-0.14343200623989105
30.75,0.47955071926116943,0.11522392183542252,0.3527347445487976,-0.031689319759607315,-0.15246416628360748,-0.1551692932844162
30.8,0.664957582950592,-0.2648773193359375,0.44007429480552673,-0.03676629438996315,-0.029590962454676628,-0.09771251678466797
30.85,0.4615679383277893,-0.31485363841056824,-0.1655658334493637,0.06683705747127533,0.24534761905670166,-0.00962324533611536
30.9,-0.1816866099834442,0.20068077743053436,-0.5055150389671326,0.07995526492595673,0.2821553647518158,0.10415540635585785
30.95,0.1269899606704712,-0.00942897703498602,0.15368062257766724,-0.07426714897155762,-0.010330314747989178,0.18121907114982605
31.0,0.0004963576793670654,0.8161364793777466,0.19337691366672516,-0.0752665251493454,-0.07538442313671112,0.19815044105052948
31.05,0.10930556058883667,0.47074607014656067,0.4996047616004944,-0.14962317049503326,-0.04797084629535675,0.16853049397468567
31.1,-0.1528550088405609,0.4216146767139435,0.0658293142914772,-0.0837201252579689,0.12599807977676392,0.03569551929831505
31.15,0.21995018422603607,0.2037392258644104,-0.1456681191921234,-0.0819176733493805,0.16058041155338287,-0.015270119532942772
31.2,0.019714966416358948,0.06529046595096588,-0.14244839549064636,-0.0885002389550209,0.12555129826068878,0.021399762481451035
31.25,-0.05770232528448105,0.13669776916503906,0.17710022628307343,-0.17424438893795013,-0.04370267689228058,0.07511801272630692
31.3,0.019061297178268433,0.26401999592781067,0.07719375938177109,-0.1687360554933548,-0.038646772503852844,0.08713086694478989
31.35,-0.0860908180475235,0.25010302662849426,-0.06647441536188126,-0.12329525500535965,0.07272166758775711,0.06530670076608658
31.4,-0.054565057158470154,0.14008046686649323,0.013676544651389122,-0.12290602177381516,0.06540712714195251,0.060472726821899414
31.45,0.1347537785768509,0.0953378975391388,-0.08203572779893875,-0.1098853051662445,0.019527923315763474,0.05709752067923546
31.5,0.045253705233335495,0.15940383076667786,-0.12874111533164978,-0.043263208121061325,0.045748304575681686,0.02980676293373108
31.55,0.1430029422044754,0.17303183674812317,-0.09792625904083252,-0.035840582102537155,0.041951775550842285,0.04054034501314163
31.6,0.13126644492149353,0.20273880660533905,0.00746989855542779,-0.055381905287504196,0.012348434887826443,0.05893074348568916
31.65,0.010954994708299637,0.21915248036384583,-0.021909791976213455,-0.06421472877264023,0.011073942296206951,0.0638459250330925
31.7,0.04252149909734726,0.13586999475955963,0.03713437169790268,-0.06633971631526947,0.01696838065981865,0.04752105847001076
31.75,-0.04440219700336456,0.20826342701911926,-0.06462525576353073,-0.04132261127233505,0.04061322286725044,0.037002041935920715
31.8,-0.08507874608039856,0.25829413533210754,-0.09280721843242645,-0.06595026701688766,-0.005915023852139711,0.026193879544734955
31.85,0.06715383380651474,0.25815966725349426,-0.00801463145762682,-0.10504147410392761,-0.09676291048526764,0.019429242238402367
31.9,0.3060951232910156,0.17093661427497864,0.14563031494617462,-0.13517877459526062,-0.14688894152641296,0.023496583104133606
31.95,0.44652390480041504,0.12785916030406952,0.14212961494922638,-0.15244297683238983,-0.08013243228197098,0.04249819368124008
32.0,0.416705459356308,0.1515856236219406,0.03399956226348877,-0.15948733687400818,0.046640656888484955,0.062006860971450806
32.05,0.2163684070110321,0.21132759749889374,-0.06005040183663368,-0.15854236483573914,0.14036177098751068,0.07571649551391602
32.1,0.09062360227108002,0.19050125777721405,-0.23537124693393707,-0.1323012262582779,0.1765233874320984,0.1095719039440155
32.15,-0.08273455500602722,0.20145323872566223,-0.24019785225391388,-0.11073220521211624,0.20020659267902374,0.11721406131982803
32.2,-0.24507667124271393,0.1306333690881729,-0.4346790015697479,-0.05306251719594002,0.21706070005893707,0.07555092126131058
32.25,-0.0703432708978653,0.078981414437294,-0.2644575834274292,-0.0789707824587822,0.041151635348796844,0.09336972236633301
32.3,-0.06713100522756577,0.09923745691776276,-0.049989912658929825,-0.06659144163131714,-0.036991409957408905,0.07342638820409775
32.35,-0.28042158484458923,0.2779998779296875,0.018568135797977448,-0.05673288553953171,-0.06121358275413513,0.05609169229865074
32.4,-0.33377158641815186,0.11601924151182175,-0.1074153482913971,-0.017132556065917015,-0.05162735655903816,-0.020900147035717964
32.45,-0.2646236717700958,0.0991983488202095,-0.2496967911720276,0.09812548756599426,-0.10647163540124893,-0.15249885618686676
32.5,0.004621144384145737,-0.0426025390625,-0.07524415850639343,0.13204523921012878,-0.23929466307163239,-0.14873357117176056
32.55,0.30788421630859375,-0.09055136144161224,0.07491771131753922,0.18444345891475677,-0.2431255280971527,-0.15711018443107605
32.6,0.6373627781867981,0.03793337568640709,0.5398816466331482,0.1745239943265915,-0.21028247475624084,-0.09425569325685501
32.65,0.34882697463035583,0.0454416386783123,0.3939987123012543,0.17896799743175507,-0.023099638521671295,-0.03291018679738045
32.7,-0.24921628832817078,0.29023459553718567,-0.25103095173835754,0.20930884778499603,0.062344543635845184,-0.07793474942445755
32.75,-0.16737356781959534,0.37052252888679504,-0.3003326952457428,0.20174720883369446,-0.05367495119571686,-0.102357417345047
32.8,0.13071270287036896,0.2998085618019104,-0.16942408680915833,0.15271542966365814,-0.1818724423646927,-0.09823891520500183
32.85,0.3647974729537964,0.25810152292251587,0.27514684200286865,0.050971806049346924,-0.27066770195961,-0.03508426249027252
32.9,0.23569375276565552,0.16162778437137604,0.3626939356327057,0.016094539314508438,-0.1710277497768402,-0.0418839268386364
32.95,0.30405935645103455,-0.003808005480095744,0.15849275887012482,0.042448658496141434,0.022195223718881607,-0.05529892072081566
33.0,0.03807465732097626,0.11516288667917252,-0.3080090582370758,0.09858079254627228,0.18212969601154327,-0.05750216916203499
33.05,0.014689326286315918,0.08005240559577942,-0.30309006571769714,0.0734717920422554,0.1176929622888565,0.0013890016125515103
33.1,0.08160269260406494,0.15503408014774323,0.0003893648972734809,0.022362692281603813,-0.0071406178176403046,0.06738677620887756
33.15,0.15841253101825714,0.2800741493701935,0.22498060762882233,-0.0035055875778198242,-0.011402563191950321,0.08508986234664917
33.2,0.00523742800578475,0.3669767677783966,-0.003017715411260724,0.006068061105906963,0.1177147626876831,0.028976870700716972
33.25,-0.13557696342468262,0.3107586205005646,-0.2530261278152466,-0.00620070518925786,0.16307120025157928,0.002993367612361908
33.3,-0.037195563316345215,0.245575949549675,-0.3951766788959503,-0.03500882163643837,0.06702585518360138,-0.0045861671678721905
33.35,-0.10272638499736786,0.18575766682624817,-0.33085060119628906,-0.04476883262395859,-0.06633953750133514,-0.012181022204458714
33.4,0.03513463959097862,0.23837855458259583,-0.04894405975937843,-0.07978352159261703,-0.2326338291168213,-0.020955977961421013
33.45,0.47232186794281006,0.23463444411754608,0.46110889315605164,-0.09903740137815475,-0.27453261613845825,-0.04950838163495064
33.5,0.4175865650177002,-0.17568111419677734,0.4122471511363983,-0.05790158361196518,-0.07537928223609924,-0.03318222612142563
33.55,0.08953163027763367,-0.11998939514160156,-0.1512366384267807,0.05528709292411804,0.14883430302143097,-0.05734436959028244
33.6,0.0295172780752182,0.006576563231647015,-0.3627607226371765,0.08387333154678345,0.14267045259475708,0.00711653009057045
33.65,0.013214334845542908,0.06680013984441757,-0.17478647828102112,0.07628943771123886,0.02223893627524376,0.06558793783187866
33.7,-0.054123468697071075,0.20753386616706848,-0.09108631312847137,0.10627147555351257,-0.023037122562527657,0.05460439994931221
33.75,0.03482300043106079,0.4097185730934143,-0.023752335458993912,0.13100112974643707,0.004187226295471191,0.009956564754247665
33.8,0.015034159645438194,0.287505179643631,0.03065413422882557,0.08997652679681778,0.014317587949335575,-0.006490884814411402
33.85,0.22924591600894928,0.19092372059822083,0.21302436292171478,0.015821408480405807,-0.0629645511507988,0.000411643588449806
33.9,0.27735209465026855,0.17333129048347473,0.16523544490337372,0.008653129450976849,0.015579619444906712,-0.013061732985079288
33.95,0.20295512676239014,0.10249236226081848,0.045999716967344284,0.017716433852910995,0.12015270441770554,-0.010938658379018307
34.0,0.2576337158679962,0.10938743501901627,0.006224822718650103,-0.0010238690301775932,0.1307244598865509,0.015778493136167526
34.05,0.13921251893043518,0.09103109687566757,-0.02029602788388729,0.011488158255815506,0.19950421154499054,0.03322070091962814
34.1,-0.06078525260090828,0.11265280097723007,-0.17192284762859344,0.045713234692811966,0.21817591786384583,0.04972195625305176
34.15,-0.06067828834056854,0.2156229168176651,0.06898068636655807,0.041730016469955444,0.1408417522907257,0.06648064404726028
34.2,-0.03052349016070366,0.410194456577301,0.15164770185947418,0.0029674507677555084,0.13788531720638275,0.06436558067798615
34.25,-0.05188963934779167,0.3886023163795471,0.11926744133234024,-0.026824628934264183,0.1722983568906784,0.0223232414573431
34.3,-0.052696987986564636,0.3602790832519531,0.23066453635692596,-0.045771464705467224,0.1899166703224182,-0.018728045746684074
34.35,0.11906541883945465,0.2260141670703888,0.06557994335889816,-0.051317110657691956,0.2111889272928238,-0.06864333897829056
34.4,0.07008995860815048,0.36727240681648254,-0.045290492475032806,-0.03486026078462601,0.24540162086486816,-0.0904141217470169
34.45,0.14503642916679382,0.3980579674243927,0.5365545153617859,-0.08266404271125793,0.14964625239372253,-0.051422618329524994
34.5,0.35807064175605774,0.19020844995975494,0.7053279280662537,-0.0700417011976242,0.21950507164001465,-0.04390913248062134
34.55,0.4289199709892273,-0.25750732421875,0.32588303089141846,0.15237459540367126,0.4293723702430725,-0.011811956763267517
34.6,0.2100430279970169,-0.2835559844970703,-0.20547924935817719,0.5076656341552734,0.4657715857028961,0.05416576936841011
34.65,-0.3153723180294037,0.1984758973121643,-0.8745874166488647,0.5034302473068237,0.38184717297554016,-0.009589497931301594
34.7,-0.4641141891479492,0.15897949039936066,-1.7122799158096313,0.3000536561012268,0.24730657041072845,0.010394629091024399
34.75,-0.25413936376571655,0.6334830522537231,-1.863983154296875,0.14247895777225494,-0.11610084772109985,0.22981849312782288
34.8,-0.20489877462387085,0.16987328231334686,-0.9086599946022034,-0.08791406452655792,-0.3641107976436615,0.35344940423965454
34.85,-0.5752564668655396,-0.3740454316139221,-0.4250132143497467,-0.16767370700836182,-0.48209795355796814,0.43104231357574463
34.9,-0.43675288558006287,-0.1229439526796341,0.33526575565338135,-0.02558807283639908,-0.5944095253944397,0.22222590446472168
34.95,-0.21966159343719482,0.38743212819099426,0.3660431206226349,0.06966546177864075,-0.4920537769794464,-0.02592392824590206
35.0,-0.021794378757476807,0.6277542114257812,1.4564188718795776,0.05696167051792145,-0.6060105562210083,-0.21758240461349487
35.05,1.225292444229126,0.8747110366821289,3.4998984336853027,-0.25440308451652527,-0.7846605181694031,-0.2461313158273697
35.1,1.7249914407730103,0.6098079085350037,4.018362522125244,-0.46682286262512207,-0.12317587435245514,-0.25831106305122375
35.15,1.2899001836776733,-0.3461894690990448,1.0818562507629395,-0.35320907831192017,1.1353570222854614,-0.4253367781639099
35.2,0.2749650478363037,-0.20972341299057007,-1.1936557292938232,-0.1625979095697403,1.7963461875915527,-0.42619049549102783
35.25,-0.5907265543937683,-0.019200298935174942,-1.3312468528747559,-0.1704380065202713,1.3607810735702515,-0.19657328724861145
35.3,-0.191402867436409,-0.15929508209228516,-0.5600026249885559,-0.34345006942749023,0.5732854008674622,0.05517048388719559
35.35,0.42374974489212036,-0.13441753387451172,0.36120015382766724,-0.31885433197021484,0.23828718066215515,0.18640610575675964
35.4,-0.014079101383686066,-0.2248869240283966,0.0320269800722599,-0.0195004865527153,0.6086891293525696,0.02769354172050953
35.45,-0.43578439950942993,0.0848073810338974,-0.29741549491882324,0.15014199912548065,0.8541427850723267,-0.14411909878253937
35.5,-0.11290287226438522,0.11781216412782669,-0.03936515003442764,0.09960092604160309,0.5658825635910034,-0.048719752579927444
35.55,0.27775633335113525,0.33879759907722473,0.5043520927429199,0.033085666596889496,0.2674829065799713,0.08161163330078125
35.6,0.9077918529510498,0.11948495358228683,0.6926284432411194,0.011522196233272552,0.36144566535949707,0.11563924700021744
35.65,0.31925836205482483,0.19643695652484894,-0.18874339759349823,0.22000226378440857,0.8039382696151733,-0.014559252187609673
35.7,-0.04301050305366516,-0.01851746253669262,-0.618815541267395,0.38771963119506836,0.7977457046508789,-0.12546658515930176
35.75,-0.09318497776985168,-0.07991690933704376,-0.9626775979995728,0.483764111995697,0.5412760376930237,-0.1606682538986206
35.8,-0.5568718910217285,0.6030111908912659,-0.9955258965492249,0.43586331605911255,0.31826555728912354,-0.14453956484794617
35.85,-0.2836085557937622,0.8591948747634888,-0.8220571875572205,0.19234861433506012,0.009172852151095867,0.03263017535209656
35.9,-0.5606030225753784,0.6192455887794495,-0.6677927374839783,0.08156955242156982,-0.13284587860107422,0.1824709177017212
35.95,-0.8819029927253723,0.26072022318840027,-0.31110262870788574,0.049997735768556595,-0.28993159532546997,0.17039082944393158
36.0,-0.2984468340873718,-0.35505586862564087,-0.11215415596961975,0.04749829322099686,-0.5930084586143494,0.023953335359692574
36.05,-0.035100191831588745,-0.2229766994714737,-0.18657217919826508,0.1547168791294098,-0.6564083695411682,-0.14522989094257355
36.1,0.22218725085258484,0.5360298156738281,1.118740439414978,0.07739312201738358,-0.9106528759002686,-0.2279462069272995
36.15,2.7152891159057617,0.5994940996170044,3.043436050415039,-0.32910770177841187,-1.3330967426300049,-0.04778439179062843
36.2,3.7096972465515137,0.1746121346950531,4.124172210693359,-0.48531296849250793,-0.5802385210990906,0.12004217505455017
36.25,1.8424632549285889,-0.2595662772655487,1.4219043254852295,-0.38211140036582947,1.084994912147522,-0.009428491815924644
36.3,0.09090040624141693,-0.021548235788941383,-0.4989927113056183,-0.3634536564350128,1.7818074226379395,0.013064064085483551
36.35,-0.831696093082428,0.11574839800596237,-0.8430201411247253,-0.4174025058746338,1.2851444482803345,0.26868975162506104
36.4,-0.8834885358810425,0.21532724797725677,-0.6378777623176575,-0.4469816982746124,0.5168495178222656,0.35754629969596863
36.45,-0.7699145078659058,0.2604198157787323,-0.19681748747825623,-0.24476271867752075,0.22003044188022614,0.10500012338161469
36.5,0.20225557684898376,-0.3560800552368164,-0.1700894981622696,-0.08159306645393372,0.15205591917037964,-0.14789386093616486
36.55,0.4441547095775604,-0.7802734971046448,-0.23821164667606354,0.04900564253330231,0.12221579253673553,-0.20060797035694122
36.6,0.14209343492984772,-0.0346822626888752,-0.06613752245903015,0.24674510955810547,0.006340415216982365,-0.14590491354465485
36.65,0.6684360504150391,0.4233132302761078,0.5154224038124084,0.24422821402549744,-0.18242555856704712,0.03247695043683052
36.7,0.9056494235992432,0.4058009088039398,0.7068253755569458,0.2202296257019043,-0.06761819124221802,0.05030807852745056
36.75,0.6967175006866455,0.45468050241470337,0.8039774894714355,0.18813371658325195,0.13993528485298157,-0.018182530999183655
36.8,0.7124558687210083,0.3747301697731018,0.6149255633354187,0.12947578728199005,0.19648273289203644,-0.03193359449505806
36.85,0.425509512424469,0.21020036935806274,0.11359325796365738,0.14079299569129944,0.2775648534297943,-0.07768291234970093
36.9,0.03845897316932678,-0.001969320699572563,-0.23056423664093018,0.19374874234199524,0.3194883465766907,-0.20628546178340912
36.95,0.00927533209323883,-0.045711494982242584,-0.44370192289352417,0.18836678564548492,0.22529742121696472,-0.24249091744422913
37.0,0.10454503446817398,0.07972339540719986,-0.3053883910179138,0.1803857535123825,0.020914077758789062,-0.19736453890800476
37.05,0.31794843077659607,0.19020184874534607,-0.4684435725212097,0.2224738746881485,-0.09806995093822479,-0.13902170956134796
37.1,-0.26552748680114746,0.6899329423904419,-0.9927746653556824,0.3078247904777527,-0.009116334840655327,-0.04459100216627121
37.15,-0.9354584217071533,1.2238465547561646,-0.7290246486663818,0.1725732684135437,-0.11377597600221634,0.065911665558815
37.2,-0.17714549601078033,0.541023313999176,-0.3646998405456543,-0.13118311762809753,-0.43129900097846985,0.2665461301803589
37.25,-0.26405829191207886,-0.42771345376968384,-0.1561017781496048,-0.162188321352005,-0.5642495155334473,0.17310801148414612
37.3,-1.0402565002441406,-0.05066785588860512,-0.03751525655388832,-0.012379366904497147,-0.7235935926437378,-0.07599097490310669
37.35,0.1336413025856018,0.750160276889801,0.9608892798423767,-0.030468881130218506,-1.1332519054412842,-0.27630504965782166
37.4,3.0428390502929688,0.6552411317825317,2.888883590698242,-0.2706160843372345,-1.344450831413269,-0.17119014263153076
37.45,4.223587989807129,-0.20813265442848206,4.199169158935547,-0.5246478915214539,-0.49510127305984497,-0.0027457396499812603
37.5,1.8884913921356201,-0.34796804189682007,1.379311203956604,-0.4560317397117615,1.0595229864120483,-0.004413434769958258
37.55,0.2806704342365265,-0.13555902242660522,-0.8168456554412842,-0.4036484956741333,1.7118182182312012,-0.01256018877029419
37.6,-0.7783137559890747,-0.09656717628240585,-1.0160374641418457,-0.35688039660453796,1.3241151571273804,0.17173314094543457
37.65,-0.296139657497406,-0.06312274187803268,-0.7044624090194702,-0.28262025117874146,0.46496814489364624,0.3718799352645874
37.7,0.5992107391357422,-0.025315238162875175,0.012634512968361378,-0.1165405809879303,0.15828409790992737,0.43147796392440796
37.75,0.5032258629798889,0.24651533365249634,0.22606536746025085,0.07526303082704544,0.4990784525871277,0.2287120372056961
37.8,-0.32322633266448975,0.5230188369750977,0.3130538761615753,0.11996307969093323,0.6972948908805847,0.05758127570152283
37.85,0.08274887502193451,0.4416990578174591,0.45051369071006775,0.028493788093328476,0.37395820021629333,0.10803305357694626
37.9,0.542846143245697,0.0922270268201828,0.1531614065170288,0.05777650326490402,0.2621409296989441,0.0150425611063838
37.95,0.2446291148662567,-0.13109108805656433,-0.2819386124610901,0.25423622131347656,0.4453175961971283,-0.2642880976200104
38.0,-0.5490286350250244,0.040945060551166534,-0.8812168836593628,0.38530927896499634,0.4107043147087097,-0.38886913657188416
38.05,-0.9506626129150391,0.8360520005226135,-0.7525410056114197,0.29073625802993774,-0.02385346032679081,-0.10778496414422989
38.1,-0.10255689918994904,0.46987253427505493,-0.3476197421550751,0.06270495802164078,-0.3999332785606384,0.22164027392864227
38.15,-0.24163973331451416,-0.023385033011436462,-0.6177526116371155,0.05315876379609108,-0.38487881422042847,0.1609944999217987
38.2,-1.3329312801361084,-0.8706523776054382,-1.0014185905456543,0.08225831389427185,-0.4841499626636505,-0.04263335093855858
38.25,-0.552745521068573,-0.304233580827713,-0.7012659907341003,0.2055222988128662,-1.1589152812957764,-0.03265361487865448
38.3,1.0209057331085205,1.085525631904602,0.8755278587341309,0.1456124484539032,-1.7154061794281006,-0.0675881952047348
38.35,3.1977109909057617,1.0440218448638916,3.0281286239624023,0.017464062198996544,-1.6651273965835571,-0.056962959468364716
38.4,3.9494099617004395,0.48883360624313354,3.9344897270202637,-0.09956437349319458,-0.8387154936790466,0.06351995468139648
38.45,3.0197348594665527,0.2065698355436325,2.1834723949432373,-0.19973589479923248,0.6487737894058228,0.03960486501455307
38.5,0.282982736825943,0.5866347551345825,-0.37605029344558716,-0.33400166034698486,1.7168447971343994,-0.02443176507949829
38.55,-0.8420131206512451,0.11437225341796875,-0.9407415986061096,-0.4926522374153137,1.3678370714187622,0.17267781496047974
38.6,-0.9588191509246826,-0.03411107137799263,-0.6070489287376404,-0.41895872354507446,0.6179531812667847,0.2276940643787384
38.65,-0.15628203749656677,-0.5394812226295471,-0.36501386761665344,-0.29903697967529297,0.18515706062316895,0.16635000705718994
38.7,0.36102116107940674,-0.425688773393631,0.04435707628726959,-0.05539994686841965,0.13102523982524872,0.013664226047694683
38.75,0.4005368947982788,-0.22309686243534088,0.39316344261169434,0.0960029810667038,0.06237766891717911,0.0028658872470259666
38.8,0.7104163765907288,0.31253916025161743,0.699273407459259,0.18955852091312408,-0.028703385964035988,0.05764864757657051
38.85,0.8271792531013489,0.5468922257423401,0.7074816823005676,0.26034170389175415,0.0824768990278244,-0.017960241064429283
38.9,0.6259825229644775,0.23371419310569763,0.020817602053284645,0.3539324700832367,0.29093611240386963,-0.26734745502471924
38.95,-0.251777321100235,0.4561501443386078,-0.791607677936554,0.3432174026966095,0.27009502053260803,-0.36119070649147034
39.0,-0.6488257050514221,0.6181574463844299,-0.9463694095611572,0.19368118047714233,0.03449903428554535,-0.16686904430389404
39.05,-0.08050161600112915,0.3479977548122406,-0.9056673645973206,0.08752812445163727,-0.26823297142982483,0.06971865147352219
39.1,-0.1589735746383667,-0.34678173065185547,-0.561747133731842,-0.12536098062992096,-0.48628664016723633,0.17783401906490326
39.15,-0.7475674152374268,-0.530579686164856,-0.277056485414505,-0.2083890289068222,-0.8121188879013062,0.14258618652820587
39.2,-0.3365999758243561,0.9498425126075745,0.2511991858482361,-0.08738692849874496,-1.2694531679153442,-0.025469636544585228
39.25,2.0270156860351562,1.6844438314437866,1.500440239906311,-0.13923704624176025,-1.617253065109253,-0.20657840371131897
39.3,3.2690961360931396,0.3531457185745239,3.076714515686035,-0.2670654058456421,-1.1838992834091187,-0.1823936402797699
39.35,2.818869113922119,-0.9328680038452148,1.8223685026168823,-0.1194760799407959,-0.001032397267408669,-0.2967667877674103
39.4,1.1979373693466187,-1.0119256973266602,-0.25879546999931335,0.19890820980072021,1.0832642316818237,-0.40365755558013916
39.45,-0.8957187533378601,-0.045422572642564774,-1.055782437324524,0.3656597137451172,1.1230806112289429,-0.26850590109825134
39.5,-0.9252486228942871,0.7760162949562073,-0.31984397768974304,0.14754892885684967,0.07973048835992813,-0.0036428412422537804
39.55,0.7374930381774902,0.8408166170120239,0.6982107162475586,-0.0796576663851738,-0.5551235675811768,0.017156215384602547
39.6,0.9812965393066406,0.6238976716995239,0.8537092804908752,-0.015636533498764038,-0.2082882523536682,-0.26053792238235474
39.65,0.5794875621795654,0.5212526917457581,0.6509549617767334,0.03647647798061371,0.16173265874385834,-0.48135706782341003
39.7,0.6960652470588684,0.392123281955719,0.7807437181472778,-0.0738963931798935,0.08649162948131561,-0.5053776502609253
39.75,1.5153439044952393,0.03381449729204178,1.0938080549240112,-0.25337284803390503,-0.06338578462600708,-0.45727136731147766
39.8,2.6629865169525146,-0.5589961409568787,1.3423516750335693,-0.411805659532547,0.10079290717840195,-0.26905208826065063
39.85,2.9846272468566895,-0.994691789150238,1.422059416770935,-0.5336316227912903,0.565667450428009,0.15649192035198212
39.9,2.8447084426879883,-1.1264084577560425,0.8309952020645142,-0.6317204236984253,0.9860420823097229,0.6275736689567566
39.95,2.098356246948242,-0.9218625426292419,-0.10921225696802139,-0.5833443999290466,1.3074668645858765,1.0198489427566528
40.0,1.0973761081695557,-0.6217421293258667,-1.0548022985458374,-0.35438910126686096,1.4563982486724854,1.294413447380066
40.05,-0.3255855143070221,-0.25127121806144714,-1.2549338340759277,-0.010794401168823242,1.4149155616760254,1.426453948020935
40.1,-1.5347480773925781,0.4857969284057617,-1.0985065698623657,0.3030700385570526,1.2188881635665894,1.3774045705795288
40.15,-1.3021210432052612,0.8158846497535706,-0.6086397767066956,0.3753836452960968,1.045469045639038,1.169906497001648
40.2,-1.4818893671035767,0.6676873564720154,-0.43282514810562134,0.3106847405433655,1.1717604398727417,0.7805082201957703
40.25,-1.9399220943450928,0.46403685212135315,-0.27764958143234253,0.23586390912532806,1.157533884048462,0.5019102096557617
40.3,-1.9173102378845215,0.4605501890182495,0.07149581611156464,0.23327717185020447,0.8449316024780273,0.3669852316379547
40.35,-1.4378457069396973,0.6197585463523865,0.2626005709171295,0.2134622484445572,0.5425698161125183,0.2644076347351074
40.4,-1.0937913656234741,0.5337409377098083,0.4432709217071533,0.08925526589155197,0.42613959312438965,0.09122518450021744
40.45,-1.1023119688034058,0.4492930769920349,0.47666317224502563,-0.05920092388987541,0.3865450918674469,-0.07562513649463654
40.5,-0.7980644702911377,0.44794175028800964,0.30823343992233276,-0.14620880782604218,0.2125249058008194,-0.09831000119447708
40.55,-0.13631755113601685,0.4107199013233185,0.07137982547283173,-0.15582217276096344,0.031004175543785095,-0.07847455888986588
40.6,0.2750087082386017,0.06125929579138756,0.07077659666538239,-0.14202670753002167,0.027124077081680298,-0.07120703160762787
40.65,0.23032443225383759,-0.2720174789428711,0.025683077052235603,-0.08862637728452682,0.12553228437900543,-0.10186678171157837
40.7,-0.024796470999717712,-0.21082882583141327,0.12807928025722504,0.016345836222171783,0.09452831000089645,-0.062480758875608444
40.75,0.05516107380390167,-0.03844834491610527,0.19050031900405884,0.1173316016793251,-0.020685510709881783,0.028826957568526268
40.8,-0.07180693745613098,0.25269603729248047,0.3786498010158539,0.1629074364900589,-0.0757322683930397,0.06963049620389938
40.85,-0.8164718747138977,0.4321460425853729,0.2486102283000946,0.10405799001455307,-0.1191011518239975,0.08814134448766708
40.9,-1.993713140487671,0.6209629774093628,0.13094580173492432,-0.029178913682699203,-0.26250144839286804,0.06174617260694504
40.95,-3.2882440090179443,0.9455307126045227,0.15231095254421234,-0.2153298705816269,-0.6257516741752625,-0.010137906298041344
41.0,-3.238218069076538,1.443130373954773,-0.7537320256233215,-0.41210633516311646,-1.27409827709198,-0.09379859268665314
41.05,-2.05438232421875,1.8114005327224731,-1.5032989978790283,-0.6374415159225464,-1.8509140014648438,-0.43277668952941895
41.1,-0.7894638776779175,1.544058084487915,-1.8763742446899414,-0.7982723116874695,-2.1376454830169678,-0.9728775024414062
41.15,0.3084317445755005,0.5549957752227783,-2.269876003265381,-0.785610020160675,-2.28971266746521,-1.48590087890625
41.2,1.5399107933044434,-0.31938815116882324,-2.5285041332244873,-0.5580912828445435,-2.5639126300811768,-1.7553882598876953
41.25,2.6941633224487305,-0.7053210139274597,-2.0960190296173096,-0.20752447843551636,-2.914613723754883,-1.6891839504241943
41.3,3.455596446990967,-1.1409223079681396,-0.8835153579711914,0.12856096029281616,-3.1233959197998047,-1.370139718055725
41.35,3.6884922981262207,-1.929377555847168,0.6269012093544006,0.4085688292980194,-2.9678597450256348,-0.9844575524330139
41.4,3.4533121585845947,-2.478060722351074,2.0885839462280273,0.7619852423667908,-2.3496286869049072,-0.5949048399925232
41.45,2.9319186210632324,-2.592956781387329,2.8241217136383057,1.0382508039474487,-1.442691683769226,-0.06068101525306702
41.5,2.635347366333008,-2.0852324962615967,2.896143674850464,0.9916752576828003,-0.6063071489334106,0.5890071392059326
41.55,2.2231433391571045,-0.47663024067878723,2.9169366359710693,0.555366039276123,-0.03685128688812256,1.117443323135376
41.6,1.3447819948196411,0.9402971863746643,2.4504294395446777,0.16290652751922607,0.436369925737381,1.2605936527252197
41.65,0.34692537784576416,1.6477186679840088,1.0378639698028564,0.1098741888999939,0.9228613972663879,1.0937179327011108
41.7,-0.2029065191745758,1.8897936344146729,-0.0443844236433506,0.04592174291610718,1.1065088510513306,0.8026746511459351
41.75,-0.08914890885353088,1.3504525423049927,-0.3010939061641693,-0.16752852499485016,0.8653435111045837,0.4809058904647827
41.8,0.6056727170944214,0.3430815637111664,-0.23953497409820557,-0.26073989272117615,0.6135081648826599,0.21590349078178406
41.85,1.0498101711273193,0.12295067310333252,-0.2528703212738037,-0.21915672719478607,0.5536941885948181,0.1625167429447174
41.9,0.043889909982681274,0.292365163564682,-0.7477583289146423,-0.18698656558990479,0.5419614315032959,0.163587749004364
41.95,-0.7641206383705139,0.4239206910133362,-1.000896692276001,-0.15677215158939362,0.2632172107696533,0.06950025260448456
42.0,-0.5033051371574402,0.5007649064064026,-0.7654789686203003,-0.13060975074768066,-0.2011624425649643,-0.04687077924609184
42.05,0.22212310135364532,0.3581286072731018,-0.021443679928779602,-0.13378243148326874,-0.4428756833076477,-0.10645503550767899
42.1,0.4168516993522644,0.16430477797985077,0.17839311063289642,-0.0886155217885971,-0.33523276448249817,-0.1667659878730774
42.15,0.12754075229167938,0.12406541407108307,0.13467669486999512,-0.03716758266091347,-0.17970743775367737,-0.15948547422885895
42.2,-0.19508880376815796,0.27732372283935547,0.037151895463466644,0.01372113823890686,-0.11659872531890869,-0.16276787221431732
42.25,-0.1367848813533783,0.16684246063232422,-0.06987285614013672,0.10449141263961792,-0.024041060358285904,-0.2241232991218567
42.3,0.17359760403633118,-0.07271288335323334,-0.09780508279800415,0.16041038930416107,0.04113968834280968,-0.2401760071516037
42.35,0.5402004718780518,-0.15520474314689636,0.14393864572048187,0.13114608824253082,-0.02746405079960823,-0.17149028182029724
42.4,0.7229657173156738,-0.15546128153800964,0.3926219344139099,0.06451597064733505,-0.04305928945541382,-0.055439189076423645
42.45,0.44129836559295654,0.06376555562019348,0.296486496925354,0.018849143758416176,0.08066798001527786,0.07226233184337616
42.5,0.05634969100356102,0.343932181596756,0.1590089201927185,-0.028594430536031723,0.17769943177700043,0.13784654438495636
42.55,-0.2343614399433136,0.47837546467781067,0.04011266306042671,-0.0938204675912857,0.16346606612205505,0.1413964182138443
42.6,-0.08538610488176346,0.28482726216316223,0.052225783467292786,-0.15725667774677277,0.1025649681687355,0.09555941820144653
42.65,-0.053614214062690735,0.10325910151004791,-0.11473173648118973,-0.12612469494342804,0.14378952980041504,0.00987110286951065
42.7,-0.15974178910255432,0.130191832780838,-0.38647955656051636,-0.06354545801877975,0.14551684260368347,-0.0531349815428257
42.75,-0.11811114847660065,0.20807841420173645,-0.27286002039909363,-0.04093784838914871,0.025044342502951622,-0.0496501661837101
42.8,0.09954963624477386,0.18142226338386536,-0.06713931262493134,-0.0254305861890316,-0.09403800219297409,-0.04584716632962227
42.85,0.1614336371421814,0.21961119771003723,0.163726344704628,-0.014297029003500938,-0.08707025647163391,-0.04575284570455551
42.9,0.11006435751914978,0.28580382466316223,0.27770665287971497,-0.05050723999738693,-0.05948042497038841,-0.02548421360552311
42.95,0.10630080848932266,0.20953847467899323,0.339524507522583,-0.11766604334115982,-0.04085833206772804,0.006985011976212263
43.0,0.08933276683092117,0.10597611218690872,0.21457388997077942,-0.13541695475578308,0.03435851261019707,0.01746014878153801
43.05,0.09653642028570175,0.09245778620243073,-0.009135285392403603,-0.12403366714715958,0.08763444423675537,0.01109064556658268
43.1,0.12186231464147568,0.11444000154733658,-0.1500268578529358,-0.12681862711906433,0.06078777089715004,0.022771639749407768
43.15,0.09517829120159149,0.2603350281715393,-0.1304963380098343,-0.14698892831802368,-0.0016252031782642007,0.045377667993307114
43.2,0.016606438905000687,0.32081225514411926,0.017628036439418793,-0.16416575014591217,-0.03026462532579899,0.0516430102288723
43.25,0.016533976420760155,0.24846556782722473,0.07709022611379623,-0.1599983125925064,-0.019742609933018684,0.01499876193702221
43.3,0.12354730814695358,0.10740472376346588,0.13315676152706146,-0.15832296013832092,-0.010675194673240185,-0.009853408671915531
43.35,0.13367024064064026,0.02311611920595169,0.10207141935825348,-0.170671284198761,0.010737109929323196,0.014784851111471653
43.4,0.14070679247379303,0.020622268319129944,-0.017909666523337364,-0.17714206874370575,0.06802747398614883,0.04792578145861626
43.45,0.10669516026973724,0.05995466932654381,-0.15307356417179108,-0.15836389362812042,0.1292814314365387,0.07517057657241821
43.5,-0.00958745926618576,0.11075976490974426,-0.23508603870868683,-0.12815043330192566,0.1442892849445343,0.09101837128400803
43.55,-0.11763903498649597,0.19504359364509583,-0.24308300018310547,-0.09792666882276535,0.10037502646446228,0.09418424218893051
43.6,-0.10224171727895737,0.2663412392139435,-0.2784804105758667,-0.07077830284833908,0.06628277897834778,0.07236510515213013
43.65,-0.15514126420021057,0.21248438954353333,-0.26905688643455505,-0.04175681620836258,0.0580240823328495,0.031878694891929626
43.7,-0.19081759452819824,0.18744947016239166,-0.19953398406505585,-0.023679718375205994,-0.008210868574678898,0.0026961686089634895
43.75,-0.11248080432415009,0.1577596813440323,-0.09865929186344147,-0.0007088454440236092,-0.0984114557504654,-0.023708509281277657
43.8,-0.14488106966018677,0.16173171997070312,-0.07182975858449936,0.053964242339134216,-0.13831393420696259,-0.0705661028623581
43.85,-0.11825153976678848,0.10164738446474075,-0.052969127893447876,0.08718700706958771,-0.1691541224718094,-0.10187100619077682
43.9,-0.06112871691584587,-0.0523986890912056,-0.08519857376813889,0.11354085057973862,-0.1674254685640335,-0.12040131539106369
43.95,-0.011204659938812256,-0.05238628387451172,-0.17078185081481934,0.17048406600952148,-0.1522921472787857,-0.13865700364112854
44.0,0.24419933557510376,0.01549914013594389,-0.03607103228569031,0.22162261605262756,-0.1751711070537567,-0.14445607364177704
44.05,0.3217949867248535,0.024683022871613503,0.11870457231998444,0.22987951338291168,-0.2069808840751648,-0.10374882072210312
44.1,0.3612474799156189,0.1343851387500763,0.2120208591222763,0.18845143914222717,-0.20779524743556976,-0.04078410193324089
44.15,0.3274329900741577,0.17887116968631744,0.370892196893692,0.1357460469007492,-0.12624219059944153,0.00825931690633297
44.2,0.18020738661289215,0.12504863739013672,0.4766699969768524,0.09753820300102234,-9.49445238802582e-05,0.04489104077219963
44.25,0.18808402121067047,0.10396290570497513,0.42568016052246094,0.043866902589797974,0.09726890176534653,0.06681366264820099
44.3,-0.11168546229600906,0.1952390819787979,0.02638518624007702,0.0322737842798233,0.19139358401298523,0.0638296902179718
44.35,-0.3375454843044281,0.2716427147388458,-0.2872367799282074,0.025488361716270447,0.16552184522151947,0.04515751078724861
44.4,-0.20485132932662964,0.3490648567676544,-0.29571253061294556,0.006117969751358032,0.042056117206811905,0.02390909381210804
44.45,-0.04809483140707016,0.39895349740982056,-0.03130066767334938,-0.008083539083600044,-0.08357743918895721,0.017482483759522438
44.5,0.16694380342960358,0.33873942494392395,0.31671130657196045,-0.03511912748217583,-0.12604039907455444,0.009160495363175869
44.55,0.2227613776922226,0.2614612877368927,0.2750735282897949,-0.051392897963523865,-0.002421292010694742,-0.024375157430768013
44.6,0.03638928383588791,0.19466403126716614,0.027274979278445244,-0.06106725335121155,0.14232812821865082,-0.040457598865032196
44.65,0.004722915589809418,0.18839554488658905,-0.1906571388244629,-0.07115217298269272,0.14958488941192627,-0.03189235180616379
44.7,-0.015622884035110474,0.189362570643425,-0.16506250202655792,-0.06583625823259354,0.07877959311008453,-0.022128375247120857
44.75,-0.06016961485147476,0.22951415181159973,-0.10759074240922928,-0.039251722395420074,0.03382439911365509,-0.022768475115299225
44.8,-0.06200553849339485,0.14991571009159088,-0.11721020936965942,-0.010202320292592049,0.01964040845632553,-0.03319469839334488
44.85,0.015318529680371284,0.05675221607089043,-0.03820623457431793,0.02935776673257351,-0.010314908809959888,-0.04662363976240158
44.9,0.14497116208076477,0.03396989032626152,0.10232764482498169,0.05177104473114014,-0.0409405492246151,-0.03967069461941719
44.95,0.29884636402130127,0.015836728736758232,0.23844747245311737,0.04388582333922386,-0.011802553199231625,-0.014271258376538754
45.0,0.22909370064735413,0.0035629402846097946,0.11870524287223816,0.048239126801490784,0.052453115582466125,0.011424718424677849
45.05,0.1603643000125885,0.018956199288368225,0.011468218639492989,0.06921911239624023,0.09859798848628998,0.04574060067534447
45.1,0.15729448199272156,0.1313200294971466,0.032417505979537964,0.08942417800426483,0.13045810163021088,0.07679909467697144
45.15,0.02873072400689125,0.24218657612800598,-0.03745067119598389,0.12086673080921173,0.19117209315299988,0.07759427279233932
45.2,-0.15793797373771667,0.28057482838630676,-0.11014635860919952,0.14377911388874054,0.20471297204494476,0.05567160248756409
45.25,-0.24637532234191895,0.36881065368652344,-0.06324629485607147,0.13756348192691803,0.13081234693527222,0.023939194157719612
45.3,-0.10359878093004227,0.38869383931159973,0.12771236896514893,0.10148029774427414,0.06154578551650047,-0.012679887004196644
45.35,-0.030639899894595146,0.21534636616706848,-0.0349620059132576,0.11459273844957352,0.1230773776769638,-0.07058636844158173
45.4,-0.09348762035369873,0.14275267720222473,-0.26104244589805603,0.15387743711471558,0.18831300735473633,-0.09988056123256683
45.45,-0.021731656044721603,0.17771150171756744,-0.15473894774913788,0.11677728593349457,0.08077549189329147,-0.04599383473396301
45.5,0.13879510760307312,0.13837721943855286,0.046875614672899246,0.050593890249729156,-0.060651637613773346,0.009423431940376759
45.55,0.17027130722999573,0.10212709754705429,0.09331336617469788,0.04041830450296402,-0.03600063920021057,0.006304433569312096
45.6,0.11323567479848862,0.11251165717840195,-0.006450026761740446,0.052682064473629,0.04262832924723625,-0.0006927486974745989
45.65,0.07509757578372955,0.096895232796669,0.12345152348279953,0.04464331269264221,0.00955889467149973,0.025483345612883568
45.7,0.09028911590576172,0.1704387664794922,0.28190162777900696,0.039690833538770676,-0.0046697319485247135,0.060113124549388885
45.75,0.010822884738445282,0.38158708810806274,0.2450496107339859,0.037766046822071075,0.07896436750888824,0.060734134167432785
45.8,-0.02493853121995926,0.47065451741218567,0.2763511836528778,0.01481631863862276,0.1041441485285759,0.043935101479291916
45.85,0.14695888757705688,0.3342790901660919,0.4184308350086212,0.012609132565557957,0.07901855558156967,0.046439334750175476
45.9,0.4933184087276459,0.12417128682136536,0.4114759862422943,0.14550334215164185,0.1782321333885193,0.06396569311618805
45.95,0.3613852858543396,0.15571406483650208,0.20064757764339447,0.43925052881240845,0.2883870303630829,0.0764634758234024
46.0,-0.09650878608226776,0.12582111358642578,0.23168258368968964,0.5435615181922913,0.25063586235046387,-0.02118397131562233
46.05,-0.03466329723596573,-0.15238286554813385,-0.07910215854644775,0.3970848619937897,0.18810345232486725,-0.12572802603244781
46.1,-0.16008126735687256,-0.040170636028051376,-0.8639136552810669,0.3025548458099365,0.20785203576087952,-0.05453047156333923
46.15,-0.6158846020698547,0.7594653964042664,-1.4165081977844238,0.22086745500564575,0.2392951399087906,0.09985198080539703
46.2,-0.7494567632675171,0.6333819031715393,-1.5134104490280151,0.008406750857830048,0.1012759581208229,0.23219309747219086
46.25,-0.6565084457397461,-0.4152241349220276,-0.7272775769233704,-0.21088185906410217,-0.0699235126376152,0.31080615520477295
46.3,-0.8882119655609131,-0.04417330026626587,-0.37171152234077454,-0.19631412625312805,-0.19597533345222473,0.2984873354434967
46.35,-0.9024665951728821,0.6188125014305115,0.2108842134475708,-0.18092688918113708,-0.5909127593040466,0.15268923342227936
46.4,0.4972003102302551,0.4804525375366211,1.9644479751586914,-0.3713332414627075,-1.0228209495544434,-0.0696735680103302
46.45,1.9182207584381104,0.380069762468338,3.385777235031128,-0.5057580471038818,-0.7160979509353638,-0.2324826568365097
46.5,1.5098825693130493,0.11501120030879974,2.7340567111968994,-0.4665551781654358,0.26031816005706787,-0.29572543501853943
46.55,1.0723941326141357,-0.5381135940551758,0.7155575752258301,-0.4210512042045593,1.0403932332992554,-0.2738504409790039
46.6,0.36415767669677734,-0.3203505873680115,-0.8353263139724731,-0.3008718490600586,1.3734058141708374,-0.18793529272079468
46.65,-0.5550907850265503,0.16650012135505676,-1.1093255281448364,-0.2132377177476883,1.120674729347229,-0.06514570116996765
46.7,-0.19556576013565063,0.13033488392829895,-0.566695511341095,-0.20048658549785614,0.56138676404953,0.06487920880317688
46.75,0.3743577301502228,0.05493549630045891,-0.004636863246560097,-0.10487277805805206,0.32862573862075806,0.10622476786375046
46.8,0.3622280955314636,-0.12449168413877487,0.17112542688846588,0.03678657487034798,0.4943828582763672,0.03924942389130592
46.85,0.10883644223213196,-0.06168270856142044,0.17355887591838837,0.140428364276886,0.6414343118667603,0.01579296588897705
46.9,0.008608072996139526,0.337982177734375,0.29981985688209534,0.17346800863742828,0.5406633019447327,0.08089815080165863
46.95,0.018691644072532654,0.6379109025001526,0.3363022208213806,0.15545305609703064,0.4275965690612793,0.06003141775727272
47.0,0.11625580489635468,0.13994792103767395,-0.083655945956707,0.15738782286643982,0.46525853872299194,-0.12838959693908691
47.05,-0.1304294317960739,-0.20736980438232422,-0.5846520066261292,0.2298908680677414,0.5938927531242371,-0.2867424786090851
47.1,-0.3965914845466614,0.045496951788663864,-0.7059526443481445,0.26460421085357666,0.3900192677974701,-0.22499564290046692
47.15,-0.29525455832481384,0.36876779794692993,-0.8391919732093811,0.21180623769760132,-0.0230521522462368,-0.02884736843407154
47.2,-0.6589826941490173,0.5984144806861877,-0.868614673614502,0.1331208497285843,-0.1405741274356842,0.10816585272550583
