Time [s],Acc_x [m/s^2],Acc_y [m/s^2],Acc_z [m/s^2],Gyro_x [1/s],Gyro_y [1/s],Gyro_z [1/s]
0.0,0.026678208261728287,0.009422305971384048,-0.013207740150392056,-0.0260018240660429,0.003159386571496725,-0.05253636837005615
0.05,0.050945647060871124,0.00974846538156271,-0.02348029613494873,-0.026003936305642128,0.003157073399052024,-0.052535466849803925
0.1,0.1001293957233429,0.019953738898038864,-0.00659356452524662,-0.033608563244342804,0.0015414925292134285,-0.03608270362019539
0.15,0.06713065505027771,0.029522903263568878,0.029136957600712776,-0.03455168008804321,0.011095678433775902,-0.016782525926828384
0.2,0.0018139062449336052,0.0344543494284153,0.019319966435432434,-0.026029709726572037,0.027934256941080093,-0.012342923320829868
0.25,-0.018512975424528122,0.08712196350097656,0.05054045468568802,-0.024495664983987808,0.026665352284908295,-0.007934295572340488
0.3,-0.04824414476752281,0.114747054874897,0.07451210170984268,-0.028027893975377083,0.02459678053855896,-0.012310008518397808
0.35,-0.053871557116508484,0.08503246307373047,0.049948252737522125,-0.03348029404878616,0.02357921190559864,-0.02098553441464901
0.4,0.005755586549639702,0.0653228834271431,0.018581165000796318,-0.041093163192272186,0.023283375427126884,-0.024370061233639717
0.45,0.018254628404974937,0.04057789593935013,-0.02199801430106163,-0.049487922340631485,0.026340072974562645,-0.019302546977996826
0.5,-0.012292912229895592,0.03425980359315872,-0.08265122026205063,-0.053536832332611084,0.025156255811452866,-0.007782856933772564
0.55,0.011700345203280449,0.031069764867424965,-0.07378318905830383,-0.05018698424100876,0.014777637086808681,0.005180140491575003
0.6,-0.009179295971989632,0.04436207190155983,-0.03928706422448158,-0.034485578536987305,0.007864019833505154,0.008888809941709042
0.65,-0.04965760558843613,0.04135895147919655,-0.08420953154563904,-0.012857950292527676,0.009871922433376312,-0.00024383132404182106
0.7,0.007605645805597305,0.04528141766786575,-0.07262039184570312,-0.0059545873664319515,-0.004726875107735395,0.0032136046793311834
0.75,0.022677481174468994,0.056022655218839645,-0.0264669731259346,-0.004902539774775505,-0.016713812947273254,0.006986719090491533
0.8,-0.01711270585656166,0.07567883282899857,0.005033155903220177,0.002262844704091549,-0.018504483625292778,-0.00010357151768403128
0.85,-0.0019475985318422318,0.10996343195438385,0.05150171369314194,0.008150947280228138,-0.022423699498176575,-0.004023607354611158
0.9,0.06426633149385452,0.09250832349061966,0.05406791716814041,0.013473673723638058,-0.023615164682269096,-0.009982559829950333
0.95,0.10609198361635208,0.049600616097450256,0.038598570972681046,0.017573345452547073,-0.02641964703798294,-0.01298558060079813
1.0,0.11714616417884827,0.03102017380297184,0.06492555141448975,0.014889223501086235,-0.02631320245563984,-0.008074977435171604
1.05,0.15431690216064453,0.08540823310613632,0.019969837740063667,-0.0021388200111687183,-0.024424387142062187,0.00802017841488123
1.1,0.13802814483642578,0.3400946259498596,-0.1653759628534317,-0.03704826906323433,-0.02597975544631481,0.041826751083135605
1.15,-0.01123914122581482,0.4552355706691742,-0.3730425238609314,-0.09549148380756378,-0.02124367654323578,0.06419935077428818
1.2,-0.07454429566860199,0.3737803101539612,-0.38940349221229553,-0.2078109085559845,0.03665786609053612,0.10351230949163437
1.25,0.09686078131198883,0.2558336853981018,-0.27726367115974426,-0.3387143611907959,0.06843006610870361,0.15212972462177277
1.3,0.15511775016784668,0.14746765792369843,-0.36148032546043396,-0.386711448431015,-0.019432013854384422,0.1283855438232422
1.35,0.1130722239613533,0.18229202926158905,-0.2992161512374878,-0.33254897594451904,-0.16355976462364197,0.052069950848817825
1.4,0.07075217366218567,0.3232021629810333,-0.09383746236562729,-0.20554107427597046,-0.22330456972122192,-0.031229199841618538
1.45,0.1015380322933197,0.5144034028053284,-0.10925145447254181,-0.1723538041114807,-0.1986733376979828,-0.10533327609300613
1.5,0.08526270091533661,0.7594605684280396,-0.09655319899320602,-0.3556390404701233,-0.16832254827022552,-0.1329902708530426
1.55,-0.10259398072957993,1.0082284212112427,0.25563403964042664,-0.6754205226898193,-0.10632266104221344,-0.10912663489580154
1.6,-0.42511120438575745,1.0546751022338867,0.8357247710227966,-1.0152381658554077,0.022826174274086952,-0.07948228716850281
1.65,-0.6203441619873047,0.5988673567771912,1.507832646369934,-1.3079769611358643,0.11713366955518723,-0.018700825050473213
1.7,-0.5353718400001526,0.038067638874053955,2.2954213619232178,-1.4927375316619873,0.1716640591621399,0.03891255334019661
1.75,-0.5154567956924438,-0.6083930134773254,2.869389533996582,-1.5685123205184937,0.28445494174957275,-0.020651787519454956
1.8,-0.260400652885437,-0.9091237783432007,3.214658498764038,-1.5673497915267944,0.2953989505767822,-0.006981580518186092
1.85,0.03159165382385254,-0.6783955097198486,3.044311761856079,-1.4824941158294678,0.3506133556365967,0.005830861162394285
1.9,-0.0713963508605957,-0.7872631549835205,2.1856696605682373,-1.2277319431304932,0.5706701874732971,-0.3246765434741974
1.95,-0.35222506523132324,-1.075690507888794,0.8946008682250977,-0.7776890993118286,0.6264559626579285,-0.6831115484237671
2.0,-0.4240003824234009,-1.3439828157424927,-0.6295127272605896,-0.2126132696866989,0.30599159002304077,-0.7518478035926819
2.05,-0.2811462879180908,-1.0495376586914062,-2.3926451206207275,0.30477577447891235,-0.16181623935699463,-0.33995431661605835
2.1,-0.048931002616882324,-0.08342058211565018,-3.1000375747680664,0.4975982904434204,-0.372692346572876,0.29646849632263184
2.15,0.1720186471939087,0.3616640269756317,-2.857553720474243,0.4531685709953308,0.11201055347919464,0.09498313069343567
2.2,-0.198722243309021,-0.5302828550338745,-3.17781400680542,0.298152357339859,1.0406907796859741,-0.5809580683708191
2.25,0.04046225547790527,-0.39909636974334717,-2.7244186401367188,0.10892601311206818,1.3093317747116089,-0.24968312680721283
2.3,0.7118991613388062,0.817007303237915,-1.298410415649414,0.04097217693924904,1.2739918231964111,0.12625004351139069
2.35,0.2734002470970154,0.362158864736557,-0.4545731246471405,-0.08444023877382278,1.5054072141647339,-0.2578372061252594
2.4,0.1804659217596054,-0.3231334984302521,0.05837630853056908,-0.1071801632642746,1.2285349369049072,-0.03411942347884178
2.45,0.6070581078529358,0.25448042154312134,0.1484840214252472,0.09231613576412201,0.8124881982803345,0.4327920973300934
2.5,0.34155571460723877,0.07907585054636002,0.040114857256412506,0.10207144170999527,0.7927109599113464,0.38394227623939514
2.55,-0.05412030220031738,0.026170702651143074,0.4607830047607422,0.07508037984371185,0.6152406334877014,0.5040091276168823
2.6,-0.11594125628471375,0.5362548828125,0.9065566658973694,0.13638602197170258,0.31261634826660156,0.7191032767295837
2.65,-0.2635764479637146,0.07836337387561798,0.4482872188091278,0.08605268597602844,0.12896019220352173,0.745074987411499
2.7,0.24092397093772888,0.853042721748352,0.17292910814285278,0.10319012403488159,-0.012860756367444992,0.6810581684112549
2.75,0.23721888661384583,0.44550809264183044,-0.3759837746620178,0.0051042139530181885,0.17035171389579773,0.21672026813030243
2.8,-0.035223960876464844,0.07345297932624817,-0.48137325048446655,-0.028192665427923203,0.19107474386692047,0.13414594531059265
2.85,0.03196185827255249,0.2917061150074005,-0.0845375508069992,-0.015178963541984558,0.044466882944107056,0.26620742678642273
2.9,0.2401774525642395,0.06858827918767929,0.08462131023406982,0.005509413778781891,-0.010997402481734753,0.20362964272499084
2.95,0.46269601583480835,-0.27544689178466797,-0.049943357706069946,0.10007400810718536,-0.06865839660167694,0.13009235262870789
3.0,0.3535820245742798,0.0699634924530983,-0.010206438601016998,0.12149716168642044,-0.2014579176902771,0.17969822883605957
3.05,-0.27224600315093994,-0.022713677957654,-0.14795246720314026,0.029545921832323074,-0.3361663818359375,0.11913895606994629
3.1,-0.2778002619743347,0.3336458206176758,-0.03238784894347191,0.15661241114139557,-0.5377313494682312,0.1035376489162445
3.15,0.41158226132392883,1.13654625415802,0.33777135610580444,0.21714723110198975,-0.6077518463134766,0.04262335225939751
3.2,0.5924593210220337,0.6405125856399536,0.1251985877752304,-0.0919044092297554,-0.4214315712451935,-0.3102145195007324
3.25,0.09764765202999115,0.5432043671607971,0.06366194784641266,-0.3292921483516693,-0.2712758779525757,-0.545976996421814
3.3,-0.30155545473098755,-0.4711218774318695,0.006481091491878033,-0.35329964756965637,-0.3434036076068878,-0.5932053923606873
3.35,-0.20295347273349762,-1.0877524614334106,-0.47175028920173645,-0.08158719539642334,-0.5754513144493103,-0.40536630153656006
3.4,0.06506174802780151,-0.7340773940086365,-1.4136972427368164,0.16610044240951538,-0.7413281798362732,-0.0450688935816288
3.45,0.38310956954956055,-0.5258788466453552,-1.6318598985671997,0.01190108060836792,-1.0808902978897095,0.5942642688751221
3.5,0.7158114314079285,0.17062963545322418,-1.0088729858398438,-0.39788252115249634,-1.40767240524292,1.2993229627609253
3.55,0.9448502659797668,0.33307945728302,-0.14053231477737427,-0.8911603093147278,-1.2810240983963013,1.6137446165084839
3.6,1.1547948122024536,-0.33040618896484375,1.2127448320388794,-1.2102495431900024,-0.9364261031150818,1.8479121923446655
3.65,1.2012701034545898,-0.9710074663162231,2.207305908203125,-1.0706825256347656,-0.43662670254707336,2.1040666103363037
3.7,0.9570196866989136,-1.5349361896514893,1.8432979583740234,-0.4372081160545349,0.38525673747062683,1.7191016674041748
3.75,0.5898760557174683,-1.9748890399932861,0.4749118983745575,0.3266174793243408,1.1835943460464478,0.9938080310821533
3.8,-0.32631194591522217,-1.015900731086731,-0.4907682538032532,0.880700945854187,1.380355715751648,0.661282479763031
3.85,-1.4952852725982666,-0.04497731477022171,-0.06732393056154251,1.0325969457626343,0.9557718634605408,0.29412588477134705
3.9,-2.0445306301116943,0.7757920622825623,0.3669365346431732,0.9980400204658508,0.4598906934261322,-0.19037719070911407
3.95,-1.7726194858551025,1.2334203720092773,0.1316736489534378,0.8551656007766724,0.20206905901432037,-0.42346689105033875
4.0,-1.0860545635223389,1.2550725936889648,0.10420610010623932,0.6034659147262573,0.021334204822778702,-0.4236748218536377
4.05,-0.4501047134399414,0.9307748079299927,-0.2499120682477951,0.33156073093414307,-0.047917239367961884,-0.3789359927177429
4.1,-0.4755001664161682,0.6732607483863831,-0.6041577458381653,0.12156741321086884,-0.10739804804325104,-0.15796422958374023
4.15,-0.4782034158706665,0.4176550507545471,-0.5698729753494263,0.00713912770152092,-0.116487517952919,-0.09482540190219879
4.2,-0.18176019191741943,0.14524748921394348,-0.5461072325706482,0.00997500866651535,0.024155741557478905,-0.15747949481010437
4.25,-0.027754828333854675,0.20780186355113983,-0.3520198464393616,0.09442277997732162,0.07835238426923752,-0.0723639577627182
4.3,-0.12245865911245346,0.4799261689186096,0.06872338056564331,0.12899330258369446,0.02329845353960991,0.031201517209410667
4.35,-0.2416277676820755,0.17427252233028412,0.18949563801288605,-0.007438769564032555,-0.011399808339774609,0.050533778965473175
4.4,-0.16587872803211212,0.14255237579345703,-0.027383148670196533,-0.11750615388154984,-0.02061842568218708,0.07944085448980331
4.45,0.17904260754585266,0.5289698243141174,0.16925495862960815,-0.2103559523820877,0.024072926491498947,0.19249996542930603
4.5,0.528448760509491,0.27901843190193176,0.5520727634429932,-0.3700713515281677,0.1465981900691986,0.35149070620536804
4.55,0.651928186416626,-0.26326847076416016,0.6352208852767944,-0.41035327315330505,0.4077158570289612,0.4744984209537506
4.6,0.5699445605278015,-0.8142748475074768,0.29317495226860046,-0.2587708830833435,0.8397843837738037,0.4062805473804474
4.65,0.11257927119731903,-1.0586491823196411,-0.2082245647907257,-0.0009727776050567627,1.1387081146240234,0.13512924313545227
4.7,-0.43582838773727417,-0.8136359453201294,-0.5210227966308594,0.19762682914733887,1.0410324335098267,-0.17893774807453156
4.75,-0.8694286346435547,-0.2562256455421448,-0.5113715529441833,0.2870672941207886,0.6570173501968384,-0.26584503054618835
4.8,-1.0678727626800537,0.46231648325920105,-0.1139095276594162,0.2946438193321228,0.28651872277259827,-0.14932426810264587
4.85,-0.8684762120246887,0.7948799729347229,0.11609893292188644,0.18289391696453094,0.18767490983009338,-0.1749793142080307
4.9,-0.466507226228714,0.3907632827758789,0.08429048210382462,0.03338645398616791,0.25072595477104187,-0.20231851935386658
4.95,-0.18484807014465332,0.12116049975156784,0.048024531453847885,0.037329964339733124,0.25022318959236145,-0.07778671383857727
5.0,-0.060529883950948715,0.0852804183959961,0.014946920797228813,0.07695712149143219,0.16994708776474,-0.03980085626244545
5.05,0.0008780770003795624,-0.08098603039979935,-0.04952972009778023,0.040360964834690094,0.04260746389627457,-0.011878786608576775
5.1,-0.0017970465123653412,-0.0007104804390110075,-0.12041227519512177,0.011893216520547867,-0.09627176076173782,0.08048053085803986
5.15,-0.027563637122511864,0.24964335560798645,-0.09297262132167816,-0.025385886430740356,-0.18542343378067017,0.1701061874628067
5.2,0.05866201967000961,0.3310241997241974,0.1316128671169281,-0.10961572825908661,-0.23907922208309174,0.29318365454673767
5.25,0.18149025738239288,0.2143860012292862,0.38926368951797485,-0.22698935866355896,-0.25959259271621704,0.46371644735336304
5.3,0.39370280504226685,-0.0005531333736144006,0.6047229170799255,-0.3343849778175354,-0.20750656723976135,0.5513331890106201
5.35,0.7226804494857788,-0.2278156280517578,0.528101921081543,-0.3553156852722168,0.029638253152370453,0.4343065917491913
5.4,0.906044602394104,-0.7894955277442932,0.015194453299045563,-0.2698928117752075,0.4367563724517822,0.2512826919555664
5.45,0.5287125110626221,-0.8590613007545471,-0.38810884952545166,-0.05938020721077919,0.8189260363578796,0.07578512281179428
5.5,-0.19273537397384644,-0.7819739580154419,-0.6230735182762146,0.08161845803260803,0.9667633771896362,-0.22550590336322784
5.55,-0.9638351798057556,-0.39884865283966064,-0.604164183139801,0.20256611704826355,0.7321746945381165,-0.34357479214668274
5.6,-1.4259390830993652,0.3631276488304138,-0.30423471331596375,0.2975744307041168,0.38525155186653137,-0.3026259243488312
5.65,-1.0358339548110962,0.7370347380638123,0.017827795818448067,0.24484819173812866,0.20605076849460602,-0.30907532572746277
5.7,-0.23141677677631378,0.749669075012207,0.43194136023521423,0.08048128336668015,0.16878782212734222,-0.2700609266757965
5.75,-0.02216087281703949,0.20859815180301666,0.15152545273303986,-0.0917293131351471,0.2283969223499298,-0.23331154882907867
5.8,-0.10649459809064865,-0.17696763575077057,-0.21569865942001343,-0.08237780630588531,0.19360461831092834,-0.15782251954078674
5.85,0.00643400102853775,-0.22203923761844635,-0.26707515120506287,-0.005482491105794907,0.08506667613983154,-0.08341442048549652
5.9,0.018865197896957397,-0.1845836639404297,-0.2322678118944168,0.012793554924428463,0.018028194084763527,-0.038298141211271286
5.95,-0.10484020411968231,-0.11153794825077057,-0.14532703161239624,0.010691972449421883,-0.06361246109008789,0.027947869151830673
6.0,-0.14855526387691498,0.010227194987237453,-0.05536453053355217,0.01924998313188553,-0.17769134044647217,0.11232119053602219
6.05,-0.16969478130340576,0.08588600158691406,-0.12063490599393845,0.010927818715572357,-0.2687532305717468,0.18674908578395844
6.1,-0.42223402857780457,0.29624176025390625,-0.3519493341445923,-0.00353357195854187,-0.3821711838245392,0.3809584677219391
6.15,-1.0713605880737305,0.8490086197853088,-0.5578665137290955,-0.018321126699447632,-0.6410356163978577,0.691519021987915
6.2,-1.6462342739105225,1.3088312149047852,-0.8966505527496338,-0.1281040608882904,-0.8754478096961975,0.7242261171340942
6.25,-1.56144380569458,1.3281041383743286,-1.4855364561080933,-0.33113038539886475,-0.7735965847969055,0.22711201012134552
6.3,-1.0371183156967163,1.1546136140823364,-1.8275368213653564,-0.3949200510978699,-0.5272366404533386,-0.338963121175766
6.35,-0.7284153699874878,1.4055911302566528,-1.41270911693573,-0.36280298233032227,-0.4308416247367859,-0.6744488477706909
6.4,-0.4794057011604309,1.6137001514434814,-0.20743942260742188,-0.5159122347831726,-0.6231502294540405,-0.9039801359176636
6.45,-0.011788874864578247,0.4399242401123047,1.0584381818771362,-0.8804340958595276,-1.1368061304092407,-1.0956127643585205
6.5,0.526279866695404,-1.0194637775421143,2.008653402328491,-1.0660682916641235,-1.6809797286987305,-1.2431385517120361
6.55,1.1860878467559814,-1.7826521396636963,2.6936604976654053,-0.9222719073295593,-1.888881802558899,-1.3054910898208618
6.6,1.8593077659606934,-2.528564691543579,2.766134262084961,-0.46017342805862427,-1.6262562274932861,-1.4638748168945312
6.65,2.0717966556549072,-2.063042402267456,2.0263988971710205,0.2548542022705078,-1.1176854372024536,-1.3912183046340942
6.7,2.32405948638916,-0.6479052305221558,0.8313837051391602,0.8089216351509094,-0.4281722605228424,-1.1189883947372437
6.75,2.0071372985839844,-0.3837507963180542,-0.3468017280101776,1.00575590133667,0.46515098214149475,-1.2505667209625244
6.8,0.83633953332901,-0.5349310636520386,-1.7311843633651733,0.9281399250030518,1.0512959957122803,-1.4233626127243042
6.85,0.2537328600883484,0.4872867465019226,-1.5816287994384766,0.5625848770141602,0.9980132579803467,-1.03151535987854
6.9,0.30929678678512573,0.5000077486038208,-0.7183547616004944,0.1362105906009674,1.0495306253433228,-0.8887753486633301
6.95,0.18509384989738464,-0.7923288941383362,-0.6637422442436218,0.022184640169143677,1.2530913352966309,-0.988458514213562
7.0,0.4165920615196228,-0.9227896332740784,-0.09610716253519058,0.15779325366020203,1.0660749673843384,-0.5318440794944763
7.05,0.34671950340270996,-0.6529026031494141,-0.010745354928076267,0.2400505542755127,0.799590528011322,-0.21496301889419556
7.1,-0.2420128881931305,-0.3096218407154083,-0.1325121521949768,0.1562381237745285,0.4277843236923218,0.041507478803396225
7.15,-0.31912627816200256,0.4030742943286896,0.11359556019306183,0.07878288626670837,-0.11272759735584259,0.5474852323532104
7.2,0.020047366619110107,0.7061091065406799,0.3094826638698578,-0.0017839372158050537,-0.3382120132446289,0.7222641110420227
7.25,0.21575532853603363,0.5856810212135315,0.31548863649368286,-0.01948036253452301,-0.2567491829395294,0.538051426410675
7.3,0.22256170213222504,0.20845894515514374,0.188197061419487,-0.032484427094459534,-0.23008452355861664,0.3830459713935852
7.35,0.14732250571250916,0.17196372151374817,-0.06645865738391876,-0.039134278893470764,-0.36557966470718384,0.4155261814594269
7.4,0.019795015454292297,0.49507245421409607,-0.3776533007621765,-0.018287241458892822,-0.3485223948955536,0.4132169783115387
7.45,-0.1723940223455429,0.6005240082740784,-0.1326267272233963,-0.014776229858398438,-0.23741471767425537,0.32498809695243835
7.5,0.023326650261878967,0.7175360321998596,0.41679343581199646,0.06366989016532898,-0.1495095044374466,0.1510200947523117
7.55,-0.09609530866146088,0.45837119221687317,0.32191258668899536,0.13935500383377075,-0.07439364492893219,0.0538879930973053
7.6,0.03317685425281525,0.14605049788951874,-0.528374433517456,0.05335052311420441,-0.1366083323955536,0.03708178177475929
7.65,0.7257046699523926,-0.42776769399642944,-0.7172901034355164,-0.1946408748626709,-0.20760832726955414,-0.035224251449108124
7.7,0.3398323357105255,-0.5062770843505859,-0.08850860595703125,-0.325281023979187,-0.24934767186641693,-0.08239064365625381
7.75,-0.10578450560569763,-0.18082906305789948,-0.26318806409835815,-0.19120892882347107,-0.37013429403305054,0.044408123940229416
7.8,0.0017720460891723633,-0.4129972457885742,-1.1274672746658325,-0.025814086198806763,-0.375827819108963,0.19666464626789093
7.85,-0.0017380118370056152,-0.6882057189941406,-1.4879297018051147,-0.11727365851402283,-0.5495951175689697,0.5557581782341003
7.9,0.2355346381664276,-0.15391628444194794,-1.1258838176727295,-0.40975359082221985,-1.098878264427185,1.183585286140442
7.95,0.6056169867515564,0.45300307869911194,-0.7479671835899353,-0.7548438310623169,-1.3239456415176392,1.425044059753418
8.0,0.8758236169815063,0.37574687600135803,-0.04753543809056282,-1.05904221534729,-1.064383625984192,1.363144040107727
8.05,1.0026823282241821,-0.7307615876197815,1.10518217086792,-1.135926604270935,-0.6993775963783264,1.5016006231307983
8.1,0.98077791929245,-1.2450820207595825,1.8357669115066528,-0.6946021914482117,-0.18153321743011475,1.7333658933639526
8.15,0.9211212992668152,-1.6471197605133057,1.3745626211166382,0.10304957628250122,0.6770603060722351,1.4201984405517578
8.2,0.5646693706512451,-2.043523073196411,0.4220012426376343,0.8257443308830261,1.3267433643341064,0.8399502038955688
8.25,-0.5116133689880371,-0.8128110766410828,-0.11046744138002396,1.342501163482666,1.24036705493927,0.36808717250823975
8.3,-1.3828896284103394,0.706941545009613,-0.3465651869773865,1.4057923555374146,0.7255821824073792,0.012624160386621952
8.35,-2.040564775466919,2.16298770904541,0.27118808031082153,1.1260284185409546,0.13249710202217102,0.03994430601596832
8.4,-1.8007413148880005,1.9539967775344849,0.3524891436100006,0.682601273059845,-0.02896181121468544,-0.26034778356552124
8.45,-1.0378583669662476,1.048598289489746,0.03115059994161129,0.2785440981388092,0.0337507463991642,-0.31359541416168213
8.5,-0.4616125524044037,0.8059836030006409,0.20127597451210022,0.08325035870075226,0.005345882382243872,-0.14830976724624634
8.55,0.10777769982814789,0.07730773091316223,-0.1919834464788437,-0.03415888547897339,0.0992545560002327,-0.2584095597267151
8.6,0.015008315443992615,0.027861613780260086,-0.2417377531528473,-0.06085088104009628,0.06672284007072449,-0.10927842557430267
8.65,-0.35268646478652954,0.14569948613643646,-0.11354824900627136,-0.05510672181844711,0.012684063985943794,-0.05246242508292198
8.7,-0.4160163998603821,0.16040228307247162,0.01875150389969349,-0.0332963690161705,-0.02399071864783764,-0.07094886153936386
8.75,-0.33313193917274475,0.2911529541015625,0.21954591572284698,-0.004994353279471397,-0.029699670150876045,-0.06966081261634827
8.8,-0.2696734070777893,0.09147737920284271,0.0392707996070385,-0.0002859756350517273,0.08470956981182098,-0.149481400847435
8.85,-0.19624507427215576,0.0372762531042099,0.057730723172426224,0.03172174096107483,0.1117308959364891,-0.12465637922286987
8.9,-0.21178026497364044,0.09551143646240234,-0.052542608231306076,0.025985516607761383,0.04697663336992264,-0.04580757021903992
8.95,-0.26304876804351807,0.30285361409187317,-0.19366192817687988,-0.054817911237478256,-0.09224661439657211,0.11858364194631577
9.0,-0.11157312244176865,0.5313253998756409,-0.14865991473197937,-0.19358882308006287,-0.2922329902648926,0.4005557894706726
9.05,0.09675442427396774,0.25781920552253723,0.21458399295806885,-0.2935580611228943,-0.345169335603714,0.5909830927848816
9.1,0.40934741497039795,-0.331145316362381,0.7038272023200989,-0.24223972856998444,-0.009609580039978027,0.5163577795028687
9.15,0.7763703465461731,-1.1339484453201294,0.5535768270492554,-0.08504951745271683,0.6222620010375977,0.22927673161029816
9.2,0.4857969284057617,-1.375346302986145,0.19031180441379547,0.14680880308151245,1.020856499671936,0.07626418769359589
9.25,-0.2074393928050995,-0.7958804368972778,-0.07103733718395233,0.32188743352890015,0.9928118586540222,-0.10405790060758591
9.3,-0.811720073223114,-0.029764235019683838,-0.24082839488983154,0.3430568277835846,0.7077028155326843,-0.2417459636926651
9.35,-1.2213119268417358,0.5505055785179138,-0.0987815260887146,0.338189959526062,0.3775371015071869,-0.15453018248081207
9.4,-1.0691055059432983,0.6494778990745544,-0.021895281970500946,0.2844465374946594,0.27397459745407104,-0.153630331158638
9.45,-0.449393093585968,0.3107109069824219,-0.08331857621669769,0.18122458457946777,0.35484403371810913,-0.24963945150375366
9.5,-0.2931758761405945,0.24806499481201172,0.021162133663892746,0.09460018575191498,0.36681216955184937,-0.2558673322200775
9.55,-0.35657674074172974,0.015628792345523834,-0.10394631326198578,0.0020598694682121277,0.2518296241760254,-0.196568563580513
9.6,-0.26833316683769226,0.027848226949572563,-0.05474104359745979,-0.004590518772602081,0.07241804152727127,-0.053433556109666824
9.65,-0.18126583099365234,0.20062734186649323,0.0665859803557396,-0.011357607319951057,0.010829418897628784,-0.031640708446502686
9.7,-0.1493011713027954,0.05185031145811081,0.06264467537403107,-0.05868039280176163,0.013794828206300735,-0.11748632788658142
9.75,-0.22900938987731934,0.2020254284143448,-0.03630732744932175,-0.07475321739912033,-0.04409976303577423,-0.06615237146615982
9.8,-0.2971295714378357,0.4005575478076935,-0.05363499000668526,-0.12177331000566483,-0.1800089180469513,0.08957602828741074
9.85,-0.2430923730134964,0.5879917740821838,0.11153730750083923,-0.20217649638652802,-0.32894325256347656,0.3444995582103729
9.9,0.07884871959686279,0.5373097062110901,0.5323833227157593,-0.3449183702468872,-0.34895455837249756,0.4789574444293976
9.95,0.5379747152328491,-0.17925168573856354,0.7582140564918518,-0.47078871726989746,-0.10288640856742859,0.3884556293487549
10.0,0.833930253982544,-0.8458386063575745,0.5857162475585938,-0.41824600100517273,0.3512815833091736,0.2773762345314026
10.05,0.8212363719940186,-1.2252331972122192,0.24399633705615997,-0.22630977630615234,0.8076062202453613,0.15351249277591705
10.1,0.32354944944381714,-1.134109616279602,-0.27300262451171875,0.04039863869547844,1.1080245971679688,0.0024318303912878036
10.15,-0.40557220578193665,-0.6821280121803284,-0.5530014038085938,0.2457454800605774,1.1030088663101196,-0.13412992656230927
10.2,-0.9685767889022827,-0.13026244938373566,-0.4379414916038513,0.33155280351638794,0.815199077129364,-0.22888131439685822
10.25,-1.1993309259414673,0.26849454641342163,-0.2288704216480255,0.35018861293792725,0.49659818410873413,-0.2695945203304291
10.3,-1.038620948791504,0.6403083205223083,0.010720260441303253,0.3535456955432892,0.3039514720439911,-0.2899872064590454
10.35,-0.6403980255126953,0.8765974640846252,0.12076504528522491,0.30665576457977295,0.2187068611383438,-0.29728928208351135
10.4,-0.16624845564365387,0.3349466323852539,0.10273773968219757,0.13395261764526367,0.1652972251176834,-0.21904326975345612
10.45,-0.054013319313526154,0.0010900446213781834,0.010006885975599289,0.04891577363014221,0.13019168376922607,-0.11528157442808151
10.5,-0.10073971003293991,-0.0693664625287056,-0.11859995871782303,0.06148224323987961,0.07132342457771301,-0.07381872087717056
10.55,-0.09473741054534912,-0.15400220453739166,-0.08944118767976761,0.06990747898817062,-0.046495791524648666,-0.023521753028035164
10.6,-0.03409021720290184,-0.08000565320253372,-0.05596917122602463,0.07115718722343445,-0.13414646685123444,0.025667523965239525
10.65,-0.024767139926552773,0.018248561769723892,-0.07365868240594864,0.045030705630779266,-0.17184460163116455,0.052445441484451294
10.7,-0.09704561531543732,0.11429501324892044,0.023481663316488266,0.013990893959999084,-0.25951436161994934,0.12547612190246582
10.75,-0.15668973326683044,0.1607370376586914,0.05623864009976387,-0.0033703744411468506,-0.3966798782348633,0.26384463906288147
10.8,-0.29018914699554443,0.2747344970703125,0.15297479927539825,-0.043133825063705444,-0.4874083995819092,0.2974601686000824
10.85,-0.23444387316703796,0.3436574935913086,0.2052011787891388,-0.11415950208902359,-0.40151599049568176,0.11308401823043823
10.9,0.09483141452074051,0.1915941685438156,-0.0015726224519312382,-0.1364298164844513,-0.21992740035057068,-0.11458893865346909
10.95,-0.012575536966323853,0.3334208130836487,-0.29021719098091125,-0.05339706316590309,-0.18759162724018097,-0.10329996794462204
11.0,-0.77571702003479,1.420523762702942,-0.3018069267272949,-0.01418226957321167,-0.3856942355632782,0.08508012443780899
11.05,-1.8211822509765625,2.601162910461426,-0.4156593382358551,-0.30964797735214233,-0.5377853512763977,0.04302376136183739
11.1,-2.426553249359131,2.529481887817383,-0.46015211939811707,-0.8908481001853943,-0.6076619029045105,-0.2731626629829407
11.15,-2.2945497035980225,1.636703610420227,-0.36063241958618164,-1.4378342628479004,-0.8686098456382751,-0.7569567561149597
11.2,-1.4762167930603027,0.4070377051830292,-0.3764956295490265,-1.73389732837677,-1.2810713052749634,-1.373818278312683
11.25,-0.43693625926971436,-0.7703010439872742,0.21667705476284027,-1.613269329071045,-1.6069468259811401,-1.9082657098770142
11.3,0.49715861678123474,-1.7082874774932861,1.3892931938171387,-1.0252470970153809,-1.6581124067306519,-2.1533560752868652
11.35,0.919325590133667,-2.753547430038452,2.0904617309570312,-0.07087552547454834,-1.5146652460098267,-2.0327484607696533
11.4,1.2786017656326294,-2.5757181644439697,1.9158756732940674,0.9138931035995483,-1.3845832347869873,-1.4412325620651245
11.45,2.6208009719848633,-1.5732117891311646,1.5819344520568848,1.4112576246261597,-0.9109293818473816,-0.8014029264450073
11.5,2.9203295707702637,-1.3897207975387573,-0.2985394299030304,1.5621472597122192,-0.05486714467406273,-0.9641997218132019
11.55,1.7049734592437744,-0.6445339322090149,-1.7067302465438843,1.161238670349121,0.6088653802871704,-0.9889261722564697
11.6,1.035900354385376,0.579758882522583,-1.1154614686965942,0.3799394369125366,0.8186188340187073,-0.44558948278427124
11.65,0.567815899848938,0.7567827701568604,-1.047399640083313,0.04636470973491669,1.2538357973098755,-0.43357616662979126
11.7,-0.1276492476463318,-0.22345347702503204,-1.5476891994476318,0.16672208905220032,1.6881548166275024,-0.7491735816001892
11.75,-0.4737536311149597,-1.0379287004470825,-1.0078648328781128,0.19403818249702454,1.5311410427093506,-0.5256178975105286
11.8,-0.12150639295578003,-0.8740044832229614,0.2504102289676666,0.11777233332395554,1.0318095684051514,0.014942657202482224
11.85,0.05417028069496155,-0.2641192078590393,0.7090075612068176,0.13815216720104218,0.6092556118965149,0.20376726984977722
11.9,-0.16917820274829865,0.2698039710521698,0.5557173490524292,0.13590039312839508,0.3841615915298462,0.20927315950393677
11.95,-0.5533835887908936,0.15707872807979584,-0.23187358677387238,0.03019169345498085,0.41737866401672363,0.13562211394309998
12.0,-0.3405807912349701,0.4477739930152893,-0.33591288328170776,-0.009186100214719772,0.43265199661254883,0.13016878068447113
12.05,-0.2534509003162384,0.3937559425830841,0.1962512880563736,0.020615674555301666,0.39875057339668274,0.1720176637172699
12.1,-0.18363477289676666,-0.047425322234630585,0.4726816415786743,0.03374743461608887,0.13047899305820465,0.4864756464958191
12.15,0.14174526929855347,-0.21061232686042786,0.12216650694608688,0.041833847761154175,-0.1570318192243576,0.7134862542152405
12.2,0.4239550828933716,0.35429102182388306,-0.02449580281972885,0.11676579713821411,-0.20166851580142975,0.5634669661521912
12.25,-0.2093295454978943,0.7370996475219727,0.29055461287498474,0.1361394226551056,-0.12788034975528717,0.32558080554008484
12.3,-0.27718067169189453,0.9124413132667542,0.3249625861644745,0.08719201385974884,-0.33586734533309937,0.4246940016746521
12.35,0.8963527679443359,0.8483888506889343,0.1286548376083374,-0.09257367253303528,-0.4931356906890869,0.5061246752738953
12.4,1.212619423866272,0.5902225375175476,-0.0007815937278792262,-0.3260175883769989,-0.022907163947820663,0.17721585929393768
12.45,0.25531303882598877,0.0953093022108078,-0.1518179029226303,-0.43962156772613525,0.49253222346305847,-0.17112742364406586
12.5,-0.2684670686721802,-0.46319109201431274,-0.3685925304889679,-0.36653581261634827,0.46577781438827515,-0.15925346314907074
12.55,-0.23079627752304077,-0.562803328037262,-0.6756963729858398,-0.14311665296554565,0.2632223963737488,-0.09796586632728577
12.6,-0.37474989891052246,-0.6868715882301331,-0.7994056344032288,0.029680095613002777,0.032739199697971344,-0.027261797338724136
12.65,-0.11898942291736603,-0.41512587666511536,-0.5620821118354797,0.09951917082071304,-0.3991105556488037,0.3376895487308502
12.7,-0.09743200987577438,-0.19555284082889557,-0.35587412118911743,0.008833914995193481,-0.7656429409980774,0.6397289633750916
12.75,0.07478798925876617,-0.07470416277647018,-0.1235436424612999,-0.1267731487751007,-1.0274959802627563,0.80899977684021
12.8,0.5863228440284729,0.7724429368972778,0.36381426453590393,-0.1382909119129181,-1.0707451105117798,0.8596675395965576
12.85,0.638854444026947,1.2678052186965942,0.7971985936164856,-0.11229000240564346,-0.6389626264572144,0.3364560604095459
12.9,0.5666180849075317,0.6536475419998169,0.3127535283565521,-0.026528075337409973,-0.1876198798418045,-0.3236105144023895
12.95,0.45080217719078064,-0.0677909329533577,-0.30246680974960327,-0.0236290842294693,-0.21415424346923828,-0.4037145972251892
13.0,0.35170435905456543,-0.026167815551161766,-0.44905027747154236,-0.16652916371822357,-0.5968372225761414,-0.07096612453460693
13.05,0.3621577024459839,-0.5728911757469177,-1.2449043989181519,-0.31999680399894714,-1.0457947254180908,0.32715192437171936
13.1,0.8301881551742554,-0.6247071027755737,-1.620619535446167,-0.4663083553314209,-1.3362600803375244,0.7626358270645142
13.15,1.4275423288345337,-0.70866858959198,-0.9434576630592346,-0.730079174041748,-1.287280559539795,1.1266363859176636
13.2,1.8675563335418701,-1.0954256057739258,0.9491417407989502,-0.9367614984512329,-1.0549325942993164,1.6082700490951538
13.25,2.152813196182251,-1.011297345161438,2.407090663909912,-0.5970436930656433,-0.3398756980895996,1.77001953125
13.3,2.200413227081299,-1.7092667818069458,1.736946940422058,0.12433338165283203,0.8470078706741333,1.3075076341629028
13.35,1.194306492805481,-1.5357457399368286,0.669780433177948,0.5958676934242249,1.6424633264541626,1.1081076860427856
13.4,-0.5352163910865784,-0.5280886888504028,0.41837015748023987,0.7300218939781189,1.7639919519424438,1.1259454488754272
13.45,-1.8772047758102417,0.3804672956466675,0.28907468914985657,0.7564221620559692,1.5717577934265137,0.9810612797737122
13.5,-2.7033796310424805,1.131966471672058,-0.0233305711299181,0.7553868293762207,1.3196390867233276,0.7985758185386658
13.55,-2.8863258361816406,1.4131449460983276,0.042840033769607544,0.6238777041435242,1.0640605688095093,0.4970850348472595
13.6,-2.294947862625122,1.163065791130066,0.02583801932632923,0.3881435990333557,0.8458858132362366,0.10869938135147095
13.65,-1.4917950630187988,0.8833532333374023,-0.056911077350378036,0.1996203511953354,0.6096262335777283,-0.031836796551942825
13.7,-0.8817117214202881,0.47667789459228516,-0.17231868207454681,0.033700793981552124,0.4295295476913452,-0.02790939249098301
13.75,-0.723984956741333,0.14524361491203308,-0.32780036330223083,-0.05453960597515106,0.3521207273006439,-0.024617712944746017
13.8,-0.8533837795257568,0.16802117228507996,-0.3945964574813843,-0.04412243515253067,0.30345723032951355,-0.01955381967127323
13.85,-0.8557342290878296,0.2548074424266815,-0.22399523854255676,-0.03243022784590721,0.2571476399898529,-0.053613848984241486
13.9,-0.6892743110656738,0.13727469742298126,0.007544621359556913,-0.05348692089319229,0.24206608533859253,-0.139229878783226
13.95,-0.5418831706047058,-0.055399950593709946,0.02927582897245884,-0.06240120902657509,0.198661208152771,-0.21229390799999237
14.0,-0.35481467843055725,-0.015448612160980701,0.1676555722951889,-0.019283629953861237,0.09425727277994156,-0.19050419330596924
14.05,-0.10442847013473511,-0.02608969807624817,0.28375470638275146,-0.009832821786403656,0.067612424492836,-0.17474673688411713
14.1,-0.14184390008449554,-0.006382958497852087,0.054981715977191925,-0.024873770773410797,0.09290111809968948,-0.13425613939762115
14.15,-0.3017500638961792,0.010096531361341476,-0.1011461392045021,-0.007852794602513313,0.006296538282185793,0.004403895698487759
14.2,-0.2453753650188446,0.1184530183672905,0.08418463170528412,0.016581472009420395,-0.12191825360059738,0.09888983517885208
14.25,-0.1442876160144806,0.045011505484580994,0.10522312670946121,-0.027634333819150925,-0.12841181457042694,0.04050204157829285
14.3,-0.2614101469516754,0.009457568638026714,-0.0378221720457077,-0.05557414889335632,-0.1429634690284729,-0.005010167136788368
14.35,-0.4702991247177124,0.3009223937988281,-0.3326578140258789,-0.0817551240324974,-0.23295550048351288,0.07987548410892487
14.4,-0.7499189972877502,0.6922293305397034,-0.651733934879303,-0.13431508839130402,-0.38027870655059814,0.3570171296596527
14.45,-0.960031270980835,0.6850404739379883,-0.7740756273269653,-0.22380556166172028,-0.46928930282592773,0.5967771410942078
14.5,-0.8025116920471191,0.21617700159549713,-0.7886931300163269,-0.3035961091518402,-0.3638235628604889,0.5096402764320374
14.55,-0.009578198194503784,-0.34168052673339844,-0.5619485974311829,-0.22410516440868378,-0.17578406631946564,0.16471515595912933
14.6,0.7567245960235596,-0.788642942905426,-0.09191461652517319,0.03687726706266403,-0.07685189694166183,-0.06168552488088608
14.65,1.118009328842163,-0.9377737641334534,0.45417243242263794,0.32230982184410095,0.05322636663913727,-0.1452339142560959
14.7,1.3197087049484253,-1.0099506378173828,0.7383148074150085,0.4770622253417969,0.3889586627483368,-0.3368729054927826
14.75,1.056896686553955,-0.808113157749176,0.6990780234336853,0.5738627910614014,0.6330127716064453,-0.3061255216598511
14.8,0.2739746570587158,-0.1849260777235031,0.792456865310669,0.594490647315979,0.5674737691879272,-0.05830925703048706
14.85,-0.3798515200614929,0.43185803294181824,0.9508578181266785,0.4394610524177551,0.38315990567207336,-0.03586285188794136
14.9,-0.7255827784538269,0.5105990767478943,0.7562361359596252,0.2583240270614624,0.27034175395965576,-0.10015630722045898
14.95,-0.6808291673660278,0.5051707625389099,0.6602951884269714,0.16077552735805511,0.2219952791929245,-0.07800834625959396
15.0,-0.21532407402992249,0.2566804885864258,0.3513069450855255,0.0013891346752643585,0.3031625747680664,-0.11748714745044708
15.05,0.10620175302028656,-0.036417946219444275,-0.16135314106941223,-0.1156494989991188,0.38651081919670105,-0.13540978729724884
15.1,0.10821489989757538,-0.06829164922237396,-0.2480025738477707,-0.11937402188777924,0.28190356492996216,-0.07697680592536926
15.15,-0.15390989184379578,-0.028010381385684013,-0.060618191957473755,-0.0804988443851471,0.08487702161073685,0.04360664635896683
15.2,-0.3051139712333679,0.11623857170343399,0.23512311279773712,-0.060861214995384216,-0.05040178820490837,0.1298852562904358
15.25,-0.2034110724925995,0.019184080883860588,0.25836867094039917,-0.11338337510824203,-0.0299830324947834,0.09357012808322906
15.3,-0.08617033809423447,-0.1736469566822052,0.026270916685461998,-0.163413405418396,0.073219895362854,0.04543827846646309
15.35,-0.0588696226477623,-0.21163274347782135,-0.22518615424633026,-0.16350685060024261,0.11166706681251526,0.03632532060146332
15.4,-0.03957147151231766,-0.048972129821777344,-0.20081162452697754,-0.10324624180793762,-0.010789327323436737,0.08369956165552139
15.45,-0.38042503595352173,0.08780954033136368,-0.04463008791208267,-0.06578729301691055,-0.1802244484424591,0.1825161725282669
15.5,-0.45543086528778076,0.02672668732702732,0.004969778470695019,-0.05760371685028076,-0.3518528938293457,0.26790523529052734
15.55,-0.1874140202999115,0.0065984586253762245,-0.02316492795944214,-0.01888275146484375,-0.4706421196460724,0.2770741581916809
15.6,-0.15391358733177185,0.035204894840717316,-0.27399373054504395,-0.01955568790435791,-0.4253069758415222,0.24781955778598785
15.65,-0.3816193640232086,0.371672660112381,-0.5297461748123169,-0.007953017950057983,-0.5004628300666809,0.3153665363788605
15.7,-0.8368238210678101,0.49999716877937317,-0.5648475289344788,-0.04886636137962341,-0.7596322298049927,0.32957324385643005
15.75,-0.7301852107048035,0.1909007877111435,-0.3800998330116272,-0.11869828402996063,-0.9235470294952393,0.1620788276195526
15.8,0.18950779736042023,0.01389408577233553,0.2220267653465271,-0.10400296002626419,-0.8754944205284119,-0.13596712052822113
15.85,1.042272686958313,-0.2769346237182617,0.905005931854248,-0.022770702838897705,-0.6414161324501038,-0.3926735818386078
15.9,1.2357099056243896,-0.5456666946411133,0.4819141626358032,0.057849302887916565,-0.1872326135635376,-0.4567725956439972
15.95,0.4190919101238251,-0.39017772674560547,-0.2061547189950943,0.06773211061954498,0.07063296437263489,-0.3293473720550537
16.0,-0.4290403127670288,-0.22675614058971405,-0.3411605954170227,-0.014546558260917664,-0.09549514204263687,-0.3124360740184784
16.05,-0.3635587692260742,-0.1821012943983078,-0.0014392625307664275,-0.07305864989757538,-0.35483071208000183,-0.38331589102745056
16.1,0.1817934215068817,-0.00031854709959588945,0.5961026549339294,-0.009853184223175049,-0.3804764449596405,-0.3292597532272339
16.15,0.6454476714134216,0.009285950101912022,0.5595120787620544,0.06939437985420227,-0.08183491230010986,-0.3192092776298523
16.2,0.5881202220916748,-0.07733532786369324,0.2703690528869629,0.1281248927116394,0.2117426097393036,-0.3294743001461029
16.25,0.2605060338973999,-0.1392183154821396,-0.004724189173430204,0.16441847383975983,0.3088206350803375,-0.2785567045211792
16.3,-0.0025427788496017456,-0.20208455622196198,-0.18195097148418427,0.1658593714237213,0.24679619073867798,-0.16648918390274048
16.35,-0.07514128088951111,-0.11818695813417435,-0.18819646537303925,0.1547810286283493,0.12890112400054932,-0.008147599175572395
16.4,-0.15849405527114868,0.10724925994873047,-0.0006340034306049347,0.11486034095287323,0.0428122915327549,0.16045615077018738
16.45,-0.22713717818260193,0.24569417536258698,0.015450824052095413,0.0606500580906868,0.050963401794433594,0.2178562879562378
16.5,-0.08126047998666763,0.30076125264167786,0.005886768456548452,0.03482000529766083,0.05342999845743179,0.20021075010299683
16.55,0.014451229944825172,0.26227477192878723,0.029307400807738304,0.03064306080341339,0.04990040138363838,0.2007124125957489
16.6,0.03929511085152626,0.06181050464510918,-0.019656559452414513,0.02765928953886032,0.13217438757419586,0.18457239866256714
16.65,-0.11598291993141174,-0.09560205787420273,-0.06697702407836914,0.02914445847272873,0.22516877949237823,0.1538229137659073
16.7,-0.22116908431053162,0.04230879247188568,-0.03131800517439842,0.041963715106248856,0.16779886186122894,0.15970578789710999
16.75,-0.22173234820365906,0.09210680425167084,0.02845396287739277,0.029561370611190796,0.04958589747548103,0.17774845659732819
16.8,-0.30691835284233093,0.07408330589532852,0.006027169991284609,-0.011912398040294647,-0.02036220021545887,0.17833155393600464
16.85,-0.6327235102653503,0.1295156329870224,-0.30709612369537354,-0.07711401581764221,-0.1777278035879135,0.2082945853471756
16.9,-1.0147336721420288,0.2783450782299042,-0.5289361476898193,-0.12106017023324966,-0.528627872467041,0.29310959577560425
16.95,-1.0826263427734375,0.35816285014152527,-0.46801674365997314,-0.16148316860198975,-0.8760212659835815,0.3024745285511017
17.0,-0.8568382263183594,0.25577160716056824,-0.31928837299346924,-0.208041712641716,-0.9882891178131104,0.0669868141412735
17.05,-0.2284363955259323,-0.10998537391424179,-0.20998750627040863,-0.18177008628845215,-0.84470134973526,-0.4104631841182709
17.1,0.7171688675880432,-0.5598974227905273,0.05424824357032776,0.001509636640548706,-0.5559971332550049,-0.811556875705719
17.15,1.4700509309768677,-0.9027223587036133,0.585442066192627,0.25718119740486145,-0.24473188817501068,-0.8301830291748047
17.2,1.406810998916626,-0.9239674210548401,0.8877956867218018,0.39247050881385803,0.05260387435555458,-0.5142350792884827
17.25,0.8654834032058716,-0.36946773529052734,0.6668079495429993,0.3894486427307129,0.3114710748195648,-0.3191169202327728
17.3,0.3710970878601074,-0.01700398698449135,0.057738080620765686,0.27046698331832886,0.4585725665092468,-0.25133708119392395
17.35,-0.3448299169540405,0.2770099639892578,0.03689637780189514,0.1730077564716339,0.399156391620636,0.04909597709774971
17.4,-0.6765559911727905,0.31636330485343933,0.1962326467037201,0.119939424097538,0.463564395904541,0.08600509166717529
17.45,-0.4689313769340515,0.05438229441642761,-0.06987736374139786,0.026679717004299164,0.6665942668914795,-0.1023578867316246
17.5,-0.13060727715492249,0.13991260528564453,0.028536953032016754,0.007763084024190903,0.6481579542160034,-0.07514847069978714
17.55,0.11276497691869736,0.20324423909187317,0.164883092045784,0.0360880084335804,0.6181414723396301,-0.006655221804976463
17.6,-0.1016019731760025,0.3489284813404083,-0.0531243197619915,0.04459499195218086,0.6666557192802429,0.022163737565279007
17.65,-0.7774811387062073,0.7536898255348206,-0.21376056969165802,-0.014995639212429523,0.5728511214256287,0.007220817729830742
17.7,-1.5688813924789429,1.4447193145751953,0.05735364556312561,-0.1764688491821289,0.32657119631767273,-0.06676948815584183
17.75,-2.116095542907715,2.0625219345092773,0.38488343358039856,-0.5713983774185181,0.0851978212594986,-0.18167640268802643
17.8,-2.222795248031616,1.875596046447754,0.5883192420005798,-1.1936259269714355,-0.3329710364341736,-0.3444437086582184
17.85,-1.7849934101104736,1.4420899152755737,1.069979190826416,-1.7183442115783691,-1.0142817497253418,-0.5678917765617371
17.9,-0.6045714616775513,0.5437049269676208,1.1787219047546387,-1.990466833114624,-1.3841753005981445,-1.0930430889129639
17.95,0.581336259841919,-1.1720916032791138,1.1548116207122803,-1.7769496440887451,-1.410032033920288,-1.3371351957321167
18.0,1.2945438623428345,-1.9550468921661377,1.3348215818405151,-0.9941564202308655,-1.2686145305633545,-1.0061957836151123
18.05,2.220442295074463,-1.0997505187988281,0.8188704252243042,0.2520727813243866,-0.8686279058456421,-1.1610519886016846
18.1,2.901902675628662,-1.124688982963562,-0.6754759550094604,1.2271429300308228,-0.04546937718987465,-1.7702759504318237
18.15,2.5875842571258545,-1.148864507675171,-1.8548561334609985,1.3864959478378296,0.6817455887794495,-1.8338125944137573
18.2,1.618255853652954,-0.7580736875534058,-1.9744431972503662,0.9871616363525391,1.0291074514389038,-1.5915119647979736
18.25,0.6173760890960693,-0.3746393620967865,-1.988865852355957,0.48041948676109314,1.2680820226669312,-1.3681226968765259
18.3,0.397184818983078,-0.5652150511741638,-1.22991943359375,0.05815050005912781,1.3261427879333496,-0.9863892793655396
18.35,0.19627666473388672,-0.4912767708301544,-0.135558620095253,0.009825870394706726,1.186642050743103,-0.5277431607246399
18.4,-0.07077072560787201,-0.318759948015213,0.14216825366020203,0.1396644115447998,0.9554244875907898,-0.3026627004146576
18.45,-0.3708016872406006,-0.6525641083717346,-0.1967424750328064,0.14330977201461792,0.6247720122337341,0.004785982891917229
18.5,-1.0963056087493896,-0.1817217767238617,-0.4366181194782257,0.21298450231552124,0.2500598132610321,0.4238242208957672
18.55,-1.1474255323410034,-0.01998051628470421,-0.25470227003097534,0.18247070908546448,-0.2697449028491974,0.8485988974571228
18.6,-0.2809719741344452,-0.04321960732340813,0.19503675401210785,0.08394280076026917,-0.6708313226699829,0.9890133142471313
18.65,0.13318006694316864,-0.2993192970752716,0.2765045762062073,0.04177576303482056,-0.5716069936752319,0.693457305431366
18.7,0.43096935749053955,0.46242815256118774,0.47656914591789246,0.025461003184318542,-0.37933000922203064,0.5101346373558044
18.75,0.11251728236675262,0.9208728075027466,0.5728338956832886,-0.015538901090621948,-0.22743093967437744,0.40536579489707947
18.8,-0.3615191578865051,0.7803078293800354,0.494271457195282,-0.0017396509647369385,-0.2376765012741089,0.4830949604511261
18.85,-0.3698672652244568,0.8648844361305237,0.19730117917060852,-0.03140231966972351,-0.28447747230529785,0.4102534353733063
18.9,0.1593441516160965,0.4458714425563812,-0.12226037681102753,-0.18012383580207825,-0.18550726771354675,0.08558080345392227
18.95,0.28118300437927246,0.1690531224012375,-0.13439923524856567,-0.30720099806785583,-0.03496816009283066,-0.2048221081495285
19.0,-0.007910281419754028,-0.5727663040161133,-0.6255731582641602,-0.3646283745765686,-0.041658442467451096,-0.2841055393218994
19.05,0.16433006525039673,-0.5150527954101562,-0.901573121547699,-0.30065080523490906,-0.2390899658203125,0.0716044008731842
19.1,0.09282714128494263,-0.6191415786743164,-0.8403750658035278,-0.25501489639282227,-0.40809395909309387,0.36114299297332764
19.15,0.1039418876171112,-1.0673028230667114,-0.7815266847610474,-0.19822978973388672,-0.7324276566505432,0.7485269904136658
19.2,0.5658931732177734,-0.28093045949935913,-0.6496607661247253,-0.1869434118270874,-1.165271282196045,1.2607568502426147
19.25,0.913999617099762,-0.14985167980194092,-0.8498407602310181,-0.43501389026641846,-1.3409191370010376,1.4833358526229858
19.3,1.2002865076065063,-0.9123610854148865,-1.0355230569839478,-0.7719027400016785,-1.430780053138733,1.9916733503341675
19.35,1.2678277492523193,0.07950793206691742,0.25417226552963257,-0.848004162311554,-1.3809254169464111,2.6287806034088135
19.4,0.8157286643981934,-0.2282257378101349,1.1476002931594849,-0.42838597297668457,-0.6236711144447327,2.0299904346466064
19.45,0.6011868715286255,-1.2655106782913208,0.8126462697982788,0.3288661241531372,0.4070979952812195,1.3281275033950806
19.5,-0.015675082802772522,-0.8613501787185669,0.46091756224632263,0.971332311630249,1.0028778314590454,1.311997413635254
19.55,-0.7068188786506653,-0.8503362536430359,0.23337748646736145,1.273404598236084,1.0159327983856201,1.164418339729309
19.6,-1.5897839069366455,0.1305139809846878,0.718726634979248,1.4540154933929443,0.6175525784492493,1.0951521396636963
19.65,-2.029958486557007,0.9000777006149292,0.8359365463256836,1.3967394828796387,0.39320871233940125,0.7007229924201965
19.7,-1.7255537509918213,1.142598032951355,0.733360767364502,1.0476679801940918,0.4054672122001648,0.19350890815258026
19.75,-0.9532822966575623,0.9045257568359375,0.5609639883041382,0.6020174026489258,0.4872969090938568,-0.30280378460884094
19.8,-0.5764234662055969,0.4963226318359375,0.412264883518219,0.25607722997665405,0.4404112696647644,-0.49541348218917847
19.85,-0.5064330101013184,0.5544013977050781,0.5651124119758606,0.07867102324962616,0.2767571806907654,-0.42737728357315063
19.9,-0.37973710894584656,0.19384285807609558,0.36728546023368835,-0.10234539210796356,0.1534750759601593,-0.24574263393878937
19.95,-0.4071507155895233,0.1682252436876297,0.3272901773452759,-0.21140754222869873,0.1447632908821106,-0.1328514963388443
20.0,-0.34240514039993286,-0.03242114186286926,-0.03912370279431343,-0.27641791105270386,0.2076890766620636,-0.19303758442401886
20.05,-0.4570707082748413,0.03390403836965561,0.04492092505097389,-0.22170773148536682,0.10943423211574554,-0.06608091294765472
20.1,-0.45220327377319336,0.1397828757762909,0.21296530961990356,-0.20324286818504333,0.10740545392036438,-0.08510568737983704
20.15,-0.24861067533493042,-0.1245298907160759,0.2943679392337799,-0.23466768860816956,0.1329314112663269,-0.16688477993011475
20.2,-0.25633394718170166,-0.0522795170545578,0.2512536644935608,-0.21119189262390137,0.13251113891601562,-0.1625448614358902
20.25,-0.22278761863708496,-0.1041584387421608,0.04873709753155708,-0.1820375919342041,0.12850429117679596,-0.1543300300836563
20.3,-0.10041104257106781,-0.18387416005134583,0.03536150977015495,-0.13199320435523987,0.10265184193849564,-0.11376775801181793
20.35,-0.06071246415376663,-0.14524270594120026,-0.060851164162158966,-0.07264431565999985,0.10978304594755173,-0.07597580552101135
20.4,-0.15702250599861145,0.0007753255194984376,-0.02738824486732483,-0.01377737708389759,0.06786097586154938,-0.031982406973838806
20.45,-0.35700470209121704,0.0309047382324934,0.093077152967453,-0.029605764895677567,0.010066690854728222,-0.037480052560567856
20.5,-0.4826011061668396,0.008317903615534306,0.06098562479019165,-0.04863618314266205,-0.031167538836598396,-0.01090467069298029
20.55,-0.36976322531700134,0.121002197265625,-0.22644011676311493,-0.02255723439157009,-0.033353377133607864,0.025038711726665497
20.6,-0.17078757286071777,0.13490676879882812,-0.049382515251636505,0.018276633694767952,-0.05394967272877693,0.056605011224746704
20.65,0.0305451899766922,0.019039150327444077,0.14878034591674805,0.010427100583910942,-0.04144539684057236,0.05357776954770088
20.7,0.023213114589452744,0.06723308563232422,0.13730652630329132,-0.012636728584766388,-0.046550020575523376,0.07052132487297058
20.75,-0.0782492458820343,0.05319499224424362,0.14084573090076447,-0.047407280653715134,-0.04841990768909454,0.06228289380669594
20.8,-0.20014820992946625,0.1887826919555664,0.1373458355665207,-0.08222170174121857,0.005392583552747965,-0.05463375896215439
20.85,-0.17989832162857056,0.06372547894716263,-0.20033355057239532,-0.07969777286052704,0.1548934131860733,-0.31705644726753235
20.9,-0.06538164615631104,-0.15466882288455963,-0.1588631272315979,0.007012173533439636,0.17923271656036377,-0.322354793548584
20.95,0.058149874210357666,-0.03617097809910774,0.3093441128730774,0.09435603767633438,0.07744219899177551,-0.09565120190382004
21.0,-0.07666367292404175,0.06317231804132462,0.4223836362361908,0.05542854219675064,0.027852017432451248,-0.04019210860133171
21.05,-0.36155450344085693,-0.05327802523970604,0.29499951004981995,0.0025120489299297333,-0.07464083284139633,-0.0406184159219265
21.1,-0.32864630222320557,-0.020914115011692047,0.12273885309696198,-0.02492247335612774,-0.09798021614551544,-0.0464986190199852
21.15,-0.10559017211198807,0.23142816126346588,0.19670292735099792,-0.08154716342687607,-0.09247004985809326,0.014730922877788544
21.2,0.1712820678949356,0.2619324028491974,0.48909395933151245,-0.2164941281080246,-0.06955502927303314,0.12944458425045013
21.25,0.4239255487918854,-0.09779073297977448,0.6515686511993408,-0.39799270033836365,0.0964474231004715,0.21944071352481842
21.3,0.5523959994316101,-0.5566568970680237,0.5589148998260498,-0.4510714113712311,0.32636669278144836,0.3495345413684845
21.35,0.49854567646980286,-0.9502649903297424,0.04040021076798439,-0.30443689227104187,0.6014254689216614,0.42058736085891724
21.4,0.17849908769130707,-0.9675140976905823,-0.519033670425415,-0.027662336826324463,0.880925178527832,0.3068687617778778
21.45,-0.3053109645843506,-0.6952257752418518,-0.7137413620948792,0.2014937400817871,0.9836848378181458,0.12054102122783661
21.5,-0.7730356454849243,-0.22676189243793488,-0.41321247816085815,0.3321802020072937,0.8069440126419067,-0.010460665449500084
21.55,-1.1218632459640503,0.3588704466819763,-0.1019005998969078,0.37347641587257385,0.5557723045349121,-0.1676805317401886
21.6,-1.1845228672027588,0.6403149962425232,0.08895090967416763,0.32109490036964417,0.35954633355140686,-0.29795747995376587
21.65,-0.943183958530426,0.846440315246582,0.3021414577960968,0.26429182291030884,0.21755725145339966,-0.31226739287376404
21.7,-0.2881956398487091,0.3176860809326172,0.24714761972427368,0.10652205348014832,0.16680656373500824,-0.2687716782093048
21.75,-0.03362869471311569,-0.2072449028491974,-0.004421187564730644,0.0041970983147621155,0.13410384953022003,-0.16920818388462067
21.8,-0.04095322638750076,-0.15931417047977448,-0.07096538692712784,0.00885448232293129,0.030895724892616272,-0.07420358061790466
21.85,-0.0009756628423929214,-0.1583099514245987,-0.04413305222988129,-0.0011824574321508408,-0.04247426241636276,-0.02451709844172001
21.9,-0.15738309919834137,-0.09476759284734726,-0.04243452474474907,0.0030956356786191463,-0.07709061354398727,0.02060626819729805
21.95,-0.2479815036058426,-0.047065768390893936,0.11183977872133255,0.002846110612154007,-0.09117644280195236,0.023899592459201813
22.0,-0.25251662731170654,-0.05511098355054855,0.4105539917945862,-0.012951070442795753,-0.06052682548761368,-0.006428238935768604
22.05,-0.1743982583284378,0.021814309060573578,0.41817229986190796,-0.045975662767887115,-0.031427305191755295,-0.03790086880326271
22.1,-0.2557254433631897,0.14543817937374115,0.15828202664852142,-0.0969192385673523,-0.05817074701189995,0.03913866728544235
22.15,-0.5163708925247192,0.42000865936279297,0.12707722187042236,-0.1695047914981842,-0.24514806270599365,0.2928270101547241
22.2,-0.7568400502204895,0.6335124969482422,0.3178037405014038,-0.29254695773124695,-0.6040338277816772,0.6538757085800171
22.25,-0.7596283555030823,0.40487951040267944,0.6912552118301392,-0.4543861150741577,-0.8378177881240845,0.6721346974372864
22.3,-0.17973420023918152,-0.38155853748321533,0.5512433648109436,-0.5618870854377747,-0.7315790057182312,0.22740216553211212
22.35,0.6068794131278992,-0.6305838227272034,0.8766252994537354,-0.459209144115448,-0.5075404047966003,-0.20881417393684387
22.4,1.3550691604614258,-1.128963589668274,0.9637920260429382,-0.33671918511390686,-0.051295340061187744,-0.6999921202659607
22.45,1.0881966352462769,-1.1641349792480469,0.1449471116065979,-0.12560167908668518,0.476703405380249,-0.8517893552780151
22.5,0.35711777210235596,-0.22078891098499298,-0.6713228225708008,0.03906971216201782,0.7120438814163208,-0.7124977707862854
22.55,-0.22237998247146606,0.04260161891579628,-0.832459568977356,0.002170562744140625,0.653529942035675,-0.4475337266921997
22.6,-0.6553489565849304,0.061162929981946945,-0.5094835162162781,0.08249735087156296,0.46614396572113037,-0.20567475259304047
22.65,-0.7155700325965881,0.17165565490722656,-0.6892339587211609,0.1468965709209442,0.43672484159469604,-0.18069495260715485
22.7,-0.7790687084197998,0.44229796528816223,-0.757188618183136,0.11500884592533112,0.35685116052627563,-0.042103543877601624
22.75,-1.1637096405029297,0.8778858780860901,-0.8139914274215698,0.0045401304960250854,0.0888814926147461,0.20954294502735138
22.8,-1.739799976348877,1.6827117204666138,-0.926078736782074,-0.2396397441625595,-0.3825187087059021,0.6650334000587463
22.85,-2.4226479530334473,2.4428796768188477,-0.49468478560447693,-0.6637250185012817,-1.0178024768829346,1.3100720643997192
22.9,-2.74636173248291,1.9830636978149414,0.5041835308074951,-1.2918221950531006,-1.4645799398422241,1.3237091302871704
22.95,-2.0073091983795166,0.9658850431442261,1.2238754034042358,-1.6918026208877563,-1.5860999822616577,0.21820254623889923
23.0,-0.2564963102340698,-0.3916436731815338,1.2482080459594727,-1.475295066833496,-1.5935654640197754,-1.2173311710357666
23.05,1.2308602333068848,-1.4705344438552856,1.0206962823867798,-0.7273671627044678,-1.4828952550888062,-1.961092472076416
23.1,2.3732354640960693,-1.37738037109375,0.8315528035163879,0.24292433261871338,-1.1579066514968872,-2.166863441467285
23.15,2.768857002258301,-1.181045413017273,0.11071335524320602,0.9321924448013306,-0.5101847052574158,-2.233543872833252
23.2,2.3941569328308105,-1.087992548942566,-0.8632168769836426,1.0395607948303223,0.19416110217571259,-1.9257458448410034
23.25,1.704864501953125,-1.0296810865402222,-0.8255211710929871,0.7015026807785034,0.5344269871711731,-1.2400288581848145
23.3,0.5845823287963867,-0.4151286482810974,-0.9819007515907288,0.3359268307685852,0.5194027423858643,-0.6838131546974182
23.35,-0.06773599982261658,0.21917539834976196,-0.6611021757125854,0.0076154619455337524,0.3013201057910919,-0.3691306412220001
23.4,-0.13876451551914215,0.3703289031982422,0.08733193576335907,-0.21489351987838745,0.21547578275203705,-0.07331152260303497
23.45,-0.016586609184741974,0.4785747826099396,0.23056945204734802,-0.2802221179008484,0.29424887895584106,-0.08177774399518967
23.5,0.2496834397315979,-0.15648937225341797,-0.015840763226151466,-0.3293440639972687,0.33261364698410034,-0.3147013485431671
23.55,0.6156586408615112,-0.3777618110179901,-0.47781020402908325,-0.27964213490486145,0.2028590887784958,-0.17911241948604584
23.6,0.8094967007637024,-0.2795485556125641,-0.7670801281929016,-0.19651979207992554,0.035518333315849304,-0.0017452351748943329
23.65,0.631316602230072,-0.7578315734863281,-0.9142996668815613,-0.1804828643798828,-0.07506179064512253,-0.11099191755056381
23.7,0.932939887046814,-0.5785970091819763,-1.0169106721878052,-0.10509181022644043,-0.22144506871700287,-0.025985058397054672
23.75,1.3766684532165527,0.023241158574819565,0.07986873388290405,-0.05118357390165329,-0.19902293384075165,0.20380736887454987
23.8,1.931838035583496,0.24522505700588226,1.453079342842102,-0.009364306926727295,0.44391930103302,0.49386197328567505
23.85,2.380337715148926,-0.5728978514671326,1.211213231086731,0.2974141836166382,1.591413140296936,0.7037245035171509
23.9,1.655476450920105,-1.7200490236282349,0.15473341941833496,0.8493566513061523,2.5990097522735596,0.6506139039993286
23.95,-0.08908119797706604,-1.4764128923416138,-0.35061195492744446,1.3568679094314575,2.9911270141601562,0.423441082239151
24.0,-1.8619753122329712,-0.2494775652885437,-0.10435881465673447,1.4391148090362549,2.727600574493408,-0.07961656153202057
24.05,-2.8732495307922363,0.7043941617012024,0.17684848606586456,1.1632684469223022,2.106034278869629,-0.4867757260799408
24.1,-3.085198402404785,1.2392290830612183,0.13103128969669342,0.9202406406402588,1.3135381937026978,-0.5398218035697937
24.15,-2.6227505207061768,1.203318476676941,0.13144171237945557,0.6294487714767456,0.5497767329216003,-0.49836465716362
24.2,-1.6902717351913452,1.044173240661621,0.42170870304107666,0.32854318618774414,0.05217760056257248,-0.4930221438407898
24.25,-0.891095757484436,0.8234405517578125,0.6201579570770264,0.0732610672712326,-0.11464407294988632,-0.5428093075752258
24.3,-0.43737369775772095,0.49329277873039246,0.6356536746025085,-0.0777081549167633,-0.08329793810844421,-0.5697368383407593
24.35,-0.15016067028045654,0.5329151153564453,0.9153288006782532,-0.11837263405323029,0.07630223035812378,-0.6134566068649292
24.4,-0.14378827810287476,0.2969340682029724,1.1346104145050049,-0.22765806317329407,0.4153379499912262,-0.7615535259246826
24.45,-0.2782953977584839,-0.06173333525657654,1.0009815692901611,-0.2876015305519104,0.7385068535804749,-0.9688183665275574
24.5,-0.13090205192565918,-0.13592630624771118,0.6235637664794922,-0.2774501144886017,0.7862751483917236,-1.1015863418579102
24.55,0.3106902241706848,-0.029769886285066605,0.2127142697572708,-0.22586089372634888,0.7153975963592529,-1.0525805950164795
24.6,0.012324586510658264,-0.004557595122605562,-0.23267243802547455,-0.19285938143730164,0.7591572999954224,-0.9783059358596802
24.65,-0.6370251774787903,-0.24775034189224243,-0.44334760308265686,-0.09698233008384705,0.3651828169822693,-0.6825980544090271
24.7,-0.8656508922576904,0.20145703852176666,-1.0919768810272217,0.08232741802930832,-0.48869940638542175,-0.156990185379982
24.75,-0.6857225894927979,0.35276511311531067,-1.1885735988616943,0.06463006138801575,-0.9711912274360657,0.32115498185157776
24.8,0.3183791935443878,0.24512678384780884,-0.10445216298103333,0.02944013476371765,-1.2508008480072021,0.7260211706161499
24.85,0.7934054732322693,0.37368208169937134,0.6090043187141418,0.02934938669204712,-1.1763367652893066,0.8156286478042603
24.9,0.4939579367637634,0.1931915581226349,0.7215584516525269,-0.07794871926307678,-0.7940630316734314,0.6262263655662537
24.95,0.2942120432853699,0.03380106762051582,0.675421953201294,-0.2294546216726303,-0.4189234673976898,0.3281775414943695
25.0,0.1551913619041443,-0.015645040199160576,0.39626890420913696,-0.1932777464389801,-0.03321193903684616,-0.019043859094381332
25.05,0.07301906496286392,-0.34339335560798645,0.04842543601989746,0.016682934015989304,0.1298365294933319,-0.12132027745246887
25.1,0.10759778320789337,-0.07560920715332031,0.08468838781118393,0.1608552634716034,0.0077765886671841145,0.06621762365102768
25.15,0.04772799462080002,0.3233795464038849,0.24140822887420654,0.046622149646282196,-0.12133822590112686,0.1496642529964447
25.2,-0.05281054228544235,0.27915480732917786,0.08569175004959106,-0.14036640524864197,-0.12919604778289795,0.033838652074337006
25.25,-0.05335208401083946,0.15794087946414948,-0.09777205437421799,-0.15018907189369202,-0.09529310464859009,-0.027028242126107216
25.3,0.050306372344493866,0.23600582778453827,-0.0808056965470314,-0.0583508275449276,0.008900399319827557,-0.04372866451740265
25.35,-0.06748439371585846,0.21352963149547577,-0.2585146725177765,-0.06335067749023438,0.1612476259469986,-0.10701704770326614
25.4,-0.47005632519721985,0.04440880939364433,-0.7767043709754944,-0.13348782062530518,0.1215757429599762,-0.05455147847533226
25.45,-0.3341454565525055,0.04418186470866203,-1.080290675163269,-0.1270061880350113,-0.31061774492263794,0.29528549313545227
25.5,0.20926642417907715,-0.2620238959789276,-0.7980499267578125,-0.06998929381370544,-0.8402972221374512,0.8185589909553528
25.55,0.9228678941726685,-0.38243961334228516,0.1411719173192978,0.08814406394958496,-1.1049237251281738,1.2560251951217651
25.6,1.1820110082626343,-0.2047414630651474,0.9805911183357239,0.27109432220458984,-0.9390305280685425,1.385998010635376
25.65,0.942164957523346,0.1264209896326065,1.2836878299713135,0.33421388268470764,-0.4909772574901581,1.2634154558181763
25.7,0.7869260311126709,0.7048960328102112,0.8898493051528931,0.20622441172599792,0.17956098914146423,0.9352743625640869
25.75,0.04404287040233612,0.1841440051794052,0.5015853643417358,-0.2194972038269043,0.843512237071991,0.5758742690086365
25.8,-0.9445549249649048,-0.048501156270504,0.8818328976631165,-0.2996880114078522,0.821770429611206,0.5465709567070007
25.85,-0.8043656349182129,0.05810249224305153,0.8973108530044556,-0.12828460335731506,0.5300359129905701,0.3432382345199585
25.9,-0.43771177530288696,0.07227608561515808,-0.04711071401834488,0.04042951017618179,0.529012143611908,-0.03199470043182373
25.95,-0.6048468947410583,0.19760990142822266,-0.3305632174015045,0.22416749596595764,0.4608980715274811,0.008817639201879501
26.0,-0.8633379936218262,-0.02406127192080021,-0.15391826629638672,0.09133506566286087,0.10880522429943085,0.07588084042072296
26.05,-0.41717010736465454,0.07003403455018997,-0.6428169012069702,-0.08345533162355423,-0.1481349766254425,-0.030721329152584076
26.1,0.22110071778297424,0.35508638620376587,-0.22908324003219604,0.0331801101565361,-0.06802298128604889,0.031065594404935837
26.15,-0.9349722862243652,0.24939626455307007,0.19351017475128174,0.11151023209095001,0.17347654700279236,0.18461520969867706
26.2,-0.6528770923614502,-0.7850705981254578,0.22780394554138184,-0.3535325229167938,0.12754029035568237,-0.13401304185390472
26.25,-0.05679813027381897,-0.15649516880512238,0.813210129737854,-0.4052601456642151,-0.18329086899757385,-0.15370161831378937
26.3,0.38535019755363464,-0.401557981967926,0.42719602584838867,-0.17916512489318848,-0.24262450635433197,-0.014303009025752544
26.35,0.8839414119720459,-0.5748882293701172,0.11791384220123291,0.1305793672800064,0.08151469379663467,0.027646856382489204
26.4,0.13169769942760468,-0.22427178919315338,-0.15568000078201294,0.30189695954322815,0.2743654251098633,0.16875958442687988
26.45,-1.3790042400360107,-0.03490551561117172,-0.6937985420227051,0.22661547362804413,0.11797475814819336,0.1404504030942917
26.5,-0.8219879269599915,0.6258993148803711,-0.6270096898078918,0.16929632425308228,-0.39756616950035095,0.051563363522291183
26.55,0.5126861333847046,1.0818148851394653,0.1735614389181137,0.1013735979795456,-0.5350667238235474,0.005282733589410782
26.6,-0.872421145439148,-0.24354848265647888,-0.19567042589187622,0.038594700396060944,0.15988074243068695,-0.005620880052447319
26.65,-1.316619634628296,-0.8163378238677979,-0.3920022249221802,0.05801529437303543,0.3453904092311859,-0.10554522275924683
26.7,-0.4143551290035248,0.707275390625,0.16497664153575897,0.03639917075634003,0.0946737676858902,-0.36427098512649536
26.75,-0.43065571784973145,0.6355533599853516,-0.021405644714832306,-0.3508245348930359,-0.1072194054722786,-0.5939294099807739
26.8,0.012175679206848145,0.06572820991277695,-0.27937865257263184,-0.634809136390686,-0.7702974677085876,-0.451202392578125
26.85,1.7093316316604614,0.6824533343315125,0.9044851064682007,-0.6760053038597107,-1.0511579513549805,-0.18301735818386078
26.9,2.429975986480713,0.4051620364189148,1.5391180515289307,-0.7840762734413147,-0.4444469213485718,-0.02564712055027485
26.95,2.3396146297454834,-0.5045040845870972,0.6698769927024841,-0.8739790320396423,0.3946707844734192,-0.02036615088582039
27.0,1.1264253854751587,-1.8018971681594849,-0.7515057921409607,-0.9365371465682983,1.1209564208984375,-0.268979549407959
27.05,-0.6647166013717651,-2.1430680751800537,-1.7183351516723633,-0.4419059157371521,1.1796199083328247,-0.2465299516916275
27.1,-1.0189110040664673,-0.6883965134620667,-1.0456916093826294,0.16725268959999084,0.6723574995994568,-0.013839256949722767
27.15,-0.6419758200645447,0.46872997283935547,0.05811815336346626,0.2757193148136139,0.20072966814041138,0.14110241830348969
27.2,-0.45296403765678406,0.5290002822875977,0.31777969002723694,0.2641960084438324,0.008284775540232658,0.14394252002239227
27.25,-0.2734832167625427,0.9535608887672424,0.2923520803451538,0.33451467752456665,0.07455438375473022,0.12058094143867493
27.3,-0.31577953696250916,0.7957793474197388,-0.12114327400922775,0.07493643462657928,0.11905767023563385,0.040918949991464615
27.35,-0.10442608594894409,-0.15056706964969635,-0.1814819574356079,-0.236060231924057,0.03604322299361229,0.03475915268063545
27.4,0.6754162311553955,0.13799099624156952,0.5975045561790466,-0.2010013908147812,-0.04755266755819321,0.14243842661380768
27.45,0.3046618402004242,-0.24070550501346588,0.20082619786262512,-0.07877036929130554,0.14934894442558289,0.03476576879620552
27.5,-0.3920375406742096,-0.5649252533912659,-0.2407066822052002,0.17285221815109253,0.20189271867275238,-0.0009769363095983863
27.55,-0.5214844942092896,0.3240785598754883,-0.18966560065746307,0.3267133831977844,-0.01498159859329462,0.04232361912727356
27.6,-0.5853447914123535,1.0780164003372192,-0.26552343368530273,0.2127598226070404,-0.18773530423641205,0.04574931040406227
27.65,0.8151347637176514,-0.0009354593348689377,-0.4276392459869385,0.1371862143278122,-0.2560724914073944,0.17448778450489044
27.7,0.29807350039482117,-0.7902213335037231,0.09790981560945511,0.242704376578331,0.032761141657829285,0.2726191282272339
27.75,-0.5016094446182251,0.741917610168457,0.6943743824958801,0.40022268891334534,0.08944506198167801,0.2836601734161377
27.8,-0.21068543195724487,0.8327065110206604,0.5043607354164124,0.24490700662136078,-0.08017446100711823,0.10574550926685333
27.85,-0.13378430902957916,0.04248426854610443,0.11118528246879578,-0.056914594024419785,-0.22248049080371857,-0.15281856060028076
27.9,0.08223102241754532,-0.3711681365966797,-0.24925558269023895,-0.3975179195404053,-0.2944257855415344,-0.4299767017364502
27.95,-0.08653586357831955,-0.12026597559452057,-0.18184444308280945,-0.6031794548034668,-0.44501084089279175,-0.5551273822784424
28.0,0.34428903460502625,0.561491072177887,0.3775951862335205,-0.5828186273574829,-0.6098007559776306,-0.6040835976600647
28.05,1.3876757621765137,0.5781117677688599,0.6477988362312317,-0.5053389668464661,-0.2144879847764969,-0.9102200269699097
28.1,1.6101833581924438,-0.40826505422592163,0.160532608628273,-0.42078083753585815,0.5843697786331177,-1.0997637510299683
28.15,0.9158856272697449,-0.7719879150390625,-0.22987399995326996,-0.2211424559354782,0.9947969913482666,-0.7246134281158447
28.2,0.24047401547431946,-0.05457780510187149,-0.17304137349128723,-0.06923381239175797,0.8097854256629944,-0.1654023677110672
28.25,-0.29839378595352173,0.30465030670166016,-0.04488280043005943,-0.11883121728897095,0.48920929431915283,0.10246256738901138
28.3,0.040521763265132904,0.5858317017555237,-0.03953037038445473,-0.10840162634849548,0.2525146007537842,0.09786035865545273
28.35,0.06931020319461823,0.2585192322731018,-0.3642692267894745,-0.011680074036121368,0.37021341919898987,-0.20632150769233704
28.4,-0.24108916521072388,-0.07558537274599075,-0.35863444209098816,0.09548444300889969,0.46802031993865967,-0.31976908445358276
28.45,0.0588400773704052,-0.2642193138599396,-0.07928229123353958,0.0800747275352478,0.19136962294578552,-0.12604208290576935
28.5,0.2094460427761078,-0.28229621052742004,0.1388578563928604,0.03772176057100296,-0.057097114622592926,0.06541647017002106
28.55,-0.09926807880401611,0.14491651952266693,0.262958288192749,0.07087795436382294,-0.18578694760799408,0.11709907650947571
28.6,-0.12673622369766235,0.1280956268310547,0.07526610791683197,0.03982214629650116,-0.2140849232673645,-0.09926998615264893
28.65,-0.35363927483558655,-0.12420368939638138,-0.6579409241676331,0.03340248018503189,-0.10585163533687592,-0.2804359197616577
28.7,-0.16172674298286438,-0.38039687275886536,-0.7074616551399231,0.11337719112634659,-0.09228069335222244,-0.1746915727853775
28.75,-0.278618186712265,-0.6308985352516174,-0.48855260014533997,0.3018307089805603,-0.255830317735672,0.014374944381415844
28.8,-0.22248592972755432,0.4390478730201721,-0.30236005783081055,0.4476765990257263,-0.5010917782783508,0.1152300164103508
28.85,0.4532860517501831,0.9243346452713013,0.29014548659324646,0.34095463156700134,-0.7002942562103271,0.23414431512355804
28.9,0.37652334570884705,0.34710219502449036,0.49246397614479065,0.35839417576789856,-0.7910268902778625,0.5027769207954407
28.95,0.6358690857887268,0.14990808069705963,0.9006136059761047,0.459610253572464,-0.8465300798416138,0.7916144728660583
29.0,0.5310996770858765,-0.009728442877531052,0.9376399517059326,0.364498108625412,-0.691254198551178,0.8127582669258118
29.05,0.17558814585208893,-0.20876124501228333,0.2175036370754242,0.2505033016204834,-0.4713832139968872,0.599721372127533
29.1,0.317186564207077,-0.07988640666007996,-0.20780889689922333,0.24490554630756378,-0.28475308418273926,0.3715437352657318
29.15,-0.05124789476394653,0.08640577644109726,-0.2773880064487457,0.2630850076675415,-0.08074658364057541,0.28461968898773193
29.2,-0.5625301599502563,0.48965930938720703,0.06940532475709915,0.31975701451301575,-0.12547770142555237,0.327237069606781
29.25,-0.24117302894592285,0.5229091644287109,0.40959957242012024,0.2584654688835144,-0.1861412227153778,0.2942030131816864
29.3,-0.07205229997634888,-0.17882350087165833,0.05444847047328949,0.1391095519065857,-0.010923541150987148,0.14013007283210754
29.35,-0.06329848617315292,-0.7918444871902466,-0.12354360520839691,0.1813981682062149,-0.10559164732694626,0.211659237742424
29.4,0.5540478229522705,-0.5792417526245117,0.10427127778530121,0.31850990653038025,-0.4338417053222656,0.4581085443496704
29.45,-0.7021216154098511,0.15434928238391876,0.10000760853290558,0.3248410224914551,-0.31908050179481506,0.45852652192115784
29.5,-1.2708685398101807,0.4690074622631073,-0.09015966206789017,0.2017003446817398,-0.2967374622821808,0.19067904353141785
29.55,-0.4503328800201416,0.0710000991821289,-0.5270726680755615,0.1631992906332016,-0.2576448321342468,-0.06260180473327637
29.6,-0.22114154696464539,0.11238578706979752,-0.6469828486442566,0.22176557779312134,-0.16272668540477753,-0.24007724225521088
29.65,-0.38973259925842285,0.033568374812603,-0.3627338707447052,0.1410587728023529,-0.30763179063796997,-0.45900091528892517
29.7,-0.3640972971916199,-0.05551055818796158,-0.038490794599056244,0.05406153202056885,-0.5540534853935242,-0.628656268119812
29.75,0.4058084487915039,-0.14476777613162994,0.573835551738739,0.05230805277824402,-0.49279704689979553,-0.8971537947654724
29.8,1.056957721710205,-0.2869386672973633,1.0380678176879883,0.20348787307739258,0.05023930221796036,-1.3190252780914307
29.85,1.4325907230377197,-0.007849627174437046,0.932581901550293,0.4015808701515198,0.5903612375259399,-1.3613510131835938
29.9,1.2205429077148438,0.2716589868068695,0.7690333127975464,0.24431514739990234,0.875842273235321,-1.0024174451828003
29.95,0.25572940707206726,0.2129373848438263,0.40662434697151184,-0.09727288782596588,0.8245060443878174,-0.556918203830719
30.0,-0.13773901760578156,0.7954474091529846,0.5138811469078064,-0.18754026293754578,0.5731719732284546,-0.19250771403312683
30.05,-0.07235158979892731,0.5712318420410156,0.5836688876152039,-0.2507314383983612,0.7157614231109619,-0.23801873624324799
30.1,-0.32343170046806335,0.6140576004981995,-0.08827424794435501,-0.18212294578552246,1.0912611484527588,-0.5278835296630859
30.15,0.10512114316225052,0.44106966257095337,0.082962766289711,-0.0629611611366272,1.3658115863800049,-0.6350594758987427
30.2,0.2576124370098114,-0.2970161736011505,0.15686136484146118,-0.03530913591384888,1.5543214082717896,-0.8492674231529236
30.25,0.3679267168045044,-0.41816043853759766,-0.27571234107017517,-0.03712686896324158,1.2114108800888062,-0.8993760943412781
30.3,0.11519521474838257,-0.13397499918937683,-0.6990621089935303,-0.010164201259613037,0.5559492707252502,-0.5110713243484497
30.35,-0.928735613822937,0.11969760060310364,-1.5518444776535034,0.10187967866659164,-0.16754263639450073,0.04314224794507027
30.4,-0.599925696849823,0.3985634744167328,-1.343652367591858,0.1534530520439148,-0.8067092299461365,0.5433322787284851
30.45,0.37399396300315857,0.3504791855812073,-0.2069309502840042,0.12408331036567688,-0.9781580567359924,0.7910277843475342
30.5,0.5373188853263855,0.2287493199110031,0.4327666163444519,0.12468031048774719,-0.8551674485206604,0.845940113067627
30.55,0.37260305881500244,0.487093985080719,0.6169497966766357,0.013148993253707886,-0.6916248798370361,0.7370662093162537
30.6,0.068122997879982,0.4531117081642151,0.30905696749687195,-0.2033739537000656,-0.3555847704410553,0.4526652991771698
30.65,-0.4022257328033447,0.25182437896728516,-0.05676618590950966,-0.26840105652809143,0.0014895565109327435,0.19526556134223938
30.7,-0.23655807971954346,0.0816793367266655,-0.09519968926906586,-0.22378264367580414,0.04543350264430046,0.054621536284685135
30.75,0.32764655351638794,-0.1751689910888672,0.09882466495037079,-0.1488541066646576,0.03150644525885582,-0.04090658575296402
30.8,0.745162844657898,-0.42644596099853516,0.26443764567375183,-0.059638217091560364,0.20419123768806458,-0.20239533483982086
30.85,0.5225101709365845,-0.5254716873168945,0.09268531948328018,-0.028251439332962036,0.3891736567020416,-0.3188304901123047
30.9,0.1511382758617401,0.0537576861679554,0.057671837508678436,-0.0023681670427322388,0.260923832654953,-0.14466413855552673
30.95,-0.26032477617263794,0.6347132325172424,0.09380136430263519,-0.025436967611312866,0.07991597056388855,0.11059579998254776
31.0,-0.3868488371372223,0.218135803937912,0.35418450832366943,-0.09256043285131454,-0.10772940516471863,0.30753326416015625
31.05,-0.36622563004493713,-0.03520113229751587,0.42722052335739136,-0.08115959167480469,-0.22773194313049316,0.31352028250694275
31.1,-0.082726389169693,0.29569435119628906,0.18068677186965942,0.005698975175619125,-0.11843522638082504,0.11702049523591995
31.15,0.023117385804653168,0.2098846733570099,0.08906721323728561,-0.012113128788769245,0.06959466636180878,-0.04667222499847412
31.2,-0.11779981106519699,0.01823042333126068,0.11492414772510529,-0.06308446824550629,0.04079331457614899,-0.057269204407930374
31.25,-0.05336823686957359,-0.05450727045536041,0.02834647335112095,-0.07290758937597275,-0.08975967764854431,-0.03728422895073891
31.3,-0.05288655310869217,0.06930161267518997,-0.04983245208859444,-0.0616484060883522,-0.11163216084241867,0.009580518119037151
31.35,0.018069054931402206,0.31890204548835754,-0.001142176566645503,-0.08630828559398651,-0.08972703665494919,0.06805422157049179
31.4,-0.08043888211250305,-0.025340085849165916,-0.07131080329418182,-0.1747017204761505,-0.0007484935340471566,0.040974974632263184
31.45,-0.051954325288534164,-0.1457834392786026,-0.1585121899843216,-0.12152998894453049,0.014843292534351349,0.03800492361187935
31.5,0.05591553449630737,0.027895942330360413,-0.12113082408905029,-0.039146922528743744,0.021829266101121902,0.015204627998173237
31.55,0.046501170843839645,0.015356071293354034,-0.028377601876854897,-0.03980044275522232,0.050745319575071335,-0.017054392024874687
31.6,0.002527160570025444,0.08152485638856888,0.047417495399713516,-0.03928884118795395,0.027265071868896484,-0.011813487857580185
31.65,-0.04748406261205673,0.105683334171772,0.022127293050289154,-0.04845365136861801,0.01389257237315178,-0.021619372069835663
31.7,-0.060924045741558075,0.021587368100881577,0.010665485635399818,-0.03814513981342316,0.009037993848323822,-0.01850196160376072
31.75,-0.09611130505800247,0.06004524230957031,0.0044934810139238834,-0.02294989861547947,-0.0036968430504202843,-0.0028487020172178745
31.8,-0.15183624625205994,0.12562274932861328,-0.014484303072094917,-0.04411030560731888,-0.03525008261203766,0.01379737351089716
31.85,-0.10963141918182373,0.12771034240722656,0.05816235393285751,-0.07250963896512985,-0.1212012842297554,0.07108008861541748
31.9,0.137870192527771,0.09294415265321732,0.2249480038881302,-0.0534108504652977,-0.2550409138202667,0.20660407841205597
31.95,0.4148554801940918,0.14880850911140442,0.3075542449951172,-0.0286320298910141,-0.30403006076812744,0.2740950286388397
32.0,0.4964752793312073,0.22221285104751587,0.21785075962543488,-0.0920635387301445,-0.1620483100414276,0.15979237854480743
32.05,0.3676903545856476,-0.01556107122451067,-0.0540100634098053,-0.1572122871875763,0.010378790087997913,0.055353857576847076
32.1,0.30568039417266846,0.061698004603385925,-0.17097193002700806,-0.13066509366035461,0.0683731660246849,0.07879920303821564
32.15,-0.04695025086402893,0.017628688365221024,-0.3378816246986389,-0.18617305159568787,0.2010609358549118,-0.02551219053566456
32.2,-0.3795859217643738,-0.2574920952320099,-0.41618210077285767,-0.17845995724201202,0.21586944162845612,-0.0606817901134491
32.25,-0.371959924697876,0.0041951946914196014,-0.21587395668029785,-0.06823203712701797,0.057431045919656754,0.014836903661489487
32.3,-0.3491883873939514,0.15143679082393646,-0.12372307479381561,-0.042643118649721146,-0.05727120861411095,0.028583506122231483
32.35,-0.3242031931877136,-0.04444601386785507,-0.1275099515914917,-0.06869285553693771,-0.09500972181558609,0.008762610144913197
32.4,-0.6112664937973022,-0.2582769989967346,-0.34650060534477234,-0.06822346895933151,-0.03304851055145264,-0.1184040978550911
32.45,-0.5380721092224121,-0.31800466775894165,-0.4003516137599945,0.027341745793819427,-0.03777458891272545,-0.20422068238258362
32.5,-0.16135939955711365,-0.2831249535083771,-0.2956677973270416,0.12098409980535507,-0.06351228058338165,-0.26439619064331055
32.55,0.19151028990745544,-0.08133411407470703,0.11280697584152222,0.19283241033554077,-0.10578038543462753,-0.2871764898300171
32.6,0.5494890809059143,0.008414280600845814,0.5998767614364624,0.2173345386981964,-0.19333982467651367,-0.1973492056131363
32.65,0.24862995743751526,-0.127992644906044,0.45726460218429565,0.257930189371109,-0.2045706808567047,-0.17258018255233765
32.7,-0.09841307997703552,-0.06672383844852448,-0.06960044056177139,0.3724535405635834,-0.2608295679092407,-0.1439158022403717
32.75,-0.06485731899738312,0.40957075357437134,-0.25156083703041077,0.3904404044151306,-0.24202828109264374,-0.09933885186910629
32.8,0.006829863414168358,0.4302130341529846,0.0472467802464962,0.25794467329978943,-0.18153826892375946,-0.06565682590007782
32.85,0.20808956027030945,0.24295809864997864,0.33857569098472595,0.14595849812030792,-0.24729962646961212,-0.012119844555854797
32.9,0.3528139591217041,0.04063798114657402,0.3959861993789673,0.0841526910662651,-0.24387536942958832,-0.030097071081399918
32.95,0.38103556632995605,-0.122160904109478,0.1776934564113617,0.09042666107416153,-0.14563341438770294,-0.037555091083049774
33.0,0.34180766344070435,0.10383705794811249,-0.029003862291574478,0.1184653639793396,-0.04216116666793823,-0.005062111187726259
33.05,0.11989425867795944,0.14788249135017395,-0.08923962712287903,0.05998016521334648,0.05922287702560425,0.01534732524305582
33.1,-0.01025514304637909,0.0751943588256836,0.0628523901104927,0.014770768582820892,0.03349277377128601,0.08893302083015442
33.15,0.04093338921666145,0.27672675251960754,0.1855510175228119,5.814060568809509e-05,-0.04218728840351105,0.1309504210948944
33.2,0.015938442200422287,0.36780551075935364,0.09142569452524185,-0.07470905035734177,0.04284915700554848,0.055231962352991104
33.25,-0.11465628445148468,0.259001761674881,-0.1010151281952858,-0.1411149501800537,0.15448977053165436,0.016514921560883522
33.3,-0.3320755362510681,0.274509459733963,-0.25975462794303894,-0.1776876002550125,0.13687467575073242,0.068433478474617
33.35,-0.39474159479141235,0.11202812194824219,-0.29929468035697937,-0.22501978278160095,0.003079938469454646,0.1405763179063797
33.4,-0.2958661913871765,-0.012572303414344788,-0.19956491887569427,-0.1910979151725769,-0.19461633265018463,0.2253393977880478
33.45,0.08068522810935974,-0.287871390581131,0.15899960696697235,-0.08587682247161865,-0.29435995221138,0.21109941601753235
33.5,0.40263259410858154,-0.41347411274909973,0.29021722078323364,0.04326275363564491,-0.16634535789489746,-0.010400330647826195
33.55,0.32901495695114136,-0.2851734161376953,-0.061965398490428925,0.13536620140075684,0.003560587065294385,-0.16198837757110596
33.6,0.2247965931892395,-0.07865522056818008,-0.23559175431728363,0.16791260242462158,0.056165434420108795,-0.10292141139507294
33.65,0.063687764108181,-0.09089277684688568,-0.23528653383255005,0.15586118400096893,0.08296523243188858,-0.08164580911397934
33.7,-0.05888689309358597,0.05296899005770683,-0.1429363191127777,0.20287272334098816,0.039919622242450714,-0.0044108363799750805
33.75,-0.14070896804332733,0.4198141396045685,0.07708863914012909,0.20925560593605042,-0.00017658610886428505,0.14313536882400513
33.8,-0.15697000920772552,0.31197166442871094,0.21616700291633606,0.09711167216300964,0.005033859051764011,0.19456173479557037
33.85,-0.04354715347290039,0.17517757415771484,0.30292412638664246,0.0407533198595047,-0.028072630986571312,0.2081068456172943
33.9,0.03344418853521347,0.022860515862703323,0.2779344320297241,0.01982228457927704,-0.038253434002399445,0.18249468505382538
33.95,0.2635852098464966,-0.015923496335744858,0.27324816584587097,0.020048562437295914,-0.024836743250489235,0.1267216056585312
34.0,0.34467488527297974,0.06595900654792786,0.16380134224891663,-0.012900343164801598,0.09121710062026978,0.04264730587601662
34.05,0.06990019977092743,-0.05983543023467064,-0.11383349448442459,-0.05654061585664749,0.2390589714050293,-0.02341635897755623
34.1,-0.07084987312555313,-0.028779033571481705,-0.11455558985471725,-0.008749215863645077,0.25057730078697205,-0.011899614706635475
34.15,-0.12058471143245697,0.15676212310791016,0.10362609475851059,0.008055152371525764,0.24500422179698944,0.00042713520815595984
34.2,-0.18857455253601074,0.19554519653320312,0.29531607031822205,-0.06452307105064392,0.2721741795539856,-0.041215136647224426
34.25,-0.424334853887558,0.06282134354114532,0.2245500683784485,-0.17627014219760895,0.32064780592918396,-0.13729189336299896
34.3,-0.37693676352500916,0.09911153465509415,0.13444004952907562,-0.22236093878746033,0.3071747124195099,-0.19734379649162292
34.35,-0.10333774238824844,0.29651549458503723,0.06519179046154022,-0.17223788797855377,0.3283865749835968,-0.24085909128189087
34.4,0.038874030113220215,0.30881980061531067,0.2325356900691986,-0.14004288613796234,0.32376381754875183,-0.2431928515434265
34.45,0.2755785882472992,0.024416927248239517,0.3825875222682953,-0.1115153506398201,0.253814160823822,-0.17461729049682617
34.5,0.437452495098114,-0.0959625169634819,0.23423567414283752,-0.0011567622423171997,0.34862011671066284,-0.14573438465595245
34.55,0.1961747407913208,-0.2385101318359375,-0.13067534565925598,0.0793352946639061,0.5062237977981567,-0.18589574098587036
34.6,-0.20822367072105408,-0.10346128791570663,-0.1989775002002716,0.15568937361240387,0.33211296796798706,-0.10905799269676208
34.65,-0.3781493306159973,0.19270993769168854,-0.35366198420524597,0.181158646941185,0.13368894159793854,-0.06328823417425156
34.7,-0.18268612027168274,-0.02313227578997612,-1.1238535642623901,0.15408682823181152,0.11085378378629684,-0.11039407551288605
34.75,0.29744836688041687,0.32290852069854736,-1.2206802368164062,0.19064900279045105,-0.032475538551807404,-0.09662285447120667
34.8,-0.08270585536956787,0.453925222158432,-0.6587942838668823,0.1272251456975937,-0.1326363980770111,-0.001260078395716846
34.85,-0.6475436091423035,-0.5763455033302307,-0.7130550742149353,0.15368402004241943,-0.540934145450592,0.33589106798171997
34.9,0.10646887123584747,-0.5725269317626953,-0.5475631356239319,0.46769240498542786,-1.0955466032028198,0.8951268196105957
34.95,-0.4285351037979126,0.5715055465698242,0.4085298180580139,0.495673269033432,-0.7904885411262512,1.1458669900894165
35.0,-1.3151280879974365,0.41731056571006775,1.7266254425048828,0.16606658697128296,-0.6014896631240845,1.106493353843689
35.05,-0.6073869466781616,0.5576875805854797,3.4967565536499023,-0.043612152338027954,-0.7088671922683716,0.7713349461555481
35.1,0.7888866662979126,0.4206046164035797,3.739582061767578,-0.40256646275520325,-0.07586698234081268,-0.320723295211792
35.15,1.7607125043869019,-0.43984031677246094,1.6787753105163574,-0.5735569000244141,0.8209100961685181,-1.3157535791397095
35.2,1.5479199886322021,-0.37234294414520264,-0.17724232375621796,-0.48594367504119873,1.2957763671875,-1.428066611289978
35.25,0.42788171768188477,-0.2917174696922302,-0.8115277290344238,-0.478998064994812,1.4026859998703003,-1.1377756595611572
35.3,-0.2169869989156723,-0.43624117970466614,-0.6848220229148865,-0.2964847981929779,1.0300562381744385,-0.6457902789115906
35.35,0.10119228065013885,-0.46197131276130676,-0.43391525745391846,-0.004316642880439758,0.5902578830718994,-0.3131464123725891
35.4,-0.0359724760055542,-0.2465219497680664,-0.5286482572555542,0.07982823252677917,0.6270730495452881,-0.33531829714775085
35.45,-0.35126808285713196,0.026130668818950653,-0.32079997658729553,0.06226474791765213,0.7285531759262085,-0.24893926084041595
35.5,-0.2986454367637634,0.04286763072013855,0.13360434770584106,0.07758307456970215,0.6290667653083801,-0.12223533540964127
35.55,0.3091585636138916,0.13033010065555573,0.4611125588417053,0.11823384463787079,0.43009355664253235,-0.04754161089658737
35.6,0.7382141351699829,0.2347927838563919,0.316851407289505,0.06238485872745514,0.5166618824005127,-0.0610286146402359
35.65,0.1745961308479309,0.2104225754737854,-0.1837834268808365,-0.04386455565690994,0.7189961075782776,-0.11079031974077225
35.7,-0.27158379554748535,0.015497221611440182,-0.590680718421936,-0.024228069931268692,0.7099736928939819,-0.1250735968351364
35.75,-0.4270515739917755,-0.2534618675708771,-0.5545787811279297,0.025098692625761032,0.5879371762275696,-0.11670055985450745
35.8,-0.2422475814819336,0.10909558832645416,-0.34516385197639465,0.0654611587524414,0.2565605044364929,-0.07449515908956528
35.85,-0.017103150486946106,0.5935335755348206,-0.48927927017211914,0.0992862656712532,-0.03663560748100281,-0.04124922677874565
35.9,-0.2733987271785736,0.5114851593971252,-0.5917708277702332,0.10226446390151978,-0.17592859268188477,0.04423348605632782
35.95,-0.29717928171157837,0.0477619506418705,-0.8736512064933777,0.17666950821876526,-0.38895562291145325,0.18238677084445953
36.0,0.3167651295661926,-0.3533410429954529,-1.0365043878555298,0.5318822264671326,-0.515309751033783,0.4747220575809479
36.05,-0.575468897819519,0.48076725006103516,0.09277082234621048,0.8230796456336975,-0.4084685742855072,0.8734270334243774
36.1,-1.0817837715148926,0.2821749150753021,1.394502878189087,0.8612669110298157,-0.9827373623847961,1.276444673538208
36.15,1.2528927326202393,0.6338004469871521,3.417266368865967,0.7167845368385315,-1.4706817865371704,1.1560204029083252
36.2,2.3368239402770996,0.40859606862068176,4.010751247406006,-0.25968945026397705,-0.5103057026863098,0.19833414256572723
36.25,2.295062303543091,-0.1438722163438797,2.2392897605895996,-1.0683481693267822,0.6198299527168274,-0.7786585092544556
36.3,1.4893059730529785,-0.14287462830543518,0.3543226420879364,-1.2374368906021118,1.1945797204971313,-1.1010860204696655
36.35,-0.08289727568626404,-0.482669860124588,-0.7172463536262512,-1.0821218490600586,1.2896218299865723,-0.931614100933075
36.4,-1.2480826377868652,-0.17863087356090546,-1.2044817209243774,-0.4972397983074188,0.8188743591308594,-0.5825290083885193
36.45,-1.2234413623809814,0.07604596763849258,-1.2811932563781738,-0.07988803833723068,0.4121483564376831,-0.3054547607898712
36.5,-0.37388908863067627,-0.6638746857643127,-0.8394996523857117,0.1552768349647522,0.23735740780830383,-0.0421578474342823
36.55,-0.015604659914970398,-0.9504462480545044,-0.41418638825416565,0.408768892288208,0.09358533471822739,-0.004560371395200491
36.6,0.4428698420524597,-0.12236879020929337,-0.01688249222934246,0.48796749114990234,0.004478214308619499,-0.10704156756401062
36.65,0.8691231608390808,0.33025652170181274,0.5489583015441895,0.3783760070800781,0.013344966806471348,-0.045507535338401794
36.7,0.6292176246643066,0.3735065758228302,1.0035232305526733,0.24130165576934814,0.07408217340707779,0.025324076414108276
36.75,0.42691826820373535,0.5013123154640198,1.100167155265808,0.10428129881620407,0.1508578211069107,-0.04216010123491287
36.8,0.6952919960021973,0.5553789734840393,0.7438766360282898,0.014891430735588074,0.29994040727615356,-0.14725802838802338
36.85,0.20064710080623627,0.1381988674402237,0.19041094183921814,-0.013604871928691864,0.504254162311554,-0.18795140087604523
36.9,-0.11761759221553802,-0.09727860987186432,-0.16917695105075836,0.06010428071022034,0.5200263261795044,-0.16824191808700562
36.95,0.03131239116191864,-0.011659610085189342,-0.171065092086792,0.14055025577545166,0.39740025997161865,-0.0877370685338974
37.0,0.06934916973114014,-0.06844139099121094,-0.03825307637453079,0.14698447287082672,0.23417070508003235,0.014257984235882759
37.05,0.3021196126937866,0.018701594322919846,-0.23659735918045044,0.146137535572052,0.08551137894392014,0.08601371198892593
37.1,-0.19711026549339294,0.4994116425514221,-0.4686920940876007,0.07552094757556915,-0.06420343369245529,0.06499573588371277
37.15,-0.17054517567157745,1.0556708574295044,-0.30613699555397034,0.012050999328494072,-0.2811200022697449,-0.0027836549561470747
37.2,-0.24768847227096558,0.7380161881446838,-0.20138965547084808,-0.04501893371343613,-0.3882252275943756,0.044086750596761703
37.25,-0.4497930407524109,-0.1876526176929474,-0.6011672616004944,0.10981231927871704,-0.77570641040802,0.31896957755088806
37.3,-0.7844654321670532,0.0032701026648283005,-0.33965593576431274,0.4313586354255676,-1.1834089756011963,0.66241455078125
37.35,-1.3397915363311768,0.027829967439174652,0.77371746301651,0.6642583012580872,-1.364066481590271,1.0054854154586792
37.4,1.3992244005203247,0.47688862681388855,3.523099422454834,0.6178017854690552,-1.4268596172332764,1.023440957069397
37.45,2.933138608932495,0.022666912525892258,4.571535110473633,-0.20988483726978302,-0.6164261698722839,0.34140026569366455
37.5,2.583653688430786,-0.30187124013900757,2.217538356781006,-0.9017168283462524,0.4504956007003784,-0.5971198678016663
37.55,1.584974765777588,-0.030927520245313644,-0.09202897548675537,-1.1412365436553955,1.1261985301971436,-1.0406543016433716
37.6,0.1424371600151062,-0.48737141489982605,-1.0982117652893066,-1.0617341995239258,1.2645875215530396,-0.9284279346466064
37.65,-0.10722726583480835,-0.4535560607910156,-1.1628258228302002,-0.5068857073783875,0.8811292052268982,-0.563482403755188
37.7,0.41140830516815186,-0.06824201345443726,-0.5348232984542847,-0.06063522398471832,0.4964291453361511,-0.2295697033405304
37.75,0.09731550514698029,0.15822412073612213,0.18203431367874146,-0.008667375892400742,0.4625129699707031,-0.10886430740356445
37.8,-0.39655882120132446,0.15081971883773804,0.7084054946899414,-0.15954692661762238,0.494176983833313,-0.10912708193063736
37.85,-0.29762589931488037,0.07902330905199051,0.5532127618789673,-0.24053850769996643,0.39574113488197327,-0.18727777898311615
37.9,0.019013244658708572,-0.2828731834888458,-0.12859831750392914,-0.18373052775859833,0.3300745189189911,-0.29838308691978455
37.95,0.197005495429039,-0.2793540954589844,-0.44052472710609436,-0.036823928356170654,0.32823771238327026,-0.3252559006214142
38.0,0.07131379842758179,-0.10137557238340378,-0.23549339175224304,0.07277622818946838,0.280826210975647,-0.29394713044166565
38.05,0.21985866129398346,0.6604586243629456,-0.1099209412932396,0.10667047649621964,0.00010194261994911358,-0.16009941697120667
38.1,-0.010396517813205719,0.6974039673805237,-0.22116787731647491,0.08320228010416031,-0.25101402401924133,0.06911031901836395
38.15,-0.4444175958633423,0.21685221791267395,-0.622953474521637,0.09852591156959534,-0.3801223635673523,0.18681380152702332
38.2,-0.8645182847976685,-0.6803818345069885,-1.3439855575561523,0.24294577538967133,-0.557378888130188,0.4489603638648987
38.25,-0.5359724760055542,-0.8025933504104614,-1.0034505128860474,0.6815118193626404,-1.1210325956344604,0.9937044978141785
38.3,0.040001243352890015,0.3718127906322479,0.9325100779533386,1.0082248449325562,-1.5998420715332031,1.4113175868988037
38.35,1.0662841796875,0.3886747360229492,2.496372938156128,1.104541540145874,-1.869180679321289,1.5119961500167847
38.4,3.0389795303344727,1.1724215745925903,4.1598992347717285,0.8687037825584412,-1.4781802892684937,1.033278226852417
38.45,2.697479009628296,0.7611838579177856,3.486281156539917,-0.3835736811161041,0.07254478335380554,-0.09483540803194046
38.5,1.1960405111312866,-0.2603578567504883,1.2559176683425903,-1.3305399417877197,1.2439428567886353,-0.9904972314834595
38.55,0.26781684160232544,0.10270791500806808,-0.24006840586662292,-1.3590664863586426,1.3623759746551514,-1.252480387687683
38.6,-0.830500602722168,-0.555723249912262,-1.1787023544311523,-0.9573733806610107,1.0877598524093628,-1.0116233825683594
38.65,-0.7300813794136047,-0.8110190629959106,-1.0884833335876465,-0.30703088641166687,0.6090364456176758,-0.5635486245155334
38.7,-0.012483149766921997,-0.6230621933937073,-0.45427489280700684,-0.006767243146896362,0.25301551818847656,-0.2985333502292633
38.75,0.4673633575439453,-0.3263378143310547,0.05083167180418968,0.11635071784257889,0.06652648001909256,-0.17299172282218933
38.8,0.8652502298355103,0.33053499460220337,0.5120856165885925,0.20830197632312775,0.004407372325658798,-0.1273963749408722
38.85,0.7751086950302124,0.3706122040748596,0.5882065296173096,0.09691943228244781,0.14565058052539825,-0.16374169290065765
38.9,0.6218400597572327,0.1546078324317932,0.21833360195159912,0.08034133911132812,0.2607526481151581,-0.20011672377586365
38.95,0.41357722878456116,0.4187966287136078,-0.09625642001628876,0.1450066864490509,0.2538348138332367,-0.23811453580856323
39.0,-0.022083252668380737,0.6380683183670044,-0.5453320741653442,0.0881204828619957,0.20422916114330292,-0.20080916583538055
39.05,-0.2501557767391205,0.7459908127784729,-0.23818565905094147,0.026736292988061905,0.021303994581103325,-0.09641378372907639
39.1,-0.25485676527023315,0.4279690086841583,-0.06034450978040695,-0.0012297183275222778,-0.4709145724773407,0.11093353480100632
39.15,-0.6581548452377319,-0.5276156067848206,-0.6564908623695374,0.09765134751796722,-1.245363712310791,0.6570345759391785
39.2,-0.9164406061172485,-0.11283212900161743,-0.5627791881561279,0.3069888949394226,-1.7090816497802734,1.1757378578186035
39.25,0.7699462175369263,0.7211504578590393,1.10871160030365,0.4018257260322571,-1.4797760248184204,1.319219946861267
39.3,2.888018846511841,0.5064699053764343,2.505764961242676,0.24687066674232483,-0.8465155363082886,1.0212321281433105
39.35,3.0004754066467285,-0.26544368267059326,1.653829574584961,-0.05218076705932617,0.2364383488893509,0.3228708803653717
39.4,1.3676986694335938,-1.2798433303833008,0.40511447191238403,-0.36995047330856323,1.1703087091445923,-0.17513379454612732
39.45,-0.5768924951553345,-1.2712756395339966,0.08424068987369537,-0.278082937002182,1.098879098892212,-0.30571264028549194
39.5,-1.028285026550293,0.0810173973441124,0.3228534758090973,0.03908136487007141,0.4844759404659271,-0.3898269832134247
39.55,-0.4535006582736969,0.6198387145996094,0.48341184854507446,0.1676902174949646,0.08457349240779877,-0.4141334295272827
39.6,0.09983040392398834,0.5158997178077698,0.5754308104515076,0.23842063546180725,-0.11183826625347137,-0.39178967475891113
39.65,0.2554817795753479,0.5470486283302307,0.8541055917739868,0.20312130451202393,-0.12291591614484787,-0.37067103385925293
39.7,0.36742913722991943,0.5459537506103516,1.2471340894699097,0.1343023180961609,-0.07483630627393723,-0.3137510418891907
39.75,1.2941017150878906,0.630862295627594,1.5757243633270264,0.09072808921337128,-0.10798374563455582,-0.2199096381664276
39.8,2.7344069480895996,0.5484239459037781,2.1421430110931396,-0.03582662716507912,-0.10393474996089935,0.0591365210711956
39.85,3.921355724334717,0.12382909655570984,2.4409523010253906,-0.36347508430480957,0.007043527439236641,0.4605492353439331
39.9,3.9576616287231445,-0.5794551968574524,1.7879750728607178,-0.8162477016448975,0.2677595913410187,0.7625105381011963
39.95,2.9480834007263184,-1.0226153135299683,0.38791823387145996,-0.9956161975860596,0.4421162009239197,0.9059096574783325
40.0,1.659407377243042,-1.292322039604187,-0.8556833267211914,-0.8459044694900513,0.4433119297027588,0.8799769282341003
40.05,0.04116225242614746,-1.2232818603515625,-1.4896081686019897,-0.5964515209197998,0.34053856134414673,0.6156754493713379
40.1,-1.0245299339294434,-0.4405556321144104,-1.5699005126953125,-0.2281600534915924,0.17457318305969238,0.39389148354530334
40.15,-1.6454068422317505,0.12684054672718048,-1.286386489868164,0.011010237038135529,0.1424819976091385,0.18721050024032593
40.2,-2.1245784759521484,0.14088334143161774,-0.9613980650901794,0.014302946627140045,0.19537709653377533,-0.07961627095937729
40.25,-2.224259853363037,0.18714889883995056,-0.5528247356414795,-0.0012412071228027344,0.14699497818946838,-0.24147462844848633
40.3,-2.037876605987549,0.3537949323654175,-0.2638894021511078,-0.0006171762943267822,0.050944048911333084,-0.2984802722930908
40.35,-1.6879199743270874,0.3530348539352417,-0.08706911653280258,-0.039292290806770325,0.04222111776471138,-0.33701765537261963
40.4,-1.3911848068237305,0.3860005736351013,0.13670752942562103,-0.07944384217262268,0.10239482671022415,-0.39126214385032654
40.45,-1.0157517194747925,0.47101685404777527,0.2785601317882538,-0.15622752904891968,0.1914539784193039,-0.3650134801864624
40.5,-0.8502978086471558,0.7293663024902344,0.15020595490932465,-0.19187691807746887,0.28024283051490784,-0.24309682846069336
40.55,-0.5560264587402344,0.5728635787963867,0.023423537611961365,-0.16194665431976318,0.3246693015098572,-0.03460818901658058
40.6,-0.037812069058418274,-0.027689939364790916,-0.03133567422628403,-0.07650714367628098,0.2837836444377899,0.12405947595834732
40.65,0.2110511064529419,-0.25041675567626953,0.005824077874422073,-0.019739102572202682,0.24284660816192627,0.07380535453557968
40.7,0.14535930752754211,-0.2910814583301544,0.08791093528270721,-0.005462068133056164,0.21362856030464172,0.01635347679257393
40.75,0.05007058382034302,-0.12856391072273254,0.25680673122406006,0.08430668711662292,0.12953226268291473,0.06789690256118774
40.8,-0.2993776202201843,0.15024657547473907,0.5219203233718872,0.13059212267398834,0.0322294682264328,0.10515313595533371
40.85,-0.6402536630630493,0.6049346923828125,0.49939045310020447,0.10511960834264755,-0.07778995484113693,0.13148924708366394
40.9,-2.176609754562378,0.6824358105659485,0.5566397309303284,-0.00931018590927124,-0.19088606536388397,0.24439837038516998
40.95,-3.3803629875183105,1.2446868419647217,0.38891732692718506,0.20613989233970642,-0.649777352809906,0.7619175314903259
41.0,-3.7286481857299805,1.4787023067474365,-0.18611642718315125,0.3490447700023651,-1.0836560726165771,1.4435839653015137
41.05,-3.7041726112365723,1.3494194746017456,-1.015615463256836,0.14481008052825928,-1.2135121822357178,1.6720668077468872
41.1,-2.8497283458709717,1.2150306701660156,-1.773140549659729,-0.2994995713233948,-1.199250340461731,1.1974297761917114
41.15,-1.5697171688079834,0.4953976273536682,-2.4948177337646484,-0.8115065693855286,-1.2013540267944336,0.21655932068824768
41.2,-0.1945422887802124,-0.6282585859298706,-3.140578269958496,-0.8705263137817383,-1.4277758598327637,-0.6451945304870605
41.25,1.9631776809692383,-1.2700212001800537,-3.2101175785064697,-0.3870849907398224,-1.9645187854766846,-1.0789971351623535
41.3,4.570690155029297,-1.779778242111206,-2.3047802448272705,0.23137980699539185,-2.3327105045318604,-1.3293416500091553
41.35,5.670070171356201,-2.613954782485962,-0.6903358101844788,0.8622822761535645,-2.107836961746216,-1.4588704109191895
41.4,5.772714614868164,-2.6907827854156494,1.1551177501678467,1.5224589109420776,-1.6815690994262695,-1.142661213874817
41.45,5.399588108062744,-2.416360855102539,3.2557175159454346,1.7731819152832031,-1.1246529817581177,-0.6157832145690918
41.5,4.331940650939941,-1.5805035829544067,4.902079105377197,1.472366213798523,-0.4675943851470947,0.039484452456235886
41.55,2.7407126426696777,-0.23864470422267914,5.1734724044799805,0.8082584142684937,-0.03741813451051712,0.575593113899231
41.6,0.9560500383377075,0.9445877075195312,3.8526086807250977,0.1788100302219391,0.24412256479263306,0.5719357132911682
41.65,-0.2296411395072937,1.59913170337677,2.041856288909912,-0.15662860870361328,0.4278523027896881,0.29737159609794617
41.7,-0.42244815826416016,1.829337239265442,1.0028610229492188,-0.2731669843196869,0.5530431270599365,0.13741335272789001
41.75,-0.512910783290863,1.246658444404602,-0.15184827148914337,-0.34959518909454346,0.8644535541534424,-0.08742395043373108
41.8,0.3601423501968384,0.5706559419631958,-0.05613015592098236,-0.23239970207214355,1.1199287176132202,-0.3477140963077545
41.85,0.5209135413169861,0.1930294632911682,0.16498763859272003,-0.10847756266593933,1.1609984636306763,-0.5660886764526367
41.9,0.07156823575496674,0.1077585518360138,-0.10136286914348602,-0.05994652211666107,0.6869809627532959,-0.5224588513374329
41.95,-0.1646302491426468,0.37901028990745544,-0.6547549962997437,0.07035356760025024,0.023449067026376724,-0.11793139576911926
42.0,-0.3697511553764343,0.4435959458351135,-0.7447293400764465,0.10144200176000595,-0.35857149958610535,0.28617385029792786
42.05,0.2353016585111618,0.2684517502784729,-0.186547189950943,0.03729945421218872,-0.585211455821991,0.471977174282074
42.1,0.5103636980056763,0.10205082595348358,0.17412562668323517,0.007370561361312866,-0.6041393876075745,0.46997156739234924
42.15,0.40789610147476196,-0.091032974421978,0.2951996922492981,0.005921855568885803,-0.5204671025276184,0.32911416888237
42.2,0.487081378698349,0.059529345482587814,0.11388755589723587,0.04414094612002373,-0.2973272502422333,0.06515321135520935
42.25,0.3293260931968689,0.0069075035862624645,-0.18719905614852905,0.06492924690246582,0.11215116828680038,-0.09549977630376816
42.3,0.31219029426574707,-0.01090238057076931,0.02073882333934307,0.10905177891254425,0.3115823268890381,0.010914917103946209
42.35,0.5606623888015747,-0.15984439849853516,0.49623772501945496,0.11106936633586884,0.3338320553302765,0.1232684776186943
42.4,0.6486735343933105,-0.23020555078983307,0.7918334603309631,0.07449577748775482,0.3437386751174927,0.11234351992607117
42.45,0.5582612752914429,-0.04294300451874733,0.8191302418708801,-0.026670271530747414,0.31211861968040466,0.024223515763878822
42.5,0.1470802128314972,0.2989501953125,0.6273131966590881,-0.1629057377576828,0.2483454793691635,-0.028068628162145615
42.55,-0.2697688341140747,0.41683387756347656,0.36439040303230286,-0.2233412265777588,0.11364058405160904,0.043042730540037155
42.6,-0.33405834436416626,0.03937240689992905,0.21116547286510468,-0.2216029167175293,0.00032277865102514625,0.10520322620868683
42.65,-0.25474420189857483,-0.31785205006599426,-0.14952123165130615,-0.08321695029735565,-0.08877181261777878,0.11619873344898224
42.7,0.030497729778289795,0.035773299634456635,-0.29706794023513794,0.07444900274276733,-0.11945569515228271,0.08469785004854202
42.75,0.008275672793388367,-0.016782743856310844,-0.29895010590553284,0.03675803914666176,-0.011107285507023335,-0.06747528165578842
42.8,0.008074559271335602,-0.03631877526640892,-0.13317479193210602,0.08079198747873306,-0.027709929272532463,-0.048525165766477585
42.85,0.18058598041534424,0.25983908772468567,0.32731810212135315,0.09612999856472015,-0.07502922415733337,0.04123420640826225
42.9,0.1545550376176834,0.31769847869873047,0.5965278744697571,-0.03532470390200615,-0.07950612157583237,0.03613808751106262
42.95,0.16817152500152588,0.18950654566287994,0.5666760802268982,-0.16068512201309204,-0.07121988385915756,0.023345842957496643
43.0,0.15888440608978271,0.012547487393021584,0.35468265414237976,-0.2136312872171402,-0.018824907019734383,0.01521996222436428
43.05,0.037074971944093704,-0.11591150611639023,0.16936452686786652,-0.17479634284973145,0.020284246653318405,0.044312842190265656
43.1,0.02069198712706566,-0.10056593269109726,0.1153043881058693,-0.09992838650941849,8.238763984991238e-05,0.05888534337282181
43.15,0.06564861536026001,0.02644062601029873,0.062199708074331284,-0.05932927131652832,-0.036589544266462326,0.02049776166677475
43.2,-0.022870641201734543,0.11881066113710403,0.06107819825410843,-0.03963582217693329,-0.06043720990419388,-0.011062700301408768
43.25,-0.06471870839595795,0.15978240966796875,0.13232862949371338,-0.05210995301604271,-0.06027768552303314,-0.04417005553841591
43.3,0.011279813945293427,-0.055459994822740555,0.2167036533355713,-0.06595844775438309,-0.044245894998311996,-0.09249034523963928
43.35,0.20047599077224731,-0.01974487490952015,0.29615360498428345,-0.003907110542058945,-0.06599674373865128,-0.09193159639835358
43.4,0.3641577959060669,0.11926844716072083,0.22012586891651154,-0.022868160158395767,-0.003681355621665716,-0.14276784658432007
43.45,0.19807589054107666,-0.0024061028379946947,-0.012537196278572083,-0.1291162222623825,0.1301620751619339,-0.2178712785243988
43.5,-0.04817299172282219,-0.06010150909423828,-0.16793927550315857,-0.1551443189382553,0.14108823239803314,-0.16943718492984772
43.55,-0.008988812565803528,0.08903028070926666,-0.17102979123592377,-0.10816425085067749,0.07031639665365219,-0.09741946309804916
43.6,-0.07686007022857666,0.11029817909002304,-0.20947079360485077,-0.11138608306646347,0.08746274560689926,-0.12773634493350983
43.65,-0.21531184017658234,0.1402263641357422,-0.182487353682518,-0.14151687920093536,0.11794520914554596,-0.18511457741260529
43.7,-0.18755215406417847,0.0336914025247097,-0.14405575394630432,-0.1287909746170044,0.06643253564834595,-0.16522708535194397
43.75,-0.2633668780326843,-0.1324167549610138,-0.2093290090560913,-0.06371640413999557,-0.0005526527529582381,-0.10219534486532211
43.8,-0.3462817668914795,-0.2667246460914612,-0.14664548635482788,0.08129271119832993,-0.10089363902807236,-0.014366996474564075
43.85,-0.05029226467013359,-0.09610369056463242,0.06773582845926285,0.25415274500846863,-0.23723189532756805,0.07309580594301224
43.9,0.004071450792253017,-0.07685662060976028,-0.02838265895843506,0.28226011991500854,-0.2317724972963333,0.0596148818731308
43.95,-0.061537567526102066,-0.18212510645389557,-0.14030157029628754,0.23355048894882202,-0.14242805540561676,0.010562807321548462
44.0,0.09941121935844421,-0.20062068104743958,0.04363839328289032,0.23432514071464539,-0.09057044982910156,-0.05442396178841591
44.05,0.2077614963054657,-0.14927007257938385,0.3028772473335266,0.30964991450309753,-0.09355635941028595,-0.15406781435012817
44.1,0.41626572608947754,0.20735934376716614,0.5270671248435974,0.3764966130256653,-0.12656378746032715,-0.21804974973201752
44.15,0.35702449083328247,0.24702265858650208,0.5862439274787903,0.2963009476661682,-0.059213947504758835,-0.2645195722579956
44.2,0.18685397505760193,0.13470648229122162,0.6871868371963501,0.17516307532787323,-0.014134741388261318,-0.23242983222007751
44.25,0.10181805491447449,0.0703105702996254,0.7018086910247803,0.09215697646141052,-0.017674027010798454,-0.19463896751403809
44.3,-0.08926045894622803,-0.08640101552009583,0.28597116470336914,0.0653587281703949,-0.021945146843791008,-0.2124035656452179
44.35,-0.145445317029953,-0.01458645798265934,-0.08656688034534454,0.09057217091321945,-0.07685304433107376,-0.15829195082187653
44.4,-0.10493361949920654,0.22116568684577942,-0.24172312021255493,0.08685042709112167,-0.08790165185928345,-0.04590880125761032
44.45,0.011634163558483124,0.310001403093338,-0.08431848138570786,0.0497615747153759,-0.09555960446596146,0.08387962728738785
44.5,0.17878825962543488,0.3266763985157013,0.3749757707118988,0.009162932634353638,-0.1086818054318428,0.1605786234140396
44.55,0.22110360860824585,0.20464803278446198,0.5498661398887634,-0.059197667986154556,-0.008875280618667603,0.11450240015983582
44.6,0.1447940170764923,0.0965576246380806,0.2996009886264801,-0.1288549304008484,0.10697159171104431,0.023870624601840973
44.65,-0.02061046101152897,-0.03916836157441139,-0.04828692972660065,-0.14194044470787048,0.1137930378317833,0.028492111712694168
44.7,-0.07901650667190552,-0.04755306616425514,-0.1766454577445984,-0.09026800096035004,0.02661292254924774,0.11288820207118988
44.75,-0.033342018723487854,0.02600957080721855,-0.183163583278656,-0.04163931682705879,-0.0279281847178936,0.11835376918315887
44.8,-0.05013861507177353,-0.09372711181640625,-0.2194703072309494,-0.019691677764058113,0.016552044078707695,0.046674203127622604
44.85,-0.017918381839990616,-0.12338734418153763,-0.12849721312522888,0.03627559170126915,0.04980985447764397,0.037239909172058105
44.9,0.1128750741481781,-0.011131285689771175,0.1273680031299591,0.09093614667654037,0.015778586268424988,0.12821774184703827
44.95,0.2521071434020996,0.053916942328214645,0.31924399733543396,0.0757778137922287,-0.015105455182492733,0.21202710270881653
45.0,0.25683292746543884,-0.057216644287109375,0.22181293368339539,0.03567029535770416,0.02659783326089382,0.198075532913208
45.05,0.280688613653183,-0.08329104632139206,0.11200231313705444,0.03051324188709259,0.05933878570795059,0.19603027403354645
45.1,0.2604924440383911,-0.0880737155675888,0.006897216662764549,0.047344841063022614,0.09430990368127823,0.24825257062911987
45.15,0.044789016246795654,0.04090023785829544,-0.015624216757714748,0.08048313856124878,0.17517532408237457,0.2779063284397125
45.2,-0.3264567255973816,-0.015666987746953964,-0.052726417779922485,0.09607716649770737,0.2575603723526001,0.22336909174919128
45.25,-0.4599699378013611,0.07827183604240417,0.012693011201918125,0.12548111379146576,0.23861701786518097,0.12163876742124557
45.3,-0.24854318797588348,0.19178295135498047,0.15727533400058746,0.14395542442798615,0.17818351089954376,0.026044458150863647
45.35,-0.16199152171611786,0.15480518341064453,-0.03816494345664978,0.16965830326080322,0.22854410111904144,-0.057336341589689255
45.4,-0.1651902049779892,0.13770677149295807,-0.13476034998893738,0.1568848341703415,0.28929516673088074,-0.09548826515674591
45.45,-0.08507059514522552,-0.04529763385653496,-0.01644509844481945,0.11853846907615662,0.2179182916879654,-0.036532096564769745
45.5,-0.019000697880983353,-0.061462417244911194,0.10891515016555786,0.160989448428154,0.08861815184354782,0.05058535933494568
45.55,-0.033405013382434845,-0.005550396628677845,0.14867471158504486,0.18462546169757843,0.03554325923323631,0.06379181891679764
45.6,0.05046255514025688,0.08078289031982422,0.1768147051334381,0.15617090463638306,0.012572331354022026,0.07061243057250977
45.65,0.13481459021568298,0.04409408941864967,0.20787236094474792,0.11144433915615082,-0.0006223616655915976,0.07423396408557892
45.7,0.16670572757720947,-0.009473803453147411,0.2701665759086609,0.09581609815359116,0.010188375599682331,0.0772898867726326
45.75,-0.12564745545387268,0.24342060089111328,0.3729199171066284,0.07017996907234192,0.08656530827283859,0.06321827322244644
45.8,-0.23283234238624573,0.408049613237381,0.3695317506790161,-0.026624348014593124,0.1627282202243805,0.011599872261285782
45.85,0.050062038004398346,0.25484755635261536,0.22694191336631775,-0.09124138206243515,0.2191876918077469,-0.02616160362958908
45.9,0.24149435758590698,0.02774813026189804,0.04105939343571663,-0.08458367735147476,0.2987114489078522,-0.008469666354358196
45.95,0.0853961855173111,-0.18605710566043854,0.09315633028745651,-0.05356846749782562,0.27935531735420227,-0.008163445629179478
46.0,-0.11215057969093323,-0.18696407973766327,0.35118821263313293,0.03338057920336723,0.19235628843307495,-0.06759324669837952
46.05,-0.07943461090326309,-0.17970946431159973,0.15774764120578766,0.11261723935604095,0.24572207033634186,-0.1520576924085617
46.1,-0.08168523013591766,-0.33321571350097656,-0.43150389194488525,0.11321288347244263,0.2705020308494568,-0.1633315086364746
46.15,-0.0634705126285553,0.3381892144680023,-0.9814590811729431,0.1162920743227005,0.104823537170887,-0.1306157410144806
46.2,-0.22933515906333923,0.9189378619194031,-0.9872928857803345,0.05380892753601074,0.135054811835289,-0.191024050116539
46.25,-0.6054399609565735,0.20516875386238098,-0.7686641216278076,-0.01579098403453827,0.06672416627407074,-0.1703839898109436
46.3,-0.29307419061660767,-0.06557369232177734,-0.5123034715652466,0.1215672492980957,-0.43302619457244873,0.266914039850235
46.35,-0.9040098190307617,0.32285016775131226,-0.0440329872071743,0.15430188179016113,-0.8899508118629456,0.9116114377975464
46.4,-1.118168592453003,-0.1484968066215515,1.0443195104599,0.14644169807434082,-1.244154691696167,1.3181442022323608
46.45,0.2244347333908081,0.3010748624801636,2.841331958770752,0.10397303104400635,-0.9407926797866821,0.8875572681427002
46.5,1.0032212734222412,-0.08981140702962875,2.7527263164520264,-0.45243895053863525,0.03599635511636734,-0.3230801522731781
46.55,1.619044542312622,-0.579106330871582,1.3807286024093628,-0.6911395192146301,0.6634279489517212,-1.1092740297317505
46.6,1.381264567375183,-0.15520083904266357,-0.16207022964954376,-0.5736204981803894,1.0205297470092773,-1.226136565208435
46.65,0.36717861890792847,-0.4127664268016815,-1.1032426357269287,-0.46082985401153564,1.102910041809082,-1.001903772354126
46.7,-0.08390840888023376,-0.23329351842403412,-0.9569014310836792,-0.153629869222641,0.8296695947647095,-0.5837739706039429
46.75,0.1751152127981186,-0.023036915808916092,-0.4538188576698303,0.05057471990585327,0.6182246208190918,-0.3494834899902344
46.8,0.3468438982963562,-0.17228315770626068,-0.07660932093858719,0.08328574150800705,0.5592138767242432,-0.26085278391838074
46.85,0.10714453458786011,-0.013173112645745277,0.27467024326324463,0.014016792178153992,0.5875704288482666,-0.2802942991256714
46.9,0.053037434816360474,0.2819337844848633,0.4801884591579437,-0.11620640009641647,0.5685325860977173,-0.3600507378578186
46.95,-0.15329432487487793,0.27271366119384766,0.3230879306793213,-0.19103996455669403,0.43875399231910706,-0.33625558018684387
47.0,0.12214095145463943,0.2495918869972229,-0.3327315151691437,-0.18303033709526062,0.4674110412597656,-0.3943319320678711
47.05,0.19953234493732452,0.1057930663228035,-0.5446249842643738,-0.1464126706123352,0.7136669158935547,-0.4455736577510834
47.1,-0.20243172347545624,-0.16891290247440338,-0.3683614134788513,-0.045303717255592346,0.5742098689079285,-0.2792375683784485
47.15,-0.0843825489282608,0.14220336079597473,-0.4181157648563385,0.09119173884391785,0.11166223138570786,-0.12410980463027954
47.2,-0.11600027978420258,0.4854966104030609,-0.6920512318611145,0.12998929619789124,-0.22319228947162628,-0.005681780166924
47.25,-0.8238646984100342,0.11554910242557526,-1.1362630128860474,0.1746678203344345,-0.38330748677253723,0.15939654409885406
47.3,0.03083503246307373,-0.5198487639427185,-1.5678824186325073,0.4592270851135254,-0.6388691067695618,0.4667453467845917
