Time [s],Acc_x [m/s^2],Acc_y [m/s^2],Acc_z [m/s^2],Gyro_x [1/s],Gyro_y [1/s],Gyro_z [1/s]
0.0,0.0005354793975129724,0.2963905334472656,-0.0024164600763469934,-0.0010903342626988888,0.0006650686846114695,-0.0016788648208603263
0.025,0.011000855825841427,0.28989505767822266,-0.0017320930492132902,-0.0010905584786087275,0.0006647359114140272,-0.0016788514330983162
0.05,0.027841854840517044,0.2622232437133789,0.0001360299065709114,-0.001125628361478448,0.0006846681935712695,-0.0016481780912727118
0.075,0.0408487506210804,0.22934436798095703,0.0046592229045927525,-0.0019351644441485405,0.0011898551601916552,-0.0009218674385920167
0.1,0.0363159254193306,0.2173624038696289,0.0023970413021743298,-0.002341602696105838,0.0021379180252552032,-0.00027213324210606515
0.125,0.02022359147667885,0.2146472930908203,-0.011424913071095943,-0.0013873870484530926,0.0025421029422432184,-0.0007180763641372323
0.15,0.01819697953760624,0.22252178192138672,-0.01831412874162197,-0.0013413320994004607,0.002525904681533575,-0.000754106673412025
0.175,0.019399825483560562,0.25340843200683594,-0.008501113392412663,-0.0012084918562322855,0.001766163157299161,-0.0011511556804180145
0.2,0.019185438752174377,0.28284740447998047,-0.0007923883385956287,-0.00033033688669092953,0.000996526563540101,-0.002030921634286642
0.225,0.023042889311909676,0.2822847366333008,-0.015399370342493057,0.0006470395601354539,0.001318780123256147,-0.002526773838326335
0.25,0.019864659756422043,0.2735748291015625,-0.029869647696614265,-4.901971260551363e-05,0.001057130633853376,-0.0021870839409530163
0.275,0.01631789840757847,0.26201438903808594,-0.02100757509469986,-0.0010204385034739971,0.0006906569469720125,-0.001713234232738614
0.3,0.01926237903535366,0.2541952133178711,-0.005946281831711531,-0.00035539158852770925,0.0009424017043784261,-0.0020375819876790047
0.325,0.02118898741900921,0.2543497085571289,-0.002666054293513298,-9.362792479805648e-05,0.0010417065350338817,-0.002165447222068906
0.35,0.02197956293821335,0.2572622299194336,0.0026654398534446955,-0.0010519910138100386,0.000677947246003896,-0.001698178588412702
0.375,0.011431167833507061,0.2439708709716797,0.004150836728513241,-0.00108257622923702,0.0006845443276688457,-0.0017210481455549598
0.4,-0.0006759469397366047,0.2229299545288086,0.0004950971342623234,-0.0007922395598143339,0.001279645599424839,-0.002757095266133547
0.425,-0.01073706615716219,0.23098278045654297,0.008333759382367134,-0.0005025755381211638,0.0028452188707888126,-0.00378048955462873
0.45,-0.020784705877304077,0.26403236389160156,0.02352355793118477,-0.0007171577890403569,0.0047148591838777065,-0.0028948800172656775
0.475,-0.017263703048229218,0.26554203033447266,0.028390582650899887,-0.000531870755366981,0.006358036305755377,-0.001249125343747437
0.5,-0.007469081319868565,0.2317485809326172,0.020831862464547157,-0.0002419012744212523,0.008645029738545418,0.0010189326712861657
0.525,0.005944364238530397,0.22362327575683594,0.011572613380849361,0.0005439748056232929,0.011523024179041386,0.0028404085896909237
0.55,0.01584022305905819,0.25691795349121094,0.011226511560380459,0.0011798501946032047,0.012383374385535717,0.004252188373357058
0.575,0.015947574749588966,0.2920980453491211,-0.0023598656989634037,-0.0014691343531012535,0.01221801433712244,0.005952894221991301
0.6,0.004928483162075281,0.3005352020263672,-0.03569979965686798,-0.006739982403814793,0.011233833618462086,0.008910478092730045
0.625,-0.0016656741499900818,0.29907894134521484,-0.03067033179104328,-0.013982607051730156,0.006487205624580383,0.010515213012695312
0.65,-0.004644244443625212,0.2906646728515625,-0.009324455633759499,-0.020063944160938263,0.0001979670487344265,0.00926339253783226
0.675,5.9214537031948566e-05,0.27747058868408203,-0.011307215318083763,-0.0232598464936018,-0.005612341687083244,0.006367986090481281
0.7,-0.0027322389651089907,0.25414562225341797,-0.009169647470116615,-0.022889269515872,-0.01146478857845068,0.003297447692602873
0.725,-0.012786069884896278,0.23318862915039062,-0.0034712967462837696,-0.018541134893894196,-0.014419810846447945,0.0007376708090305328
0.75,-0.017761627212166786,0.21972942352294922,-0.02332432009279728,-0.01363628450781107,-0.015258152037858963,-0.0015209373086690903
0.775,-0.013408244587481022,0.2094106674194336,-0.04792216047644615,-0.0201285257935524,-0.016841623932123184,0.0058597782626748085
0.8,0.005614978726953268,0.23336505889892578,-0.02003532648086548,-0.035838644951581955,-0.020266711711883545,0.022059030830860138
0.825,-0.026640966534614563,0.2800626754760742,0.07698480039834976,-0.038592200726270676,-0.024821560829877853,0.030595120042562485
0.85,-0.1429460495710373,0.3182859420776367,0.19219760596752167,-0.013543862849473953,-0.027204733341932297,0.02929391898214817
0.875,-0.23050548136234283,0.5145158767700195,-0.12439410388469696,0.14396578073501587,0.048633988946676254,0.035151392221450806
0.9,-0.4363764524459839,0.9810934066772461,-1.320318341255188,0.4118194282054901,0.2118879109621048,-0.02890041470527649
0.925,-1.1179044246673584,1.4198894500732422,-2.8908562660217285,0.3515450954437256,0.1660219430923462,-0.15521575510501862
0.95,-2.0590012073516846,1.059098243713379,-3.9937222003936768,-0.21112708747386932,-0.3228018581867218,-0.06596876680850983
0.975,-2.3824315071105957,-0.44960498809814453,-4.08892822265625,-0.566946804523468,-1.5954227447509766,-0.22313085198402405
1.0,-0.7850304245948792,-1.8963403701782227,-2.2100577354431152,-0.11727119237184525,-3.7009477615356445,-0.7980077266693115
1.025,1.7033276557922363,-2.4647483825683594,1.9643936157226562,0.5934056043624878,-5.0349345207214355,-0.8244649767875671
1.05,2.6727685928344727,-1.717742919921875,5.370029926300049,0.9480001330375671,-4.437390327453613,-0.3229482173919678
1.075,3.359102725982666,1.6858720779418945,5.343930244445801,0.6086352467536926,-2.431457042694092,0.6489993333816528
1.1,3.796445608139038,4.218911170959473,3.934267997741699,-0.24839229881763458,-0.5707036256790161,1.2343584299087524
1.125,2.317490577697754,2.5704708099365234,2.822427749633789,-0.5175067186355591,-0.07654932141304016,0.5890756845474243
1.15,0.4400502145290375,0.8513822555541992,1.1802713871002197,-0.1968311220407486,-0.10888004302978516,-0.015933938324451447
1.175,-0.15600618720054626,0.42180728912353516,0.2132524847984314,-0.05406319350004196,-0.0641728863120079,-0.1485004723072052
1.2,-0.1577436625957489,0.32169628143310547,-0.14997592568397522,-0.023396048694849014,-0.020770732313394547,-0.14511336386203766
1.225,-0.1329362392425537,0.26062679290771484,-0.2956680953502655,-0.06590816378593445,-0.00424601323902607,-0.09866884350776672
1.25,-0.06263724714517593,0.2368640899658203,-0.1708901822566986,-0.14944711327552795,0.006089037284255028,-0.050998490303754807
1.275,0.008201473392546177,0.2299060821533203,-0.02025950327515602,-0.165816530585289,0.005202144384384155,-0.023408502340316772
1.3,0.050890449434518814,0.22800350189208984,-0.007903007790446281,-0.13413064181804657,-0.008216913789510727,-0.0006921365857124329
1.325,0.0876564010977745,0.233917236328125,0.015422328375279903,-0.12443113327026367,-0.01724506914615631,0.026187026873230934
1.35,0.08995921909809113,0.24787616729736328,0.08125630021095276,-0.11744555830955505,-0.019322391599416733,0.03205953910946846
1.375,0.04611147195100784,0.24062156677246094,0.057190902531147,-0.07237599790096283,-0.020207451656460762,0.02022804692387581
1.4,0.030252695083618164,0.22910022735595703,0.021800991147756577,-0.03735297545790672,-0.021187124773859978,0.013301175087690353
1.425,0.054420772939920425,0.23476314544677734,0.03542005643248558,-0.037400130182504654,-0.020835276693105698,0.009932027198374271
1.45,0.06624925881624222,0.23215198516845703,0.042057670652866364,-0.042837806046009064,-0.021420760080218315,0.007098490372300148
1.475,0.05847526714205742,0.22742176055908203,0.010669142939150333,-0.04084638133645058,-0.022241489961743355,0.0020973177161067724
1.5,0.029005270451307297,0.23295879364013672,-0.0657799020409584,-0.028800640255212784,-0.024339573457837105,-0.003526795655488968
1.525,-0.0049238670617341995,0.23057079315185547,-0.15237639844417572,-0.03406576067209244,-0.031192868947982788,-0.002867761766538024
1.55,-0.014736387878656387,0.24833965301513672,-0.1508597880601883,-0.08298326283693314,-0.04092640057206154,0.005358818452805281
1.575,-0.02478637732565403,0.27532100677490234,-0.10487465560436249,-0.13125914335250854,-0.04671543464064598,0.006844714283943176
1.6,-0.003719571279361844,0.29471492767333984,-0.04664728790521622,-0.16562782227993011,-0.047357309609651566,0.0057068029418587685
1.625,0.038700804114341736,0.31005001068115234,0.011842438951134682,-0.1875154823064804,-0.04563559591770172,0.005608392879366875
1.65,0.029983023181557655,0.3049201965332031,-0.007130702491849661,-0.17122821509838104,-0.042535316199064255,-0.005735521670430899
1.675,0.00536236260086298,0.2733182907104492,-0.0415806844830513,-0.1522807776927948,-0.03977873548865318,-0.0215687807649374
1.7,0.017933696508407593,0.24849224090576172,-0.03946979343891144,-0.15071897208690643,-0.036332856863737106,-0.03224199637770653
1.725,0.047635823488235474,0.26709842681884766,-0.020569859072566032,-0.15556494891643524,-0.03401278704404831,-0.03984382376074791
1.75,0.03406840190291405,0.28255653381347656,-0.040842827409505844,-0.14718641340732574,-0.0356585830450058,-0.04512031748890877
1.775,-0.04959482327103615,0.2623748779296875,-0.1231854185461998,-0.1338721662759781,-0.04710434749722481,-0.03777049481868744
1.8,-0.15689152479171753,0.27829837799072266,-0.2334793210029602,-0.10830512642860413,-0.06532713770866394,0.01809759810566902
1.825,-0.1147950142621994,0.47304630279541016,-0.576118528842926,-4.7083012759685516e-05,-0.025171957910060883,0.08590463548898697
1.85,0.12240724265575409,0.8464288711547852,-1.2495639324188232,0.10108091682195663,0.05080990493297577,0.049456074833869934
1.875,0.5075123310089111,1.319199562072754,-2.1401822566986084,-0.04804961755871773,-0.035709500312805176,-0.07792335003614426
1.9,1.0867125988006592,2.0132532119750977,-3.9386584758758545,-0.4675566852092743,-0.3452013432979584,-0.24836790561676025
1.925,1.4082436561584473,2.356879234313965,-6.764204502105713,-0.9993692636489868,-0.9699002504348755,-0.6147904992103577
1.95,1.495760202407837,1.0216894149780273,-8.09182071685791,-1.5820201635360718,-2.1730337142944336,-1.1932518482208252
1.975,2.2478556632995605,-1.5824871063232422,-6.497030258178711,-2.044588088989258,-3.6797657012939453,-1.393897533416748
2.0,4.128594398498535,-3.1711864471435547,-4.749945163726807,-1.9063936471939087,-4.7283196449279785,-0.7028695344924927
2.025,5.6883745193481445,-2.5161523818969727,-5.039714336395264,-0.94741290807724,-4.494495391845703,0.6077737212181091
2.05,4.760613441467285,-0.7925386428833008,-5.920311450958252,-0.12908029556274414,-3.786691427230835,1.684406042098999
2.075,1.8709626197814941,0.48679065704345703,-4.921582221984863,0.16331151127815247,-3.9478700160980225,2.2549591064453125
2.1,-1.7428220510482788,1.2852354049682617,-2.7500319480895996,0.6814653873443604,-3.831721544265747,2.6001858711242676
2.125,-4.579480171203613,1.6887855529785156,-1.3166460990905762,1.0578064918518066,-2.891305446624756,2.4858481884002686
2.15,-5.626341342926025,1.6008100509643555,-1.5530086755752563,1.0284243822097778,-1.4810892343521118,1.8041188716888428
2.175,-5.264119625091553,0.9240484237670898,-2.6991727352142334,0.9294442534446716,-0.514270544052124,0.8853046298027039
2.2,-4.162471294403076,0.36800479888916016,-3.331087827682495,1.0646944046020508,-0.38619673252105713,0.28140366077423096
2.225,-2.975503444671631,0.3019227981567383,-2.7873623371124268,1.2704808712005615,-0.7680578231811523,-0.032156459987163544
2.25,-1.9119441509246826,0.5116605758666992,-1.601408839225769,1.4806877374649048,-1.1503417491912842,-0.20931658148765564
2.275,-0.9162968397140503,1.057541847229004,-0.15756762027740479,1.5940861701965332,-1.422146201133728,-0.30752307176589966
2.3,-0.28881192207336426,1.5121545791625977,1.616102695465088,1.8335036039352417,-1.671677589416504,-0.35010039806365967
2.325,-0.29251524806022644,1.1887397766113281,3.9373602867126465,2.1706182956695557,-1.8517996072769165,-0.3692961037158966
2.35,-0.027282267808914185,0.43268585205078125,6.627081871032715,2.225844144821167,-1.818481683731079,-0.1803937554359436
2.375,1.1347179412841797,-0.46276187896728516,8.42995834350586,1.9000834226608276,-1.4898192882537842,0.03812103718519211
2.4,2.385434150695801,-1.4893865585327148,8.494564056396484,1.3425582647323608,-0.9064522981643677,-0.016103625297546387
2.425,3.0310163497924805,-2.4117279052734375,7.477250576019287,0.870816707611084,-0.29828834533691406,-0.03683393448591232
2.45,3.1316897869110107,-2.915280818939209,6.494633674621582,0.46098917722702026,0.08039900660514832,0.12559127807617188
2.475,3.5176689624786377,-2.6401968002319336,5.050780773162842,0.09650708734989166,0.10399577021598816,0.3805355727672577
2.5,3.401691198348999,-0.940180778503418,2.1178319454193115,-0.4011968970298767,-0.22792810201644897,0.4629723131656647
2.525,-0.004792962223291397,2.091503143310547,-0.6052448749542236,-1.7766708135604858,-0.5355309247970581,0.051761090755462646
2.55,-2.479553699493408,4.4146881103515625,-0.2853384017944336,-3.3206567764282227,-0.025805115699768066,-0.33392319083213806
2.575,-1.9248872995376587,3.54642391204834,1.5184061527252197,-3.0127434730529785,0.18666374683380127,-0.635765552520752
2.6,-2.9035146236419678,0.8967761993408203,1.455994963645935,-1.6385416984558105,-0.38521474599838257,-0.823398232460022
2.625,-2.1963236331939697,-0.24568557739257812,0.17103202641010284,-0.5968131422996521,-0.1734561175107956,-0.49951672554016113
2.65,-0.8043915629386902,0.033743858337402344,-0.046375811100006104,-0.3399457335472107,-0.1039327010512352,-0.4391383230686188
2.675,-0.31711477041244507,0.3632192611694336,0.17858783900737762,-0.20755039155483246,-0.060167863965034485,-0.34363213181495667
2.7,-0.12333396077156067,0.38999271392822266,-0.030122406780719757,-0.07957421243190765,-0.033558301627635956,-0.17414437234401703
2.725,0.13204285502433777,0.2846078872680664,-0.4398554265499115,-0.007921182550489902,-0.006153963040560484,-0.0323527529835701
2.75,0.29078176617622375,0.2385568618774414,-0.5415422320365906,-0.039032187312841415,0.014770077541470528,-0.01719997450709343
2.775,0.25275659561157227,0.2605867385864258,-0.3732120394706726,-0.08779732882976532,0.02026022970676422,-0.0641922801733017
2.8,0.13110260665416718,0.2413625717163086,-0.2519482374191284,-0.09043646603822708,0.01803034543991089,-0.07242999970912933
2.825,0.11623096466064453,0.18343067169189453,-0.2670869529247284,-0.061672430485486984,0.01805531606078148,-0.013196506537497044
2.85,0.21272975206375122,0.1754446029663086,-0.35020583868026733,-0.03600437939167023,0.026570457965135574,0.029558323323726654
2.875,0.2524878978729248,0.22829532623291016,-0.3814246654510498,-0.04588290676474571,0.03957393392920494,-0.009357246570289135
2.9,0.20375019311904907,0.27106285095214844,-0.3193320035934448,-0.06763581186532974,0.04725288599729538,-0.06880538910627365
2.925,0.16157053411006927,0.2633352279663086,-0.24877290427684784,-0.06699021905660629,0.04457080364227295,-0.08728434890508652
2.95,0.10653533786535263,0.21438884735107422,-0.2656245231628418,-0.04565464332699776,0.038054242730140686,-0.0785374566912651
2.975,0.04852677136659622,0.2056436538696289,-0.31976109743118286,-0.030554097145795822,0.047766223549842834,-0.046262435615062714
3.0,0.023638645187020302,0.2807779312133789,-0.3047395646572113,-0.026811478659510612,0.07381687313318253,0.006649958901107311
3.025,-0.01007232815027237,0.3588895797729492,-0.259768545627594,-0.009375769644975662,0.10033556818962097,0.06960637122392654
3.05,-0.10196830332279205,0.41671276092529297,-0.2772861123085022,0.0273367278277874,0.12263023853302002,0.14735835790634155
3.075,-0.23740004003047943,0.5525035858154297,-0.3409404754638672,0.05755067616701126,0.15653151273727417,0.26356157660484314
3.1,-0.47359445691108704,0.8898706436157227,-0.5146651864051819,0.06650310754776001,0.19672778248786926,0.45350462198257446
3.125,-1.0228430032730103,1.443882942199707,-0.821104884147644,0.05993128567934036,0.24153918027877808,0.8109767436981201
3.15,-2.126028060913086,1.7540206909179688,-1.1154742240905762,-0.04372180998325348,0.3190959393978119,1.3964943885803223
3.175,-3.1181163787841797,1.350935935974121,-1.2236998081207275,-0.08314523845911026,0.617033839225769,2.404632568359375
3.2,-2.9465742111206055,0.872441291809082,-0.07002589106559753,0.1025223433971405,1.384082555770874,3.766573667526245
3.225,-3.5662717819213867,0.4155759811401367,2.436668872833252,0.6385570764541626,1.9854724407196045,3.7963991165161133
3.25,-6.317313194274902,-0.4926433563232422,4.503431797027588,0.9131317734718323,2.3590636253356934,1.3510833978652954
3.275,-6.4793524742126465,-0.9293107986450195,4.6674394607543945,-0.12167702615261078,3.521763324737549,-2.0237271785736084
3.3,-1.6989308595657349,-1.6080865859985352,2.13039493560791,-1.182459831237793,4.811352252960205,-4.279997825622559
3.325,3.6189565658569336,-2.7387609481811523,-0.7048653960227966,-1.3910160064697266,4.748646259307861,-4.30942440032959
3.35,7.847092628479004,-2.8124704360961914,-1.6723291873931885,-1.167911410331726,3.6713743209838867,-2.889019250869751
3.375,9.339212417602539,-0.20130538940429688,-3.1675636768341064,-0.28242790699005127,2.562173366546631,-1.4682267904281616
3.4,3.6542117595672607,5.991428375244141,-7.06528902053833,0.6980552077293396,1.289955735206604,-0.6300950050354004
3.425,-1.4352636337280273,9.18740177154541,-7.990683555603027,0.1582198292016983,0.2742084264755249,0.08889459073543549
3.45,0.5061408281326294,5.319821357727051,-3.5532989501953125,-0.6531144976615906,0.08678370714187622,0.32761886715888977
3.475,1.217673897743225,1.7274951934814453,-0.17192330956459045,-0.37407350540161133,-0.01758408546447754,0.08278530836105347
3.5,0.5193240642547607,0.5768880844116211,-0.01329892873764038,0.08818767219781876,0.01816372759640217,0.12404238432645798
3.525,0.3235338628292084,0.35593128204345703,-0.2662304639816284,0.1672363430261612,0.06162581965327263,0.08035271614789963
3.55,0.4142456352710724,0.34158897399902344,-0.3333810269832611,0.15217585861682892,0.08966241776943207,0.030524253845214844
3.575,0.3996518850326538,0.33559513092041016,-0.39371371269226074,0.17863582074642181,0.05903807282447815,0.00307266041636467
3.6,0.3035622239112854,0.2723569869995117,-0.5108250975608826,0.22931517660617828,0.03953760117292404,-0.0030427295714616776
3.625,0.3055244982242584,0.24265384674072266,-0.6261212229728699,0.20356060564517975,0.04606983810663223,0.006190568208694458
3.65,0.3470483124256134,0.2711038589477539,-0.6384034156799316,0.1465851217508316,0.048446472734212875,0.013133135624229908
3.675,0.3277105689048767,0.2702064514160156,-0.5225875377655029,0.0831104964017868,0.038576483726501465,0.0009442945010960102
3.7,0.2817958891391754,0.23482799530029297,-0.4291970729827881,0.04954034090042114,0.02271212451159954,-0.008267917670309544
3.725,0.2402493953704834,0.21730422973632812,-0.4333308935165405,0.05213603004813194,0.01610971800982952,0.005690774414688349
3.75,0.21694064140319824,0.2189617156982422,-0.5382350087165833,0.06009455770254135,0.022114289924502373,0.025318646803498268
3.775,0.22369058430194855,0.21309661865234375,-0.5549513101577759,0.01201019436120987,0.030136648565530777,0.02958025597035885
3.8,0.2698274850845337,0.22212791442871094,-0.42336535453796387,-0.051748376339673996,0.03666766360402107,0.02096329629421234
3.825,0.320467084646225,0.25348758697509766,-0.36558979749679565,-0.06127583235502243,0.036378178745508194,0.013845228590071201
3.85,0.3116922676563263,0.2758779525756836,-0.47689419984817505,-0.048089440912008286,0.029098372906446457,0.008255347609519958
3.875,0.2796993553638458,0.2986717224121094,-0.4794458746910095,-0.08250550925731659,0.0275360569357872,-0.0036663301289081573
3.9,0.2814640700817108,0.31759166717529297,-0.3533487617969513,-0.10010309517383575,0.02559063956141472,-0.004655167460441589
3.925,0.28998321294784546,0.3038625717163086,-0.33683961629867554,-0.0714772567152977,0.015023481100797653,0.0011810972355306149
3.95,0.27768704295158386,0.27370357513427734,-0.3609703481197357,-0.058793433010578156,0.012665221467614174,-0.003947794903069735
3.975,0.2552483081817627,0.24677562713623047,-0.40009167790412903,-0.03507806733250618,0.014980081468820572,0.00044544623233377934
4.0,0.2565686106681824,0.2316293716430664,-0.47110646963119507,-0.024146420881152153,0.019937392324209213,0.01668492890894413
4.025,0.27733588218688965,0.22876644134521484,-0.508172869682312,-0.053904443979263306,0.022712374106049538,0.016805704683065414
4.05,0.290496289730072,0.23419666290283203,-0.49857696890830994,-0.07670736312866211,0.0172177292406559,0.0024541555903851986
4.075,0.2849891483783722,0.23156452178955078,-0.48118630051612854,-0.08432596176862717,0.010332301259040833,-0.007916373200714588
4.1,0.2583165466785431,0.23987865447998047,-0.47122830152511597,-0.09291715174913406,0.006710946559906006,-0.006961536593735218
4.125,0.24054411053657532,0.26724720001220703,-0.3956722915172577,-0.09608688950538635,0.006082449108362198,-0.0011645052582025528
4.15,0.2657891511917114,0.268402099609375,-0.34094440937042236,-0.0738968700170517,0.006479237228631973,0.005777251906692982
4.175,0.29869544506073,0.2421417236328125,-0.41017746925354004,-0.04269629716873169,0.007092960178852081,0.007310979068279266
4.2,0.2965005040168762,0.22698402404785156,-0.4869350492954254,-0.03375595808029175,0.007446282543241978,0.0008541359566152096
4.225,0.2710680067539215,0.2370281219482422,-0.5007855296134949,-0.04115057736635208,0.006074121221899986,-0.005036629736423492
4.25,0.2563665211200714,0.2589550018310547,-0.4729353189468384,-0.05229431763291359,0.005546865984797478,-0.005923639051616192
4.275,0.26335856318473816,0.2692375183105469,-0.44614389538764954,-0.05533093214035034,0.0035185739398002625,-0.010166460648179054
4.3,0.26435941457748413,0.24784374237060547,-0.4433397650718689,-0.04273362457752228,0.0009656166657805443,-0.014203529804944992
4.325,0.2542459964752197,0.2210988998413086,-0.4376625716686249,-0.02845916710793972,-0.0016409358941018581,-0.011008034460246563
4.35,0.24851974844932556,0.23162555694580078,-0.43947291374206543,-0.017147986218333244,-0.002774774795398116,-0.005576929543167353
4.375,0.2585757374763489,0.25033092498779297,-0.47941434383392334,-0.008096574805676937,-0.0017856553895398974,-0.001896723872050643
4.4,0.2864586114883423,0.2281942367553711,-0.5314444899559021,-0.00993710570037365,-0.0009235055185854435,-0.0013598348014056683
4.425,0.30220022797584534,0.20500659942626953,-0.542888879776001,-0.023001275956630707,-0.000761338509619236,-0.002958628349006176
4.45,0.28742295503616333,0.2203512191772461,-0.5165718793869019,-0.03128223493695259,-0.0025746505707502365,-0.004191464278846979
4.475,0.280685693025589,0.24286460876464844,-0.4896908402442932,-0.032190270721912384,-0.004319475032389164,-0.0035972394980490208
4.5,0.2775037884712219,0.2414379119873047,-0.4826291799545288,-0.029282914474606514,-0.004040109924972057,-0.0037465060595422983
4.525,0.25387972593307495,0.22930526733398438,-0.4783501625061035,-0.02387283556163311,-0.0031033153645694256,-0.00276882853358984
4.55,0.24499809741973877,0.23150348663330078,-0.4747227132320404,-0.022315366193652153,-0.003156587015837431,-0.00463474914431572
4.575,0.25938963890075684,0.2498311996459961,-0.49465781450271606,-0.017132526263594627,-0.0036865228321403265,-0.0064444150775671005
4.6,0.27874916791915894,0.2508516311645508,-0.5070317983627319,-0.008139018900692463,-0.0017059680540114641,-0.004358940292149782
4.625,0.30814146995544434,0.23223114013671875,-0.5084962248802185,-0.004999588243663311,-0.0018476663390174508,-0.0013229383621364832
4.65,0.3154805302619934,0.22472286224365234,-0.5063170194625854,-0.004350156057626009,-0.004720799159258604,-0.0028918739408254623
4.675,0.29236671328544617,0.2336740493774414,-0.48064351081848145,-0.0029791835695505142,-0.004819641821086407,-0.005996538791805506
4.7,0.2736549973487854,0.23590946197509766,-0.45163655281066895,-0.002293737605214119,-0.004200063645839691,-0.007927591912448406
4.725,0.26423197984695435,0.2229785919189453,-0.45796704292297363,-0.0007597512449137866,-0.004345154855400324,-0.008793151006102562
4.75,0.2519787549972534,0.20879077911376953,-0.48434287309646606,0.001451345393434167,-0.004720375873148441,-0.008269273675978184
4.775,0.2523513734340668,0.23051738739013672,-0.497016042470932,0.0015920659061521292,-0.004650135524570942,-0.008155389688909054
4.8,0.2769906222820282,0.255889892578125,-0.5110267400741577,-0.002074385527521372,-0.00423804298043251,-0.008084416389465332
4.825,0.29752466082572937,0.24357986450195312,-0.5113928914070129,-0.008580329827964306,-0.0038651619106531143,-0.006753601133823395
4.85,0.2970072031021118,0.22534656524658203,-0.49862581491470337,-0.012276406399905682,-0.0035088337026536465,-0.005206041503697634
4.875,0.2878219783306122,0.2258157730102539,-0.5049241185188293,-0.01028031948953867,-0.0026984328869730234,-0.0031588971614837646
4.9,0.27393171191215515,0.23999404907226562,-0.5084338784217834,-0.009274573996663094,-0.0027636787854135036,-0.00156378373503685
4.925,0.2666630744934082,0.2522897720336914,-0.5007001757621765,-0.009265129454433918,-0.001841632416471839,-0.00016768614295870066
4.95,0.27481403946876526,0.2513723373413086,-0.5083438158035278,-0.006944050546735525,-0.0011617549462243915,0.0020640031434595585
4.975,0.2842729687690735,0.23569583892822266,-0.5210871696472168,-0.007102506700903177,-0.00025995238684117794,0.0023000489454716444
5.0,0.29479068517684937,0.21251964569091797,-0.5199756622314453,-0.009511631913483143,0.0004009935073554516,-0.00026030579465441406
5.025,0.30612021684646606,0.20521259307861328,-0.5183354616165161,-0.00967416726052761,-9.710132144391537e-05,-0.0028969005215913057
5.05,0.30180761218070984,0.2201395034790039,-0.5314206480979919,-0.00731128454208374,-0.0007534015458077192,-0.00045200821477919817
5.075,0.2907881438732147,0.23799705505371094,-0.54505854845047,-0.007896507158875465,-0.0005627658683806658,0.0018413031939417124
5.1,0.273191899061203,0.24601078033447266,-0.5444461703300476,-0.010089157149195671,-0.0007629008032381535,-0.0008435464114882052
5.125,0.2535814642906189,0.24159622192382812,-0.5471068024635315,-0.008383297361433506,-0.0008274234132841229,-0.0028582713566720486
5.15,0.2587848901748657,0.22375965118408203,-0.5594136714935303,-0.0041594007052481174,-9.787909220904112e-05,-0.0023838665802031755
5.175,0.28665846586227417,0.20896148681640625,-0.5714926719665527,-0.0006023254827596247,0.0002787550329230726,-0.0023293462581932545
5.2,0.29821765422821045,0.22177791595458984,-0.5651049613952637,-0.0009117810986936092,0.0008575093816034496,-0.0013066887622699142
5.225,0.29401201009750366,0.24950695037841797,-0.5465957522392273,-0.0019603781402111053,0.0006530140526592731,-0.0014781940262764692
5.25,0.2922486364841461,0.24983978271484375,-0.5303066968917847,-0.0005046422593295574,0.00027358299121260643,-0.002299139043316245
5.275,0.2763122022151947,0.25125980377197266,-0.5110365152359009,-0.0006204991368576884,-2.235572537756525e-06,-0.0014693170087412
5.3,0.2596975564956665,0.26734352111816406,-0.5007426738739014,-0.0034920277539640665,-0.0012349032331258059,-0.001557838753797114
5.325,0.2632741928100586,0.2636747360229492,-0.5134145021438599,-0.005875725299119949,-0.001146824797615409,-0.00222393567673862
5.35,0.2720159590244293,0.23256587982177734,-0.5367866158485413,-0.006457686424255371,-0.00019252358470112085,-0.0020328054670244455
5.375,0.2827049493789673,0.19968700408935547,-0.5426427721977234,-0.007523315493017435,-0.0007610192988067865,-0.0015477591659873724
5.4,0.2894829213619232,0.1987895965576172,-0.5288230776786804,-0.008406545035541058,-0.0022671413607895374,-0.001144259818829596
5.425,0.28161394596099854,0.20185279846191406,-0.5194728374481201,-0.0069017973728477955,-0.0027055907994508743,-0.001825598068535328
5.45,0.272800475358963,0.20396995544433594,-0.531679630279541,-0.004593773745000362,-0.0014700075844302773,-0.0028447522781789303
5.475,0.2748740315437317,0.2165203094482422,-0.5415652394294739,-0.0049489266239106655,-0.0007633310742676258,-0.002057601697742939
5.5,0.28143152594566345,0.21773624420166016,-0.5320037603378296,-0.007170254830271006,-0.0005175141850486398,-0.002229709178209305
5.525,0.2934635579586029,0.21530437469482422,-0.5346623659133911,-0.005829561501741409,-0.0006948980735614896,-0.003184246364980936
5.55,0.302193284034729,0.20885372161865234,-0.5553178191184998,-0.0023540963884443045,-0.001050327904522419,-0.00011040540994144976
5.575,0.28689223527908325,0.2009420394897461,-0.5685164332389832,0.0008161283913068473,-0.0009591804118826985,0.0011448966106399894
5.6,0.26803165674209595,0.2082223892211914,-0.5740770101547241,0.002812854712828994,-0.0009505043271929026,-0.0004304529575165361
5.625,0.277874231338501,0.21158123016357422,-0.574995219707489,0.0013106220867484808,-0.00037717510713264346,-0.001993178855627775
5.65,0.30169668793678284,0.21111011505126953,-0.5712843537330627,0.0008722249767743051,-0.0003089715610258281,-0.0022015024442225695
5.675,0.3052481710910797,0.2162790298461914,-0.5640740394592285,0.0026000302750617266,-0.0006115544820204377,-0.0027837525121867657
5.7,0.287937194108963,0.22033405303955078,-0.5528577566146851,0.001298977411352098,-0.0009290024172514677,-0.004576997831463814
5.725,0.2781562805175781,0.22985553741455078,-0.5437187552452087,0.001763746957294643,-0.0015204563969746232,-0.005704670678824186
5.75,0.28179043531417847,0.2290515899658203,-0.539445698261261,0.004220759496092796,-0.0015271313022822142,-0.006178068462759256
5.775,0.28340137004852295,0.20945262908935547,-0.5464712381362915,0.004115852992981672,-0.0006498177535831928,-0.00592017499729991
5.8,0.27552980184555054,0.20817279815673828,-0.5492706894874573,0.0033237154129892588,7.969490252435207e-05,-0.00489870086312294
5.825,0.2602107524871826,0.23163509368896484,-0.5525229573249817,0.005126397591084242,0.0014848982682451606,-0.0024956115521490574
5.85,0.23951783776283264,0.24680137634277344,-0.5657191276550293,0.005858221556991339,0.0023422730155289173,0.0012592908460646868
5.875,0.23264557123184204,0.24253082275390625,-0.5729911923408508,0.004726003389805555,0.0016845185309648514,0.007524089887738228
5.9,0.2691369354724884,0.219482421875,-0.5710161328315735,0.006578164175152779,0.0033212504349648952,0.014553113840520382
5.925,0.3017151951789856,0.19830036163330078,-0.5739123821258545,0.00899227149784565,0.0038739603478461504,0.018067864701151848
5.95,0.28642013669013977,0.20453453063964844,-0.5674160718917847,0.009762578643858433,0.0012004892341792583,0.016681194305419922
5.975,0.2594257891178131,0.2208700180053711,-0.5651283860206604,0.014968572184443474,-0.001031755469739437,0.021549127995967865
6.0,0.24656014144420624,0.20995235443115234,-0.586524248123169,0.021952645853161812,-0.0016595632769167423,0.033794619143009186
6.025,0.23894478380680084,0.1913433074951172,-0.5969196557998657,0.025116097182035446,-0.0003283258993178606,0.04364164173603058
6.05,0.2447265088558197,0.1968097686767578,-0.5875536203384399,0.03098827227950096,0.00039550429210066795,0.053847212344408035
6.075,0.29089081287384033,0.20035171508789062,-0.6082420349121094,0.0440421923995018,-0.00482882559299469,0.06514870375394821
6.1,0.34474512934684753,0.19777297973632812,-0.6470670104026794,0.04441751539707184,-0.017162932083010674,0.06433320790529251
6.125,0.32647186517715454,0.21494770050048828,-0.6648702621459961,0.018632013350725174,-0.02587801404297352,0.034459762275218964
6.15,0.2827278971672058,0.21761226654052734,-0.6625284552574158,-0.007015295326709747,-0.017627304419875145,-0.0038133824709802866
6.175,0.3029467463493347,0.19608020782470703,-0.6446681022644043,-0.016407929360866547,-0.0034977318719029427,-0.018672717735171318
6.2,0.3160560727119446,0.19587230682373047,-0.6074931621551514,-0.02683405764400959,-0.0005696197040379047,-0.02904345840215683
6.225,0.2766256630420685,0.21450042724609375,-0.569649875164032,-0.04221083223819733,-0.006691505201160908,-0.04826692119240761
6.25,0.2536746859550476,0.2273550033569336,-0.5328055620193481,-0.052442312240600586,-0.012537610717117786,-0.055836476385593414
6.275,0.2600836157798767,0.2423686981201172,-0.4997895359992981,-0.050280433148145676,-0.016659993678331375,-0.05316680297255516
6.3,0.2559433877468109,0.2639131546020508,-0.5161137580871582,-0.03223058581352234,-0.020438794046640396,-0.05504748225212097
6.325,0.23968973755836487,0.2624959945678711,-0.5469191074371338,-0.009709320962429047,-0.022274041548371315,-0.054797980934381485
6.35,0.24075520038604736,0.23381805419921875,-0.5359352231025696,0.002333004493266344,-0.021425945684313774,-0.047889094799757004
6.375,0.23884782195091248,0.2225198745727539,-0.5255154967308044,0.015085671097040176,-0.02007371187210083,-0.037449996918439865
6.4,0.1588561087846756,0.23956966400146484,-0.541171133518219,0.03415472432971001,-0.023188559338450432,-0.02169695869088173
6.425,0.1205771416425705,0.27755165100097656,-0.5219613313674927,0.10312925279140472,0.018764253705739975,0.04906410723924637
6.45,0.2662782073020935,0.3577127456665039,-0.4815525412559509,0.253715842962265,0.1042475551366806,0.12192987650632858
6.475,0.4389791786670685,0.44822025299072266,-0.4771442711353302,0.3623950183391571,0.10672217607498169,0.03760549798607826
6.5,0.45832565426826477,0.49224376678466797,-0.582788348197937,0.41412386298179626,0.03996528685092926,-0.12288748472929001
6.525,0.39066165685653687,0.4580221176147461,-0.8402408361434937,0.4599498510360718,-0.009132221341133118,-0.22033581137657166
6.55,0.2848183214664459,0.3356027603149414,-0.9686827659606934,0.38368508219718933,-0.053062766790390015,-0.29388105869293213
6.575,0.2123330533504486,0.2246084213256836,-0.842857837677002,0.23132295906543732,-0.092012420296669,-0.3406880795955658
6.6,0.24821004271507263,0.1591930389404297,-0.8566645383834839,0.15584057569503784,-0.12048496305942535,-0.3406851589679718
6.625,0.19555678963661194,-0.0284271240234375,-1.0995781421661377,0.0971011221408844,-0.1769677698612213,-0.32886695861816406
6.65,-0.004898823797702789,-0.29519176483154297,-1.2371920347213745,-0.05780366063117981,-0.25281479954719543,-0.27218174934387207
6.675,-0.1225268766283989,-0.43860626220703125,-1.1272668838500977,-0.22989192605018616,-0.32588300108909607,-0.15101121366024017
6.7,-0.21597164869308472,-0.556635856628418,-0.7687109112739563,-0.33580607175827026,-0.4301009178161621,0.01080775260925293
6.725,-0.41523095965385437,-0.6318769454956055,-0.30624186992645264,-0.4329321086406708,-0.5013687014579773,0.22720855474472046
6.75,-0.2626599669456482,0.08765602111816406,0.16164478659629822,-0.6298563480377197,-0.4145434498786926,0.5465332269668579
6.775,0.5224225521087646,1.3767518997192383,0.3705454170703888,-0.8565421104431152,-0.22307933866977692,0.6984971761703491
6.8,0.9590439200401306,1.6602668762207031,0.15524190664291382,-0.8260312676429749,-0.11503446102142334,0.4212990403175354
6.825,0.6079774498939514,0.9800882339477539,-0.08030010759830475,-0.4932495653629303,-0.09665026515722275,0.09465436637401581
6.85,0.3541085124015808,0.4792289733886719,-0.23249495029449463,-0.1512952744960785,-0.0746978297829628,-0.009770305827260017
6.875,0.3305651545524597,0.30857181549072266,-0.5167061686515808,0.05358500778675079,-0.02992570772767067,-0.027576033025979996
6.9,0.32070308923721313,0.2393321990966797,-0.7764629125595093,0.12364649772644043,-0.007329694926738739,-0.029579203575849533
6.925,0.3099406361579895,0.21883201599121094,-0.7940929532051086,0.0944354459643364,0.005864765495061874,-0.030963679775595665
6.95,0.31994888186454773,0.22790145874023438,-0.6437892317771912,0.06456032395362854,0.020228400826454163,-0.02027346007525921
6.975,0.32028335332870483,0.24361324310302734,-0.5361335277557373,0.07666613161563873,0.022728342562913895,-0.013626344501972198
7.0,0.30565178394317627,0.2518177032470703,-0.5209333300590515,0.0919489860534668,0.01924188621342182,-0.014808474108576775
7.025,0.2929115891456604,0.24069690704345703,-0.5209163427352905,0.09147009253501892,0.020747989416122437,-0.016097310930490494
7.05,0.2747228741645813,0.2442026138305664,-0.5157283544540405,0.08930772542953491,0.020731855183839798,-0.02016851305961609
7.075,0.271533727645874,0.2664327621459961,-0.5374863147735596,0.12269137799739838,0.030814332887530327,-0.009148054756224155
7.1,0.24956654012203217,0.26743221282958984,-0.5783563852310181,0.18204429745674133,0.04665820300579071,0.01650482416152954
7.125,0.20665840804576874,0.2864370346069336,-0.5718086361885071,0.22787074744701385,0.06021840497851372,0.029342863708734512
7.15,0.2499094307422638,0.3114500045776367,-0.5419028997421265,0.2940668761730194,0.08590753376483917,0.04432333633303642
7.175,0.33165982365608215,0.2938871383666992,-0.5513735413551331,0.34577271342277527,0.09773628413677216,0.03174282982945442
7.2,0.31118544936180115,0.27927303314208984,-0.5001365542411804,0.32734546065330505,0.08330146968364716,-0.020602425560355186
7.225,0.2668960988521576,0.2900419235229492,-0.39996254444122314,0.3357473909854889,0.07783755660057068,-0.03961252048611641
7.25,0.27447953820228577,0.29241275787353516,-0.38117775321006775,0.3712032735347748,0.07556577771902084,-0.04334022104740143
7.275,0.28473660349845886,0.24018001556396484,-0.49113136529922485,0.3791413903236389,0.06520170718431473,-0.05032717064023018
7.3,0.25225377082824707,0.17424678802490234,-0.6241156458854675,0.3388972580432892,0.05063416063785553,-0.04801194369792938
7.325,0.2200208306312561,0.15510845184326172,-0.6765897274017334,0.28442978858947754,0.04035813361406326,-0.028010450303554535
7.35,0.20694082975387573,0.1408071517944336,-0.7300059795379639,0.24696895480155945,0.039691511541604996,-0.007826367393136024
7.375,0.1920098066329956,0.13301658630371094,-0.7809532880783081,0.1876455694437027,0.032484862953424454,0.00684015266597271
7.4,0.20289315283298492,0.16353130340576172,-0.7257596254348755,0.09897836297750473,0.018006810918450356,0.018010271713137627
7.425,0.24670428037643433,0.20558452606201172,-0.6374109983444214,0.026279594749212265,0.01026734709739685,0.028969967737793922
7.45,0.2778775095939636,0.22947216033935547,-0.6009469628334045,-0.02095082402229309,0.004359498620033264,0.03476191684603691
7.475,0.2781791388988495,0.2088155746459961,-0.6068606376647949,-0.057933174073696136,-0.0038012079894542694,0.031064549461007118
7.5,0.24316072463989258,0.16744422912597656,-0.6354750394821167,-0.10917558521032333,-0.01259569451212883,0.02687114104628563
7.525,0.2203371375799179,0.1633443832397461,-0.6411051750183105,-0.1823902726173401,-0.018835563212633133,0.030734796077013016
7.55,0.2630777359008789,0.2187337875366211,-0.5816612243652344,-0.2506326735019684,-0.02317294478416443,0.03444170951843262
7.575,0.31858858466148376,0.2828817367553711,-0.48772233724594116,-0.26748716831207275,-0.02411039173603058,0.021904224529862404
7.6,0.31768402457237244,0.2875556945800781,-0.4447367489337921,-0.21683645248413086,-0.020493246614933014,-0.0022816089913249016
7.625,0.2783081829547882,0.23026561737060547,-0.5112990736961365,-0.1392468959093094,-0.01600288599729538,-0.02057836763560772
7.65,0.24261875450611115,0.18123435974121094,-0.6258916854858398,-0.0935719683766365,-0.010551564395427704,-0.025358179584145546
7.675,0.24772082269191742,0.20384979248046875,-0.6276931762695312,-0.09871626645326614,-0.003999296575784683,-0.02032162807881832
7.7,0.2752699851989746,0.23473644256591797,-0.5598605871200562,-0.10665804892778397,-0.0011591650545597076,-0.014675598591566086
7.725,0.278591126203537,0.2221355438232422,-0.5364506244659424,-0.09031335264444351,0.001123771071434021,-0.009770456701517105
7.75,0.27990612387657166,0.23310375213623047,-0.5162753462791443,-0.07382426410913467,0.003870749846100807,-0.005414983257651329
7.775,0.3035825490951538,0.26804447174072266,-0.5000784397125244,-0.05336643010377884,0.00342552550137043,-0.0006449536886066198
7.8,0.3145683705806732,0.2706565856933594,-0.528562605381012,-0.02772407792508602,0.0025920653715729713,0.0034634287003427744
7.825,0.3080446124076843,0.24870014190673828,-0.559575617313385,-0.016711309552192688,0.004419230856001377,0.004316763021051884
7.85,0.30503833293914795,0.22618961334228516,-0.5775691270828247,-0.012445327825844288,0.005637949798256159,0.002815523184835911
7.875,0.29587796330451965,0.21474742889404297,-0.5994230508804321,-0.011400499381124973,0.003405880881473422,-0.00010334420949220657
7.9,0.2775072157382965,0.19960975646972656,-0.598263680934906,-0.02114461362361908,0.0013174992054700851,-0.002253154292702675
7.925,0.27370646595954895,0.19655132293701172,-0.5659936666488647,-0.035203706473112106,0.0017699012532830238,-0.0035668008495122194
7.95,0.273399293422699,0.22442340850830078,-0.5362726449966431,-0.034028563648462296,0.0027732085436582565,-0.0035977018997073174
7.975,0.2675996422767639,0.23656177520751953,-0.5406649112701416,-0.01616792194545269,0.0016711638309061527,-0.001270413864403963
8.0,0.26712989807128906,0.22560405731201172,-0.5748035907745361,-0.0025363853201270103,0.00030719966161996126,0.0005908552557229996
8.025,0.26703712344169617,0.2177133560180664,-0.6102840304374695,-0.005253096576780081,0.00019744597375392914,-0.0016436341684311628
8.05,0.26048991084098816,0.21747875213623047,-0.6104062795639038,-0.014070084318518639,0.00011528376489877701,-0.003745109774172306
8.075,0.2517230212688446,0.2417612075805664,-0.5773390531539917,-0.021840866655111313,0.00022180331870913506,-0.005138901527971029
8.1,0.26433876156806946,0.2526588439941406,-0.576025664806366,-0.023966707289218903,0.0005457736551761627,-0.004682088270783424
8.125,0.2762331962585449,0.23849105834960938,-0.6063156127929688,-0.01730520837008953,0.0008892477490007877,-0.0020549511536955833
8.15,0.2636756896972656,0.24435710906982422,-0.6058991551399231,-0.012601546943187714,0.0016817953437566757,-0.0013391899410635233
8.175,0.24813726544380188,0.2486715316772461,-0.5818080306053162,-0.011700937524437904,0.0031317484099417925,-0.0016421452164649963
8.2,0.22950312495231628,0.24703502655029297,-0.5778466463088989,-0.011073978617787361,0.004013002850115299,-0.003432649187743664
8.225,0.22412042319774628,0.24852848052978516,-0.5864646434783936,-0.012972237542271614,0.0036302958615124226,-0.006535302847623825
8.25,0.24468371272087097,0.24170970916748047,-0.5889040231704712,-0.01646357588469982,0.0025138380005955696,-0.008377764374017715
8.275,0.26634034514427185,0.23947811126708984,-0.5823030471801758,-0.017398515716195107,0.0008524712175130844,-0.008138163946568966
8.3,0.27061229944229126,0.24064922332763672,-0.5752317309379578,-0.01396203599870205,0.001954603474587202,-0.006480838172137737
8.325,0.24955226480960846,0.24877452850341797,-0.5680371522903442,-0.007794197183102369,0.0022021527402102947,-0.0042041754350066185
8.35,0.22393113374710083,0.26702213287353516,-0.5710437893867493,-0.0018887994810938835,0.0018442177679389715,-0.0011812939774245024
8.375,0.22194266319274902,0.2763690948486328,-0.585080087184906,-0.0012428180780261755,0.0016168364090844989,0.001250723609700799
8.4,0.23477844893932343,0.26244449615478516,-0.5820268988609314,-0.004835840780287981,0.002052519703283906,0.0014052458573132753
8.425,0.2353803515434265,0.24323749542236328,-0.5816513299942017,-0.0042138975113630295,0.004909903276711702,0.0017104886937886477
8.45,0.22750797867774963,0.23223304748535156,-0.5999572277069092,-0.005567660555243492,0.008546526543796062,0.002430311171337962
8.475,0.24089424312114716,0.2414102554321289,-0.6048856973648071,-0.013144384138286114,0.011072942987084389,0.0019319021375849843
8.5,0.27568212151527405,0.2461080551147461,-0.5958359837532043,-0.014579039998352528,0.0108408872038126,0.0014085069997236133
8.525,0.29431161284446716,0.2302103042602539,-0.5830451250076294,-0.011885209940373898,0.009662522934377193,0.0018567778170108795
8.55,0.2867088317871094,0.21538925170898438,-0.5729817152023315,-0.00844554416835308,0.007793426513671875,0.0012382313143461943
8.575,0.27414873242378235,0.21041107177734375,-0.5805666446685791,-0.0009165090159513056,0.0046445755288004875,0.00036522658774629235
8.6,0.2664799094200134,0.22843647003173828,-0.5942367911338806,0.0061026872135698795,0.0018147928640246391,0.00040073288255371153
8.625,0.2568856179714203,0.25438880920410156,-0.6000826954841614,0.006425871979445219,0.000862609245814383,-0.0009594361763447523
8.65,0.24667228758335114,0.2683725357055664,-0.598355770111084,0.002771493513137102,0.000751219573430717,-0.0034260812681168318
8.675,0.24649593234062195,0.27097415924072266,-0.5895278453826904,-0.00024034999660216272,0.0016291753854602575,-0.003114311723038554
8.7,0.25764644145965576,0.2638378143310547,-0.5793613791465759,-0.0023968864697963,0.002742254175245762,-0.0022164073307067156
8.725,0.25891798734664917,0.24099445343017578,-0.5783184766769409,-0.0025271528866142035,0.002876301296055317,-0.0021589004900306463
8.75,0.2527119517326355,0.21236133575439453,-0.5735263228416443,-0.002040086081251502,0.0019567725248634815,-0.0022870150860399008
8.775,0.2625419795513153,0.20215129852294922,-0.5882866978645325,-0.0006729195010848343,0.002196046058088541,-0.0006665066466666758
8.8,0.2806486487388611,0.20353412628173828,-0.6227255463600159,0.0008631762466393411,0.002481951145455241,0.001135602593421936
8.825,0.2825165390968323,0.20967769622802734,-0.6253146529197693,0.0008506841259077191,0.001700732158496976,-0.0002621069725137204
8.85,0.27038002014160156,0.2225027084350586,-0.5999429225921631,0.0022796739358454943,0.0016198335215449333,-0.0031624704133719206
8.875,0.26159346103668213,0.23392868041992188,-0.5816752314567566,0.008316141553223133,0.0013135545887053013,-0.003721152897924185
8.9,0.2537401020526886,0.23168277740478516,-0.5842099189758301,0.012967733666300774,0.0006905556656420231,-0.0024376590736210346
8.925,0.2514193654060364,0.21053028106689453,-0.5799058675765991,0.009949101135134697,0.002313450677320361,-0.0017479429952800274
8.95,0.2638617753982544,0.202545166015625,-0.5646401643753052,0.0052368794567883015,0.0014814607566222548,-0.0014074291102588177
8.975,0.28617310523986816,0.20458507537841797,-0.5696014165878296,0.0020569658372551203,-0.0007567387074232101,-0.0030650778207927942
9.0,0.2991509437561035,0.1909799575805664,-0.584993839263916,0.0018696626648306847,-0.000820320681668818,-0.0032036148477345705
9.025,0.29076552391052246,0.17805957794189453,-0.5928934216499329,0.005174627061933279,0.0008573386585339904,0.000721107586286962
9.05,0.27586957812309265,0.18742084503173828,-0.5879749655723572,0.008312268182635307,0.001097650034353137,0.0020638369023799896
9.075,0.2792763411998749,0.1970071792602539,-0.5730897784233093,0.008835866115987301,-0.00069579784758389,0.00040913248085416853
9.1,0.2770557403564453,0.21595287322998047,-0.5619943141937256,0.008828354068100452,-0.0007416149601340294,0.0003359171678312123
9.125,0.24987339973449707,0.24003124237060547,-0.567350447177887,0.011066041886806488,0.0010011752601712942,0.0016425542999058962
9.15,0.24261124432086945,0.2342681884765625,-0.58925461769104,0.014681598171591759,0.0018778762314468622,0.0010376779828220606
9.175,0.26392340660095215,0.23212337493896484,-0.6042038798332214,0.01640685275197029,0.0007272018119692802,-0.0011995325330644846
9.2,0.2760343849658966,0.2556333541870117,-0.5932268500328064,0.016149498522281647,-0.0007748487405478954,-0.0008795608300715685
9.225,0.2740083932876587,0.27162647247314453,-0.5780134201049805,0.027695734053850174,-0.0011429088190197945,0.003975674044340849
9.25,0.2662244141101837,0.26491546630859375,-0.5779907703399658,0.04949751868844032,-0.0013067200779914856,0.009031151421368122
9.275,0.2549705505371094,0.25637149810791016,-0.5893213748931885,0.062447112053632736,-0.0034665893763303757,0.007971327751874924
9.3,0.24165841937065125,0.2572135925292969,-0.5967977046966553,0.062085412442684174,-0.005610799416899681,0.004494411870837212
9.325,0.24191315472126007,0.2619895935058594,-0.5890655517578125,0.05896996334195137,-0.007958691567182541,0.002400146098807454
9.35,0.2503218352794647,0.2675189971923828,-0.5871349573135376,0.06171853840351105,-0.011988840997219086,0.0009705042466521263
9.375,0.23700249195098877,0.2829437255859375,-0.5890086889266968,0.05913390591740608,-0.02044820971786976,0.0020522880367934704
9.4,0.22130125761032104,0.2897968292236328,-0.5721266269683838,0.058969590812921524,-0.022346055135130882,0.007730694022029638
9.425,0.2386162281036377,0.29378604888916016,-0.5660115480422974,0.09167894721031189,-0.0107949897646904,0.0297662615776062
9.45,0.30389994382858276,0.3579740524291992,-0.566736102104187,0.1579054594039917,0.01161196455359459,0.06609682738780975
9.475,0.41120755672454834,0.45015811920166016,-0.5441833734512329,0.2781566083431244,0.06265746802091599,0.07354286313056946
9.5,0.4909014403820038,0.557307243347168,-0.577189564704895,0.4091453552246094,0.10028808563947678,-0.008918866515159607
9.525,0.6007970571517944,0.7570762634277344,-0.8558073043823242,0.45880722999572754,0.0722389966249466,-0.1467650979757309
9.55,0.8924274444580078,0.934168815612793,-1.5750360488891602,0.42755764722824097,0.015967100858688354,-0.289446085691452
9.575,1.1164071559906006,0.8220987319946289,-2.5501818656921387,0.2417236715555191,-0.11058662831783295,-0.5318520665168762
9.6,1.0168150663375854,0.48213958740234375,-3.080634593963623,-0.1553473025560379,-0.40447473526000977,-0.8350456953048706
9.625,0.9040866494178772,0.1343393325805664,-3.047569751739502,-0.392750084400177,-0.8502172231674194,-0.9784476161003113
9.65,0.9659903645515442,-0.23526859283447266,-3.078427791595459,-0.2978537380695343,-1.4381606578826904,-0.9039122462272644
9.675,0.9253200888633728,-0.8108930587768555,-2.8286569118499756,-0.15801790356636047,-2.226454496383667,-0.75669926404953
9.7,0.41836613416671753,-1.438455581665039,-1.4049350023269653,-0.04512196034193039,-3.112665891647339,-0.46000000834465027
9.725,-0.8030582666397095,-1.7243070602416992,0.6492247581481934,-0.044098079204559326,-3.5817480087280273,0.03752706199884415
9.75,-2.3613646030426025,-1.751479148864746,2.3280723094940186,-0.22718089818954468,-3.289449453353882,0.5854321122169495
9.775,-2.2733330726623535,-0.44625091552734375,3.2673254013061523,-0.6719037294387817,-2.22438907623291,1.0587873458862305
9.8,0.6136902570724487,3.212918281555176,2.7238781452178955,-1.0191547870635986,-0.7453334927558899,1.358368158340454
9.825,2.1777355670928955,4.676352500915527,1.0885279178619385,-0.7391846179962158,0.07511836290359497,0.9110037684440613
9.85,1.1645641326904297,2.27927303314209,-0.10566625744104385,-0.24445289373397827,0.09072022140026093,0.22829805314540863
9.875,0.6519314050674438,0.7186622619628906,-0.6359338760375977,-0.0915265753865242,0.010196343064308167,0.1651320904493332
9.9,0.49032965302467346,0.4302644729614258,-0.7190020680427551,-0.10049335658550262,-0.04315326362848282,0.12499485909938812
9.925,0.3165086805820465,0.3542308807373047,-0.6750451922416687,-0.07472359389066696,-0.05413246899843216,0.07433842122554779
9.95,0.23633666336536407,0.32058048248291016,-0.6120778322219849,-0.03627962991595268,-0.0375213585793972,0.02265864424407482
9.975,0.22932398319244385,0.2820396423339844,-0.5576875805854797,-0.012058962136507034,-0.007709639146924019,-0.00027075514663010836
10.0,0.25895610451698303,0.24727344512939453,-0.536057710647583,-0.0036322069354355335,0.010749327018857002,-0.0062271831557154655
10.025,0.24441739916801453,0.2332620620727539,-0.5272952914237976,-0.008005695417523384,0.008037818595767021,-0.018513353541493416
10.05,0.16767016053199768,0.2258138656616211,-0.47948357462882996,-0.027847884222865105,0.0066513242200016975,-0.033415839076042175
10.075,0.14421617984771729,0.2311687469482422,-0.4326871931552887,-0.01934479922056198,0.017550477758049965,-0.00562372338026762
10.1,0.2168579399585724,0.23800182342529297,-0.4860132336616516,0.023525521159172058,0.020292222499847412,0.038310758769512177
10.125,0.2866155505180359,0.20907878875732422,-0.6068317294120789,0.043586309999227524,0.006563947536051273,0.03424521163105965
10.15,0.31255042552948,0.18724727630615234,-0.6628924012184143,0.015465622767806053,-0.004648065194487572,-0.00023440399672836065
10.175,0.3208431005477905,0.22433948516845703,-0.6065598130226135,-0.03808711841702461,-0.0067582810297608376,-0.04250963777303696
10.2,0.27921923995018005,0.2714672088623047,-0.48589977622032166,-0.07620051503181458,-0.0063106343150138855,-0.07454336434602737
10.225,0.21359679102897644,0.27675342559814453,-0.4037679433822632,-0.07695792615413666,-0.007976202294230461,-0.07863225787878036
10.25,0.2161518782377243,0.25475215911865234,-0.4643475413322449,-0.055779218673706055,-0.010703887790441513,-0.06033029407262802
10.275,0.2470686286687851,0.23211193084716797,-0.584754228591919,-0.05995897948741913,-0.009882163256406784,-0.05620124936103821
10.3,0.23878084123134613,0.2291860580444336,-0.6124746799468994,-0.10912849009037018,-0.006067965179681778,-0.08659189939498901
10.325,0.20691877603530884,0.2418985366821289,-0.5349311828613281,-0.16441477835178375,-0.0033930838108062744,-0.11968269944190979
10.35,0.1775553971529007,0.25653553009033203,-0.41126155853271484,-0.18341423571109772,-0.007560759782791138,-0.11897290498018265
10.375,0.1585720330476761,0.24918079376220703,-0.3338695764541626,-0.1560710221529007,-0.01046191155910492,-0.09182891249656677
10.4,0.15538406372070312,0.21293354034423828,-0.36529216170310974,-0.11063699424266815,-0.007099378854036331,-0.06216702237725258
10.425,0.1550655961036682,0.21732807159423828,-0.3964182138442993,-0.10849417746067047,-0.0004799887537956238,-0.05248035490512848
10.45,0.1464003026485443,0.2870321273803711,-0.3700251281261444,-0.12669333815574646,0.00999174639582634,-0.06021806597709656
10.475,0.14848074316978455,0.3241004943847656,-0.3927295506000519,-0.09240185469388962,0.01610569655895233,-0.043914586305618286
10.5,0.18336738646030426,0.28695011138916016,-0.4766221046447754,-0.03611103817820549,0.016641831025481224,-0.009310944005846977
10.525,0.24535061419010162,0.2455911636352539,-0.5217610597610474,-0.010639749467372894,0.009391231462359428,0.021220136433839798
10.55,0.25192394852638245,0.24572277069091797,-0.48273608088493347,-0.011861525475978851,-0.002389245666563511,0.02972954884171486
10.575,0.2353500872850418,0.2649679183959961,-0.47132229804992676,-0.004151466302573681,-0.007097436580806971,0.026981839910149574
10.6,0.2790343165397644,0.2776041030883789,-0.5736747980117798,0.019586708396673203,-0.008476605638861656,0.03776877373456955
10.625,0.31991949677467346,0.27985286712646484,-0.66354900598526,0.006600198335945606,-0.011016720905900002,0.026152269914746284
10.65,0.3086581528186798,0.2669038772583008,-0.6137263178825378,-0.052199121564626694,-0.017484724521636963,-0.012626180425286293
10.675,0.2746252417564392,0.24501419067382812,-0.5173061490058899,-0.08343496173620224,-0.023147467523813248,-0.02769201248884201
10.7,0.23574575781822205,0.2468128204345703,-0.4684586524963379,-0.0671544149518013,-0.018961044028401375,-0.027846481651067734
10.725,0.18369585275650024,0.2680377960205078,-0.4349803626537323,-0.04366077482700348,-0.019794786348938942,-0.01826157420873642
10.75,0.1086932122707367,0.24839496612548828,-0.4304574728012085,-0.02543921396136284,-0.022498738020658493,0.002230564597994089
10.775,0.09471981227397919,0.20089244842529297,-0.47908011078834534,0.0012483892496675253,-0.010367603972554207,0.043407563120126724
10.8,0.1431882530450821,0.18605709075927734,-0.5288779139518738,0.029623309150338173,0.0047913650050759315,0.06350620090961456
10.825,0.19272980093955994,0.20363521575927734,-0.5648477673530579,0.05732659250497818,0.030669892206788063,0.06141677126288414
10.85,0.25417912006378174,0.2352914810180664,-0.5623831152915955,0.08145388215780258,0.06152335926890373,0.07509743422269821
10.875,0.26762986183166504,0.25568580627441406,-0.539248526096344,0.09013260155916214,0.06357075273990631,0.0500202439725399
10.9,0.2669360935688019,0.2458963394165039,-0.5758445858955383,0.08785033226013184,0.043857041746377945,0.011776859872043133
10.925,0.3102071285247803,0.23077011108398438,-0.6094927787780762,0.06065724045038223,0.021109767258167267,-0.026094496250152588
10.95,0.30321910977363586,0.23963451385498047,-0.5979408025741577,0.018428146839141846,0.0011516399681568146,-0.0639009028673172
10.975,0.23596252501010895,0.23124217987060547,-0.7720052599906921,0.010161086916923523,-0.009267013520002365,-0.07660150527954102
11.0,0.265423446893692,0.17447471618652344,-1.251423954963684,0.035812631249427795,-0.010915146209299564,-0.0823337659239769
11.025,0.37754154205322266,0.1970529556274414,-1.282909631729126,0.014095436781644821,-0.038839321583509445,-0.11564507335424423
11.05,0.444543719291687,0.3172740936279297,-0.7524201273918152,-0.03704459220170975,-0.10073230415582657,-0.15248802304267883
11.075,0.5465002655982971,0.4088582992553711,-0.5264930129051208,-0.030294036492705345,-0.1752154678106308,-0.18437699973583221
11.1,0.7019513249397278,0.40561962127685547,-0.714131236076355,0.0016861353069543839,-0.2492830604314804,-0.23221351206302643
11.125,1.4653550386428833,0.5911188125610352,-1.6497796773910522,0.005657011643052101,-0.2589383125305176,-0.28503766655921936
11.15,3.9263250827789307,1.427877426147461,-3.6202633380889893,-0.1549481302499771,-0.28782910108566284,-0.426929771900177
11.175,6.440279960632324,2.093979835510254,-4.700644016265869,-0.6441110968589783,-0.7678117156028748,-0.9766960144042969
11.2,6.947030067443848,1.623361587524414,-3.5441365242004395,-1.0298211574554443,-1.856846809387207,-1.706654667854309
11.225,6.241544723510742,-0.02624797821044922,-1.4954824447631836,-1.0848565101623535,-3.063119888305664,-2.1676642894744873
11.25,5.329062461853027,-1.710209846496582,0.6310176849365234,-1.3737435340881348,-4.00039529800415,-1.9806721210479736
11.275,6.185739040374756,-0.8128137588500977,0.6737689971923828,-1.9384411573410034,-3.866846799850464,-0.23518821597099304
11.3,7.4808502197265625,1.2349891662597656,-1.9196374416351318,-2.4616658687591553,-3.2226197719573975,1.4695580005645752
11.325,5.740061283111572,1.6046018600463867,-4.200460910797119,-2.658006429672241,-3.385953426361084,2.091111660003662
11.35,2.3992109298706055,1.2348413467407227,-5.4241943359375,-2.6630306243896484,-3.5913608074188232,2.660418748855591
11.375,-0.5126664042472839,0.9280376434326172,-6.500951766967773,-2.464866876602173,-3.3111069202423096,2.8512589931488037
11.4,-2.0104124546051025,-0.03329181671142578,-7.88287878036499,-1.8089346885681152,-2.4719533920288086,2.3727986812591553
11.425,-1.7751896381378174,-1.6885509490966797,-9.059408187866211,-0.7958608269691467,-1.6171681880950928,1.4864450693130493
11.45,-0.5159651041030884,-2.501284599304199,-9.246509552001953,0.13100072741508484,-1.3543429374694824,0.9339725971221924
11.475,0.5659715533256531,-1.8605375289916992,-8.355561256408691,0.9470013976097107,-1.6771023273468018,0.8305939435958862
11.5,1.189784049987793,-0.36168766021728516,-6.811837196350098,1.7270793914794922,-2.0351881980895996,0.8611419200897217
11.525,1.6888506412506104,1.2857179641723633,-4.9556474685668945,2.475158929824829,-2.150911808013916,0.8175355792045593
11.55,2.244729995727539,2.757227897644043,-2.845540761947632,3.100510358810425,-2.1680307388305664,0.7677956223487854
11.575,2.8794302940368652,4.284501075744629,-0.14106974005699158,3.436056137084961,-2.3145720958709717,0.8506512641906738
11.6,2.975054979324341,5.445633888244629,3.5734384059906006,3.562159776687622,-2.763575315475464,1.080810546875
11.625,1.5134408473968506,4.53708553314209,7.607985496520996,3.7072765827178955,-3.4331014156341553,1.207281470298767
11.65,-0.8126291632652283,1.0818357467651367,11.102062225341797,3.5895121097564697,-3.758356809616089,1.1967211961746216
11.675,-2.9783124923706055,-3.4638938903808594,13.808350563049316,2.9319863319396973,-3.516714334487915,1.0876749753952026
11.7,-5.273666858673096,-7.129654884338379,15.064563751220703,1.9370977878570557,-3.218008518218994,0.9022403359413147
11.725,-7.800220489501953,-8.415054321289062,14.059687614440918,0.8708084225654602,-3.3194589614868164,0.4362536668777466
11.75,-8.557632446289062,-8.05903434753418,5.7521209716796875,0.1498750001192093,-3.4195127487182617,-0.21696153283119202
11.775,-4.984429359436035,-8.006250381469727,-11.707386016845703,-0.46464380621910095,-3.1059110164642334,-1.0768166780471802
11.8,-2.465689182281494,-7.014313220977783,-18.9363956451416,-2.136498212814331,-2.420524835586548,-2.9802660942077637
11.825,-3.76596736907959,-1.868032455444336,-9.498193740844727,-3.057260513305664,-0.7775082588195801,-3.6161952018737793
11.85,-2.5544731616973877,1.9053630828857422,-1.489587426185608,-1.9310015439987183,0.44752734899520874,-1.9395285844802856
11.875,-0.5336844325065613,1.544419288635254,0.7318220138549805,-0.7695513963699341,0.23411107063293457,-0.7269827723503113
11.9,-0.06785304099321365,0.847163200378418,0.7632999420166016,-0.18679028749465942,-0.009211413562297821,-0.3163120150566101
11.925,-0.22826534509658813,0.5623598098754883,0.10710038244724274,-0.19130529463291168,-0.014275023713707924,-0.13597416877746582
11.95,-0.33211132884025574,0.45477771759033203,-0.1199125275015831,-0.22400981187820435,-0.025010794401168823,-0.027939893305301666
11.975,-0.08554229140281677,0.38687610626220703,0.13276439905166626,-0.26857247948646545,-0.059935830533504486,0.09171821177005768
12.0,0.1772204339504242,0.27788257598876953,0.11878872662782669,-0.17120946943759918,-0.10604602098464966,0.10924921184778214
12.025,0.2106456160545349,0.21207141876220703,-0.1511279046535492,-0.029892457649111748,-0.08852294087409973,0.06979993730783463
12.05,0.06529691070318222,0.21424198150634766,-0.3349129557609558,0.02388378418982029,-0.024478405714035034,0.01075916551053524
12.075,-0.047536130994558334,0.2425069808959961,-0.347748726606369,-0.04345716908574104,0.006638847291469574,-0.0341043584048748
12.1,-0.040261633694171906,0.27564525604248047,-0.29958200454711914,-0.13158996403217316,0.0041086673736572266,-0.05456185340881348
12.125,-0.007140781730413437,0.30973148345947266,-0.28727462887763977,-0.16458778083324432,0.008135206997394562,-0.07702154666185379
12.15,-0.008184332400560379,0.33153247833251953,-0.30420851707458496,-0.17721307277679443,0.026349693536758423,-0.10364404320716858
12.175,0.003990398719906807,0.32955455780029297,-0.32422107458114624,-0.20384931564331055,0.029155727475881577,-0.11346106231212616
12.2,0.017622556537389755,0.33403587341308594,-0.37257111072540283,-0.22934459149837494,0.018814604729413986,-0.12261057645082474
12.225,-0.026738308370113373,0.3683309555053711,-0.4561958312988281,-0.25495195388793945,0.010965965688228607,-0.15290212631225586
12.25,-0.05475415289402008,0.4062204360961914,-0.5564351677894592,-0.3027153015136719,-0.0013601034879684448,-0.18447859585285187
12.275,-0.001927204430103302,0.43517112731933594,-0.6600459814071655,-0.3775008022785187,-0.02715420536696911,-0.2152472585439682
12.3,0.1309008002281189,0.5231971740722656,-0.7924472689628601,-0.4524801969528198,-0.09325478971004486,-0.2751702666282654
12.325,0.32279419898986816,0.7481412887573242,-1.1063885688781738,-0.5239943265914917,-0.17688708007335663,-0.3876568377017975
12.35,0.6072379350662231,1.134408950805664,-1.6991031169891357,-0.6623615026473999,-0.25807780027389526,-0.5550934672355652
12.375,0.9615142941474915,1.4136037826538086,-2.373133897781372,-1.0074882507324219,-0.3547579050064087,-0.8019798398017883
12.4,1.2587087154388428,1.3856878280639648,-3.0501692295074463,-1.6460579633712769,-0.3201340436935425,-1.0805509090423584
12.425,1.8019075393676758,1.0827455520629883,-3.643618106842041,-2.554626226425171,-0.10968371480703354,-1.341709017753601
12.45,2.866018533706665,0.40691471099853516,-3.6711840629577637,-3.707181692123413,0.3863087594509125,-1.6910396814346313
12.475,4.700041770935059,0.36917781829833984,-2.544882297515869,-4.813008785247803,1.1666353940963745,-2.4172372817993164
12.5,6.883286476135254,3.546322822570801,-1.0632060766220093,-5.198791027069092,1.2849695682525635,-3.8047616481781006
12.525,8.070226669311523,7.9993486404418945,-2.448873519897461,-4.527451038360596,-0.1766514778137207,-4.67704963684082
12.55,9.347477912902832,5.242190361022949,-5.419821262359619,-2.8624746799468994,-0.7499819993972778,-3.355679512023926
12.575,10.608720779418945,-2.2662734985351562,-5.940681457519531,-0.7504249811172485,0.0157955139875412,-2.0226023197174072
12.6,10.30588150024414,-5.674938201904297,-5.264682769775391,0.5916295051574707,0.10762142390012741,-1.4884411096572876
12.625,9.190305709838867,-6.0564727783203125,-4.961371898651123,1.2365031242370605,-0.027983538806438446,-0.3566285967826843
12.65,8.07982063293457,-5.936526298522949,-5.0077643394470215,1.814002513885498,-0.2543526291847229,0.9028332829475403
12.675,7.130857467651367,-5.416584491729736,-4.955582141876221,2.515780448913574,-0.3485775589942932,1.9711384773254395
12.7,6.298855304718018,-3.903517723083496,-4.41813325881958,3.2072577476501465,-0.17142876982688904,2.669843912124634
12.725,5.518421173095703,-1.1673555374145508,-3.1281144618988037,3.7169408798217773,0.3227410316467285,3.1283390522003174
12.75,4.878894805908203,2.356625556945801,-1.0991690158843994,3.85855770111084,0.7870267629623413,3.5848755836486816
12.775,3.761366605758667,6.119643211364746,1.462511658668518,3.6066884994506836,0.6769733428955078,3.9421212673187256
12.8,0.9711170196533203,9.087584495544434,4.462955951690674,3.2148444652557373,0.056526899337768555,4.127236843109131
12.825,-3.3600516319274902,9.519970893859863,7.3157148361206055,2.9880635738372803,-0.6408793926239014,4.3218159675598145
12.85,-8.12252140045166,6.571610450744629,8.768465042114258,2.9667582511901855,-1.1986865997314453,4.42558479309082
12.875,-12.807511329650879,1.1357440948486328,8.405343055725098,2.71720552444458,-1.5838764905929565,4.207494735717773
12.9,-16.45098876953125,-5.4215545654296875,7.6061906814575195,2.2199454307556152,-1.8817836046218872,3.365600109100342
12.925,-17.70734405517578,-10.453619956970215,7.00750732421875,1.5919914245605469,-1.2475078105926514,2.1051573753356934
12.95,-16.001964569091797,-10.467432022094727,6.631985187530518,0.49483343958854675,-0.0026101768016815186,0.8373780250549316
12.975,-11.600373268127441,-6.215386390686035,7.163590431213379,-0.17834869027137756,0.37055686116218567,-0.37015023827552795
13.0,-8.951688766479492,-1.8720645904541016,9.006757736206055,-0.19255003333091736,0.0872882604598999,-1.1476932764053345
13.025,-14.098559379577637,0.5941944122314453,9.570398330688477,-0.20705825090408325,-0.3104986548423767,-2.750643253326416
13.05,-16.19980812072754,4.451623916625977,5.9991536140441895,-0.7574257254600525,-0.6431717872619629,-3.9885528087615967
13.075,-8.760716438293457,7.498593330383301,3.1169464588165283,-1.5225499868392944,-0.4289107918739319,-2.9987616539001465
13.1,-3.7765448093414307,6.026339530944824,1.7360743284225464,-1.039081335067749,-0.34547096490859985,-1.7378606796264648
13.125,-1.7863997220993042,2.4978485107421875,-0.05232410877943039,-0.38775384426116943,-0.4990330934524536,-0.6635119318962097
13.15,-0.1635635495185852,0.4166994094848633,-0.5034942030906677,-0.3606385588645935,-0.3710232973098755,-0.10762172937393188
13.175,0.0007883906364440918,0.10183906555175781,-0.6599534153938293,-0.17308905720710754,-0.26761841773986816,-0.2604392468929291
13.2,-0.43805229663848877,0.4371061325073242,-0.7592108249664307,0.006959725171327591,-0.19454796612262726,-0.41690024733543396
13.225,-0.5142392516136169,0.5216150283813477,-0.775067150592804,0.03293479233980179,-0.15500998497009277,-0.3058612644672394
13.25,-0.22498519718647003,0.34881591796875,-0.6389510035514832,-0.05799877643585205,-0.08334220200777054,-0.08824016153812408
13.275,0.0034717656672000885,0.2526092529296875,-0.5281106233596802,-0.06151709705591202,-0.007442650385200977,-0.0275711752474308
13.3,0.028298435732722282,0.24503231048583984,-0.6322295665740967,0.00694484356790781,0.03403612598776817,-0.07529526203870773
13.325,0.001528218388557434,0.2307119369506836,-0.6542586088180542,-0.026183586567640305,0.059463128447532654,-0.11802181601524353
13.35,-0.04180432856082916,0.20570850372314453,-0.576036274433136,-0.057975560426712036,0.08913001418113708,-0.13597886264324188
13.375,-0.10583069920539856,0.18554019927978516,-0.6447532773017883,-0.0028015607967972755,0.11552447825670242,-0.14168013632297516
13.4,-0.13772808015346527,0.2014474868774414,-0.7773171663284302,0.023120343685150146,0.13335742056369781,-0.1340252012014389
13.425,-0.1356825828552246,0.24505138397216797,-0.7811518907546997,-0.007245169952511787,0.14655187726020813,-0.11672625690698624
13.45,-0.1294310986995697,0.2632608413696289,-0.7077627778053284,-0.03475669026374817,0.1482923924922943,-0.10126873105764389
13.475,-0.05017347261309624,0.25107574462890625,-0.6664512753486633,-0.042529840022325516,0.14516273140907288,-0.08522477000951767
13.5,0.07383839786052704,0.2617368698120117,-0.6946080327033997,-0.03903287649154663,0.15132354199886322,-0.08734557777643204
13.525,0.08119524270296097,0.30639076232910156,-0.8032890558242798,-0.044840194284915924,0.15609094500541687,-0.1194780170917511
13.55,0.008077919483184814,0.37034034729003906,-0.940898060798645,-0.10517044365406036,0.13673751056194305,-0.1580035388469696
13.575,0.05061011761426926,0.5016651153564453,-1.111769676208496,-0.23508338630199432,0.09428084641695023,-0.18471331894397736
13.6,0.32132789492607117,0.7466859817504883,-1.379210352897644,-0.41889336705207825,0.04718705266714096,-0.2301073968410492
13.625,0.7698197960853577,1.037099838256836,-1.7431777715682983,-0.6639493703842163,-0.008035901933908463,-0.37614262104034424
13.65,1.1709418296813965,1.3212223052978516,-2.318955659866333,-0.9627248644828796,-0.08376510441303253,-0.690590500831604
13.675,1.372969388961792,1.4202194213867188,-3.087285280227661,-1.4251734018325806,-0.0909431129693985,-1.1146540641784668
13.7,1.3792836666107178,1.0101232528686523,-3.777223587036133,-2.2608048915863037,0.1992190182209015,-1.489148736000061
13.725,1.6425539255142212,0.25384998321533203,-3.8875832557678223,-3.4590659141540527,0.8188124895095825,-1.7677189111709595
13.75,2.7259788513183594,0.3560018539428711,-3.110487937927246,-4.698493480682373,1.4485013484954834,-2.1981377601623535
13.775,4.010269641876221,3.5335922241210938,-2.866119623184204,-5.474886417388916,1.5408421754837036,-3.0810067653656006
13.8,4.53493070602417,7.318285942077637,-6.108351230621338,-5.248219966888428,0.7943795919418335,-3.482194185256958
13.825,5.067258358001709,3.8263397216796875,-9.824615478515625,-2.9728477001190186,1.0781235694885254,-2.5972061157226562
13.85,6.677718639373779,-3.0722737312316895,-8.917411804199219,0.49038273096084595,2.479069232940674,-2.7270050048828125
13.875,8.360771179199219,-6.036159992218018,-6.222535133361816,2.471832752227783,2.697012186050415,-3.299851179122925
13.9,8.326682090759277,-6.817283630371094,-5.242208480834961,2.7977161407470703,1.978284478187561,-2.0516111850738525
13.925,6.849788665771484,-6.491458415985107,-5.813277721405029,2.5757381916046143,1.4710028171539307,-0.051862940192222595
13.95,4.838242053985596,-4.730010032653809,-6.689995765686035,2.670908212661743,1.1452040672302246,1.4244375228881836
13.975,2.8717846870422363,-1.9827804565429688,-6.884502410888672,3.252667188644409,0.9663659334182739,2.1131982803344727
14.0,1.3312699794769287,0.7056064605712891,-6.1077423095703125,4.023030757904053,0.9981296062469482,2.360262155532837
14.025,0.1825789511203766,3.4151716232299805,-4.555504322052002,4.500382900238037,1.078740119934082,2.423159599304199
14.05,-1.2471983432769775,6.909079551696777,-1.8913218975067139,4.387408256530762,1.0427074432373047,2.366197109222412
14.075,-3.8345773220062256,9.070778846740723,2.0499346256256104,4.195720195770264,0.72559654712677,2.4421286582946777
14.1,-8.451353073120117,7.329461097717285,6.690237998962402,4.205843448638916,0.12286150455474854,2.544156551361084
14.125,-13.724785804748535,1.4343748092651367,11.458279609680176,3.860305070877075,-0.14302349090576172,2.5606894493103027
14.15,-15.887787818908691,-6.498152732849121,15.109025955200195,2.9855825901031494,0.6432901620864868,1.9290865659713745
14.175,-12.596063613891602,-10.915190696716309,17.549423217773438,1.3808895349502563,2.3187694549560547,0.6095138192176819
14.2,-5.647140026092529,-8.213801383972168,18.500629425048828,-0.33259305357933044,3.2432875633239746,-0.5238520503044128
14.225,-1.4363670349121094,0.9589967727661133,17.3365535736084,-2.2236759662628174,2.077775478363037,-1.8484336137771606
14.25,-1.287923812866211,10.585894584655762,13.331488609313965,-3.995758533477783,0.04569387435913086,-2.495666980743408
14.275,-1.6912567615509033,10.499354362487793,6.24022912979126,-2.7722487449645996,-0.47654426097869873,-2.335486650466919
14.3,-0.6829223036766052,4.205730438232422,1.2389495372772217,-0.673149585723877,-0.14211243391036987,-1.2273821830749512
14.325,0.6941566467285156,1.0108156204223633,0.12661106884479523,-0.2241256833076477,-0.04278847575187683,-0.14767520129680634
14.35,0.23713940382003784,0.3932933807373047,-0.1020340621471405,-0.05373760312795639,-0.04431155323982239,-0.2841731905937195
14.375,-0.7849333882331848,0.3317995071411133,-0.27815020084381104,0.042033202946186066,-0.044215455651283264,-0.422702819108963
14.4,-1.1714624166488647,0.38467884063720703,-0.3334639072418213,0.10226751863956451,-0.0220915749669075,-0.34398940205574036
14.425,-0.9034289717674255,0.38513851165771484,-0.3626139163970947,0.10178475826978683,0.015181448310613632,-0.11833968013525009
14.45,-0.46967586874961853,0.3924436569213867,-0.24597984552383423,-0.0028468312229961157,0.0514652281999588,0.08511515706777573
14.475,-0.24489063024520874,0.38945865631103516,-0.13365517556667328,-0.09822685271501541,0.07379848510026932,0.16477259993553162
14.5,-0.2706989347934723,0.32637786865234375,-0.17830920219421387,-0.0981886237859726,0.08037132024765015,0.1491072028875351
14.525,-0.3426249027252197,0.25507450103759766,-0.2688865065574646,-0.07127240300178528,0.08661530911922455,0.13686467707157135
14.55,-0.35963311791419983,0.2104501724243164,-0.3040497303009033,-0.04789230227470398,0.10088561475276947,0.1327531337738037
14.575,-0.3582927882671356,0.2011585235595703,-0.30738547444343567,-0.004680396057665348,0.10586177557706833,0.09793669730424881
14.6,-0.34723055362701416,0.22779083251953125,-0.2963317632675171,0.04405031353235245,0.10925424098968506,0.05924621969461441
14.625,-0.37986934185028076,0.25832271575927734,-0.2892286479473114,0.07806459069252014,0.11600179970264435,0.03935122862458229
14.65,-0.44224485754966736,0.24594497680664062,-0.301364928483963,0.0894986093044281,0.11666080355644226,0.061126887798309326
14.675,-0.4365715980529785,0.23984432220458984,-0.292182594537735,0.05850866809487343,0.11468111723661423,0.14967525005340576
14.7,-0.3814471364021301,0.27973365783691406,-0.2915251553058624,0.01923041231930256,0.10712838172912598,0.22254222631454468
14.725,-0.23359650373458862,0.29291248321533203,-0.3541724979877472,0.0070292092859745026,0.09301380068063736,0.23683607578277588
14.75,-0.1231192946434021,0.3129434585571289,-0.4228658080101013,-0.0011535370722413063,0.08958485722541809,0.20085597038269043
14.775,-0.09245315194129944,0.38686084747314453,-0.6193601489067078,-0.02877306193113327,0.09960588067770004,0.1517781913280487
14.8,0.14656169712543488,0.5090818405151367,-1.0223549604415894,-0.1254977434873581,0.12285745143890381,0.17623838782310486
14.825,0.35642313957214355,0.7576093673706055,-1.1500080823898315,-0.3636176586151123,0.21023155748844147,0.16829486191272736
14.85,0.0024512112140655518,1.019871711730957,-1.1345781087875366,-0.6095275282859802,0.318185031414032,0.006407476961612701
14.875,-0.6615692377090454,0.9959640502929688,-1.193598747253418,-0.9088672995567322,0.44213753938674927,-0.04843369871377945
14.9,0.04462220147252083,0.7401762008666992,-0.468163400888443,-1.3195545673370361,0.8668452501296997,0.36686432361602783
14.925,2.446962833404541,0.8526287078857422,2.389910936355591,-1.4147545099258423,1.7302590608596802,0.7683133482933044
14.95,5.579624176025391,1.3094072341918945,5.916698932647705,-1.0448558330535889,2.9707398414611816,0.6010943651199341
14.975,8.015181541442871,1.1313133239746094,5.706242084503174,-0.39764603972435,4.106515884399414,-0.08705794811248779
15.0,7.918002605438232,0.6935338973999023,2.203110456466675,-0.16020488739013672,4.82989501953125,-0.816177248954773
15.025,5.655183792114258,0.12406253814697266,-0.6286028623580933,-0.29930806159973145,5.087080001831055,-0.796543538570404
15.05,2.8906679153442383,-1.394667625427246,-1.8253538608551025,-0.3180164694786072,4.8771162033081055,-0.19960489869117737
15.075,0.7592563629150391,-3.8029632568359375,-2.571169853210449,-0.5253769755363464,4.652019500732422,0.2828969955444336
15.1,-1.6816309690475464,-6.227607727050781,-3.523965835571289,-1.44413423538208,4.276957035064697,0.8577868938446045
15.125,-6.475378513336182,-7.782461643218994,-5.746039390563965,-2.3475427627563477,3.282249927520752,2.0513839721679688
15.15,-11.82075023651123,-5.690666198730469,-7.0721435546875,-1.1668744087219238,2.636906147003174,1.9742412567138672
15.175,-9.430418014526367,1.6285333633422852,-1.6546988487243652,0.3316907584667206,2.658372402191162,-0.14687569439411163
15.2,-4.4634575843811035,4.64389705657959,3.512084484100342,0.5199995040893555,1.5811723470687866,-1.475171685218811
15.225,-4.115170478820801,2.3349151611328125,2.271667003631592,0.5900105237960815,0.05955137312412262,-0.9216635227203369
15.25,-2.96569561958313,1.4825096130371094,0.19731605052947998,0.60466068983078,-0.5710123181343079,0.0647081732749939
15.275,-1.6100518703460693,1.189652442932129,-0.6827203035354614,0.5872052907943726,-0.5854268074035645,0.7748478055000305
15.3,-0.8729485869407654,0.7038774490356445,-1.0584458112716675,0.6316814422607422,-0.16101235151290894,1.3868598937988281
15.325,-0.2995172142982483,0.4569692611694336,-0.9228004813194275,0.6425824165344238,0.44565239548683167,1.7197843790054321
15.35,0.1286236047744751,0.22155284881591797,-0.4965294301509857,0.5924948453903198,0.9275801181793213,1.6594913005828857
15.375,0.005806040018796921,-0.025740623474121094,-0.18966297805309296,0.5697091221809387,0.9699137806892395,1.277052640914917
15.4,-1.3605127334594727,0.4455528259277344,0.8964150547981262,0.5254133939743042,0.5844361782073975,0.6640118360519409
15.425,-3.005380392074585,1.637582778930664,3.8896849155426025,0.14732512831687927,0.2324354648590088,-0.40239211916923523
15.45,-0.6833363175392151,2.1837921142578125,7.1697773933410645,-0.8315463066101074,1.0689518451690674,-1.9545475244522095
15.475,6.136258602142334,1.5659027099609375,7.597541809082031,-1.7436093091964722,3.443577289581299,-2.5788068771362305
15.5,11.413955688476562,-0.03879261016845703,4.835699558258057,-2.0372891426086426,4.730818748474121,-1.7763553857803345
15.525,12.490254402160645,-2.1993770599365234,1.9077506065368652,-1.9765104055404663,3.6208813190460205,-0.9557805061340332
15.55,11.67874813079834,-2.7819337844848633,-0.33370983600616455,-1.804214358329773,2.663050413131714,-0.39903831481933594
15.575,9.916756629943848,-1.0304288864135742,-2.6493632793426514,-1.9097201824188232,2.3998138904571533,0.21061573922634125
15.6,7.122236251831055,1.2375011444091797,-4.1997971534729,-2.354995012283325,1.462634563446045,0.7446886301040649
15.625,3.309349775314331,2.0887746810913086,-5.157325267791748,-2.620358943939209,0.46690988540649414,0.8510570526123047
15.65,-1.623818278312683,1.0558910369873047,-6.361611366271973,-2.3821895122528076,-0.1754833459854126,0.8075998425483704
15.675,-6.7433881759643555,-0.3493642807006836,-6.678476333618164,-1.5104018449783325,-0.4116424322128296,1.1938554048538208
15.7,-10.838098526000977,-0.9496679306030273,-4.814319133758545,-0.3388271927833557,0.039579376578330994,1.2618683576583862
15.725,-12.981979370117188,-1.0786619186401367,-2.0402626991271973,0.32214993238449097,0.8787407279014587,0.49434420466423035
15.75,-12.471598625183105,-1.2285337448120117,-0.49130988121032715,0.4322037398815155,1.6393959522247314,-0.7346384525299072
15.775,-9.660690307617188,-1.4442682266235352,-0.18852001428604126,0.47573572397232056,1.8601645231246948,-1.7509899139404297
15.8,-6.066901683807373,-1.7900333404541016,-0.09053757786750793,0.7701292634010315,1.7477924823760986,-2.1912996768951416
15.825,-2.9144957065582275,-1.9419898986816406,-0.27668681740760803,1.340419888496399,1.910914421081543,-2.187532901763916
15.85,-0.13065201044082642,-0.8734807968139648,-1.1494132280349731,1.9908955097198486,2.3059136867523193,-1.7439601421356201
15.875,2.3381643295288086,0.7550172805786133,-1.6873455047607422,2.054008722305298,2.33431077003479,-1.4207990169525146
15.9,2.2244374752044678,1.2152528762817383,-1.2962512969970703,0.9304063320159912,1.5107241868972778,-1.3811869621276855
15.925,-0.9210084080696106,1.174367904663086,-0.9666287899017334,0.012169316411018372,0.5987600088119507,-1.3532439470291138
15.95,-2.250105619430542,1.632401466369629,-1.7086355686187744,0.09521160274744034,0.22411558032035828,-1.2691541910171509
15.975,-1.4734563827514648,1.540212631225586,-2.570266008377075,-0.038862451910972595,-0.07895535230636597,-1.027491807937622
16.0,-1.762317180633545,0.7687196731567383,-2.1949257850646973,-0.5249332189559937,-0.14444315433502197,-0.6681132316589355
16.025,-1.6745274066925049,0.36890602111816406,-0.8829397559165955,-0.9742521047592163,0.10589705407619476,-0.1371147632598877
16.05,-0.3862619400024414,0.3655424118041992,0.6868646144866943,-1.2281676530838013,0.27605172991752625,0.2682074308395386
16.075,0.4970284700393677,0.4773216247558594,1.4429473876953125,-0.8960124254226685,0.2702305316925049,0.2187708020210266
16.1,0.20488406717777252,0.6123552322387695,0.752774178981781,-0.08088822662830353,0.250336229801178,-0.13291385769844055
16.125,-0.48235884308815,0.6331205368041992,-0.08432574570178986,0.45430225133895874,0.21862277388572693,-0.27403491735458374
16.15,-0.8105529546737671,0.5246925354003906,-0.42805883288383484,0.540959894657135,0.1957751363515854,-0.12298604100942612
16.175,-0.853618323802948,0.43855953216552734,-0.7144212126731873,0.5154527425765991,0.22361408174037933,0.05317077785730362
16.2,-0.7053734660148621,0.4132394790649414,-0.6766815781593323,0.3935064673423767,0.1988360434770584,0.2237524390220642
16.225,-0.41264984011650085,0.36000537872314453,-0.3466659188270569,0.28973451256752014,0.1822163462638855,0.3630979657173157
16.25,-0.1524650901556015,0.25602054595947266,-0.1642647683620453,0.3034942150115967,0.13995881378650665,0.38223013281822205
16.275,0.03773524612188339,0.1796703338623047,-0.08691389113664627,0.321399450302124,0.06641683727502823,0.31236153841018677
16.3,0.15614080429077148,0.14266109466552734,-0.0906144231557846,0.3189490735530853,0.061200276017189026,0.19227807223796844
16.325,0.08212847262620926,0.14632320404052734,-0.1955074667930603,0.3040594160556793,0.048184216022491455,0.05155390501022339
16.35,-0.08293679356575012,0.16839122772216797,-0.25041094422340393,0.2587486207485199,0.002643115818500519,-0.054413117468357086
16.375,-0.17712019383907318,0.15580463409423828,-0.33459562063217163,0.24351266026496887,-0.05075320601463318,-0.11997856944799423
16.4,-0.33373594284057617,0.12009143829345703,-0.517407238483429,0.21057717502117157,-0.09638716280460358,-0.18469741940498352
16.425,-0.5208183526992798,0.11211776733398438,-0.6907358169555664,0.10419294238090515,-0.08187992870807648,-0.2372370809316635
16.45,-0.4694708585739136,0.14723682403564453,-0.6134499907493591,-0.06194749474525452,-0.01337558776140213,-0.22448670864105225
16.475,-0.2491036057472229,0.19779300689697266,-0.28369835019111633,-0.22102853655815125,0.03957431763410568,-0.17920784652233124
16.5,-0.1696632355451584,0.21875858306884766,-0.18885758519172668,-0.28425145149230957,0.05899549275636673,-0.1925392746925354
16.525,-0.24476155638694763,0.22211933135986328,-0.3654887080192566,-0.3291178047657013,0.059566039592027664,-0.22633112967014313
16.55,-0.347888320684433,0.2969961166381836,-0.3760693371295929,-0.45160868763923645,0.02802145481109619,-0.21907256543636322
16.575,-0.4034426808357239,0.5299501419067383,0.021999787539243698,-0.5768364071846008,-0.03993003070354462,-0.17793713510036469
16.6,-0.4407459497451782,0.8660688400268555,0.8172049522399902,-0.5103153586387634,-0.1496495008468628,-0.107616126537323
16.625,-0.6743792295455933,1.286625862121582,1.6978384256362915,-0.14345848560333252,-0.27475857734680176,-0.05895022302865982
16.65,-0.7177171111106873,1.7273330688476562,1.9890977144241333,0.4685973525047302,-0.4924084544181824,0.04079027846455574
16.675,0.8831986784934998,1.4033079147338867,0.004222936928272247,1.3788820505142212,-0.6427643299102783,0.29545164108276367
16.7,8.090275764465332,-0.6701593399047852,-6.911778450012207,2.646454334259033,-0.6423629522323608,0.42348572611808777
16.725,21.994548797607422,-3.008793830871582,-15.763672828674316,2.3719708919525146,-1.2454802989959717,0.18608610332012177
16.75,29.22311782836914,-3.3151426315307617,-18.256452560424805,-0.4614866077899933,-1.4079992771148682,-0.21044957637786865
16.775,21.47504425048828,-2.514993667602539,-17.42074966430664,-2.898434638977051,0.5841565728187561,-0.19087712466716766
16.8,9.05046558380127,-1.5875883102416992,-16.822751998901367,-2.3474860191345215,2.1565120220184326,0.8921160101890564
16.825,0.9544995427131653,2.371248245239258,-13.11032772064209,1.2441215515136719,1.1464459896087646,2.4623310565948486
16.85,-3.781635284423828,6.0274152755737305,-5.839576721191406,4.532070636749268,0.1677629053592682,2.575404405593872
16.875,-8.175204277038574,3.5898656845092773,2.4928369522094727,5.071548938751221,0.6040496230125427,2.0682296752929688
16.9,-12.00413990020752,-3.939863681793213,9.233979225158691,4.322829723358154,0.9193727970123291,1.8211452960968018
16.925,-13.443603515625,-10.90983772277832,13.86375617980957,3.656938314437866,0.30755606293678284,1.1949787139892578
16.95,-15.694046974182129,-3.0247802734375,17.6610050201416,3.2621688842773438,-0.7327250838279724,1.1647224426269531
16.975,-20.85344696044922,22.299060821533203,20.10542869567871,0.26933616399765015,-1.8997629880905151,1.276924967765808
17.0,-15.092329025268555,29.34592056274414,15.609023094177246,-4.395518779754639,-1.3828456401824951,-2.737487316131592
17.025,-4.3480424880981445,12.1946382522583,9.533931732177734,-6.159958362579346,-0.76963210105896,-4.932619094848633
17.05,-1.758882999420166,2.4007768630981445,6.336066246032715,-5.782164096832275,-0.591740608215332,-2.926421642303467
17.075,-3.1161272525787354,2.149722099304199,4.430603981018066,-4.121344089508057,-0.07049369812011719,-2.3020529747009277
17.1,-3.6949896812438965,2.833298683166504,4.436733245849609,-2.414128303527832,0.10389304161071777,-1.5033493041992188
17.125,-2.0091071128845215,1.8862524032592773,3.6807706356048584,-0.5850065350532532,0.020856328308582306,-0.22460883855819702
17.15,-0.2794519066810608,-0.0011548995971679688,-0.31112974882125854,1.0331475734710693,-0.00341951847076416,0.2616424262523651
17.175,0.024736031889915466,-0.8291378021240234,-2.8229310512542725,0.7567925453186035,0.023340657353401184,-0.07931634038686752
17.2,-0.22623904049396515,-0.24734783172607422,-1.937156319618225,-0.3867967426776886,0.10167814046144485,-0.42468664050102234
17.225,-0.3547140657901764,0.45343494415283203,-0.45623326301574707,-0.8417166471481323,0.05046576261520386,-0.4374810457229614
17.25,-0.35358938574790955,0.5516366958618164,-0.17325448989868164,-0.6073271036148071,-0.022568002343177795,-0.2753305733203888
17.275,-0.27779391407966614,0.4750032424926758,-0.1983751505613327,-0.45474866032600403,-0.03750547021627426,-0.13664691150188446
17.3,-0.3921302855014801,0.6090974807739258,0.06389541178941727,-0.3807090222835541,-0.03702689707279205,-0.05075080692768097
17.325,-1.180594801902771,0.9342870712280273,-0.35748291015625,-0.15382230281829834,-0.043371111154556274,0.018667321652173996
17.35,-1.8188107013702393,1.4095525741577148,-3.759345531463623,0.041518162935972214,-0.20910371840000153,0.24631015956401825
17.375,1.4461356401443481,1.7873611450195312,-11.932761192321777,-0.09232620894908905,-0.28650224208831787,0.8449456095695496
17.4,8.776823997497559,0.30978965759277344,-21.52843475341797,-1.0095447301864624,-0.1582622528076172,0.8148239254951477
17.425,13.187543869018555,-3.186042308807373,-25.513490676879883,-1.2714180946350098,-1.4121935367584229,0.07872416824102402
17.45,10.756769180297852,-3.9099197387695312,-22.432653427124023,-0.47434094548225403,-2.4688501358032227,0.0545494444668293
17.475,4.219011306762695,-0.6672286987304688,-17.372642517089844,0.9733145236968994,-1.7173447608947754,0.6319746971130371
17.5,-2.3709845542907715,3.110820770263672,-11.085256576538086,3.6976125240325928,-1.8461804389953613,1.4578620195388794
17.525,-7.9774580001831055,4.007561683654785,-0.9416425228118896,6.6574249267578125,-2.7532520294189453,1.8460309505462646
17.55,-11.611017227172852,-0.12464046478271484,9.515214920043945,8.149474143981934,-2.500458240509033,1.7567064762115479
17.575,-10.118484497070312,-6.206173896789551,16.685142517089844,7.1644287109375,-2.3280603885650635,1.9523203372955322
17.6,-1.405336618423462,-7.0506486892700195,29.45008087158203,3.038165807723999,-3.0406899452209473,2.9308013916015625
17.625,8.432353019714355,0.02248382568359375,51.99822235107422,-4.228410720825195,-2.756112575531006,2.9063143730163574
17.65,6.809591770172119,2.7740583419799805,55.85927200317383,-6.360283374786377,0.028275489807128906,-1.394892930984497
17.675,-1.1883269548416138,-0.9510765075683594,33.502323150634766,-3.797820568084717,0.3796823024749756,-4.492947101593018
17.7,-3.0955097675323486,-0.2780008316040039,9.824264526367188,-2.6770644187927246,-0.7380272150039673,-3.838085174560547
17.725,-2.7898049354553223,1.2936201095581055,0.19077418744564056,-2.1175901889801025,-0.3146005868911743,-3.4149999618530273
17.75,-3.001922607421875,2.151082992553711,1.7692493200302124,-2.453796148300171,0.16244959831237793,-2.647533893585205
17.775,-2.2665135860443115,2.3974428176879883,3.9605441093444824,-1.9061222076416016,0.12379491329193115,-1.3251380920410156
17.8,-0.9313427209854126,1.5411243438720703,2.1168084144592285,-0.4935537278652191,0.025828272104263306,-0.05944574996829033
17.825,0.4254809319972992,0.3776102066040039,-0.5204021334648132,0.24403981864452362,0.040177810937166214,0.4745231568813324
17.85,0.9349807500839233,-0.19925975799560547,-1.6064647436141968,0.1859264224767685,0.038594331592321396,0.2769533395767212
17.875,0.43362098932266235,0.07293987274169922,-1.2355319261550903,-0.16968561708927155,-0.03851601481437683,-0.10853882879018784
17.9,-0.49900302290916443,0.7019567489624023,-0.5134871006011963,-0.36800727248191833,-0.10686476528644562,-0.2209704965353012
17.925,-1.191125512123108,1.1194639205932617,-0.26667261123657227,-0.2899928689002991,-0.17028971016407013,0.1805921047925949
17.95,-1.3856524229049683,1.4449386596679688,-0.30312323570251465,-0.41573140025138855,-0.39973944425582886,0.8271151781082153
17.975,-1.9587982892990112,2.0640945434570312,-0.9270374774932861,-0.9821382761001587,-0.9101902842521667,1.327134132385254
18.0,-3.5671515464782715,2.8551549911499023,-2.876293182373047,-1.4322396516799927,-1.318666934967041,2.0102498531341553
18.025,-4.992815017700195,3.068966865539551,-6.031722068786621,-1.7791410684585571,-1.144351840019226,3.5011844635009766
18.05,-4.949248313903809,2.6226940155029297,-8.106332778930664,-3.0316083431243896,-0.7541195750236511,4.915578842163086
18.075,-5.190898418426514,1.5635061264038086,-8.416797637939453,-4.7946319580078125,-1.4260307550430298,4.848788261413574
18.1,-6.327419757843018,-3.3110828399658203,-10.37463665008545,-3.6458160877227783,-3.3477070331573486,3.184994697570801
18.125,-6.9517974853515625,-7.547991752624512,-11.42352294921875,-0.1896255612373352,-5.729923248291016,2.149550676345825
18.15,-7.225241184234619,-6.48036003112793,-10.84391975402832,1.6808485984802246,-6.433357238769531,1.3256112337112427
18.175,-4.862979888916016,-3.997443675994873,-11.402804374694824,2.3709003925323486,-5.452780723571777,-0.45554420351982117
18.2,0.04830867052078247,-1.6329431533813477,-11.44454574584961,3.101588487625122,-4.951440334320068,-1.7705357074737549
18.225,5.651806354522705,0.708704948425293,-9.295350074768066,3.905613422393799,-5.080135822296143,-2.041553258895874
18.25,11.047295570373535,2.1461381912231445,-4.581118583679199,4.382084846496582,-5.549604415893555,-1.616662859916687
18.275,14.79574203491211,1.3652772903442383,2.410094738006592,4.257224082946777,-5.878779888153076,-1.0950285196304321
18.3,15.863534927368164,-1.0062065124511719,10.572190284729004,3.135789632797241,-5.6843109130859375,-0.0810076892375946
18.325,13.357388496398926,-0.8326005935668945,17.452938079833984,0.5662999749183655,-5.904659271240234,1.3212199211120605
18.35,5.986828327178955,3.9304771423339844,17.695533752441406,-2.563171625137329,-6.69700813293457,1.0985751152038574
18.375,-1.764784336090088,2.788275718688965,9.967256546020508,-2.067593812942505,-5.837191581726074,0.16293184459209442
18.4,-4.542149066925049,-1.4056711196899414,5.793021202087402,-0.198054701089859,-2.6258792877197266,0.8150181770324707
18.425,-2.3279240131378174,0.8523235321044922,7.425539016723633,0.15979599952697754,-0.5933402180671692,1.387387752532959
18.45,0.634103000164032,3.0999326705932617,6.702172756195068,0.7424190640449524,-0.38903266191482544,1.2000415325164795
18.475,1.257881760597229,2.0863256454467773,3.0203053951263428,1.0650105476379395,-0.1505722999572754,0.8293055891990662
18.5,0.917214572429657,0.9764223098754883,0.039597850292921066,1.047276496887207,0.11599205434322357,0.5835443735122681
18.525,0.6900018453598022,0.8048257827758789,-1.0125056505203247,0.8456224203109741,0.2159746140241623,0.5053468346595764
18.55,0.602401852607727,0.7029333114624023,-0.8716676831245422,0.49595966935157776,0.18770000338554382,0.43869543075561523
18.575,0.5255054831504822,0.4455862045288086,-0.41931939125061035,0.18974708020687103,0.06694552302360535,0.3621231019496918
18.6,0.634466290473938,0.2819204330444336,-0.17972038686275482,0.06578536331653595,-0.0913940817117691,0.3234623372554779
18.625,0.7174959182739258,0.32328319549560547,-0.2699020504951477,0.16350728273391724,-0.14673654735088348,0.20580683648586273
18.65,0.556222677230835,0.3891286849975586,-0.40634968876838684,0.24264320731163025,-0.11706139147281647,0.060027219355106354
18.675,0.4732081890106201,0.3176584243774414,-0.3543109893798828,0.1930982619524002,-0.10386087000370026,0.0084153451025486
18.7,0.617402195930481,0.21214008331298828,-0.1861063688993454,0.15376867353916168,-0.09340605139732361,-0.016333654522895813
18.725,0.727891743183136,0.18503570556640625,-0.1412876695394516,0.21050021052360535,-0.07098513841629028,-0.12481976300477982
18.75,0.5747513175010681,0.1833944320678711,-0.3444211483001709,0.3126937448978424,-0.05936071276664734,-0.2972160577774048
18.775,0.3116782307624817,0.20660018920898438,-0.5299307107925415,0.3364151120185852,-0.03749489784240723,-0.4079252779483795
18.8,0.24162159860134125,0.21523666381835938,-0.5043181777000427,0.2821604013442993,-0.018556147813796997,-0.40831300616264343
18.825,0.29227590560913086,0.16119003295898438,-0.49094608426094055,0.23952248692512512,-0.02790507674217224,-0.38202032446861267
18.85,0.262891948223114,0.15759563446044922,-0.5035074949264526,0.20460890233516693,-0.03759245574474335,-0.3479088246822357
18.875,0.21720317006111145,0.23336219787597656,-0.41233229637145996,0.1620008498430252,-0.04101250320672989,-0.2827700078487396
18.9,0.2267856001853943,0.27704811096191406,-0.3183412551879883,0.13477198779582977,-0.048067085444927216,-0.22983145713806152
18.925,0.2255406677722931,0.2531299591064453,-0.2895413339138031,0.12116296589374542,-0.039185188710689545,-0.21612703800201416
18.95,0.18718186020851135,0.2435159683227539,-0.2890578508377075,0.11084672808647156,-0.016502074897289276,-0.2151799499988556
18.975,0.16512908041477203,0.2750406265258789,-0.30452361702919006,0.09427453577518463,-0.004941962659358978,-0.19985324144363403
19.0,0.24083012342453003,0.28252124786376953,-0.33425775170326233,0.06514033675193787,-0.0028463751077651978,-0.1664874106645584
19.025,0.33561259508132935,0.2713756561279297,-0.3296840488910675,0.02782284840941429,-0.0006191469728946686,-0.14316821098327637
19.05,0.3248264491558075,0.26941680908203125,-0.30223947763442993,0.009299333207309246,-0.0003564395010471344,-0.14148534834384918
19.075,0.2605753540992737,0.2640514373779297,-0.31236812472343445,0.016552094370126724,-0.0007291287183761597,-0.1442558765411377
19.1,0.2553163170814514,0.2589273452758789,-0.3149867057800293,0.01622559130191803,-0.0021089911460876465,-0.1281316876411438
19.125,0.30932819843292236,0.24467754364013672,-0.26304373145103455,0.0012025018222630024,-0.0040777698159217834,-0.10756563395261765
19.15,0.3363533318042755,0.21825695037841797,-0.19634994864463806,-0.006628990173339844,-0.0031133703887462616,-0.10979074239730835
19.175,0.28863605856895447,0.20592021942138672,-0.1850995123386383,0.006804453209042549,-0.0014371871948242188,-0.12117461860179901
19.2,0.24313296377658844,0.23614501953125,-0.205094575881958,0.006568307522684336,0.006072822958230972,-0.11727140098810196
19.225,0.4114730656147003,0.29060935974121094,-0.17673462629318237,-0.0003699548542499542,0.013541996479034424,-0.08900284767150879
19.25,0.6105157136917114,0.3051891326904297,-0.14449819922447205,-0.00813344120979309,0.02640676498413086,-0.11035559326410294
19.275,0.6657166481018066,0.2971830368041992,-0.23403283953666687,-0.00837838463485241,0.048544466495513916,-0.20684492588043213
19.3,0.8542692065238953,0.2951536178588867,-0.23058682680130005,-0.17179442942142487,0.13344475626945496,-0.2664494812488556
19.325,1.2437981367111206,0.25063323974609375,0.16127347946166992,-0.47128060460090637,0.30612239241600037,-0.3757880628108978
19.35,2.1117708683013916,0.21071147918701172,0.6699017286300659,-0.6005859971046448,0.8118072748184204,-0.4237843155860901
19.375,3.3489480018615723,0.26163387298583984,0.8094105124473572,-0.5008149743080139,1.8945142030715942,-0.21500372886657715
19.4,3.9908955097198486,0.32866954803466797,0.23247218132019043,-0.39834022521972656,3.4861955642700195,0.027115976437926292
19.425,3.5373637676239014,-0.0027570724487304688,-1.422398567199707,-0.3743346929550171,5.225744247436523,0.21446673572063446
19.45,0.7940160036087036,-0.6836061477661133,-3.308466911315918,-0.16053441166877747,6.391496658325195,0.3340771198272705
19.475,-5.486971378326416,-0.7977113723754883,-2.4656496047973633,0.26191553473472595,6.222370147705078,0.11951172351837158
19.5,-10.774863243103027,-0.12656784057617188,1.0962183475494385,0.30986547470092773,3.84333872795105,-0.27354395389556885
19.525,-6.042358875274658,0.5980739593505859,1.4624519348144531,0.6165372133255005,0.9295788407325745,0.7347652912139893
19.55,1.4547524452209473,0.9234457015991211,-0.46122774481773376,0.7535439133644104,-0.24745595455169678,1.608817458152771
19.575,1.8200314044952393,0.6670103073120117,-0.6195688247680664,0.28444480895996094,-0.2396610975265503,1.0300263166427612
19.6,-0.1156001016497612,0.4306650161743164,-0.1913883090019226,0.09930054843425751,-0.08676202595233917,0.5887897610664368
19.625,-0.8318727612495422,0.3939666748046875,-0.055389903485774994,0.11127995699644089,0.0008311569690704346,0.6496743559837341
19.65,-0.6353945136070251,0.39470767974853516,-0.06354119628667831,0.17628192901611328,0.07668441534042358,0.89237380027771
19.675,0.021485773846507072,0.3435335159301758,-0.15937015414237976,0.2692655920982361,0.11504840850830078,1.0908498764038086
19.7,0.3539063334465027,0.2706327438354492,-0.2546332776546478,0.36936959624290466,0.1586061716079712,1.1039704084396362
19.725,-0.161900132894516,0.41760921478271484,-0.046704068779945374,0.44568905234336853,0.2745342254638672,1.02427077293396
19.75,-1.674796223640442,1.0567502975463867,0.8011861443519592,0.5733879804611206,0.41868144273757935,1.0708624124526978
19.775,-4.449426174163818,1.7406854629516602,2.6021153926849365,0.9882317781448364,0.5599113702774048,1.426872968673706
19.8,-9.937933921813965,1.9729299545288086,6.825351238250732,1.8637008666992188,0.9238463640213013,2.1060054302215576
19.825,-13.717001914978027,2.293485641479492,15.295255661010742,2.299489974975586,3.085210084915161,1.7714201211929321
19.85,-0.7940870523452759,3.682373046875,20.582077026367188,0.4598396122455597,10.336456298828125,-1.9434950351715088
19.875,17.261398315429688,3.0160655975341797,11.554710388183594,-3.658066511154175,14.726800918579102,-4.573897361755371
19.9,17.652681350708008,-1.216658592224121,-0.7223432064056396,-5.819851398468018,10.84896469116211,-1.421356201171875
19.925,9.064730644226074,-4.637998104095459,-4.916985988616943,-5.657297611236572,6.189774036407471,3.0051088333129883
19.95,0.8747826218605042,-6.144768714904785,-4.508688926696777,-4.177950382232666,3.4679508209228516,5.054112434387207
19.975,-6.012270450592041,-7.651604652404785,-4.330729007720947,0.6527019739151001,1.2927594184875488,3.40156888961792
20.0,-5.431829452514648,-3.8375988006591797,-9.368853569030762,4.5759806632995605,1.1144590377807617,0.5723610520362854
20.025,-2.1943440437316895,2.5048093795776367,-11.795543670654297,3.777789831161499,2.1171929836273193,-0.7010510563850403
20.05,-1.7072110176086426,3.1439218521118164,-5.795272350311279,1.9566919803619385,2.897531509399414,-0.6093410849571228
20.075,-0.7977525591850281,1.3532943725585938,0.36341413855552673,1.4776999950408936,2.704866886138916,0.06467042863368988
20.1,0.13147130608558655,0.5365915298461914,1.7850474119186401,1.5433015823364258,1.5770913362503052,0.35309815406799316
20.125,-0.2623255252838135,0.6270561218261719,0.7486634850502014,1.721514105796814,0.871005117893219,0.506969153881073
20.15,-1.18778657913208,0.6129093170166016,0.12315385043621063,1.7483221292495728,0.4725199341773987,0.952690064907074
20.175,-1.287850022315979,-0.18555736541748047,-0.06382341682910919,1.8302786350250244,0.15721844136714935,1.5696896314620972
20.2,-0.5688297152519226,-0.8777875900268555,-0.716296911239624,1.8238201141357422,-0.13869237899780273,1.8923150300979614
20.225,0.16510853171348572,-1.0750083923339844,-1.4453704357147217,1.514216661453247,-0.48584967851638794,1.717314600944519
20.25,0.6950663328170776,-0.7956457138061523,-1.6980196237564087,1.1501747369766235,-0.6786115169525146,1.3342164754867554
20.275,1.132258653640747,-0.16051769256591797,-1.8239684104919434,0.7713497877120972,-0.6611905694007874,1.1186168193817139
20.3,1.4969104528427124,-0.04012298583984375,-1.6244136095046997,0.2583601474761963,-0.5823038220405579,0.8893300890922546
20.325,1.3825668096542358,-0.5180234909057617,-0.8236044645309448,-0.191335529088974,-0.6388769745826721,0.5179758667945862
20.35,0.6429732441902161,-0.7222213745117188,-0.6754406094551086,-0.3216872811317444,-0.611513078212738,0.21097666025161743
20.375,-0.12315372377634048,-0.31575870513916016,-1.1310595273971558,-0.34643635153770447,-0.21083298325538635,0.003340810537338257
20.4,-0.36018088459968567,0.1386880874633789,-0.6890087723731995,-0.6029924750328064,0.23162813484668732,-0.05342802777886391
20.425,-0.46458908915519714,0.26535987854003906,0.5176770091056824,-0.7519568204879761,0.27235090732574463,-0.010295219719409943
20.45,-0.7294150590896606,0.279449462890625,0.7729253172874451,-0.448520302772522,-0.1297033727169037,0.11519581079483032
20.475,-0.5063239932060242,0.23616695404052734,-0.02917047217488289,-0.14009322226047516,-0.4229699671268463,0.3863062560558319
20.5,0.2511643171310425,0.19231128692626953,-0.49828818440437317,-0.10986922681331635,-0.3261616826057434,0.5590367913246155
20.525,0.7383713126182556,0.25910377502441406,-0.5584653615951538,-0.13695374131202698,-0.2382693886756897,0.48031389713287354
20.55,0.6517387628555298,0.22768592834472656,-0.5176565051078796,-0.156379833817482,-0.18153464794158936,0.3245247006416321
20.575,0.4211956262588501,0.09205436706542969,-0.28159165382385254,-0.16076183319091797,-0.052978262305259705,0.25866806507110596
20.6,0.26502931118011475,0.135955810546875,-0.23835453391075134,-0.10562632977962494,-0.13829413056373596,0.24432821571826935
20.625,0.07399743795394897,0.2641439437866211,-0.4462921917438507,-0.1085529774427414,-0.3728879690170288,0.2253694236278534
20.65,-0.6081987023353577,0.36211395263671875,-0.4170108437538147,-0.181913822889328,-0.33622172474861145,0.19777660071849823
20.675,-1.2269459962844849,0.3893270492553711,-0.10438507795333862,-0.23512504994869232,-0.18899190425872803,0.40016257762908936
20.7,-0.7774837613105774,0.2650175094604492,-0.05590865761041641,-0.2161133736371994,-0.3159530460834503,0.7834321856498718
20.725,-0.04465344175696373,0.18566226959228516,-0.4491056501865387,-0.21376851201057434,-0.6166163682937622,0.927647590637207
20.75,0.17889182269573212,0.11326789855957031,-0.7379897236824036,-0.2949950397014618,-0.7504109144210815,0.8783299326896667
20.775,0.3434499204158783,-0.13520526885986328,-0.5366240739822388,-0.3941875994205475,-0.7124459743499756,0.8452962040901184
20.8,0.5981336832046509,-0.28094482421875,-0.09870308637619019,-0.42325684428215027,-0.6429883241653442,0.7649627327919006
20.825,0.6429340243339539,-0.1221628189086914,0.3365979790687561,-0.3867528438568115,-0.4912784695625305,0.6068530678749084
20.85,0.28365227580070496,0.1139059066772461,0.8138187527656555,-0.3119140565395355,-0.31796085834503174,0.44441935420036316
20.875,0.05591035634279251,0.09346771240234375,1.0042166709899902,-0.14409781992435455,-0.368161678314209,0.3777024447917938
20.9,0.9103750586509705,-0.19019508361816406,0.6359681487083435,0.10172467678785324,-0.5277060866355896,0.36186742782592773
20.925,1.9661409854888916,-0.2563314437866211,-0.01364581286907196,0.325379341840744,-0.37371328473091125,0.16968975961208344
20.95,1.8467793464660645,-0.04536628723144531,-0.442798376083374,0.38307932019233704,-0.020864300429821014,-0.22282400727272034
20.975,1.0817091464996338,0.15139293670654297,-0.4983312785625458,0.3030646741390228,0.09743702411651611,-0.5650059580802917
21.0,0.28808027505874634,0.28719615936279297,-0.7011979818344116,0.2363021969795227,0.09796911478042603,-0.741935670375824
21.025,-0.32456836104393005,0.35816097259521484,-1.2034800052642822,0.19228814542293549,0.18461942672729492,-0.7901990413665771
21.05,-0.36021101474761963,0.32866764068603516,-1.3948405981063843,0.09310940653085709,0.21891120076179504,-0.7463769316673279
21.075,0.06717803329229355,0.26656627655029297,-1.0344734191894531,-0.047502100467681885,0.12472358345985413,-0.6661106944084167
21.1,0.28812268376350403,0.21489906311035156,-0.8325002789497375,-0.12770307064056396,0.09161615371704102,-0.6355487704277039
21.125,0.17425404489040375,0.12511730194091797,-0.798329770565033,-0.2295820116996765,0.18279103934764862,-0.6397998332977295
21.15,0.11991024017333984,0.014788627624511719,-0.3501836359500885,-0.375020295381546,0.31438273191452026,-0.6124027371406555
21.175,0.16786247491836548,-0.010638236999511719,-0.10345689207315445,-0.328948974609375,0.27491432428359985,-0.6032503843307495
21.2,0.10554804652929306,0.09082412719726562,-0.5909032821655273,-0.14549288153648376,0.175069659948349,-0.6455377340316772
21.225,-0.1580362319946289,0.26817798614501953,-1.1388497352600098,-0.12177643179893494,0.20114177465438843,-0.6506017446517944
21.25,-0.32343459129333496,0.3750028610229492,-1.360668420791626,-0.27467843890190125,0.15111331641674042,-0.5304468274116516
21.275,-0.13300657272338867,0.3280973434448242,-1.44202721118927,-0.5313442349433899,-0.09581587463617325,-0.35911181569099426
21.3,0.0992378443479538,0.1889820098876953,-1.3239758014678955,-0.8192334771156311,-0.362018883228302,-0.25257521867752075
21.325,-0.21541143953800201,0.11489582061767578,-0.9668800234794617,-0.9838773608207703,-0.4281194806098938,-0.2348189353942871
21.35,-0.7778472900390625,0.14799022674560547,-0.2831214666366577,-1.0193642377853394,-0.29552704095840454,-0.1626223772764206
21.375,-0.7037473917007446,0.24162673950195312,0.6839691996574402,-0.9170123338699341,-0.10934004187583923,0.05651728808879852
21.4,-0.1890084445476532,0.3891115188598633,0.9465571641921997,-0.6394258141517639,-0.16828596591949463,0.27397677302360535
21.425,-0.10909795016050339,0.495452880859375,0.1689194142818451,-0.2963015139102936,-0.258348286151886,0.3760891854763031
21.45,-0.2054658979177475,0.4590330123901367,-0.39573270082473755,-0.0857907235622406,-0.07168471068143845,0.44501617550849915
21.475,0.05188911408185959,0.41881370544433594,-0.4483589828014374,-0.06609192490577698,0.019968025386333466,0.4964856505393982
21.5,0.297369122505188,0.5184812545776367,-0.6122156977653503,-0.1081610843539238,-0.07673138380050659,0.489277720451355
21.525,0.11853998899459839,0.4857521057128906,-0.8745952248573303,-0.1376059353351593,-0.08831114321947098,0.49031323194503784
21.55,-0.09639903157949448,0.2619199752807617,-1.0735853910446167,-0.16784782707691193,-0.018576353788375854,0.556595504283905
21.575,0.1979852020740509,0.16301822662353516,-1.2196900844573975,-0.2327963411808014,-0.09258246421813965,0.6024614572525024
21.6,0.6837407946586609,0.24677658081054688,-1.5006427764892578,-0.3275063931941986,-0.22713695466518402,0.5360352993011475
21.625,0.7375614643096924,0.3558025360107422,-1.9143646955490112,-0.4532899260520935,-0.17795026302337646,0.3931804895401001
21.65,0.5032609701156616,0.30890369415283203,-1.7183815240859985,-0.6730092167854309,-0.013553023338317871,0.2575613558292389
21.675,0.2938862144947052,0.20378589630126953,-0.9058566689491272,-0.8631482124328613,0.019498199224472046,0.14939752221107483
21.7,0.043712083250284195,0.24596023559570312,-0.5636305212974548,-0.8886200785636902,-0.15880835056304932,0.09678059816360474
21.725,-0.14731602370738983,0.27606678009033203,-0.8152222633361816,-0.8096835613250732,-0.32217031717300415,0.12396103143692017
21.75,0.009225137531757355,0.16550540924072266,-0.8739162087440491,-0.747359573841095,-0.27332180738449097,0.16971738636493683
21.775,0.3803846538066864,0.04426002502441406,-0.5565868020057678,-0.762170672416687,-0.17385026812553406,0.16224247217178345
21.8,0.5119454264640808,-0.036217689514160156,-0.3074435293674469,-0.8314252495765686,-0.2643943130970001,0.09629204124212265
21.825,0.0538775771856308,-0.007620811462402344,-0.6644409894943237,-0.8345212936401367,-0.4375494718551636,0.03875716030597687
21.85,-0.7917793989181519,0.20303916931152344,-1.5356954336166382,-0.7780113220214844,-0.5191119909286499,0.13643135130405426
21.875,-1.2283353805541992,0.37859153747558594,-2.189642906188965,-0.8374226689338684,-0.4844730794429779,0.4293004274368286
21.9,-0.6015836000442505,0.31896400451660156,-2.2837016582489014,-0.9925413131713867,-0.30770808458328247,0.7489117383956909
21.925,0.6464921236038208,-0.011881828308105469,-2.5086870193481445,-0.977558970451355,-0.059091389179229736,0.7571460604667664
21.95,1.4607309103012085,-0.19842910766601562,-2.6447980403900146,-0.5302634835243225,-0.03933021426200867,0.3598724901676178
21.975,1.5917046070098877,0.6427106857299805,-0.33006688952445984,0.2381397783756256,-0.2747231721878052,-0.0842815712094307
22.0,1.4183375835418701,1.6864337921142578,3.005547046661377,0.15864786505699158,0.19986985623836517,-0.38393518328666687
22.025,1.011794924736023,1.8164873123168945,3.93062162399292,-0.3882446885108948,0.7845864295959473,-0.49592193961143494
22.05,0.6205023527145386,1.1751384735107422,2.6672542095184326,-0.15816548466682434,0.476250022649765,-0.4562074542045593
22.075,0.5169289112091064,0.27274322509765625,1.0179420709609985,0.31280797719955444,0.06554275751113892,-0.471994549036026
22.1,0.4861511290073395,-0.2791423797607422,-0.11109036207199097,0.5788524746894836,0.22886712849140167,-0.5921007394790649
22.125,0.544028103351593,-0.275909423828125,-0.685583233833313,0.7367660403251648,0.6236454248428345,-0.7380378246307373
22.15,0.6549313068389893,-0.22029399871826172,-0.8403770923614502,0.8160345554351807,0.9001011848449707,-0.9825583696365356
22.175,0.5767698884010315,-0.746129035949707,-0.7033284306526184,0.9179726839065552,1.0974353551864624,-1.4597045183181763
22.2,0.6018252372741699,-1.3595447540283203,-0.6798988580703735,1.1016285419464111,1.4806784391403198,-2.063443422317505
22.225,0.8642703294754028,-1.2293319702148438,-0.7802062034606934,1.1500606536865234,1.9980510473251343,-2.3398218154907227
22.25,0.4976535439491272,-0.7733345031738281,-0.3306662440299988,1.117445468902588,2.203338384628296,-2.3594260215759277
22.275,0.5375806093215942,0.34826087951660156,1.127098798751831,1.0924590826034546,2.363609552383423,-2.5118229389190674
22.3,3.0343666076660156,1.3732023239135742,3.0813567638397217,0.2942766845226288,3.373293161392212,-2.749277114868164
22.325,5.472790718078613,0.2946968078613281,0.7380350828170776,-2.0153491497039795,5.950009346008301,-2.6450517177581787
22.35,3.032308578491211,-1.787032127380371,-6.4067254066467285,-3.8577537536621094,7.960391044616699,-1.3611308336257935
22.375,-1.6356651782989502,-2.641038417816162,-10.912700653076172,-2.8853554725646973,6.814186096191406,-0.062326401472091675
22.4,-3.9260947704315186,-2.17659330368042,-11.14785099029541,-0.9347892999649048,4.831295490264893,0.2513154447078705
22.425,-5.859377861022949,-2.319009780883789,-7.606484413146973,0.20018619298934937,4.097034931182861,0.19594578444957733
22.45,-6.94633674621582,-3.154489517211914,2.095808267593384,0.6729328632354736,3.1290645599365234,-0.39826714992523193
22.475,-4.100375652313232,-2.921572208404541,10.422194480895996,-0.1167120561003685,2.493492841720581,-1.0165081024169922
22.5,1.271761178970337,-0.35262012481689453,6.78987979888916,-1.599561333656311,2.466196298599243,-0.9283943772315979
22.525,4.5229315757751465,1.6691083908081055,1.0052887201309204,-2.190129041671753,1.7600637674331665,-0.4695550501346588
22.55,3.09175968170166,1.5113229751586914,1.6724088191986084,-1.4987670183181763,0.6168693900108337,-0.565024197101593
22.575,1.1816351413726807,0.6171178817749023,1.8688762187957764,-0.36548033356666565,-0.04496440291404724,-0.5438843369483948
22.6,1.5148823261260986,0.2561960220336914,0.4608251452445984,0.20027917623519897,-0.09068328887224197,-0.42185071110725403
22.625,1.726522445678711,0.39017772674560547,-0.13549716770648956,0.5404012203216553,0.12063641846179962,-0.814733624458313
22.65,1.118767261505127,0.4595518112182617,-0.7576414346694946,0.8031426668167114,0.4306664764881134,-1.2624908685684204
22.675,0.08697585016489029,0.37129878997802734,-1.4471442699432373,0.5471920371055603,0.6875943541526794,-1.323596715927124
22.7,-0.5412040948867798,0.2646350860595703,-1.525158166885376,0.13425008952617645,0.708173394203186,-0.9404005408287048
22.725,-0.5781382322311401,0.21703243255615234,-1.1135088205337524,-0.06874557584524155,0.5805483460426331,-0.4765346944332123
22.75,-0.2720170021057129,0.22775554656982422,-0.79043048620224,-0.08606154471635818,0.48724573850631714,-0.15531523525714874
22.775,0.3155103325843811,0.21374225616455078,-0.636908769607544,-0.06490378826856613,0.4328276216983795,-0.024833569303154945
22.8,0.5773175954818726,0.09406185150146484,-0.5818222165107727,-0.08635066449642181,0.5776046514511108,0.004083405714482069
22.825,0.48952731490135193,-0.009276390075683594,-0.5326143503189087,-0.09934043139219284,0.8418651223182678,0.0595780648291111
22.85,0.6935514807701111,0.10130596160888672,-0.5285101532936096,-0.05998409539461136,1.2329813241958618,0.14842669665813446
22.875,1.5099899768829346,0.3226900100708008,-1.0574684143066406,0.04225102812051773,2.011662244796753,0.2792334258556366
22.9,1.832605242729187,0.3776206970214844,-1.7037856578826904,0.10614410042762756,2.472052574157715,0.2941083610057831
22.925,0.9853242635726929,0.098297119140625,-1.485073208808899,0.0538659505546093,2.317249059677124,0.12265506386756897
22.95,0.15744486451148987,-0.03808784484863281,-0.9803839325904846,0.05351313576102257,2.3553175926208496,0.14171811938285828
22.975,-0.20892608165740967,0.1451396942138672,-0.9081293344497681,0.10867390036582947,2.5031192302703857,0.281744122505188
23.0,-0.5846614241600037,0.21189498901367188,-0.7933940887451172,0.07891829311847687,2.3694355487823486,0.3306881785392761
23.025,-0.749396800994873,0.019400596618652344,-0.46031805872917175,0.046442046761512756,2.1108736991882324,0.43476012349128723
23.05,-0.2425467073917389,-0.13218212127685547,-0.6509820818901062,0.09220980107784271,1.754643440246582,0.6119882464408875
23.075,0.522844135761261,0.01729869842529297,-1.4844387769699097,0.13634644448757172,1.5850234031677246,0.749127209186554
23.1,0.6992354393005371,0.44814395904541016,-2.152498245239258,0.22121331095695496,1.9745656251907349,0.9437587857246399
23.125,-0.23314085602760315,0.7040328979492188,-1.1069097518920898,0.4788925051689148,2.7074966430664062,1.3352537155151367
23.15,-0.8686984777450562,0.053854942321777344,0.8212400674819946,0.5873407125473022,2.6467952728271484,1.4437974691390991
23.175,-0.30586695671081543,-0.643528938293457,0.3466237187385559,0.1443762332201004,1.2125447988510132,0.7036261558532715
23.2,-0.9124390482902527,0.08599853515625,-0.8593652248382568,-0.46683016419410706,0.08770968019962311,-0.1271611452102661
23.225,-1.6215060949325562,0.8912801742553711,-0.6019716262817383,-0.7231292724609375,-0.13527145981788635,-0.29125648736953735
23.25,-0.3882290720939636,0.8753442764282227,-0.465080201625824,-0.5712738037109375,-0.23012113571166992,-0.23992346227169037
23.275,1.7213670015335083,0.9961891174316406,-1.0768475532531738,-0.3076830804347992,-0.313631147146225,-0.30723869800567627
23.3,2.3476057052612305,1.3474664688110352,-1.2968900203704834,-0.4533998966217041,-0.2534438371658325,-0.5496790409088135
23.325,1.3577630519866943,0.9920663833618164,-0.9052058458328247,-0.7934384346008301,-0.10433673858642578,-0.7081751227378845
23.35,0.31783825159072876,0.21695995330810547,-0.1500665545463562,-0.8837357759475708,-0.06780123710632324,-0.6878689527511597
23.375,0.2607663571834564,0.06260967254638672,-0.08913227915763855,-0.749222993850708,-0.07303208112716675,-0.528420627117157
23.4,0.8074708580970764,0.27112770080566406,-1.0635793209075928,-0.690883219242096,0.08431586623191833,-0.30788588523864746
23.425,0.411654531955719,0.3527364730834961,-1.4293239116668701,-0.8219701051712036,0.28708845376968384,-0.2765437662601471
23.45,-0.6561883091926575,0.1355743408203125,-0.592882513999939,-0.9789941906929016,0.21885395050048828,-0.4609660506248474
23.475,-0.8445734977722168,-0.9340543746948242,1.1454310417175293,-0.9979094862937927,0.014393806457519531,-0.6271840333938599
23.5,-0.18258990347385406,-2.233391284942627,2.416624069213867,-0.5188499689102173,-0.2203385978937149,-0.7573941946029663
23.525,0.3882676661014557,-1.7131128311157227,1.362352728843689,0.3526720404624939,-0.3587067723274231,-0.6745038628578186
23.55,0.5588979125022888,-0.3107328414916992,-0.2848389744758606,0.44379904866218567,-0.269028902053833,-0.3071589469909668
23.575,0.4021841585636139,0.18790149688720703,-0.6284427642822266,0.07039232552051544,-0.17563752830028534,-0.11781363934278488
