Time [s],Acc_x [m/s^2],Acc_y [m/s^2],Acc_z [m/s^2],Gyro_x [1/s],Gyro_y [1/s],Gyro_z [1/s]
0.0,-0.07826544344425201,0.141387939453125,-0.025172021239995956,-0.009897894226014614,0.008991898037493229,-0.013572082854807377
0.025,-0.04669756814837456,0.1407337188720703,-0.00646576564759016,-0.005921787582337856,0.001210877439007163,-0.008649642579257488
0.05,-0.0006387686589732766,0.14154720306396484,0.0043416558764874935,-0.003693846520036459,-0.010943848639726639,0.00044021860230714083
0.075,0.007849985733628273,0.1523122787475586,-0.006461021956056356,-0.0023243213072419167,-0.012199458666145802,0.0018427622271701694
0.1,-0.011074485257267952,0.17122364044189453,-0.011807739734649658,-0.002770592924207449,-0.008507205173373222,0.0001316628622589633
0.125,-0.01264757290482521,0.1920328140258789,-0.005317918490618467,-0.00579364039003849,-0.009748080745339394,0.002918379846960306
0.15,-0.00011821200314443558,0.18228721618652344,0.00018682867812458426,-0.009073058143258095,-0.007660449482500553,0.005085834767669439
0.175,-0.0029346151277422905,0.15083599090576172,-0.0005822943639941514,-0.012463641352951527,-0.0008567472686991096,0.006341041997075081
0.2,-0.007948599755764008,0.13617610931396484,-0.0066971732303500175,-0.013488600961863995,0.007651792839169502,0.00974825769662857
0.225,-0.005275460425764322,0.14808273315429688,-0.014714951626956463,-0.01278204657137394,0.006342366803437471,0.017102858051657677
0.25,-0.02215292677283287,0.15767383575439453,-0.005169565323740244,-0.012052708305418491,0.007342678494751453,0.01998061314225197
0.275,-0.03628905490040779,0.1528635025024414,0.019986288622021675,-0.008911165408790112,0.00852816179394722,0.020998714491724968
0.3,-0.022149480879306793,0.1727771759033203,0.02503528632223606,-0.0045556980185210705,-0.0004169875755906105,0.024016311392188072
0.325,0.08835744857788086,0.2949180603027344,-0.026499474421143532,-0.002837727079167962,0.00010847067460417747,0.014427823014557362
0.35,0.45317673683166504,0.5677347183227539,-0.12058671563863754,-0.04192629083991051,0.007111027371138334,-0.012542033568024635
0.375,0.8038351535797119,0.9536981582641602,-0.16447754204273224,-0.19223487377166748,0.1619172990322113,-0.11937221139669418
0.4,0.6378413438796997,1.3314456939697266,-0.10424675792455673,-0.4946829080581665,0.5222898721694946,-0.3992992043495178
0.425,0.004223542287945747,1.599386215209961,0.03823259100317955,-0.8904663324356079,0.7981486320495605,-0.7852087616920471
0.45,-0.7782206535339355,1.6767396926879883,0.2479332685470581,-1.3100136518478394,0.848888635635376,-1.1535357236862183
0.475,-1.5558255910873413,1.633514404296875,0.5076430439949036,-1.6661547422409058,0.7090939879417419,-1.440484881401062
0.5,-2.1009676456451416,1.582859992980957,0.6824060678482056,-1.9107252359390259,0.376068115234375,-1.5794613361358643
0.525,-2.250084161758423,1.537057876586914,0.6992577314376831,-2.1039764881134033,-0.06639063358306885,-1.5480321645736694
0.55,-2.0832998752593994,1.4552125930786133,0.5737283825874329,-2.27370285987854,-0.5042099356651306,-1.4358580112457275
0.575,-1.659390926361084,1.2477521896362305,0.36323806643486023,-2.418466329574585,-0.9069905281066895,-1.3173999786376953
0.6,-1.0074827671051025,0.8580226898193359,0.12894825637340546,-2.5311996936798096,-1.2554012537002563,-1.2220379114151
0.625,-0.3689723014831543,0.3781290054321289,-0.10737141221761703,-2.5561091899871826,-1.4632046222686768,-1.2115719318389893
0.65,0.0055694300681352615,-0.05376911163330078,-0.3313855826854706,-2.4526498317718506,-1.5029196739196777,-1.3114758729934692
0.675,0.1291651427745819,-0.40960025787353516,-0.46090105175971985,-2.260767698287964,-1.493368148803711,-1.4283424615859985
0.7,0.15284650027751923,-0.7752981185913086,-0.3911758065223694,-2.043686866760254,-1.5176634788513184,-1.4786505699157715
0.725,0.1270088404417038,-1.1683149337768555,-0.15483064949512482,-1.832788109779358,-1.5652823448181152,-1.435782551765442
0.75,0.052624110132455826,-1.442605972290039,0.036601584404706955,-1.608981966972351,-1.5886666774749756,-1.3015570640563965
0.775,-0.006424442864954472,-1.5251264572143555,0.01659116894006729,-1.371113657951355,-1.556156039237976,-1.1150723695755005
0.8,0.019229158759117126,-1.4394512176513672,-0.2034245729446411,-1.163806438446045,-1.5069957971572876,-0.8884034156799316
0.825,0.19323000311851501,-1.2287235260009766,-0.5593146085739136,-1.0305259227752686,-1.458567500114441,-0.5839868187904358
0.85,0.6962088942527771,-0.9221611022949219,-0.8290461897850037,-0.9548273086547852,-1.3282315731048584,-0.3221193253993988
0.875,1.4611923694610596,-0.6764707565307617,-0.8008275032043457,-0.9471378922462463,-1.1000334024429321,-0.21763849258422852
0.9,2.097280979156494,-0.5493850708007812,-0.5362868309020996,-0.8733921647071838,-0.8490288853645325,-0.3467141091823578
0.925,2.4525599479675293,-0.35661888122558594,-0.19649341702461243,-0.5462170243263245,-0.6665809750556946,-0.6882287859916687
0.95,2.609471321105957,-0.18838977813720703,0.1501075029373169,-0.17913919687271118,-0.5577145218849182,-1.0083949565887451
0.975,2.4239888191223145,-0.2194681167602539,0.44939133524894714,0.10126903653144836,-0.5085378885269165,-1.2209970951080322
1.0,1.8101184368133545,-0.31007862091064453,0.6983789205551147,0.30814290046691895,-0.5864399671554565,-1.3329830169677734
1.025,1.1316325664520264,-0.3507661819458008,0.8485268950462341,0.31629717350006104,-0.7981180548667908,-1.233331322669983
1.05,0.7098482847213745,-0.33018016815185547,0.805848240852356,0.15669988095760345,-1.0345234870910645,-0.9202333688735962
1.075,0.32039332389831543,-0.21281147003173828,0.7308432459831238,-0.057279229164123535,-1.225439429283142,-0.6179667115211487
1.1,-0.3502565324306488,0.06821918487548828,0.718776524066925,-0.22187960147857666,-1.3545169830322266,-0.4442618191242218
1.125,-1.1308480501174927,0.43422985076904297,0.552616536617279,-0.24567560851573944,-1.4252946376800537,-0.33354651927948
1.15,-1.6134710311889648,0.6452045440673828,0.2087441384792328,-0.17500397562980652,-1.4762952327728271,-0.20918487012386322
1.175,-1.7157996892929077,0.5250730514526367,-0.15752165019512177,-0.058575339615345,-1.52949059009552,-0.10313113033771515
1.2,-1.6490051746368408,0.17784404754638672,-0.45846879482269287,0.1241585910320282,-1.5604783296585083,-0.06453555822372437
1.225,-1.6158643960952759,0.011788368225097656,-0.7788708209991455,0.3600471615791321,-1.5641056299209595,-0.06850861012935638
1.25,-1.5176948308944702,0.20167922973632812,-1.2774934768676758,0.5848844647407532,-1.5466587543487549,-0.05086689442396164
1.275,-1.2148396968841553,0.3997936248779297,-1.6598752737045288,0.6031112670898438,-1.4787356853485107,0.024395041167736053
1.3,-0.9102190732955933,0.2730684280395508,-1.5257290601730347,0.35076141357421875,-1.4047530889511108,0.09922055155038834
1.325,-0.7989076972007751,-0.053544044494628906,-1.0674118995666504,0.16655007004737854,-1.3438684940338135,0.06489239633083344
1.35,-0.7425335049629211,-0.3521080017089844,-0.6725485920906067,0.21980348229408264,-1.266636610031128,-0.03653900697827339
1.375,-0.6447620391845703,-0.723170280456543,-0.2884789705276489,0.2586880326271057,-1.1394033432006836,-0.04591407626867294
1.4,-0.8217577934265137,-1.0706615447998047,0.0912536084651947,0.37573832273483276,-0.9251618981361389,0.008774647489190102
1.425,-1.3589694499969482,-0.9729681015014648,-0.10585594922304153,0.8419859409332275,-0.7359611392021179,0.02453017234802246
1.45,-1.6321098804473877,-0.2237386703491211,-1.1613438129425049,1.4590084552764893,-0.754014790058136,0.09799566864967346
1.475,-1.4222536087036133,0.9595851898193359,-2.520568370819092,1.7618482112884521,-0.9124528169631958,0.20467668771743774
1.5,-1.1231156587600708,1.7977561950683594,-3.1563658714294434,1.2092875242233276,-1.1383429765701294,0.320919007062912
1.525,-1.0402826070785522,1.762965202331543,-2.8451478481292725,0.14428453147411346,-1.3165112733840942,0.3973158299922943
1.55,-0.8650832176208496,1.0510625839233398,-2.167762279510498,-0.5926298499107361,-1.4348127841949463,0.3788931965827942
1.575,-0.6679906249046326,0.05385780334472656,-1.497352957725525,-0.777294397354126,-1.4953298568725586,0.2332558035850525
1.6,-0.9755532145500183,-0.5036382675170898,-1.3307374715805054,-0.4725848138332367,-1.4849001169204712,0.0425756499171257
1.625,-1.3376874923706055,-0.20323562622070312,-1.8697339296340942,-0.03188709169626236,-1.4938992261886597,-0.0107391607016325
1.65,-1.0913337469100952,0.18185710906982422,-2.505809783935547,0.1854667216539383,-1.5197458267211914,0.08007916808128357
1.675,-0.6979304552078247,-0.02381610870361328,-2.6751043796539307,0.035195983946323395,-1.5046768188476562,0.12811152637004852
1.7,-0.47002026438713074,-0.6100902557373047,-2.3574376106262207,-0.2687329947948456,-1.535157322883606,0.09206229448318481
1.725,-0.2651509642601013,-0.9151773452758789,-2.1635420322418213,-0.2726467251777649,-1.5324466228485107,0.12484987080097198
1.75,-0.15207087993621826,-0.6799488067626953,-2.423250675201416,0.029013484716415405,-1.473217248916626,0.18506012856960297
1.775,-0.10532763600349426,-0.36358642578125,-2.580864191055298,0.10196784138679504,-1.4036744832992554,0.22587431967258453
1.8,0.08891240507364273,-0.12168312072753906,-2.3214151859283447,-0.09482987970113754,-1.2748911380767822,0.23878124356269836
1.825,0.36099135875701904,0.17938899993896484,-1.7814794778823853,-0.26599740982055664,-1.1473146677017212,0.17241697013378143
1.85,0.5829389691352844,0.48808860778808594,-1.2034296989440918,-0.1977875977754593,-1.0837888717651367,0.09986879676580429
1.875,0.6685022711753845,0.5650396347045898,-0.6246795058250427,0.00921144150197506,-1.0465734004974365,0.05985630303621292
1.9,0.6105591654777527,0.36844635009765625,0.18327081203460693,0.1606016755104065,-1.0311318635940552,0.04515986144542694
1.925,0.6119039058685303,0.31435298919677734,1.0792498588562012,0.3368106186389923,-0.9874151945114136,0.1424901932477951
1.95,0.815446138381958,0.6806058883666992,1.8466161489486694,0.5865924954414368,-1.0004088878631592,0.31551939249038696
1.975,0.9532154202461243,1.3018865585327148,2.436636209487915,0.7630701661109924,-1.101109504699707,0.41516560316085815
2.0,0.6498521566390991,1.4607343673706055,2.944432020187378,0.6914781928062439,-1.1853545904159546,0.3353602886199951
2.025,0.23957559466362,1.098440170288086,3.334728240966797,0.4248117506504059,-1.135713815689087,0.24211226403713226
2.05,0.27266281843185425,0.9868803024291992,3.2553014755249023,0.30237701535224915,-0.9796431064605713,0.3281310200691223
2.075,0.5264402627944946,1.0111055374145508,2.937211751937866,0.16561289131641388,-0.8815776109695435,0.3723005950450897
2.1,0.5178883075714111,0.48404407501220703,2.59332013130188,-0.0629008412361145,-0.7626491189002991,0.2712908685207367
2.125,0.40365859866142273,-0.2381572723388672,2.102033853530884,-0.1905447393655777,-0.5926614999771118,0.24908584356307983
2.15,0.33199602365493774,-0.646428108215332,1.5310266017913818,-0.15821100771427155,-0.46972742676734924,0.35924649238586426
2.175,0.20470955967903137,-0.7836828231811523,1.1387484073638916,-0.13667696714401245,-0.418832927942276,0.4262137711048126
2.2,0.013209111988544464,-0.7965707778930664,1.0664246082305908,-0.2290038913488388,-0.37178370356559753,0.38583382964134216
2.225,-0.3003687560558319,-0.7904224395751953,1.0178738832473755,-0.21076475083827972,-0.27882257103919983,0.3406710624694824
2.25,-0.6128854155540466,-0.6974496841430664,0.7908862829208374,0.009909497573971748,-0.1493462473154068,0.3592826724052429
2.275,-0.7582233548164368,-0.4953899383544922,0.5602030158042908,0.1856280118227005,-0.07323841750621796,0.3419685363769531
2.3,-0.8135213255882263,-0.3340911865234375,0.47793877124786377,0.2090287208557129,-0.08030498772859573,0.23497335612773895
2.325,-0.810140073299408,-0.24317073822021484,0.5840278267860413,0.20935960114002228,-0.1318674385547638,0.1136491447687149
2.35,-0.7701565027236938,-0.2003946304321289,0.6086820960044861,0.2957865297794342,-0.18016061186790466,0.06468956172466278
2.375,-0.7656225562095642,-0.19487285614013672,0.3363669812679291,0.3927934467792511,-0.19146153330802917,0.03659838065505028
2.4,-0.7112377882003784,-0.0967254638671875,0.0863015353679657,0.3836846351623535,-0.23574143648147583,0.016207285225391388
2.425,-0.6981360912322998,0.013129234313964844,-0.016832835972309113,0.35804885625839233,-0.2872543931007385,-0.017263535410165787
2.45,-0.778963029384613,-0.050255775451660156,0.015194080770015717,0.430465966463089,-0.3096909523010254,-0.03622640296816826
2.475,-0.8028009533882141,-0.08211231231689453,0.18988409638404846,0.5289519429206848,-0.3114134669303894,-0.011196218430995941
2.5,-0.8212820291519165,0.19251346588134766,0.2254704236984253,0.6572723388671875,-0.26246216893196106,-0.003734264522790909
2.525,-0.8608605861663818,0.7100629806518555,0.06594672799110413,0.7885782122612,-0.21345765888690948,0.0033249296247959137
2.55,-0.820972204208374,1.0844926834106445,0.005905188620090485,0.8217872381210327,-0.19048576056957245,0.029209952801465988
2.575,-0.4972642958164215,1.255660057067871,0.005932759493589401,0.8184816837310791,-0.17585131525993347,0.16040611267089844
2.6,0.13582012057304382,1.3428163528442383,0.05512943118810654,0.6771396994590759,-0.22385545074939728,0.32081979513168335
2.625,0.6222577095031738,1.1311607360839844,0.17244496941566467,0.35805147886276245,-0.2755137085914612,0.30507850646972656
2.65,0.7956982851028442,0.7893123626708984,0.04463724046945572,0.1576845496892929,-0.2605333626270294,0.2575277090072632
2.675,0.9001224040985107,0.5291776657104492,-0.29172366857528687,0.04359284043312073,-0.2462831288576126,0.21654362976551056
2.7,1.0261545181274414,0.37703895568847656,-0.5457137823104858,-0.137027308344841,-0.2457709163427353,0.12034831941127777
2.725,1.0172631740570068,0.3064870834350586,-0.620361328125,-0.2852852940559387,-0.2219274491071701,0.03324706479907036
2.75,0.9401180148124695,0.29502010345458984,-0.531446099281311,-0.2127808928489685,-0.14701306819915771,0.058716364204883575
2.775,0.959094226360321,0.19969844818115234,-0.2787431478500366,0.0022141505032777786,-0.046831220388412476,0.1604016125202179
2.8,0.9111493825912476,-0.22767162322998047,0.018823493272066116,0.10884935408830643,0.06494200229644775,0.16296148300170898
2.825,0.7206445932388306,-0.8184061050415039,0.1844419687986374,0.05879978463053703,0.18456189334392548,0.06361611932516098
2.85,0.5321348905563354,-1.162062644958496,0.061110444366931915,0.01717856340110302,0.3074358403682709,0.004556551575660706
2.875,0.45895224809646606,-1.2640180587768555,-0.2517373561859131,0.00010759563883766532,0.39182260632514954,-0.008344734087586403
2.9,0.5341883897781372,-1.3861150741577148,-0.5066270232200623,-0.0692688375711441,0.45392149686813354,0.0003984058275818825
2.925,0.8016656637191772,-1.558213233947754,-0.49614983797073364,-0.20469868183135986,0.5283967852592468,0.06900042295455933
2.95,1.2606388330459595,-1.6789255142211914,-0.30782201886177063,-0.3611482083797455,0.6915711760520935,0.24590802192687988
2.975,1.7600067853927612,-1.7467947006225586,-0.10576212406158447,-0.5861373543739319,0.9553155899047852,0.5225443840026855
3.0,2.1519088745117188,-1.6566352844238281,0.05401135981082916,-0.8824455738067627,1.2477936744689941,0.8826749324798584
3.025,2.396855354309082,-1.3411502838134766,0.13421040773391724,-1.2267184257507324,1.460953712463379,1.2384155988693237
3.05,2.339189052581787,-0.9220485687255859,0.03370031714439392,-1.5444362163543701,1.5674477815628052,1.4868969917297363
3.075,1.9533050060272217,-0.3844118118286133,-0.23305059969425201,-1.766480803489685,1.537968635559082,1.6831499338150024
3.1,1.3191486597061157,0.2750253677368164,-0.6531846523284912,-1.7489125728607178,1.4422541856765747,1.883577585220337
3.125,0.45712536573410034,0.7977371215820312,-1.1191864013671875,-1.481585144996643,1.3946568965911865,2.037083148956299
3.15,-0.6170814037322998,0.6608572006225586,-1.3853541612625122,-1.0281139612197876,1.3779699802398682,2.081036329269409
3.175,-1.4666014909744263,-0.17735576629638672,-1.254811406135559,-0.611217200756073,1.304046869277954,2.0185341835021973
3.2,-1.5192713737487793,-0.9833097457885742,-0.5035523772239685,-0.33658283948898315,1.05973482131958,1.9685535430908203
3.225,-1.0502002239227295,-1.4913959503173828,0.473213255405426,-0.007482767105102539,0.8700891733169556,1.9327824115753174
3.25,-0.7690045833587646,-2.1650233268737793,0.9516947269439697,0.3900718688964844,0.977869987487793,1.8015289306640625
3.275,-0.7553180456161499,-2.627967357635498,0.7403461933135986,0.5731467604637146,1.0109641551971436,1.7789040803909302
3.3,-0.7961810827255249,-2.341658115386963,0.20645633339881897,0.4414818286895752,0.6172344088554382,1.9498494863510132
3.325,-0.7133573293685913,-1.9431982040405273,-0.019186213612556458,0.265638142824173,-0.021530479192733765,2.0170392990112305
3.35,-0.5138684511184692,-1.9054160118103027,0.19652476906776428,0.35239875316619873,-0.4333438575267792,1.9125865697860718
3.375,-0.5160868167877197,-1.8257994651794434,0.25911277532577515,0.8018903136253357,-0.28485387563705444,1.801600694656372
3.4,-0.834412157535553,-1.4354619979858398,-0.1044560968875885,1.3214257955551147,0.1734454482793808,1.7184844017028809
3.425,-1.1617876291275024,-0.8108243942260742,-0.5684896111488342,1.5357877016067505,0.4104611277580261,1.5867308378219604
3.45,-1.2745100259780884,-0.14266586303710938,-0.7806988954544067,1.41683030128479,0.2939663529396057,1.337913155555725
3.475,-1.157560110092163,0.41644954681396484,-0.6639399528503418,1.1618919372558594,0.006806474179029465,1.007624864578247
3.5,-0.8995378017425537,0.8870077133178711,-0.33249354362487793,0.9781721234321594,-0.2144102156162262,0.7443960309028625
3.525,-0.7138251662254333,1.3923149108886719,0.0017164535820484161,0.9587007761001587,-0.21889734268188477,0.5909205675125122
3.55,-0.6059133410453796,1.9075565338134766,0.15756112337112427,1.0249377489089966,-0.03216414898633957,0.5520862936973572
3.575,-0.5493735074996948,2.117137908935547,0.13252770900726318,1.0303246974945068,0.18907515704631805,0.5488864779472351
3.6,-0.5087401270866394,2.054633140563965,0.051877520978450775,1.0083799362182617,0.36498796939849854,0.570768415927887
3.625,-0.30864089727401733,1.9358491897583008,0.10016405582427979,1.0219649076461792,0.4683663249015808,0.5693801045417786
3.65,0.05948764830827713,1.9578161239624023,0.33826306462287903,1.0576727390289307,0.5469125509262085,0.7603185772895813
3.675,0.21889419853687286,2.3386287689208984,0.4976012110710144,1.2500759363174438,0.9075695872306824,1.1571269035339355
3.7,-0.17225492000579834,2.93475341796875,0.5463494658470154,1.4243271350860596,1.2608616352081299,1.3577330112457275
3.725,-0.7598819136619568,3.271209716796875,0.6171198487281799,1.3779799938201904,1.0978423357009888,1.2475844621658325
3.75,-0.8833119869232178,2.949676513671875,0.675862193107605,1.1487568616867065,0.504770040512085,1.0141304731369019
3.775,-0.9370084404945374,2.185360908508301,0.7640107870101929,1.0001283884048462,0.37949126958847046,0.8185362219810486
3.8,-1.1214261054992676,1.2854747772216797,0.8417989611625671,0.9272511601448059,0.5541455149650574,0.5716527700424194
3.825,-1.2758256196975708,0.5913724899291992,0.6976306438446045,0.9265786409378052,0.9091562032699585,0.4310798943042755
3.85,-1.1073088645935059,0.1493358612060547,0.221743643283844,0.9669280648231506,1.3594856262207031,0.3995372951030731
3.875,-0.6771301627159119,-0.17194461822509766,-0.30152586102485657,0.9560336470603943,1.479702115058899,0.4070698618888855
3.9,-0.39359068870544434,-0.24725914001464844,-0.6193341016769409,0.8826749920845032,1.3412355184555054,0.47281330823898315
3.925,-0.4191996455192566,-0.0124359130859375,-0.6741902232170105,0.8023261427879333,1.129727840423584,0.5436714887619019
3.95,-0.5981093645095825,0.3048067092895508,-0.5896558165550232,0.7141989469528198,0.9215677976608276,0.5535533428192139
3.975,-0.7627526521682739,0.507969856262207,-0.500189483165741,0.6082246899604797,0.7580516934394836,0.5027003288269043
4.0,-0.7303357720375061,0.5079460144042969,-0.4480578899383545,0.5083732008934021,0.6527472734451294,0.4011257290840149
4.025,-0.4581449329853058,0.32099246978759766,-0.37554267048835754,0.4240729510784149,0.5657796859741211,0.27224376797676086
4.05,-0.22377049922943115,0.2196826934814453,-0.2558901309967041,0.3768765330314636,0.46138399839401245,0.20175182819366455
4.075,-0.17364630103111267,0.29094982147216797,-0.09245465695858002,0.3611948490142822,0.34328681230545044,0.15997175872325897
4.1,-0.1254376918077469,0.3204965591430664,0.031429845839738846,0.3297135531902313,0.2252824455499649,0.11568068712949753
4.125,0.03575865924358368,0.19317913055419922,0.06891967356204987,0.30050837993621826,0.16618850827217102,0.0711674839258194
4.15,0.1336877942085266,0.054673194885253906,0.04951305687427521,0.25240573287010193,0.11303907632827759,0.05578770115971565
4.175,0.0694480836391449,0.025400161743164062,0.002448825165629387,0.18364590406417847,0.04618288576602936,0.07605274766683578
4.2,0.00783629436045885,0.006283760070800781,-0.019062506034970284,0.12572833895683289,-0.0009515713900327682,0.08192752301692963
4.225,0.0859527438879013,-0.0837087631225586,0.02554776892066002,0.08787006884813309,-0.024676430970430374,0.0696365088224411
4.25,0.18755991756916046,-0.20778560638427734,0.05993987247347832,0.08569862693548203,0.014450179412961006,0.06651624292135239
4.275,0.11436359584331512,-0.2453908920288086,0.023927155882120132,0.09562964737415314,0.06335455924272537,0.09839314222335815
4.3,-0.0863584503531456,-0.15558528900146484,-0.02947729267179966,0.09726683050394058,0.05868557468056679,0.16313143074512482
4.325,-0.2538054585456848,-0.04526042938232422,-0.04810161143541336,0.08654431253671646,0.029495112597942352,0.19250550866127014
4.35,-0.33554282784461975,0.0025377273559570312,-0.04998844861984253,0.07184610515832901,0.019282720983028412,0.17264913022518158
4.375,-0.3370451033115387,-0.0014638900756835938,-0.06286170333623886,0.08230040967464447,0.051505181938409805,0.14739185571670532
4.4,-0.27867284417152405,-0.02576160430908203,-0.08616037666797638,0.1145315021276474,0.10026498883962631,0.12853926420211792
4.425,-0.1978442221879959,0.000576019287109375,-0.11706362664699554,0.13317668437957764,0.12555591762065887,0.11272764205932617
4.45,-0.11733090877532959,0.055947303771972656,-0.1128024086356163,0.13627594709396362,0.11254985630512238,0.08198460936546326
4.475,-0.03162197768688202,0.0986928939819336,-0.07614701241254807,0.11465590447187424,0.06743719428777695,0.044271327555179596
4.5,0.07284688949584961,0.12172794342041016,-0.03691187500953674,0.07197023928165436,-0.00419046962633729,0.009425616823136806
4.525,0.17289483547210693,0.10553741455078125,0.02142416685819626,0.03057079389691353,-0.05770101770758629,-0.01487239170819521
4.55,0.24109461903572083,0.024909019470214844,0.08184435218572617,-0.0067829531617462635,-0.07642414420843124,-0.025385305285453796
4.575,0.24011874198913574,-0.10669422149658203,0.09456859529018402,-0.033195000141859055,-0.05349168926477432,-0.011291470378637314
4.6,0.18653090298175812,-0.2088174819946289,0.07309041917324066,-0.037577275186777115,-0.012524178251624107,0.013557758182287216
4.625,0.13310401141643524,-0.23624801635742188,0.04359464719891548,-0.04281485825777054,0.0012069959193468094,0.039030514657497406
4.65,0.0828186646103859,-0.2177286148071289,-0.024311060085892677,-0.04591106250882149,0.0016897767782211304,0.06447068601846695
4.675,0.009440764784812927,-0.21051311492919922,-0.11530410498380661,-0.03523596376180649,0.026872891932725906,0.09424421191215515
4.7,-0.06630567461252213,-0.23278045654296875,-0.19245055317878723,-0.019213110208511353,0.047637440264225006,0.13718345761299133
4.725,-0.10872548818588257,-0.20869731903076172,-0.21733514964580536,0.00963385496288538,0.04519239068031311,0.178501695394516
4.75,-0.15711884200572968,-0.1259746551513672,-0.22346501052379608,0.045750606805086136,0.035886481404304504,0.19175200164318085
4.775,-0.2017350047826767,-0.022081375122070312,-0.21594759821891785,0.06904596090316772,0.02276516705751419,0.16381609439849854
4.8,-0.2109937071800232,0.0662088394165039,-0.1397811770439148,0.06815879046916962,-0.006501145660877228,0.11682091653347015
4.825,-0.16476988792419434,0.06906414031982422,-0.0285164974629879,0.04505996033549309,-0.053593624383211136,0.06588810682296753
4.85,-0.08391434699296951,-0.0030889511108398438,0.05624028295278549,0.030098943039774895,-0.0977892354130745,0.029474368318915367
4.875,-0.01433030515909195,-0.056545257568359375,0.09558266401290894,0.03963450342416763,-0.10340683907270432,0.02772672474384308
4.9,0.001397566869854927,-0.07299995422363281,0.08060754835605621,0.04736724868416786,-0.07636798173189163,0.051902830600738525
4.925,0.0017186356708407402,-0.09702014923095703,0.024964507669210434,0.04162799194455147,-0.05095092952251434,0.06618965417146683
4.95,0.01892849989235401,-0.12200450897216797,-0.03358585387468338,0.023250246420502663,-0.052324555814266205,0.046153053641319275
4.975,0.010980021208524704,-0.10488033294677734,-0.05934339016675949,0.005779644474387169,-0.05559197813272476,0.028591448441147804
5.0,-0.00685515021905303,-0.06287956237792969,-0.05110166594386101,0.004732044413685799,-0.043373119086027145,0.03044278547167778
5.025,-0.012006396427750587,-0.043150901794433594,-0.03769965097308159,-0.0016105056274682283,-0.019549960270524025,0.05243266001343727
5.05,-0.03209793195128441,-0.046031951904296875,-0.03815115615725517,-0.006719720084220171,-0.012000072747468948,0.0527590736746788
5.075,-0.02943260222673416,-0.06493854522705078,-0.05979280546307564,0.00024960655719041824,-0.017987947911024094,0.029673172160983086
5.1,0.01636570319533348,-0.0653696060180664,-0.07913722842931747,0.0050140125676989555,-0.024950964376330376,0.024230051785707474
5.125,0.04030768945813179,-0.07356834411621094,-0.06809052079916,0.0035976849030703306,-0.026438429951667786,0.021783102303743362
5.15,0.023351550102233887,-0.10828495025634766,-0.050478752702474594,0.0016664802096784115,-0.014876095578074455,0.029281016439199448
5.175,-0.010402022860944271,-0.1222076416015625,-0.07489620894193649,-0.005684958770871162,-0.004541041329503059,0.0445590503513813
5.2,-0.054756905883550644,-0.11312580108642578,-0.11523881554603577,-0.013248609378933907,-0.004009466618299484,0.05402121692895889
5.225,-0.06420131772756577,-0.12262248992919922,-0.11000873148441315,-0.015249351039528847,-0.022438134998083115,0.04944447800517082
5.25,-0.04766696318984032,-0.11276912689208984,-0.08311069756746292,-0.012405159883201122,-0.045145485550165176,0.03936215117573738
5.275,-0.04351051151752472,-0.06757450103759766,-0.07480263710021973,-0.0008712878916412592,-0.05408545956015587,0.027423275634646416
5.3,-0.038869939744472504,-0.046204566955566406,-0.05209508538246155,0.010688327252864838,-0.050614386796951294,0.02525649219751358
5.325,-0.024420514702796936,-0.0763101577758789,-0.01071930956095457,0.013119534589350224,-0.0401281863451004,0.019732050597667694
5.35,-0.021573316305875778,-0.0915670394897461,0.006135639734566212,0.016959043219685555,-0.028089845553040504,0.01806936226785183
5.375,0.001978434156626463,-0.048460960388183594,-0.007944821380078793,0.01882835105061531,-0.02366580441594124,0.009168134070932865
5.4,0.040497515350580215,-0.03400135040283203,0.002933210227638483,0.010500598698854446,-0.0166538767516613,-0.003149195574223995
5.425,0.05567774176597595,-0.07123565673828125,0.04244163632392883,-0.002229240955784917,-0.008291038684546947,-0.008600335568189621
5.45,0.04580377787351608,-0.11192798614501953,0.05057048797607422,-0.012410201132297516,0.00333893159404397,-0.0008627677452750504
5.475,0.03278031572699547,-0.10332298278808594,0.014781731180846691,-0.014072418212890625,0.016370084136724472,0.0029344656504690647
5.5,0.018998408690094948,-0.06641101837158203,-0.05002537742257118,-0.012987867929041386,0.025939837098121643,0.0036074621602892876
5.525,-0.0034764204174280167,-0.05181407928466797,-0.12748266756534576,-0.014281568117439747,0.041645415127277374,0.008407732471823692
5.55,-0.016519702970981598,-0.047580718994140625,-0.1642458438873291,-0.01471517514437437,0.04341195896267891,0.00902501866221428
5.575,-0.01196166779845953,-0.04632282257080078,-0.15630565583705902,-0.015207339078187943,0.030807383358478546,0.0027434048242866993
5.6,-0.005368889309465885,-0.04708576202392578,-0.12503397464752197,-0.007848784327507019,0.035631947219371796,-0.0025456990115344524
5.625,0.013312771916389465,-0.055312156677246094,-0.081203892827034,0.007206273265182972,0.04316716641187668,-0.01643442176282406
5.65,0.03892652317881584,-0.0877542495727539,-0.04974596947431564,0.012639058753848076,0.05188962072134018,-0.01958681270480156
5.675,0.03495992720127106,-0.12187004089355469,-0.042934320867061615,0.02159961685538292,0.06531332433223724,-0.010985450819134712
5.7,0.013508855365216732,-0.11792469024658203,-0.05068665370345116,0.02347159944474697,0.0704207494854927,-0.005373832769691944
5.725,-0.006360312923789024,-0.09141826629638672,-0.06344179064035416,0.01051931269466877,0.06754662096500397,-0.00016729359049350023
5.75,-0.02940017357468605,-0.0841073989868164,-0.06993027776479721,-0.0016928124241530895,0.06259916722774506,0.005774770397692919
5.775,-0.030626002699136734,-0.1002054214477539,-0.07766973972320557,-0.008693168871104717,0.06093813106417656,0.005972130224108696
5.8,-0.01153476070612669,-0.10628604888916016,-0.08457362651824951,-0.005181938409805298,0.06574741005897522,0.008311801590025425
5.825,0.023140065371990204,-0.07741641998291016,-0.07865303009748459,0.007219315506517887,0.06430709362030029,0.0026287848595529795
5.85,0.06182427331805229,-0.04753589630126953,-0.08336475491523743,0.008602737449109554,0.04523306339979172,-0.015465471893548965
5.875,0.07178414613008499,-0.056817054748535156,-0.11201801896095276,0.007000535260885954,0.03077615797519684,-0.019570203498005867
5.9,0.05834631621837616,-0.08954524993896484,-0.12400401383638382,0.02450181543827057,0.0484687015414238,-0.0015163050265982747
5.925,0.042672719806432724,-0.087677001953125,-0.10901889950037003,0.03582359477877617,0.05042656511068344,0.016122326254844666
5.95,-0.02554137259721756,-0.05800437927246094,-0.10713361203670502,0.02034769393503666,0.016056934371590614,0.021950257942080498
5.975,-0.12594762444496155,-0.01859569549560547,-0.11945825815200806,-0.00501881493255496,-0.039360955357551575,0.0019417251460254192
6.0,-0.24396716058254242,0.06674671173095703,-0.1291438341140747,-0.037709321826696396,-0.11000660061836243,-0.0392012782394886
6.025,-0.30182525515556335,0.1654195785522461,-0.15126079320907593,-0.07817867398262024,-0.16915234923362732,-0.07735422998666763
6.05,-0.19668640196323395,0.1725292205810547,-0.19885583221912384,-0.09204281866550446,-0.15652687847614288,-0.1232757493853569
6.075,-0.02500675991177559,0.10353946685791016,-0.14047768712043762,-0.07232818007469177,-0.1661747694015503,-0.20339953899383545
6.1,0.01332150399684906,0.06890392303466797,-0.015744594857096672,-0.09270171821117401,-0.2484433352947235,-0.2428607940673828
6.125,-0.06063331663608551,0.05084037780761719,0.02144959568977356,-0.1631060540676117,-0.3032107949256897,-0.1982424557209015
6.15,-0.06865102052688599,-0.016737937927246094,-0.04346531629562378,-0.23944391310214996,-0.3316729962825775,-0.16811898350715637
6.175,0.04429609328508377,-0.1323566436767578,-0.11645779758691788,-0.3062291145324707,-0.4196465015411377,-0.17823036015033722
6.2,0.11120881140232086,-0.13588237762451172,-0.19018487632274628,-0.3657735288143158,-0.5389649271965027,-0.17131279408931732
6.225,0.06930017471313477,0.03750324249267578,-0.26373398303985596,-0.3857988119125366,-0.5857596397399902,-0.13774563372135162
6.25,0.02821807563304901,0.2416372299194336,-0.30175161361694336,-0.41261374950408936,-0.6184132099151611,-0.14150547981262207
6.275,-0.00506938062608242,0.38898372650146484,-0.23782633244991302,-0.5214744806289673,-0.7669418454170227,-0.16492384672164917
6.3,-0.16282489895820618,0.6260128021240234,-0.04295498877763748,-0.6314153075218201,-0.9206781387329102,-0.19595491886138916
6.325,-0.360214501619339,0.9802618026733398,0.1320725679397583,-0.7004214525222778,-0.9785413146018982,-0.31379058957099915
6.35,-0.3605351150035858,1.0916624069213867,0.23759974539279938,-0.8552061319351196,-1.022843360900879,-0.5630996227264404
6.375,-0.28313612937927246,1.2878847122192383,0.5037136673927307,-0.9909036159515381,-1.064586877822876,-0.7549223899841309
6.4,-0.2580104470252991,1.8640556335449219,0.8628500699996948,-1.048567771911621,-0.9213413596153259,-0.8786134123802185
6.425,-0.08842959254980087,1.9836807250976562,0.8945765495300293,-1.2068071365356445,-0.5631096363067627,-1.1222575902938843
6.45,0.2337784320116043,1.138199806213379,0.44065219163894653,-1.4007247686386108,-0.25236350297927856,-1.3621058464050293
6.475,0.6003307104110718,-0.1052694320678711,-0.1037108525633812,-1.4859412908554077,-0.15504218637943268,-1.327432632446289
6.5,0.8980180025100708,-0.9383420944213867,-0.14949971437454224,-1.2274925708770752,-0.3495645523071289,-0.9925774335861206
6.525,0.6108273863792419,-1.1905288696289062,-0.19267518818378448,-0.9999144077301025,-0.1960805058479309,-0.7909237146377563
6.55,0.10235980153083801,-1.396444320678711,-0.6223301291465759,-1.0307683944702148,-0.2742983400821686,-0.8461928367614746
6.575,0.048023320734500885,-1.929621696472168,-0.8783575892448425,-1.1406134366989136,-0.6924335956573486,-0.9871286749839783
6.6,0.37824374437332153,-2.4968504905700684,-0.7550361752510071,-1.084170937538147,-0.8510878086090088,-0.9037619233131409
6.625,0.5834271907806396,-2.6975979804992676,-0.4987117350101471,-0.8736255764961243,-0.6611563563346863,-0.6176706552505493
6.65,0.2720189392566681,-2.2909188270568848,-0.4105245769023895,-0.5072811841964722,-0.1557202786207199,-0.26858943700790405
6.675,-0.38262343406677246,-1.4242029190063477,-0.5209119915962219,-0.11806254833936691,0.32970890402793884,0.010405528359115124
6.7,-1.1055625677108765,-0.345428466796875,-0.7002397775650024,0.11635509133338928,0.5440829396247864,0.11326891928911209
6.725,-1.4336060285568237,0.5404939651489258,-0.7635183334350586,0.12075303494930267,0.39677175879478455,0.03195665031671524
6.75,-0.9347108006477356,0.6658639907836914,-0.5349410176277161,-0.030516337603330612,-0.02577417716383934,-0.24487218260765076
6.775,0.046471722424030304,0.13655376434326172,-0.16292256116867065,-0.07703499495983124,-0.3864729404449463,-0.5328184366226196
6.8,0.7307624816894531,-0.3410024642944336,-0.02455456182360649,0.1269974261522293,-0.39696404337882996,-0.5938030481338501
6.825,0.9325636029243469,-0.5321168899536133,-0.14830125868320465,0.3808271586894989,-0.25486674904823303,-0.54743891954422
6.85,0.9250855445861816,-0.5334606170654297,-0.2560041844844818,0.4634256660938263,-0.21611957252025604,-0.5214357972145081
6.875,0.8707080483436584,-0.36385440826416016,-0.17129413783550262,0.372801810503006,-0.27607303857803345,-0.5106713771820068
6.9,0.7186869978904724,-0.19655990600585938,0.09177683293819427,0.22558331489562988,-0.2724760174751282,-0.47821250557899475
6.925,0.4288591146469116,-0.1775503158569336,0.45416259765625,0.144736647605896,-0.11334297060966492,-0.4152998924255371
6.95,0.04794792830944061,-0.1413288116455078,0.8379666805267334,0.20666329562664032,0.17891302704811096,-0.2933424711227417
6.975,-0.21016836166381836,-0.07770538330078125,1.1730294227600098,0.33016374707221985,0.4280776381492615,-0.2025357484817505
7.0,-0.2701687216758728,-0.14286136627197266,1.2111083269119263,0.4264005720615387,0.5984418392181396,-0.18033108115196228
7.025,-0.2172774374485016,-0.26574134826660156,0.826988935470581,0.542677104473114,0.7782920598983765,-0.1362251192331314
7.05,-0.21293318271636963,-0.20047473907470703,0.3825412094593048,0.6925595998764038,0.9285630583763123,-0.023790646344423294
7.075,-0.32360920310020447,0.04791736602783203,0.18024222552776337,0.7455782294273376,0.9735255241394043,0.051643140614032745
7.1,-0.452827513217926,0.15147113800048828,0.19031599164009094,0.6736071109771729,0.9656480550765991,0.013122018426656723
7.125,-0.5934424996376038,0.151611328125,0.2590686082839966,0.601104736328125,0.9792393445968628,-0.06891955435276031
7.15,-0.9047897458076477,0.29507923126220703,0.26270902156829834,0.5404167771339417,0.9881378412246704,-0.18784251809120178
7.175,-1.3198744058609009,0.4275035858154297,0.22169609367847443,0.4031471908092499,0.8676915168762207,-0.3483901023864746
7.2,-1.6393189430236816,0.5218935012817383,0.17014114558696747,0.20074717700481415,0.6770290732383728,-0.5876177549362183
7.225,-1.7210575342178345,0.7690267562866211,0.09136846661567688,0.04554179683327675,0.49738258123397827,-0.9222937822341919
7.25,-1.5150001049041748,1.0164432525634766,0.05248856544494629,-0.11806818842887878,0.21636055409908295,-1.1520452499389648
7.275,-0.9048352837562561,0.34508514404296875,-0.14225247502326965,-0.35931169986724854,0.10151338577270508,-1.2060233354568481
7.3,-0.24792170524597168,-0.33998870849609375,-0.4354127049446106,-0.4740125834941864,0.05349373817443848,-0.9759674072265625
7.325,0.06912233680486679,-0.6349611282348633,-0.48297348618507385,-0.47264090180397034,-0.004041492938995361,-0.7860463857650757
7.35,0.10495174676179886,-0.6199369430541992,-0.41258010268211365,-0.35517460107803345,0.03381340950727463,-0.5977003574371338
7.375,0.03778061270713806,-0.2763404846191406,-0.4424978494644165,-0.149159237742424,0.09195589274168015,-0.4190712571144104
7.4,-0.04118059203028679,0.08241653442382812,-0.5576121807098389,0.0022169873118400574,0.07484646886587143,-0.32641682028770447
7.425,-0.09697248041629791,0.1487884521484375,-0.777794361114502,0.02085205353796482,0.05316004902124405,-0.2720681130886078
7.45,-0.05633176118135452,0.12311077117919922,-0.9927656054496765,0.0802350789308548,0.04425781965255737,-0.22227777540683746
7.475,0.03000190109014511,0.30731964111328125,-1.0721814632415771,0.2992812693119049,0.09599979221820831,-0.13332311809062958
7.5,0.11157269775867462,0.5953044891357422,-0.9320862293243408,0.5062229633331299,0.13544371724128723,-0.028343454003334045
7.525,0.33521854877471924,0.5546407699584961,-0.5417320132255554,0.5530256032943726,0.08608801662921906,0.0655164122581482
7.55,0.654431939125061,-0.045228004455566406,-0.21042224764823914,0.6258106827735901,0.02389581874012947,0.10448330640792847
7.575,0.7570043802261353,-0.6067190170288086,-0.12650148570537567,0.8686543703079224,0.0648462176322937,0.2013148069381714
7.6,0.6506929397583008,-0.44782161712646484,-0.002458527684211731,1.16029953956604,0.042900532484054565,0.3974948823451996
7.625,0.5150306224822998,0.21233654022216797,0.4400905966758728,1.1710721254348755,-0.1860489845275879,0.5420194864273071
7.65,0.5988534092903137,0.43270206451416016,0.9169168472290039,0.668904185295105,-0.6489938497543335,0.43324562907218933
7.675,1.0685389041900635,-0.2770957946777344,1.1539286375045776,-0.00780151691287756,-1.1085456609725952,0.11050815135240555
7.7,1.4681586027145386,-0.9425487518310547,1.3742246627807617,-0.218028262257576,-1.2623426914215088,0.07472088932991028
7.725,1.2666168212890625,-0.9047708511352539,1.4858249425888062,0.026990294456481934,-1.0365619659423828,0.3775685727596283
7.75,0.601671040058136,-0.6973752975463867,1.179717779159546,0.3272767961025238,-0.6344585418701172,0.6551197171211243
7.775,-0.07535174489021301,-0.433929443359375,0.7171730995178223,0.48714613914489746,-0.3104121685028076,0.8483715653419495
7.8,-0.4479164183139801,0.012173652648925781,0.4804880619049072,0.4593381881713867,-0.18730637431144714,0.9331691861152649
7.825,-0.6015745401382446,0.32244873046875,0.3767593204975128,0.31771788001060486,-0.09359097480773926,0.9214963316917419
7.85,-0.5953352451324463,0.3187074661254883,0.3179144263267517,0.23680612444877625,0.004014641046524048,0.8942133188247681
7.875,-0.44087713956832886,0.2752408981323242,0.3651748299598694,0.26896676421165466,0.07437628507614136,0.8766855597496033
7.9,-0.29203367233276367,0.3853731155395508,0.4089479148387909,0.3473217487335205,0.15121501684188843,0.8400812149047852
7.925,-0.28811413049697876,0.5159091949462891,0.2783413827419281,0.4043649435043335,0.21989582479000092,0.7633266448974609
7.95,-0.30985867977142334,0.45535945892333984,0.06928660720586777,0.3643401265144348,0.1955527663230896,0.6389291882514954
7.975,-0.2695828974246979,0.3417243957519531,-0.014511488378047943,0.273741215467453,0.1092328280210495,0.5233845114707947
8.0,-0.27500295639038086,0.3621816635131836,-0.03691574186086655,0.23591336607933044,0.10444855690002441,0.4671200215816498
8.025,-0.3301025629043579,0.3840179443359375,-0.09300343692302704,0.23027072846889496,0.15784227848052979,0.4020279049873352
8.05,-0.3053102195262909,0.3211784362792969,-0.0991404727101326,0.1915569305419922,0.12282483279705048,0.31683894991874695
8.075,-0.1703445017337799,0.2720308303833008,-0.03645656257867813,0.14074568450450897,0.022955745458602905,0.2428576797246933
8.1,-0.07342836260795593,0.21647167205810547,0.022312453016638756,0.12055515497922897,-0.0474635511636734,0.17132754623889923
8.125,-0.047408826649188995,0.0957174301147461,0.06235283240675926,0.10564924776554108,-0.08306197822093964,0.1026487722992897
8.15,-0.004777847323566675,-0.057715415954589844,0.07430395483970642,0.0971427783370018,-0.0941167026758194,0.04804734140634537
8.175,0.022216103971004486,-0.14910411834716797,0.07629910856485367,0.12805190682411194,-0.06970775127410889,0.04860800504684448
8.2,0.0020120101980865,-0.12591838836669922,0.07425989210605621,0.162693053483963,-0.03673487529158592,0.0775691568851471
8.225,0.0037419642321765423,-0.03631305694580078,0.05647936463356018,0.15697148442268372,-0.025063399225473404,0.09550543129444122
8.25,0.03511607274413109,0.013876914978027344,0.05986616015434265,0.1291574090719223,-0.023151930421590805,0.0894804373383522
8.275,0.10067154467105865,-0.047591209411621094,0.11932123452425003,0.10882828384637833,-0.01882335916161537,0.07848954200744629
8.3,0.18790872395038605,-0.11959648132324219,0.17908568680286407,0.09552998095750809,-0.009669823572039604,0.08500860631465912
8.325,0.17522579431533813,-0.1053457260131836,0.1723088026046753,0.09826403856277466,0.024128297343850136,0.1122458279132843
8.35,0.05456361174583435,-0.07732009887695312,0.08688277006149292,0.09721699357032776,0.07792270928621292,0.12636792659759521
8.375,-0.05549070984125137,-0.10631847381591797,0.008534766733646393,0.08054431527853012,0.100408636033535,0.12769252061843872
8.4,-0.10037977248430252,-0.1424417495727539,-0.024306440725922585,0.05453493446111679,0.08149093389511108,0.11967231333255768
8.425,-0.1214030310511589,-0.09543991088867188,-0.03580380231142044,0.04703059792518616,0.07017049193382263,0.12881770730018616
8.45,-0.125215545296669,0.02917003631591797,-0.0598994717001915,0.06184857338666916,0.07217178493738174,0.1459571272134781
8.475,-0.08655460178852081,0.07981204986572266,-0.0752466470003128,0.0612492673099041,0.0657150149345398,0.12500253319740295
8.5,0.0015144075732678175,0.023819923400878906,-0.04701647907495499,0.05396850034594536,0.044868502765893936,0.09070425480604172
8.525,0.0847778171300888,-0.04340076446533203,-0.024791086092591286,0.054321788251399994,0.025744982063770294,0.06723238527774811
8.55,0.09971538186073303,-0.07964801788330078,-0.06496590375900269,0.061970945447683334,0.02440635859966278,0.057565346360206604
8.575,0.016140233725309372,-0.06900978088378906,-0.11062341928482056,0.07982394844293594,0.02378937602043152,0.06194212660193443
8.6,-0.1099366769194603,-0.0153045654296875,-0.10000301897525787,0.08289836347103119,0.005976757034659386,0.06829310953617096
8.625,-0.17836728692054749,0.058203697204589844,-0.03579847887158394,0.06147794425487518,-0.025354528799653053,0.057003192603588104
8.65,-0.17546561360359192,0.03484821319580078,0.028061646968126297,0.01587887667119503,-0.0479542538523674,0.017444059252738953
8.675,-0.13149259984493256,-0.029964447021484375,0.09929848462343216,0.00027955928817391396,-0.04893407225608826,-0.00983267929404974
8.7,-0.06474334746599197,-0.02525806427001953,0.15597166121006012,0.022473711520433426,-0.029836446046829224,-0.016216663643717766
8.725,0.025768768042325974,-0.0052032470703125,0.15167857706546783,0.02925439178943634,-0.0008190609514713287,-0.023009447380900383
8.75,0.12315768748521805,-0.06891536712646484,0.09658022969961166,0.01850496046245098,0.023447632789611816,-0.030399572104215622
8.775,0.1888948231935501,-0.20009613037109375,0.03059455379843712,0.004349429160356522,0.03988863155245781,-0.025793733075261116
8.8,0.16488000750541687,-0.25910377502441406,-0.02584689110517502,0.018293987959623337,0.0682179182767868,0.010884709656238556
8.825,0.031863436102867126,-0.15816211700439453,-0.06482526659965515,0.049997478723526,0.10358192026615143,0.06484116613864899
8.85,-0.10184051096439362,0.012302398681640625,-0.09892628341913223,0.05102355405688286,0.1056879311800003,0.09239170700311661
8.875,-0.14183790981769562,0.08602428436279297,-0.10820798575878143,0.012712855823338032,0.07856817543506622,0.07091423869132996
8.9,-0.10737041383981705,0.04411029815673828,-0.0706266239285469,-0.02150120586156845,0.038615044206380844,0.03586366027593613
8.925,-0.07186218351125717,-0.0011119842529296875,-0.04181937873363495,-0.025800535455346107,0.02201753482222557,0.016044216230511665
8.95,-0.03843872249126434,0.02356243133544922,-0.03645374998450279,-0.011024841107428074,0.023893581703305244,0.0095865773037076
8.975,0.005084161646664143,0.02879619598388672,-0.03141968697309494,-0.008582619950175285,0.022112593054771423,-0.0030733696185052395
9.0,0.0410345122218132,-0.02517223358154297,-0.009361041709780693,-0.025655172765254974,-0.003846278414130211,-0.02718515694141388
9.025,0.043730564415454865,-0.05260753631591797,0.016409091651439667,-0.03632992506027222,-0.02860252745449543,-0.03283870965242386
9.05,0.005478473845869303,-0.014504432678222656,0.005154062993824482,-0.04656565189361572,-0.044664107263088226,-0.020122917369008064
9.075,-0.02831539325416088,0.033728599548339844,-0.02130795083940029,-0.06962095201015472,-0.07757462561130524,-0.0011065192520618439
9.1,-0.03838158771395683,0.09672260284423828,-0.0012595737352967262,-0.09523417800664902,-0.10785197466611862,0.018839340656995773
9.125,-0.03846684843301773,0.16832923889160156,0.04310254007577896,-0.13512761890888214,-0.12364108860492706,0.011635561473667622
9.15,-0.030736863613128662,0.2285146713256836,0.07555016130208969,-0.19620192050933838,-0.137684628367424,-0.007707270327955484
9.175,-0.049847837537527084,0.3089923858642578,0.1242709830403328,-0.25995418429374695,-0.167490616440773,-0.029163960367441177
9.2,-0.10593026131391525,0.3873577117919922,0.15320438146591187,-0.3372398912906647,-0.20289689302444458,-0.06274179369211197
9.225,-0.19887569546699524,0.37985992431640625,0.10506104677915573,-0.4424074590206146,-0.23215733468532562,-0.13015180826187134
9.25,-0.3194861114025116,0.40905094146728516,0.05474364012479782,-0.5152502059936523,-0.2395213544368744,-0.16438257694244385
9.275,-0.4375547468662262,0.7341604232788086,0.0991583913564682,-0.55735182762146,-0.24797452986240387,-0.17138256132602692
9.3,-0.5024794340133667,1.126887321472168,0.1290806531906128,-0.6454716920852661,-0.2684941291809082,-0.22173486649990082
9.325,-0.4805157482624054,1.2650232315063477,0.11913534998893738,-0.8171249628067017,-0.321028470993042,-0.3501717448234558
9.35,-0.41183021664619446,1.3350248336791992,0.2411387860774994,-0.965908944606781,-0.3723483085632324,-0.4961250424385071
9.375,-0.2667448818683624,1.4753484725952148,0.49927830696105957,-1.0140756368637085,-0.5145381689071655,-0.5964726209640503
9.4,-0.1699535846710205,1.5369701385498047,0.4394146203994751,-1.0688738822937012,-0.7466937303543091,-0.6674065589904785
9.425,-0.059410709887742996,1.5328245162963867,0.1198963075876236,-1.3535280227661133,-1.0637009143829346,-0.8876388072967529
9.45,0.7420880198478699,0.8087053298950195,0.1633547842502594,-1.835087537765503,-1.7121596336364746,-1.2709088325500488
9.475,1.4527848958969116,-0.3116331100463867,0.540452241897583,-1.9466949701309204,-1.6624740362167358,-1.22378408908844
9.5,1.4448422193527222,-0.8849172592163086,0.7546764612197876,-1.5339972972869873,-0.9125664830207825,-0.8118937015533447
9.525,1.042697787284851,-0.7556142807006836,0.5077229738235474,-0.9678612351417542,-0.040219031274318695,-0.2574073374271393
9.55,0.570131778717041,-0.34723472595214844,0.0029508844017982483,-0.569990336894989,0.5835012197494507,0.12319639325141907
9.575,0.26148778200149536,-0.18205547332763672,-0.32128241658210754,-0.5097386837005615,0.7259630560874939,0.15326794981956482
9.6,0.15830141305923462,-0.39188289642333984,-0.4328691363334656,-0.6493335962295532,0.6050940155982971,0.017526037991046906
9.625,0.21455299854278564,-0.8200864791870117,-0.4767930507659912,-0.7649565935134888,0.47259441018104553,-0.06732767820358276
9.65,0.34636420011520386,-1.285593032836914,-0.46320009231567383,-0.7910215854644775,0.4208775460720062,-0.04964875802397728
9.675,0.27429965138435364,-1.512002944946289,-0.4308897852897644,-0.7296450734138489,0.4790875315666199,0.04797414690256119
9.7,-0.12613074481487274,-1.4578227996826172,-0.49387872219085693,-0.6028235554695129,0.5734092593193054,0.15754549205303192
9.725,-0.529535174369812,-1.3635005950927734,-0.5903810858726501,-0.48178088665008545,0.5097150206565857,0.1858123540878296
9.75,-0.6303120255470276,-1.4118757247924805,-0.5502845644950867,-0.4354339838027954,0.2895919680595398,0.1607595980167389
9.775,-0.5633282661437988,-1.462881088256836,-0.3977853059768677,-0.41205036640167236,0.07096143066883087,0.16892817616462708
9.8,-0.5844586491584778,-1.3171052932739258,-0.30966517329216003,-0.35449910163879395,-0.06773356348276138,0.21406583487987518
9.825,-0.6795220971107483,-0.9534797668457031,-0.3308113217353821,-0.2744320034980774,-0.16378116607666016,0.23997169733047485
9.85,-0.7383256554603577,-0.47612953186035156,-0.3876456916332245,-0.23610135912895203,-0.2521321475505829,0.22859545052051544
9.875,-0.7227270603179932,0.10065269470214844,-0.4401708245277405,-0.25609275698661804,-0.316507488489151,0.20286403596401215
9.9,-0.6249075531959534,0.7848358154296875,-0.38777467608451843,-0.31464967131614685,-0.39042094349861145,0.18258075416088104
9.925,-0.44454512000083923,1.327256202697754,-0.19986014068126678,-0.3612140715122223,-0.4315780699253082,0.14141318202018738
9.95,-0.13192157447338104,1.3263359069824219,0.09189632534980774,-0.3519977629184723,-0.4523569941520691,0.017013708129525185
9.975,0.24345622956752777,0.8797426223754883,0.36315810680389404,-0.2563028633594513,-0.41623175144195557,-0.09342287480831146
10.0,0.4690636694431305,0.4969758987426758,0.44186490774154663,-0.0794648826122284,-0.2982042729854584,-0.11462492495775223
10.025,0.4560287296772003,0.45863914489746094,0.2966172695159912,0.06269291788339615,-0.19912496209144592,-0.06721098721027374
10.05,0.3604164719581604,0.5262823104858398,0.03430907428264618,0.0371115617454052,-0.20596638321876526,-0.034001629799604416
10.075,0.3460087478160858,0.40923023223876953,-0.08657839894294739,-0.10833863914012909,-0.3128984570503235,-0.06347343325614929
10.1,0.3710857927799225,0.24160289764404297,-0.0475379079580307,-0.19890761375427246,-0.3752698004245758,-0.08893617987632751
10.125,0.3139672875404358,0.23651599884033203,-0.038970813155174255,-0.21336859464645386,-0.32836228609085083,-0.04757217317819595
10.15,0.11986682564020157,0.4616575241088867,-0.06094006076455116,-0.22239765524864197,-0.22361014783382416,0.050745733082294464
10.175,-0.15381361544132233,0.7389059066772461,-0.1270819753408432,-0.2590131461620331,-0.10661132633686066,0.11479780077934265
10.2,-0.34654557704925537,0.7818803787231445,-0.16311673820018768,-0.343037486076355,-0.06766161322593689,0.11261559277772903
10.225,-0.41876572370529175,0.6301403045654297,-0.04780253767967224,-0.46334895491600037,-0.10018076747655869,0.11905515193939209
10.25,-0.5233664512634277,0.6007976531982422,0.1426028162240982,-0.546430230140686,-0.13493461906909943,0.19393214583396912
10.275,-0.7417551875114441,0.8683748245239258,0.33546528220176697,-0.6204734444618225,-0.24746285378932953,0.25808703899383545
10.3,-0.9304929971694946,1.3101301193237305,0.4409688413143158,-0.7046999931335449,-0.42990240454673767,0.24689319729804993
10.325,-0.822916567325592,1.2469825744628906,0.5563427209854126,-0.7811657190322876,-0.7840302586555481,0.1331973671913147
10.35,-0.5634680986404419,0.5426740646362305,0.9176867008209229,-0.8792675733566284,-1.2459633350372314,0.014036394655704498
10.375,-0.41839107871055603,-0.09385395050048828,1.1802412271499634,-0.947019100189209,-1.4830724000930786,0.08389631658792496
10.4,-0.33009207248687744,-0.23474884033203125,1.1255817413330078,-0.974121630191803,-1.5712939500808716,0.315435528755188
10.425,-0.09427604079246521,-0.020582199096679688,0.9066016674041748,-1.006355881690979,-1.6450320482254028,0.5880556702613831
10.45,0.2740912139415741,0.3621368408203125,0.6487631797790527,-1.0305472612380981,-1.6621085405349731,0.8780122995376587
10.475,0.6382529139518738,0.7845058441162109,0.42114171385765076,-1.0296432971954346,-1.6181222200393677,1.1391271352767944
10.5,0.8470456600189209,1.2225608825683594,0.23437485098838806,-1.0100061893463135,-1.5231633186340332,1.3515095710754395
10.525,0.8042362928390503,1.6003189086914062,0.02128787338733673,-1.0393978357315063,-1.4186928272247314,1.50321626663208
10.55,0.6101210117340088,1.7177162170410156,-0.18748018145561218,-1.1405566930770874,-1.389190435409546,1.5679560899734497
10.575,0.3778839707374573,1.5577459335327148,-0.3712467551231384,-1.249402642250061,-1.4190491437911987,1.5454272031784058
10.6,0.16426631808280945,1.3660192489624023,-0.6515214443206787,-1.3327809572219849,-1.4563266038894653,1.4369211196899414
10.625,-0.019697263836860657,1.3137426376342773,-1.0556607246398926,-1.4001790285110474,-1.5386916399002075,1.2590407133102417
10.65,-0.10403844714164734,1.1782617568969727,-1.413935899734497,-1.4442636966705322,-1.6672009229660034,1.0592325925827026
10.675,-0.12326940149068832,0.8644514083862305,-1.5326530933380127,-1.4464771747589111,-1.7804633378982544,0.8508495092391968
10.7,-0.17780819535255432,0.6316919326782227,-1.4387129545211792,-1.40799081325531,-1.7842801809310913,0.6340328454971313
10.725,-0.3242340087890625,0.5727338790893555,-1.3625314235687256,-1.3457794189453125,-1.6009608507156372,0.41965556144714355
10.75,-0.5049848556518555,0.37542724609375,-1.429138422012329,-1.2901259660720825,-1.2522196769714355,0.1947212815284729
10.775,-0.678860604763031,-0.03203773498535156,-1.6148998737335205,-1.2279144525527954,-0.8510186672210693,-0.05785638466477394
10.8,-0.7875373959541321,-0.4345579147338867,-1.9513055086135864,-1.1444268226623535,-0.48763927817344666,-0.3061004877090454
10.825,-0.8147997856140137,-0.8252277374267578,-2.447063446044922,-1.021983027458191,-0.22523607313632965,-0.512404203414917
10.85,-0.8095277547836304,-1.2046499252319336,-3.067711591720581,-0.8707870244979858,-0.1278107464313507,-0.6719204187393188
10.875,-0.8191554546356201,-1.5311002731323242,-3.8002829551696777,-0.6902899742126465,-0.22075040638446808,-0.7801986336708069
10.9,-0.8519725799560547,-1.7605562210083008,-4.521842956542969,-0.4837648272514343,-0.5281088352203369,-0.8046829104423523
10.925,-0.8730024099349976,-1.7306270599365234,-4.932919502258301,-0.3242410719394684,-1.0289545059204102,-0.6780708432197571
10.95,-0.8091448545455933,-1.5771980285644531,-4.883630752563477,-0.23398567736148834,-1.532701849937439,-0.5192544460296631
10.975,-0.708466649055481,-1.3538856506347656,-4.656371593475342,-0.16304081678390503,-1.8509559631347656,-0.418110191822052
11.0,-0.5450253486633301,-1.0002307891845703,-4.500933647155762,-0.061510808765888214,-1.9355167150497437,-0.3523580729961395
11.025,-0.33533307909965515,-0.6708612442016602,-4.28929328918457,0.03497760742902756,-1.8944900035858154,-0.3622686564922333
11.05,-0.09671872854232788,-0.36879730224609375,-3.98905086517334,0.10611319541931152,-1.891395926475525,-0.5009129643440247
11.075,0.2613113224506378,-0.023702621459960938,-3.6342122554779053,0.17712938785552979,-1.965821623802185,-0.7011528015136719
11.1,0.791484534740448,0.4475698471069336,-3.2031280994415283,0.24168792366981506,-2.0707767009735107,-0.9591580629348755
11.125,1.4405163526535034,1.079202651977539,-2.51657772064209,0.2657910883426666,-2.246819019317627,-1.2619919776916504
11.15,1.8823961019515991,1.3227291107177734,-1.342740774154663,0.3499658405780792,-2.3547744750976562,-1.5215837955474854
11.175,1.8379027843475342,0.9940805435180664,0.3060912489891052,0.6224409341812134,-2.31337308883667,-1.618693470954895
11.2,1.2289427518844604,0.08350658416748047,2.146423816680908,1.0404678583145142,-2.031693458557129,-1.6225441694259644
11.225,0.3284389078617096,-1.1232538223266602,3.4250569343566895,1.5103275775909424,-1.4200646877288818,-1.514868140220642
11.25,-0.21213069558143616,-1.8063364028930664,3.3946166038513184,1.83976149559021,-0.7512413263320923,-1.1958262920379639
11.275,-0.022641539573669434,-1.579401969909668,2.4828081130981445,1.7379752397537231,-0.518772304058075,-0.7063419818878174
11.3,0.4078308939933777,-1.034123420715332,1.9751594066619873,1.2518490552902222,-0.9432002902030945,-0.41253021359443665
11.325,0.5123915672302246,-0.7398405075073242,2.4635088443756104,0.5777838230133057,-1.655860185623169,-0.4467167556285858
11.35,0.1024305522441864,-0.7582864761352539,3.408399820327759,0.006999880075454712,-2.016864061355591,-0.5089101195335388
11.375,-0.5194495916366577,-0.8121919631958008,3.9815213680267334,-0.2546941041946411,-1.7786718606948853,-0.2704128324985504
11.4,-0.794586181640625,-0.8584461212158203,3.8334527015686035,-0.25114426016807556,-1.1503722667694092,0.14754989743232727
11.425,-0.7103919386863708,-1.0512409210205078,3.1811275482177734,-0.2561066746711731,-0.6354745626449585,0.40072134137153625
11.45,-0.6522327065467834,-1.3127517700195312,2.4014265537261963,-0.4619426429271698,-0.46185556054115295,0.43539199233055115
11.475,-0.8564116954803467,-1.4179039001464844,1.8231080770492554,-0.8251267671585083,-0.5377826690673828,0.4034169912338257
11.5,-1.3189395666122437,-1.2622575759887695,1.4792100191116333,-1.179580569267273,-0.6743757128715515,0.41862109303474426
11.525,-1.8580175638198853,-0.981846809387207,1.1174359321594238,-1.409332275390625,-0.6408869028091431,0.46746474504470825
11.55,-2.220137357711792,-0.7267560958862305,0.5573733448982239,-1.5201570987701416,-0.37825727462768555,0.5374270081520081
11.575,-2.282883882522583,-0.45752620697021484,-0.19510503113269806,-1.5823296308517456,-0.05641224980354309,0.589469850063324
11.6,-2.197756767272949,-0.1927661895751953,-0.9879530668258667,-1.6313879489898682,0.12441524863243103,0.606361448764801
11.625,-2.152337074279785,-0.07449626922607422,-1.6221204996109009,-1.6774342060089111,0.12014566361904144,0.5767331123352051
11.65,-2.172677516937256,-0.07576560974121094,-2.1651365756988525,-1.71950101852417,0.04929666221141815,0.5330772399902344
11.675,-2.1717371940612793,-0.11525154113769531,-2.7134921550750732,-1.7223668098449707,-0.024929776787757874,0.5082240104675293
11.7,-2.1578781604766846,-0.13652324676513672,-3.2582054138183594,-1.6510056257247925,-0.1201014369726181,0.4789870083332062
11.725,-2.1272711753845215,-0.12354183197021484,-3.73354434967041,-1.491525411605835,-0.2409437894821167,0.38197124004364014
11.75,-1.922858476638794,0.04916572570800781,-4.267514228820801,-1.2599529027938843,-0.3016045093536377,0.2468116581439972
11.775,-1.3921083211898804,0.4890632629394531,-5.094491481781006,-0.9974387288093567,-0.2806709408760071,0.10842493921518326
11.8,-0.7118322849273682,1.0952157974243164,-6.044649600982666,-0.7602059245109558,-0.3403361439704895,0.03766611963510513
11.825,-0.06866705417633057,1.62811279296875,-6.603026866912842,-0.5424551367759705,-0.6410285830497742,-0.028849689289927483
11.85,0.5755802989006042,1.6969423294067383,-6.394560813903809,-0.25007641315460205,-1.0296635627746582,-0.16980749368667603
11.875,1.2761064767837524,1.3576116561889648,-5.604835510253906,0.1915927231311798,-1.4417850971221924,-0.38842129707336426
11.9,2.020725727081299,1.0949935913085938,-4.688409805297852,0.7561049461364746,-1.9020253419876099,-0.5851531028747559
11.925,2.8908321857452393,1.3956069946289062,-3.8900725841522217,1.2681174278259277,-2.2549846172332764,-0.6771184802055359
11.95,3.7257657051086426,2.4216156005859375,-3.015582799911499,1.662710189819336,-2.5058419704437256,-0.7201899290084839
11.975,4.23461389541626,3.756899833679199,-1.7646664381027222,2.0625863075256348,-2.652163505554199,-0.7720091938972473
12.0,4.449823379516602,4.5129289627075195,-0.25237706303596497,2.5754594802856445,-2.472223997116089,-0.7556940913200378
12.025,4.539869785308838,4.18983268737793,1.1348421573638916,3.108715772628784,-2.0279927253723145,-0.555314838886261
12.05,4.51674747467041,3.170559883117676,2.2240352630615234,3.4790990352630615,-1.6652368307113647,-0.20754534006118774
12.075,4.361281871795654,2.070246696472168,2.9858412742614746,3.6373329162597656,-1.544696569442749,0.14186999201774597
12.1,4.170357704162598,1.0734577178955078,3.5110878944396973,3.639174461364746,-1.5569688081741333,0.41593217849731445
12.125,4.072872638702393,0.23467350006103516,3.9618022441864014,3.539034843444824,-1.6225600242614746,0.6107285022735596
12.15,4.060518264770508,-0.3717069625854492,4.50085973739624,3.347611665725708,-1.7658568620681763,0.6571162343025208
12.175,3.9389495849609375,-0.8685827255249023,5.163392066955566,3.0881547927856445,-1.9704509973526,0.516370415687561
12.2,3.4442005157470703,-1.467524528503418,5.805652618408203,2.7790424823760986,-2.216078042984009,0.22037655115127563
12.225,2.5442824363708496,-2.140573501586914,6.187675952911377,2.4757871627807617,-2.420170545578003,-0.14752770960330963
12.25,1.4816867113113403,-2.6389694213867188,6.155916213989258,2.200474262237549,-2.4859557151794434,-0.4579242467880249
12.275,0.6006921529769897,-2.863600730895996,5.805820941925049,1.9511317014694214,-2.381290912628174,-0.6102122068405151
12.3,0.056276559829711914,-2.812891960144043,5.388171195983887,1.6849807500839233,-2.174654006958008,-0.6553086638450623
12.325,-0.3917393684387207,-2.591181755065918,5.101308345794678,1.3940460681915283,-1.9379112720489502,-0.6824071407318115
12.35,-1.1585837602615356,-2.4439878463745117,4.738958835601807,1.0613327026367188,-1.643005132675171,-0.8019813895225525
12.375,-2.1842832565307617,-2.3496599197387695,3.8349063396453857,0.6693038940429688,-1.2711610794067383,-0.860418975353241
12.4,-2.9947714805603027,-2.1667332649230957,2.714021921157837,0.07149063050746918,-0.7666375637054443,-0.6470958590507507
12.425,-3.5499141216278076,-1.8803515434265137,1.839184045791626,-0.7342440485954285,-0.16305464506149292,-0.23622918128967285
12.45,-3.992065191268921,-1.5911760330200195,1.2984548807144165,-1.4988338947296143,0.463162899017334,0.20679731667041779
12.475,-3.9579944610595703,-1.404414176940918,1.2022840976715088,-2.0291337966918945,1.0952794551849365,0.6668565273284912
12.5,-3.042133331298828,-1.2538719177246094,1.6657767295837402,-2.2437028884887695,1.6202850341796875,0.9603062868118286
12.525,-1.6858052015304565,-1.0522193908691406,2.3728256225585938,-2.264188766479492,1.7563934326171875,0.7683174014091492
12.55,-0.7833399176597595,-0.7258853912353516,2.9235689640045166,-2.287261724472046,1.4361205101013184,0.14446817338466644
12.575,-0.8404037952423096,-0.17039775848388672,3.155784845352173,-2.293400764465332,0.8166043162345886,-0.6605809926986694
12.6,-1.5523529052734375,0.5717372894287109,3.080819606781006,-2.339604377746582,0.28129053115844727,-1.12417471408844
12.625,-1.9860035181045532,1.2886438369750977,2.676562547683716,-2.370546340942383,0.2657586336135864,-0.9524298906326294
12.65,-1.6769477128982544,1.7032747268676758,1.96712064743042,-2.270812511444092,0.6798496842384338,-0.4762367606163025
12.675,-0.9889520406723022,1.6317873001098633,1.095293402671814,-2.100173234939575,1.1940876245498657,-0.041944317519664764
12.7,-0.45288702845573425,1.1829156875610352,0.22879797220230103,-1.9113746881484985,1.5350966453552246,0.16988185048103333
12.725,-0.1505894660949707,0.5467023849487305,-0.5983002781867981,-1.7053862810134888,1.7622184753417969,0.18005111813545227
12.75,0.17509301006793976,-0.06105327606201172,-1.4263412952423096,-1.5389245748519897,1.964597225189209,0.0999523475766182
12.775,0.48702335357666016,-0.3838224411010742,-2.2649784088134766,-1.518211841583252,2.0317084789276123,0.014909334480762482
12.8,0.5859069228172302,-0.37190818786621094,-3.107210397720337,-1.6355923414230347,1.9836984872817993,-0.0493205264210701
12.825,0.3238956928253174,-0.2148141860961914,-3.886606216430664,-1.744905948638916,1.7966961860656738,-0.10260439664125443
12.85,-0.07182300090789795,-0.012734413146972656,-4.401804447174072,-1.7669322490692139,1.5929937362670898,-0.12101681530475616
12.875,-0.22949755191802979,0.1821308135986328,-4.61897087097168,-1.6500859260559082,1.5666415691375732,-0.108832947909832
12.9,-0.19685548543930054,0.32241058349609375,-4.656988143920898,-1.4643112421035767,1.5432798862457275,-0.13230465352535248
12.925,-0.2492714822292328,0.4625062942504883,-4.584052085876465,-1.2872116565704346,1.4197746515274048,-0.19061468541622162
12.95,-0.45110952854156494,0.5259466171264648,-4.432254791259766,-1.043445110321045,1.2769426107406616,-0.24267521500587463
12.975,-0.5647423267364502,0.6591625213623047,-4.277672290802002,-0.735368549823761,1.1534793376922607,-0.24665024876594543
13.0,-0.269435316324234,1.2359952926635742,-4.242453575134277,-0.4110611081123352,1.1094579696655273,-0.2117544561624527
13.025,0.23854215443134308,2.131110191345215,-4.226867198944092,-0.10784049332141876,1.1141043901443481,-0.17010706663131714
13.05,0.6001089811325073,2.875908851623535,-3.999812364578247,0.22410432994365692,1.0624353885650635,-0.17530547082424164
13.075,0.8494715094566345,2.863358497619629,-3.570594310760498,0.6564471125602722,1.0174027681350708,-0.1672981083393097
13.1,1.143808126449585,1.9369421005249023,-3.1167423725128174,1.1192690134048462,0.874893844127655,-0.12344872951507568
13.125,1.4596166610717773,0.6933126449584961,-2.6836655139923096,1.4586877822875977,0.4417448043823242,-0.10460124909877777
13.15,1.8790814876556396,0.04470634460449219,-2.174609422683716,1.6177642345428467,-0.1602245569229126,-0.07050515711307526
13.175,2.418968439102173,0.41762733459472656,-1.5677820444107056,1.6417971849441528,-0.7992714643478394,-0.009255051612854004
13.2,2.9563589096069336,1.333207130432129,-0.9571455121040344,1.630120873451233,-1.3495492935180664,-0.00030815601348876953
13.225,3.351820230484009,2.38247013092041,-0.07690700888633728,1.5838044881820679,-1.7751245498657227,-0.03884093463420868
13.25,3.243276596069336,3.3410825729370117,1.1952770948410034,1.5142908096313477,-2.1829440593719482,-0.12549640238285065
13.275,2.635232448577881,3.5843610763549805,2.3727829456329346,1.5582070350646973,-2.4238011837005615,-0.19167876243591309
13.3,1.7778033018112183,2.826387405395508,3.194009780883789,1.7157480716705322,-2.4834799766540527,-0.1311822533607483
13.325,0.7669657468795776,1.713700294494629,3.814281463623047,1.904012680053711,-2.577634811401367,-0.04819652438163757
13.35,-0.19956183433532715,0.8331546783447266,4.410839557647705,2.1528265476226807,-2.7306647300720215,-0.013748571276664734
13.375,-0.8942164778709412,0.1742420196533203,4.985525131225586,2.4194626808166504,-2.805389642715454,0.04132242500782013
13.4,-1.1720964908599854,-0.3524312973022461,5.397843837738037,2.670677900314331,-2.7484381198883057,0.10876650363206863
13.425,-1.1864700317382812,-0.7646598815917969,5.641678810119629,2.8790204524993896,-2.577016592025757,0.09796318411827087
13.45,-1.3931970596313477,-1.160421371459961,5.6534504890441895,3.0189526081085205,-2.343729019165039,-0.022025972604751587
13.475,-1.9686329364776611,-1.6252679824829102,5.295435428619385,3.1242730617523193,-1.95661461353302,-0.18684935569763184
13.5,-2.505004644393921,-2.1109580993652344,4.811131477355957,3.134213447570801,-1.274637222290039,-0.16736620664596558
13.525,-2.6106607913970947,-2.579246997833252,4.485474586486816,2.9632716178894043,-0.3623321056365967,0.16705870628356934
13.55,-2.3334708213806152,-3.014647960662842,4.1829071044921875,2.6429784297943115,0.5929104089736938,0.5960348844528198
13.575,-1.6726045608520508,-3.1627159118652344,3.9253010749816895,2.2505290508270264,1.4746947288513184,0.9790977239608765
13.6,-0.7075436115264893,-2.8419618606567383,3.793438196182251,1.6371052265167236,2.2351956367492676,1.1456342935562134
13.625,-0.1370268315076828,-2.1297130584716797,3.2365827560424805,0.7753105759620667,2.763120412826538,1.0246658325195312
13.65,-0.6378500461578369,-1.4895286560058594,2.12634539604187,-0.26113981008529663,3.0930895805358887,0.7992581725120544
13.675,-1.8660613298416138,-1.2992448806762695,1.188146710395813,-1.4249979257583618,3.408273220062256,0.917790412902832
13.7,-2.4599039554595947,-1.6067895889282227,0.8952862620353699,-2.4521923065185547,3.7812657356262207,1.5855201482772827
13.725,-1.6566177606582642,-1.963719367980957,1.160441279411316,-3.290404796600342,4.201878547668457,2.261911392211914
13.75,0.348713219165802,-1.7190027236938477,1.831465482711792,-4.103346347808838,4.39131498336792,2.321821689605713
13.775,2.9047980308532715,-0.4951772689819336,2.4998085498809814,-4.891616344451904,4.115593910217285,1.7339985370635986
13.8,4.428106784820557,0.7235021591186523,2.640306234359741,-5.496842861175537,3.1674208641052246,0.7045553922653198
13.825,3.854029655456543,1.1377153396606445,2.8011984825134277,-5.84779691696167,1.6843091249465942,-0.15312865376472473
13.85,2.1702659130096436,1.6070661544799805,3.2841689586639404,-5.738577842712402,0.5647525787353516,-0.29313188791275024
13.875,0.5805866122245789,2.5195255279541016,3.49235463142395,-5.032403945922852,0.46270912885665894,0.1725972592830658
13.9,-0.2394750416278839,3.0795068740844727,2.9585444927215576,-3.6369760036468506,1.1402649879455566,0.4933633506298065
13.925,0.058908939361572266,2.685654640197754,1.8806310892105103,-1.9136847257614136,2.1362643241882324,0.38307857513427734
13.95,1.0765773057937622,1.4726552963256836,0.6137433052062988,-0.44057682156562805,3.126775026321411,-0.037188347429037094
13.975,1.9996275901794434,0.0962076187133789,-0.571975588798523,0.4428286552429199,3.775981903076172,-0.41662827134132385
14.0,2.5347378253936768,-1.0741405487060547,-1.8132855892181396,0.9257935285568237,4.197094440460205,-0.6604108214378357
14.025,2.561591148376465,-1.983412742614746,-3.33526611328125,1.1309905052185059,4.472227096557617,-0.7997144460678101
14.05,1.8846485614776611,-2.538801670074463,-4.921415328979492,1.081554889678955,4.522724628448486,-0.7643911242485046
14.075,0.5781866908073425,-2.7882022857666016,-6.12640905380249,0.8231518268585205,4.317971229553223,-0.5680825114250183
14.1,-1.0437250137329102,-2.9223031997680664,-6.676660537719727,0.40235117077827454,3.9055187702178955,-0.25120222568511963
14.125,-2.615757465362549,-2.876429557800293,-6.597870826721191,-0.07153269648551941,3.397700309753418,0.20614397525787354
14.15,-3.995495319366455,-2.5125303268432617,-6.006660461425781,-0.4443565607070923,2.882497787475586,0.8196924328804016
14.175,-5.057432174682617,-1.5354032516479492,-5.403264999389648,-0.6467065215110779,2.4680845737457275,1.5402365922927856
14.2,-5.745073318481445,0.23812484741210938,-5.678585052490234,-0.7168555855751038,2.1715354919433594,2.031651735305786
14.225,-6.104460716247559,1.8058090209960938,-6.024117946624756,-0.6721465587615967,1.627825379371643,2.205980062484741
14.25,-5.9457621574401855,2.567157745361328,-5.541982650756836,-0.39747798442840576,0.6815222501754761,2.040722370147705
14.275,-5.406245708465576,2.510685920715332,-4.590569496154785,0.2546219825744629,-0.16451412439346313,1.5591961145401
14.3,-4.790660858154297,1.793910026550293,-3.6767890453338623,1.093838095664978,-0.950398862361908,0.9360299110412598
14.325,-3.941105604171753,1.325169563293457,-2.87121319770813,1.7361844778060913,-1.8784141540527344,0.42007124423980713
14.35,-2.6708154678344727,2.247112274169922,-1.7957689762115479,2.1317782402038574,-2.950011730194092,-0.06470891833305359
14.375,-1.0930829048156738,4.609697341918945,-0.23848336935043335,2.44836688041687,-3.6897683143615723,-0.7750723361968994
14.4,0.748281717300415,7.210898399353027,1.7397319078445435,2.8045735359191895,-3.8416285514831543,-1.7303791046142578
14.425,2.66990065574646,8.528237342834473,3.7431139945983887,3.14526104927063,-3.4002902507781982,-2.8011248111724854
14.45,4.174505710601807,7.964531898498535,5.2322211265563965,3.434541702270508,-2.747709274291992,-3.6219916343688965
14.475,4.817465782165527,6.067675590515137,6.031765937805176,3.5773017406463623,-2.35498309135437,-4.045616626739502
14.5,4.3926191329956055,3.6152400970458984,6.480245113372803,3.4543981552124023,-2.384648323059082,-4.3221282958984375
14.525,3.1164474487304688,1.2775869369506836,6.721076965332031,3.165092945098877,-2.387923240661621,-4.56127405166626
14.55,1.8478336334228516,-0.766301155090332,6.430657863616943,3.5381956100463867,-2.35909104347229,-4.417965888977051
14.575,1.2190786600112915,-2.409487724304199,5.389989852905273,3.2567880153656006,-1.1505258083343506,-3.8838117122650146
14.6,1.3238369226455688,-3.4526796340942383,3.8153977394104004,3.128004789352417,-0.29622316360473633,-3.0900321006774902
14.625,1.8157838582992554,-4.009977340698242,2.1575658321380615,2.725949764251709,0.05660521984100342,-2.430133104324341
14.65,2.244356393814087,-4.318472385406494,0.9216063022613525,1.8168134689331055,0.22046548128128052,-2.1248421669006348
14.675,2.362762451171875,-4.655628204345703,0.4162213206291199,0.5888528227806091,0.47468191385269165,-1.94878351688385
14.7,2.094452381134033,-4.995574951171875,0.3790762424468994,-0.5382993817329407,0.9533629417419434,-1.6064282655715942
14.725,1.8035900592803955,-5.177656650543213,0.5838043093681335,-1.3202232122421265,1.6090710163116455,-0.9259676337242126
14.75,2.207488775253296,-4.996770858764648,1.042018175125122,-1.8028088808059692,2.407388687133789,0.037795424461364746
14.775,3.4425601959228516,-4.589460372924805,1.6383610963821411,-1.9758151769638062,3.336085796356201,1.1010843515396118
14.8,4.838773727416992,-4.193476676940918,2.1295526027679443,-1.8725842237472534,4.329733848571777,2.0632143020629883
14.825,5.72424840927124,-3.408722400665283,1.8317899703979492,-1.435450553894043,5.031508445739746,2.711186408996582
14.85,5.724155902862549,-2.2760157585144043,0.8459830284118652,-1.2167874574661255,5.314391613006592,3.085862636566162
14.875,5.000481605529785,-0.9403848648071289,0.08971711993217468,-1.5015580654144287,5.213658809661865,3.517982006072998
14.9,4.003606796264648,0.5591936111450195,-0.0591890811920166,-1.5775530338287354,4.837555885314941,4.228823661804199
14.925,3.49285626411438,2.2720165252685547,-0.01858675479888916,-0.9930079579353333,4.464846611022949,4.997971534729004
14.95,3.1434028148651123,4.484387397766113,-0.8312423229217529,-0.234455406665802,4.316336631774902,5.44390869140625
14.975,1.5824286937713623,6.015510559082031,-2.3690741062164307,-0.0030600130558013916,4.026718616485596,5.3498640060424805
15.0,-0.6875013113021851,5.449167251586914,-3.3695478439331055,-0.327284038066864,3.038536787033081,4.888840198516846
15.025,-2.0511701107025146,3.5614099502563477,-3.120844602584839,-0.5165631771087646,1.6622610092163086,4.4646430015563965
15.05,-2.503477096557617,2.2392845153808594,-2.035397529602051,-0.13435973227024078,0.7362738847732544,4.192424774169922
15.075,-3.012917995452881,1.8739347457885742,-0.6444429755210876,0.4692879915237427,0.39071470499038696,3.7577619552612305
15.1,-3.7340571880340576,1.7700920104980469,0.9599848985671997,0.8124045133590698,0.4647549092769623,3.082585334777832
15.125,-4.369558334350586,1.325836181640625,2.1771774291992188,0.6124377846717834,0.9466596245765686,2.140167474746704
15.15,-4.840764045715332,0.3587970733642578,2.278611660003662,0.02050621062517166,1.6620393991470337,1.1050128936767578
15.175,-5.211544513702393,-0.7205009460449219,1.6342308521270752,-0.551897406578064,2.2028679847717285,0.30944710969924927
15.2,-5.3627471923828125,-1.3188104629516602,1.0141518115997314,-0.8748635649681091,2.2800614833831787,-0.22681117057800293
15.225,-5.135864734649658,-1.3064117431640625,0.6181535124778748,-1.0184541940689087,2.0316038131713867,-0.6944769620895386
15.25,-4.673784255981445,-0.8769340515136719,0.1854010820388794,-1.0926814079284668,1.6916497945785522,-1.2245745658874512
15.275,-4.159295082092285,-0.19836711883544922,-0.41054052114486694,-1.0887874364852905,1.2671074867248535,-1.7670142650604248
15.3,-3.5876941680908203,0.59619140625,-1.0426487922668457,-0.9885692000389099,0.678862452507019,-2.242446184158325
15.325,-2.9821019172668457,1.2705183029174805,-1.495591163635254,-0.79698246717453,-0.06996166706085205,-2.619990348815918
15.35,-2.2348127365112305,1.7450151443481445,-1.5141962766647339,-0.5380808115005493,-0.9809056520462036,-2.8194098472595215
15.375,-1.2578903436660767,1.952692985534668,-0.9846355319023132,-0.4061681032180786,-1.9084911346435547,-2.8553004264831543
15.4,-0.25980624556541443,1.813669204711914,0.04471930116415024,-0.4845271706581116,-2.5585098266601562,-2.819979429244995
15.425,0.5692210793495178,1.267836570739746,1.351865291595459,-0.606942355632782,-2.7285380363464355,-2.8113293647766113
15.45,1.115067958831787,0.34613609313964844,2.458570957183838,-0.6109042167663574,-2.2809829711914062,-2.9043025970458984
15.475,1.3041669130325317,-0.7171421051025391,2.949218988418579,-0.4246346950531006,-1.4412035942077637,-3.061779022216797
15.5,1.2297120094299316,-1.6506834030151367,2.7715485095977783,-0.11610259115695953,-0.6484922170639038,-3.125282049179077
15.525,1.099749207496643,-2.2854208946228027,2.2467803955078125,0.18564732372760773,-0.169164776802063,-2.941784143447876
15.55,1.0744059085845947,-2.5628223419189453,1.730763554573059,0.3077656328678131,-0.0499151349067688,-2.4691529273986816
15.575,1.2908200025558472,-2.4138059616088867,1.3166983127593994,0.21939018368721008,-0.09637683629989624,-1.7810496091842651
15.6,1.8342608213424683,-1.8835344314575195,0.9442641139030457,0.012032024562358856,-0.09865808486938477,-1.011985421180725
15.625,2.595257520675659,-1.1708002090454102,0.7003505229949951,-0.1756419986486435,0.07900926470756531,-0.3099973201751709
15.65,3.308717727661133,-0.5717153549194336,0.7183135151863098,-0.2538554072380066,0.49037057161331177,0.17084556818008423
15.675,3.741272211074829,-0.2954549789428711,0.8200520277023315,-0.1488094925880432,1.0768635272979736,0.408529132604599
15.7,3.677255392074585,-0.2547168731689453,0.6986516714096069,0.07775012403726578,1.6794419288635254,0.5174182057380676
15.725,3.180394172668457,-0.3106822967529297,0.45183247327804565,0.2661319673061371,2.0940093994140625,0.6758526563644409
15.75,2.561039686203003,-0.32544708251953125,0.3404253423213959,0.35986238718032837,2.2580337524414062,0.9746699333190918
15.775,2.043970823287964,-0.23775100708007812,0.3248567581176758,0.46515020728111267,2.2986114025115967,1.3009724617004395
15.8,1.6072982549667358,-0.08857345581054688,0.299774169921875,0.6484336853027344,2.3642520904541016,1.5228519439697266
15.825,1.1670283079147339,0.0973978042602539,0.3331057131290436,0.8325838446617126,2.452155590057373,1.6658860445022583
15.85,0.7407599091529846,0.3002634048461914,0.3776952624320984,0.9666855931282043,2.5438034534454346,1.7425142526626587
15.875,0.32333025336265564,0.5502109527587891,0.2775321900844574,1.069918155670166,2.6135149002075195,1.7866507768630981
15.9,-0.06287431716918945,0.8464946746826172,0.11036530882120132,1.1538752317428589,2.616948127746582,1.8039664030075073
15.925,-0.39578917622566223,1.1259069442749023,0.003402918577194214,1.1638286113739014,2.5908846855163574,1.7344467639923096
15.95,-0.7708587050437927,1.2769775390625,-0.10342788696289062,1.0208759307861328,2.5676016807556152,1.548708200454712
15.975,-1.3214013576507568,1.0791034698486328,-0.20473909378051758,0.7321738600730896,2.546914577484131,1.301021695137024
16.0,-2.004384994506836,0.6520700454711914,-0.24742457270622253,0.44996002316474915,2.497988224029541,1.0802878141403198
16.025,-2.6275641918182373,0.2871990203857422,-0.19112297892570496,0.27796873450279236,2.3586959838867188,0.9424198269844055
16.05,-3.1131558418273926,-0.0056247711181640625,-0.09600690007209778,0.1336950659751892,2.1619982719421387,0.8189578056335449
16.075,-3.580188035964966,-0.19661331176757812,-0.04105931520462036,-0.025892840698361397,1.928934097290039,0.6647940874099731
16.1,-4.047565460205078,-0.2919197082519531,0.03797096014022827,-0.1663798987865448,1.621494174003601,0.473678857088089
16.125,-4.227106094360352,-0.27279186248779297,0.129550039768219,-0.22231850028038025,1.2101619243621826,0.27625659108161926
16.15,-3.8708908557891846,-0.1852893829345703,0.20216995477676392,-0.21835367381572723,0.6881218552589417,0.08458781242370605
16.175,-3.2514941692352295,-0.08887672424316406,0.17473062872886658,-0.2806054353713989,0.2560323178768158,-0.14968857169151306
16.2,-2.706859588623047,0.10822391510009766,-0.13311119377613068,-0.45975038409233093,-0.034773871302604675,-0.44861099123954773
16.225,-2.211489677429199,0.4344758987426758,-0.7267985343933105,-0.7554994821548462,-0.2833244800567627,-0.7449865341186523
16.25,-1.703615665435791,0.7103338241577148,-1.40788733959198,-1.1859791278839111,-0.4684111475944519,-1.0060147047042847
16.275,-1.3143949508666992,0.7694883346557617,-2.088218927383423,-1.6924755573272705,-0.5297238826751709,-1.239668846130371
16.3,-1.065818428993225,0.6118764877319336,-2.6787147521972656,-2.143474817276001,-0.5021300315856934,-1.4267796277999878
16.325,-0.8505104184150696,0.3066740036010742,-3.043842077255249,-2.4640142917633057,-0.44113749265670776,-1.5136510133743286
16.35,-0.5914704203605652,-0.035264015197753906,-3.176889657974243,-2.611085891723633,-0.3506154417991638,-1.4968643188476562
16.375,-0.24041488766670227,-0.2408761978149414,-3.2689144611358643,-2.553546905517578,-0.2204483151435852,-1.3719843626022339
16.4,0.22130897641181946,-0.27231884002685547,-3.5758416652679443,-2.3389716148376465,-0.027160048484802246,-1.1896215677261353
16.425,0.7323892712593079,-0.2766838073730469,-4.211791515350342,-2.045814275741577,0.19834446907043457,-1.0396920442581177
16.45,1.1636316776275635,-0.28445911407470703,-5.135365962982178,-1.70037043094635,0.4860803186893463,-0.8730285167694092
16.475,1.3279236555099487,-0.04018688201904297,-6.313960075378418,-1.158146619796753,0.836200475692749,-0.7362459301948547
16.5,1.177977442741394,0.6355476379394531,-7.318120956420898,-0.4795686900615692,1.1494442224502563,-0.6076517701148987
16.525,0.8355624675750732,1.5980796813964844,-7.193489074707031,-0.008549842983484268,1.2871150970458984,-0.4757230877876282
16.55,0.5627102851867676,2.352593421936035,-5.556721210479736,0.11784118413925171,1.0724434852600098,-0.3458975851535797
16.575,0.05165208876132965,2.949453353881836,-3.103069305419922,0.1805332601070404,0.8019817471504211,-0.313370943069458
16.6,-1.3762807846069336,3.071695327758789,-0.0008887574076652527,-0.0656992718577385,0.7892423868179321,-0.3748008608818054
16.625,-2.9576990604400635,2.4831323623657227,3.32832670211792,-0.40035736560821533,0.2715965509414673,-0.0008228905498981476
16.65,-3.4090123176574707,1.8466863632202148,5.787768840789795,-0.4128664433956146,-0.8934253454208374,1.0302815437316895
16.675,-2.4522335529327393,1.4021711349487305,7.177999019622803,-0.725676953792572,-1.7129286527633667,1.7857633829116821
16.7,-1.4029271602630615,1.0441646575927734,7.821152210235596,-1.3566707372665405,-1.8952302932739258,1.45439875125885
16.725,-1.8887124061584473,0.8298635482788086,7.373856544494629,-1.8692586421966553,-1.6878091096878052,0.23469185829162598
16.75,-3.320044994354248,0.8540725708007812,5.705740451812744,-1.8273823261260986,-1.528745412826538,-0.9510266780853271
16.775,-3.658221483230591,0.8145627975463867,3.38714861869812,-1.2007226943969727,-1.9974143505096436,-1.2447792291641235
16.8,-2.542371988296509,0.041609764099121094,1.1895556449890137,-0.38593700528144836,-2.750380516052246,-1.027169942855835
16.825,-0.8368037343025208,-1.7265310287475586,-0.3641912341117859,0.2827155590057373,-3.2774758338928223,-0.8209704160690308
16.85,0.6708818674087524,-3.849595546722412,-1.1491689682006836,0.6343226432800293,-3.3238325119018555,-0.7197213172912598
16.875,1.4476836919784546,-5.432374954223633,-1.570793628692627,0.9452081918716431,-3.04860258102417,-0.8625025153160095
16.9,1.957082986831665,-6.1444783210754395,-2.0524821281433105,1.3844983577728271,-2.871567487716675,-1.0443731546401978
16.925,2.6799707412719727,-6.587517738342285,-2.208817720413208,1.55477774143219,-2.631786346435547,-1.0358505249023438
16.95,2.9703209400177,-6.728652000427246,-2.0541951656341553,1.3535395860671997,-2.251465320587158,-1.050545334815979
16.975,2.15993595123291,-5.491450786590576,-2.4895434379577637,1.0794566869735718,-2.008683681488037,-0.9836840629577637
17.0,0.594266951084137,-2.351490020751953,-3.9626715183258057,0.84535151720047,-2.0078206062316895,-0.39645087718963623
17.025,-0.14473965764045715,1.5032377243041992,-5.449502944946289,0.43548184633255005,-2.1875717639923096,0.7087103128433228
17.05,1.7098194360733032,4.222979545593262,-4.517565727233887,-0.6471391916275024,-2.8331637382507324,2.0313942432403564
17.075,3.8470516204833984,5.590611457824707,-1.2055190801620483,-1.2754695415496826,-3.155142307281494,2.38248872756958
17.1,2.706022262573242,6.352927207946777,0.07573476433753967,-0.057559847831726074,-1.8720835447311401,1.3407145738601685
17.125,0.14016225934028625,6.8705644607543945,-0.8627495169639587,0.8783678412437439,-0.5689464211463928,0.7295423150062561
17.15,-0.47361868619918823,5.979248046875,-0.47606876492500305,0.20148774981498718,-0.5446215867996216,0.8447055220603943
17.175,0.2775493264198303,3.8615617752075195,1.0605945587158203,-0.49642395973205566,-0.5436826348304749,0.8221608400344849
17.2,0.4458082914352417,1.4493227005004883,1.730758786201477,-0.29121991991996765,0.3900907039642334,0.30473631620407104
17.225,-0.17539209127426147,-0.70318603515625,1.5101598501205444,0.11300011724233627,1.6809475421905518,-0.1825273185968399
17.25,-1.152334213256836,-2.335416793823242,1.3645585775375366,0.0017831698060035706,2.7397000789642334,-0.2904728055000305
17.275,-2.7003612518310547,-3.054863929748535,1.5392906665802002,-0.45786842703819275,3.4062278270721436,-0.13012222945690155
17.3,-5.122777462005615,-2.366410255432129,1.9009556770324707,-0.9937635064125061,3.4868626594543457,0.22131049633026123
17.325,-7.313854217529297,-0.5843629837036133,2.4683117866516113,-1.5074937343597412,2.6753122806549072,0.8391535878181458
17.35,-7.444581508636475,1.528376579284668,3.1891801357269287,-1.9073725938796997,1.2221343517303467,1.4715380668640137
17.375,-4.897216796875,3.8077621459960938,4.256502628326416,-2.127946376800537,-0.3543357849121094,1.778816819190979
17.4,-1.3913214206695557,6.230536460876465,5.072935104370117,-1.6677271127700806,-1.0765680074691772,1.0511634349822998
17.425,0.9362528920173645,7.522280693054199,4.950098514556885,-0.5520200133323669,-1.083512783050537,-0.42657411098480225
17.45,2.6940221786499023,6.835593223571777,4.09669828414917,0.3500949740409851,-1.440231204032898,-1.3098697662353516
17.475,4.648918628692627,4.628355979919434,3.3983659744262695,0.310504287481308,-1.9667152166366577,-1.4722806215286255
17.5,6.08549165725708,1.7358522415161133,3.151477336883545,0.07268243283033371,-2.0409204959869385,-1.7007620334625244
17.525,6.671243667602539,-1.083186149597168,3.2312076091766357,0.0840759426355362,-1.542253017425537,-2.0172739028930664
17.55,6.371417045593262,-3.6607813835144043,3.286363124847412,0.16831837594509125,-0.6602760553359985,-2.3607561588287354
17.575,5.186861515045166,-5.816102027893066,2.9493186473846436,0.16861698031425476,0.12080228328704834,-2.8503918647766113
17.6,3.3801581859588623,-7.172280311584473,2.096921920776367,-0.04302167892456055,0.4435349702835083,-3.289557933807373
17.625,1.0731241703033447,-7.287858009338379,0.5115368962287903,-0.3992193937301636,0.3809276819229126,-3.405820369720459
17.65,-1.665767788887024,-6.2522125244140625,-1.511979103088379,-1.0100147724151611,0.08531975746154785,-2.8294332027435303
17.675,-4.198760986328125,-4.889279365539551,-3.058957099914551,-2.0816476345062256,-0.23732995986938477,-1.4170700311660767
17.7,-5.677249908447266,-3.65816068649292,-4.182536602020264,-3.17789888381958,-0.1894213855266571,0.5027691125869751
17.725,-5.799941062927246,-2.836099624633789,-4.374820709228516,-4.086474418640137,0.25688356161117554,2.3196606636047363
17.75,-4.487079620361328,-1.639291763305664,-2.6192193031311035,-4.609488010406494,0.33913129568099976,3.775515556335449
17.775,-2.200714349746704,0.7751131057739258,-1.7029924392700195,-3.085080862045288,0.5628042221069336,3.930727243423462
17.8,0.47188371419906616,3.8161916732788086,-2.7032721042633057,-0.9092336893081665,1.0417360067367554,2.870086431503296
17.825,2.1742055416107178,5.639639854431152,-3.0288326740264893,-0.02693292498588562,0.8847271203994751,1.2293639183044434
17.85,2.026851177215576,4.162714004516602,-1.865926742553711,0.1411825716495514,0.256594181060791,-0.4085433781147003
17.875,0.4885854125022888,0.5183916091918945,-0.5420753359794617,0.6270952224731445,-0.37590765953063965,-1.828406810760498
17.9,-1.9809367656707764,-2.319286346435547,-0.7345600724220276,1.4557243585586548,-1.2055259943008423,-2.569091796875
17.925,-4.051854133605957,-2.9725513458251953,-1.9133450984954834,1.9163891077041626,-2.403977155685425,-2.2428698539733887
17.95,-4.495170593261719,-2.027904987335205,-2.01141095161438,1.4804904460906982,-3.7070398330688477,-1.079108476638794
17.975,-4.113932132720947,-0.44110870361328125,-0.7745893001556396,0.8760110139846802,-4.649104595184326,-0.21350431442260742
18.0,-4.2058258056640625,1.4407463073730469,0.44683152437210083,0.9036511778831482,-4.976471900939941,-0.14113439619541168
18.025,-4.685654640197754,3.067859649658203,0.7511876821517944,1.3081951141357422,-4.736748218536377,-0.6047177314758301
18.05,-4.6224470138549805,4.352766990661621,0.23001229763031006,1.7388365268707275,-4.548526763916016,-1.0926200151443481
18.075,-3.838095188140869,5.983080863952637,-0.5828927755355835,2.148499011993408,-4.963231563568115,-1.4111992120742798
18.1,-2.256930112838745,7.891568183898926,-0.9641526937484741,1.9736769199371338,-5.900175094604492,-1.7621716260910034
18.125,-0.11694033443927765,8.749224662780762,-0.36026236414909363,1.106612205505371,-6.70078706741333,-2.541796922683716
18.15,1.2102384567260742,7.692193031311035,0.9743617177009583,0.09664089977741241,-7.053458213806152,-3.813655138015747
18.175,1.388123869895935,5.755765914916992,1.2041497230529785,-0.28955531120300293,-7.070330619812012,-5.114809513092041
18.2,2.2543158531188965,4.063236236572266,0.06372863054275513,-0.15379056334495544,-6.776078224182129,-5.999455451965332
18.225,3.9592654705047607,2.773098945617676,-0.5748531818389893,-0.03745079040527344,-6.100733757019043,-6.772922992706299
18.25,5.282096862792969,2.2954721450805664,-0.19694563746452332,0.21310609579086304,-5.17356014251709,-7.617079734802246
18.275,6.379558086395264,1.6311664581298828,1.2463456392288208,0.6278476715087891,-4.199907302856445,-7.859511375427246
18.3,6.513456344604492,-0.09389400482177734,3.1324191093444824,1.0309501886367798,-3.655379056930542,-7.482450008392334
18.325,5.710019588470459,-1.99029541015625,4.202175140380859,0.8981833457946777,-3.6902780532836914,-6.5315375328063965
18.35,4.831915855407715,-3.6838531494140625,4.155330181121826,0.3501393795013428,-3.6657567024230957,-5.532446384429932
18.375,4.390743732452393,-5.280946731567383,3.6670949459075928,-0.08184292912483215,-3.3091118335723877,-4.881142616271973
18.4,3.3894755840301514,-5.984701156616211,3.3961405754089355,-0.012869209051132202,-2.6429948806762695,-4.787278175354004
18.425,1.7456815242767334,-5.604330539703369,3.0940017700195312,0.16825082898139954,-2.1379361152648926,-4.495514869689941
18.45,0.5203946232795715,-4.851863384246826,2.8377575874328613,0.0895112156867981,-1.856410264968872,-3.734940767288208
18.475,0.05751807987689972,-3.7896108627319336,2.8564436435699463,-0.054122477769851685,-1.5533466339111328,-2.9850924015045166
18.5,0.05345636606216431,-2.756834030151367,2.824458599090576,-0.22010833024978638,-1.177757978439331,-2.289581537246704
18.525,0.10849630832672119,-2.139336109161377,2.2611331939697266,-0.5034489035606384,-0.8880598545074463,-1.5961487293243408
18.55,0.24388054013252258,-2.036503314971924,1.7140204906463623,-0.7450419664382935,-0.6054763197898865,-0.932252049446106
18.575,0.5766164064407349,-1.8351497650146484,1.6370127201080322,-0.4816927909851074,-0.37899571657180786,-0.5977376103401184
18.6,0.82649827003479,-1.1821870803833008,1.635007381439209,-0.05702056363224983,-0.3612741529941559,-0.4293072521686554
18.625,0.8939121961593628,-0.45682811737060547,1.5171093940734863,0.05875004827976227,-0.4530489444732666,-0.19337411224842072
18.65,0.8120233416557312,-0.03287982940673828,1.5406213998794556,0.1449589729309082,-0.43001314997673035,-0.029385559260845184
18.675,0.7485591769218445,0.13695621490478516,1.5410593748092651,0.283499538898468,-0.3180416226387024,-0.023564694449305534
18.7,0.7223846912384033,0.1475696563720703,1.212082028388977,0.3086037337779999,-0.21189318597316742,-0.01570296846330166
18.725,0.6114891767501831,0.0980062484741211,0.7545620203018188,0.3227357566356659,-0.10092944651842117,-0.025860505178570747
18.75,0.47259771823883057,-0.11179161071777344,0.4451073706150055,0.29693713784217834,-0.011980783194303513,0.057058319449424744
18.775,0.4314308166503906,-0.31517505645751953,0.38438546657562256,0.3163772225379944,0.0015322715044021606,0.10348425805568695
18.8,0.3286859095096588,-0.4036216735839844,0.41962331533432007,0.3436375558376312,-0.008271753787994385,0.14842216670513153
18.825,0.1832406371831894,-0.3706808090209961,0.32097047567367554,0.3787993788719177,-0.02546302229166031,0.16912847757339478
18.85,0.0795476883649826,-0.31166744232177734,0.2769591510295868,0.31252458691596985,0.006815407425165176,0.18143856525421143
18.875,-0.07310950011014938,-0.36617088317871094,0.18064625561237335,0.13001786172389984,0.07125765085220337,0.27073830366134644
18.9,-0.20672154426574707,-0.35585880279541016,-0.006634902209043503,0.0033078771084547043,0.17938433587551117,0.30696865916252136
18.925,-0.19130103290081024,-0.29205322265625,0.02764587476849556,-0.036775730550289154,0.2959800362586975,0.3077094256877899
18.95,-0.13349057734012604,-0.24393653869628906,0.09950414299964905,-0.06185327470302582,0.37099960446357727,0.3250289261341095
18.975,-0.21440663933753967,-0.18836402893066406,0.02867904305458069,-0.13125643134117126,0.46700969338417053,0.32692673802375793
19.0,-0.4363512694835663,-0.09372997283935547,-0.03514010086655617,-0.203513965010643,0.6104790568351746,0.3394678235054016
19.025,-0.672094464302063,-0.17907047271728516,-0.011558916419744492,-0.1976613998413086,0.744985818862915,0.43683215975761414
19.05,-0.9202548861503601,-0.41678619384765625,-0.10874764621257782,-0.13186632096767426,0.8775680065155029,0.612754762172699
19.075,-1.3553907871246338,-0.7337322235107422,-0.2126752734184265,-0.10409434139728546,1.0583949089050293,0.9476743340492249
19.1,-2.0976760387420654,-1.0438270568847656,-0.04656774550676346,-0.22346031665802002,1.3911218643188477,1.50099778175354
19.125,-2.8952224254608154,-1.0821866989135742,0.27526402473449707,-0.07702632248401642,1.9353628158569336,2.0504631996154785
19.15,-3.7931787967681885,-0.7615985870361328,0.801629364490509,0.43073391914367676,2.698721408843994,2.626131772994995
19.175,-4.644546031951904,-0.7976751327514648,1.9745235443115234,0.9497412443161011,3.6166727542877197,3.4929261207580566
19.2,-5.1965155601501465,-1.3942089080810547,3.679647445678711,1.4293999671936035,4.651437759399414,4.258133411407471
19.225,-5.621036529541016,-1.8852205276489258,5.492903709411621,1.8277711868286133,5.680812835693359,4.613327980041504
19.25,-4.905460357666016,-3.5360684394836426,7.4418559074401855,1.8608355522155762,6.308571815490723,5.500089168548584
19.275,-1.5346534252166748,-6.350037574768066,8.806567192077637,2.0883331298828125,6.789745330810547,6.735874176025391
19.3,3.1379637718200684,-7.101225852966309,9.155999183654785,2.0512900352478027,7.714605331420898,6.8058271408081055
19.325,6.271410942077637,-5.595518112182617,9.7777738571167,1.0435421466827393,8.628616333007812,6.2489013671875
19.35,9.708670616149902,-4.5848774909973145,10.872899055480957,0.1617695391178131,8.666223526000977,6.391224384307861
19.375,15.815913200378418,-4.167284965515137,9.61690902709961,0.7855947613716125,8.280364036560059,7.230326175689697
19.4,20.677806854248047,-2.474745750427246,3.766075372695923,2.1382627487182617,8.055999755859375,7.340682029724121
19.425,20.838272094726562,-0.6080694198608398,-2.8960390090942383,2.3749489784240723,8.19047737121582,6.459225177764893
19.45,18.767953872680664,0.31331729888916016,-6.468284606933594,1.7935248613357544,7.952498435974121,5.938093662261963
19.475,15.138476371765137,1.674260139465332,-10.385762214660645,2.3988592624664307,7.939542770385742,4.956016540527344
19.5,9.758920669555664,3.7688522338867188,-13.863635063171387,2.8703081607818604,8.022598266601562,3.660247325897217
19.525,4.861960411071777,5.980016708374023,-14.697611808776855,2.725036144256592,7.67910099029541,2.646634578704834
19.55,-0.2092580795288086,7.799361228942871,-14.674287796020508,2.6940767765045166,8.044358253479004,1.3065965175628662
19.575,-6.8222455978393555,9.103692054748535,-12.686711311340332,2.417698860168457,8.80137825012207,-0.1182820051908493
19.6,-10.941346168518066,9.96837329864502,-7.301365852355957,1.7799410820007324,8.159699440002441,-0.9452676773071289
19.625,-12.202542304992676,8.726017951965332,-2.667250156402588,0.2891896963119507,7.019907474517822,-2.9276037216186523
19.65,-18.241106033325195,6.800963401794434,1.9392563104629517,-2.6966145038604736,6.726205348968506,-5.6517720222473145
19.675,-23.56735610961914,11.215580940246582,7.343498229980469,-3.8695385456085205,4.48291540145874,-5.865329742431641
19.7,-20.153581619262695,18.763511657714844,4.675634384155273,-4.259480953216553,-1.1906628608703613,-3.6487460136413574
19.725,-12.224601745605469,21.92920684814453,-6.682865142822266,-5.881494522094727,-6.110275745391846,-1.0470948219299316
19.75,-3.4825479984283447,17.196495056152344,-19.54292869567871,-7.864566802978516,-9.47266960144043,1.0141184329986572
19.775,6.634915351867676,6.296879768371582,-27.39043617248535,-9.261724472045898,-10.935916900634766,2.6151041984558105
19.8,16.253009796142578,-8.530163764953613,-24.32758331298828,-12.870652198791504,-10.603631973266602,5.334425449371338
19.825,21.01837158203125,-17.48739242553711,-7.395992279052734,-17.252609252929688,-8.78916072845459,4.959345817565918
19.85,14.951175689697266,-11.55243968963623,8.433052062988281,-15.172064781188965,-8.0175199508667,1.5483416318893433
19.875,-0.9565677642822266,-9.141942977905273,10.939858436584473,-7.629513740539551,-8.500732421875,3.245511054992676
19.9,-7.328557014465332,-11.323225021362305,11.487308502197266,-3.278963804244995,-2.721418857574463,4.303534984588623
19.925,-4.237447738647461,-8.568436622619629,11.046467781066895,-3.2117249965667725,1.934370994567871,2.397592782974243
19.95,-1.1916918754577637,-5.5928568840026855,5.306967735290527,-2.1327173709869385,3.8385539054870605,1.8248522281646729
19.975,-2.1365244388580322,-2.3265819549560547,1.9894208908081055,-1.8560655117034912,3.601808786392212,1.6890283823013306
20.0,-3.3242735862731934,0.661961555480957,2.377821683883667,-1.8941867351531982,2.1267991065979004,0.8208422660827637
20.025,-2.5438568592071533,2.334650993347168,2.789505958557129,-1.6519848108291626,1.4892653226852417,0.27490687370300293
20.05,-1.8802831172943115,3.174921989440918,1.7472327947616577,-1.5766971111297607,1.6364175081253052,0.24620449542999268
20.075,-2.0742390155792236,3.8797903060913086,1.197627067565918,-1.8584638833999634,1.4405314922332764,0.5277460813522339
20.1,-1.6080604791641235,4.809418678283691,1.6829348802566528,-2.1513428688049316,0.9841664433479309,0.8795679807662964
20.125,-0.14210037887096405,5.489264488220215,1.2808531522750854,-2.7515501976013184,0.934231162071228,0.6871426701545715
20.15,2.724712371826172,5.892439842224121,-1.2599372863769531,-3.937835931777954,1.4377670288085938,0.10549736022949219
20.175,8.466405868530273,5.818707466125488,-6.005916595458984,-5.099023818969727,2.5522031784057617,-0.9092305898666382
20.2,12.693588256835938,1.019576072692871,-13.101151466369629,-5.910243034362793,3.3054890632629395,-3.0132288932800293
20.225,9.29603099822998,-9.421282768249512,-18.292076110839844,-6.629374027252197,3.3871326446533203,-4.026045799255371
20.25,1.5459985733032227,-17.915027618408203,-14.928537368774414,-6.6447882652282715,2.9643664360046387,-3.8980867862701416
20.275,-6.444773197174072,-19.506515502929688,-3.775487184524536,-5.230672836303711,1.6083790063858032,-3.15041446685791
20.3,-10.720755577087402,-11.779083251953125,8.31651496887207,-3.537895917892456,1.7538310289382935,-1.80405592918396
20.325,-9.295022010803223,0.2759981155395508,16.089317321777344,-1.6546251773834229,2.033700942993164,-1.3314210176467896
20.35,-4.760807991027832,6.2511186599731445,18.12422752380371,-0.5548297762870789,1.356510877609253,-1.7161866426467896
20.375,-2.5784454345703125,8.320221900939941,13.77237606048584,-0.4531809389591217,0.6885367631912231,-0.915582537651062
20.4,-3.1805825233459473,8.380301475524902,7.489676475524902,0.174906387925148,-0.2762081027030945,-0.12662026286125183
20.425,-3.108978509902954,5.265218734741211,2.7603282928466797,0.36288169026374817,-1.412518858909607,0.6748397350311279
20.45,0.12500447034835815,0.21996784210205078,1.0342789888381958,-0.41033995151519775,-2.267230749130249,0.788360059261322
20.475,3.4495787620544434,-3.4016833305358887,1.8428003787994385,-0.756915807723999,-2.7476742267608643,0.7657502889633179
20.5,5.0114054679870605,-5.421916961669922,4.215865612030029,-1.557746410369873,-3.1647140979766846,0.07904983311891556
20.525,4.027901649475098,-6.615470886230469,7.361125946044922,-2.1561906337738037,-4.040273666381836,-1.2809364795684814
20.55,0.3430083394050598,-7.374979019165039,10.856109619140625,-2.125648260116577,-5.380424499511719,-2.9046669006347656
20.575,-9.11819076538086,-8.809224128723145,14.016656875610352,-0.41099539399147034,-7.337018966674805,-4.253966808319092
20.6,-20.394533157348633,-7.795012474060059,9.612279891967773,2.0675230026245117,-8.703035354614258,-3.6478097438812256
20.625,-24.703243255615234,-6.3543596267700195,-1.5927060842514038,5.576625823974609,-12.472304344177246,-1.1605132818222046
20.65,-19.029647827148438,-6.6942362785339355,-10.15308666229248,8.412088394165039,-17.536157608032227,-0.5691313743591309
20.675,-12.494762420654297,-4.336323261260986,-11.108170509338379,10.451618194580078,-16.945602416992188,-1.9730050563812256
20.7,-5.824028015136719,-7.243972301483154,-15.524139404296875,13.789762496948242,-10.774029731750488,1.1649011373519897
20.725,9.307756423950195,-5.389901638031006,-30.852519989013672,13.25180435180664,-7.252194881439209,6.003931522369385
20.75,22.519643783569336,6.775643348693848,-28.30141258239746,6.556192398071289,-4.945303916931152,10.12468147277832
20.775,24.67085838317871,10.371197700500488,-8.644920349121094,-1.3399598598480225,-4.108262062072754,10.300914764404297
20.8,23.064239501953125,12.180344581604004,9.31134033203125,-1.2861192226409912,-5.707263946533203,6.510141849517822
20.825,16.664823532104492,14.219023704528809,14.912637710571289,3.9399476051330566,-4.694284915924072,3.2510645389556885
20.85,9.606341361999512,10.815104484558105,9.424989700317383,3.9897401332855225,-2.4182963371276855,2.3195157051086426
20.875,5.347240924835205,5.192045211791992,6.748058795928955,-2.0110836029052734,-0.8819191455841064,2.5413668155670166
20.9,2.900749683380127,2.400935173034668,4.7932634353637695,-3.052368640899658,1.0106165409088135,2.6075987815856934
20.925,1.3972057104110718,2.0380172729492188,-2.426758289337158,0.797343373298645,1.767410159111023,2.0485317707061768
20.95,0.8965792655944824,0.44464683532714844,-5.011343002319336,1.1843498945236206,0.9402133226394653,1.3920245170593262
20.975,-1.603466272354126,-2.266206741333008,-1.4540549516677856,-0.6973721981048584,0.04102569818496704,1.2268404960632324
21.0,-3.264601469039917,-3.760310649871826,-0.12541814148426056,-0.07055526971817017,0.6072250008583069,0.9973693490028381
21.025,0.45693135261535645,-3.0947113037109375,-1.8472404479980469,1.0200773477554321,1.4691779613494873,0.4612680673599243
21.05,4.885397434234619,-3.115736961364746,-1.472686767578125,0.31402793526649475,1.160271406173706,0.04083975404500961
21.075,6.347439765930176,-3.7912354469299316,0.2454296052455902,-0.25605669617652893,0.9970102906227112,0.13392207026481628
21.1,5.0034379959106445,-3.247046947479248,-0.5111063718795776,1.0091742277145386,1.8645118474960327,-0.042007945477962494
21.125,1.4750977754592896,-1.229257583618164,-2.999727249145508,2.3837058544158936,2.790369987487793,-0.4702291786670685
21.15,-4.359399318695068,0.4208250045776367,-1.9120862483978271,1.4075742959976196,2.266958713531494,-0.3169245421886444
21.175,-12.629861831665039,0.8427801132202148,3.7163174152374268,-0.2711583375930786,0.9645801782608032,0.8447292447090149
21.2,-17.8579044342041,0.8839406967163086,7.219944477081299,0.4555838406085968,-0.5772417783737183,2.069525957107544
21.225,-13.922952651977539,1.9042081832885742,3.740021228790283,1.8654208183288574,-2.326385974884033,2.6243698596954346
21.25,-7.182559490203857,1.8623533248901367,-3.1500532627105713,1.1443285942077637,-3.53011155128479,1.40696120262146
21.275,-0.5056982636451721,0.19298553466796875,-6.983909606933594,0.2980494499206543,-5.14228630065918,0.8401371240615845
21.3,5.23253870010376,-0.37455272674560547,-5.359259128570557,-0.8818337917327881,-5.5496506690979,1.4378741979599
21.325,6.258152008056641,0.41655635833740234,-3.4134156703948975,-1.137751817703247,-3.758554458618164,0.7881466150283813
21.35,5.763862133026123,1.9943122863769531,-3.2281885147094727,-0.3674986958503723,-2.3426008224487305,0.5220786333084106
21.375,5.941806793212891,2.1432266235351562,-2.01530122756958,-0.674591064453125,-2.1320652961730957,0.24572840332984924
21.4,4.829121112823486,0.4574155807495117,0.6251684427261353,-1.7541043758392334,-2.06445574760437,-0.21006493270397186
21.425,2.472736120223999,-0.6421136856079102,2.3081586360931396,-1.8366304636001587,-1.803478479385376,-0.22021502256393433
21.45,1.451037883758545,-0.11468219757080078,2.4824893474578857,-1.416311264038086,-0.9131079316139221,-0.0019451603293418884
21.475,1.2168409824371338,0.9263162612915039,1.8380600214004517,-1.4854650497436523,0.14996445178985596,-0.07513080537319183
21.5,0.1946868747472763,1.2923574447631836,0.7270439863204956,-1.7442518472671509,0.324554443359375,-0.168409526348114
21.525,-0.10705411434173584,1.5135431289672852,0.16229280829429626,-2.0428342819213867,0.12429177761077881,-0.0189664363861084
21.55,0.5395475029945374,1.7968778610229492,0.3529403507709503,-2.4047691822052,0.2585153579711914,-0.05473640561103821
21.575,0.787842333316803,1.667729377746582,0.6213406920433044,-2.5345473289489746,0.19427359104156494,-0.04857778549194336
21.6,0.9102914333343506,1.4680414199829102,0.7228261232376099,-2.313966751098633,0.26914048194885254,0.1392672061920166
21.625,0.8824422955513,1.211050033569336,1.036063313484192,-1.9640790224075317,0.6648095846176147,0.07437774538993835
21.65,0.5767337083816528,0.7629175186157227,1.2424532175064087,-1.7453336715698242,1.1351611614227295,-0.09837591648101807
21.675,0.6982033252716064,0.7519769668579102,0.7998896837234497,-1.745019555091858,1.51908540725708,-0.03679691255092621
21.7,0.8827878832817078,1.0495500564575195,0.1682594120502472,-1.865476131439209,1.6401464939117432,0.11581386625766754
21.725,0.6615381836891174,1.5626497268676758,0.5784594416618347,-1.9934319257736206,1.4059357643127441,0.47390177845954895
21.75,0.5762906670570374,2.1468820571899414,1.1393259763717651,-1.8211547136306763,1.6009902954101562,0.5148749947547913
21.775,0.6365700364112854,2.057520866394043,0.8001413941383362,-1.2808146476745605,2.1497044563293457,-0.006432719528675079
21.8,0.5894948244094849,1.4807071685791016,0.2491459846496582,-0.9683547019958496,2.25431227684021,-0.3786107003688812
21.825,0.9593670964241028,1.2206268310546875,0.3731256127357483,-0.9294244647026062,2.094707489013672,-0.39918234944343567
21.85,1.6437586545944214,1.3981924057006836,1.0124019384384155,-1.0002249479293823,1.9654124975204468,-0.4392547607421875
21.875,1.8269003629684448,0.9026117324829102,0.9627208709716797,-0.608110785484314,1.8707962036132812,-0.9734800457954407
21.9,2.283424139022827,0.43146800994873047,0.6053742170333862,-0.3919592499732971,1.589166522026062,-0.9970102906227112
21.925,4.563835620880127,1.1454973220825195,2.318547248840332,-0.8637650012969971,1.1277121305465698,-0.41703900694847107
21.95,7.10894250869751,1.9336671829223633,4.492968559265137,-0.7564885020256042,0.909216046333313,-0.5124980211257935
21.975,6.915818214416504,0.7069530487060547,3.869488477706909,-0.3720737099647522,1.4513394832611084,-1.0126512050628662
22.0,7.247064113616943,0.7099704742431641,2.8994524478912354,-0.7928104996681213,1.9071097373962402,-0.34669822454452515
22.025,8.563045501708984,1.7136507034301758,1.9750871658325195,-0.9544389843940735,2.4786810874938965,0.09510259330272675
22.05,8.682084083557129,1.6935625076293945,-0.20489895343780518,-0.6404330134391785,3.464756488800049,-0.6608362197875977
22.075,8.32337760925293,1.844552993774414,-2.467968463897705,-0.9151700139045715,3.681708812713623,-0.40363290905952454
22.1,7.409728050231934,1.6158227920532227,-5.077466011047363,-0.9309458136558533,3.8880667686462402,-0.1377807855606079
22.125,6.043760299682617,0.47837257385253906,-7.171299457550049,-1.2817744016647339,4.002439022064209,0.12359126657247543
22.15,5.347809314727783,-0.9074306488037109,-8.07802963256836,-1.5727605819702148,3.9822134971618652,1.3879152536392212
22.175,4.9100494384765625,-1.9623632431030273,-8.654683113098145,-1.257854700088501,4.073925495147705,2.6930885314941406
22.2,4.746832847595215,-2.0140633583068848,-9.150611877441406,-0.7565602660179138,4.126966953277588,3.877809762954712
22.225,4.139008522033691,-2.423666477203369,-10.311403274536133,-0.049164384603500366,4.39059591293335,4.373016357421875
22.25,2.930427074432373,-4.109274864196777,-11.372586250305176,0.4438316524028778,4.633364677429199,4.022991180419922
22.275,1.6528078317642212,-4.979527473449707,-12.0756254196167,1.3587355613708496,4.8070268630981445,4.113796710968018
22.3,-1.1980812549591064,-4.3549299240112305,-12.789567947387695,2.6848113536834717,5.119314193725586,4.144741058349609
22.325,-4.822149753570557,-2.210362434387207,-12.509517669677734,3.8782355785369873,5.263450622558594,3.5577046871185303
22.35,-8.091144561767578,0.49411487579345703,-10.957377433776855,3.7293882369995117,5.30319356918335,1.8230633735656738
22.375,-10.657858848571777,1.7819089889526367,-8.770682334899902,2.2541563510894775,5.070228576660156,-0.3625999689102173
22.4,-12.93967056274414,1.2859926223754883,-6.343239784240723,0.1917773336172104,5.071521282196045,-2.0539040565490723
22.425,-15.145977020263672,-0.07514190673828125,-3.2290239334106445,-1.7133442163467407,4.8651018142700195,-3.469325542449951
22.45,-17.579286575317383,-2.262989044189453,1.5461652278900146,-4.280165195465088,4.255501747131348,-5.23527193069458
22.475,-19.22442054748535,-3.7459092140197754,9.237373352050781,-6.457317352294922,3.5171823501586914,-5.466148376464844
22.5,-16.372303009033203,-1.095144271850586,16.289936065673828,-6.116124153137207,1.84096360206604,-4.3819475173950195
22.525,-10.413411140441895,0.9849443435668945,19.076236724853516,-6.839946269989014,0.4427073001861572,-2.823580026626587
22.55,-5.268620014190674,0.005909919738769531,20.16581153869629,-8.982534408569336,0.37284207344055176,-2.390712261199951
22.575,0.352325439453125,-0.19385910034179688,20.507213592529297,-9.529751777648926,-1.3395323753356934,-2.0238330364227295
22.6,5.9730119705200195,1.9728765487670898,18.003530502319336,-9.312562942504883,-4.039730072021484,-0.7870187163352966
22.625,8.489073753356934,5.494414329528809,14.188053131103516,-9.355942726135254,-5.928185939788818,0.44103527069091797
22.65,7.910441875457764,7.846161842346191,9.482019424438477,-8.89449691772461,-6.801754951477051,1.8213696479797363
22.675,6.6082024574279785,7.409703254699707,5.94409704208374,-7.958425521850586,-6.631636619567871,3.3498823642730713
22.7,3.8622934818267822,6.300875663757324,4.6425371170043945,-6.6992950439453125,-6.273857116699219,3.643764019012451
22.725,-0.9072011709213257,4.376245498657227,1.271297574043274,-4.6985907554626465,-5.8228020668029785,2.9862561225891113
22.75,-3.7675178050994873,0.5481786727905273,-4.818842887878418,-2.748692512512207,-5.608256816864014,2.267624616622925
22.775,-3.8107118606567383,-3.453615188598633,-10.352638244628906,-1.3052589893341064,-5.568854808807373,1.9089171886444092
22.8,-2.1706583499908447,-5.608242988586426,-12.81726360321045,-1.584035873413086,-4.428921699523926,1.9779061079025269
22.825,2.2646052837371826,-5.559808731079102,-10.951580047607422,-3.3453896045684814,-1.0774177312850952,2.2924840450286865
22.85,6.643113136291504,-2.916919708251953,-7.37917423248291,-4.237870693206787,1.4467356204986572,1.7637463808059692
22.875,8.14067268371582,-0.9833030700683594,-5.142771244049072,-2.1276917457580566,0.7335525751113892,0.14915351569652557
22.9,7.818303108215332,-0.047835350036621094,-3.421173095703125,-0.5655295848846436,0.8520752191543579,-1.018108606338501
22.925,2.8484747409820557,-0.6317806243896484,0.16608425974845886,-0.11956821382045746,1.2472753524780273,-2.4409382343292236
22.95,-5.001769542694092,-1.9367542266845703,2.858182907104492,0.8802587389945984,-0.019408702850341797,-3.366676092147827
22.975,-4.975189685821533,-0.7092361450195312,3.5328550338745117,0.23807977139949799,0.5337483882904053,-0.7786344289779663
23.0,1.8994475603103638,2.6146745681762695,3.7495555877685547,-0.4169005751609802,2.692925453186035,1.9866172075271606
23.025,6.8623366355896,5.626181602478027,5.238731384277344,-0.5311564207077026,1.820016622543335,2.1175289154052734
23.05,6.7030229568481445,4.791029930114746,4.281863689422607,0.7187249064445496,-0.9145305156707764,0.6903457045555115
23.075,5.177816390991211,2.6257009506225586,1.9890871047973633,1.8913986682891846,-2.243596076965332,0.3029780387878418
23.1,2.5119943618774414,1.2040681838989258,0.2738554775714874,2.0515425205230713,-1.8387975692749023,0.231195867061615
23.125,-0.18441826105117798,0.6124563217163086,-1.2255158424377441,2.0439724922180176,-1.6686813831329346,0.11925873160362244
23.15,-0.3220602571964264,0.6886301040649414,-1.1690452098846436,1.3524588346481323,-2.3519842624664307,0.8498994708061218
23.175,0.10970227420330048,0.49247264862060547,-0.20213963091373444,0.7341575026512146,-2.4170570373535156,0.9902891516685486
23.2,-1.105452060699463,-0.18780136108398438,-0.14095498621463776,0.5691092014312744,-1.715727686882019,0.6828305125236511
23.225,-2.2372512817382812,-0.4890785217285156,-0.6439929604530334,0.8223300576210022,-2.064695358276367,1.0641758441925049
23.25,-2.276352882385254,-0.7743968963623047,-2.3676984310150146,1.088868498802185,-2.1880099773406982,1.2196515798568726
23.275,-1.7773735523223877,-1.0710859298706055,-3.966362476348877,0.4238763749599457,-1.4812581539154053,1.3209514617919922
23.3,-1.2881929874420166,-1.6196613311767578,-3.9347195625305176,-0.5532035827636719,-0.9961071610450745,1.464819073677063
23.325,-0.6927350163459778,-2.325615406036377,-2.9722602367401123,-0.9327042102813721,-0.807593822479248,1.300704002380371
23.35,-0.2641119956970215,-2.1201558113098145,-1.6713603734970093,-1.1151783466339111,-0.5801570415496826,1.2476258277893066
23.375,-0.24059846997261047,-1.366429328918457,-0.9985690712928772,-0.6667052507400513,-0.4330562651157379,1.0866467952728271
23.4,0.5976333022117615,-1.1916732788085938,-1.2036083936691284,-0.07952341437339783,-0.2356126308441162,0.6391651630401611
23.425,0.9011707305908203,-0.9717178344726562,-0.6961028575897217,-0.3408835232257843,0.0886615663766861,0.617521345615387
23.45,-0.8240064978599548,-1.0564794540405273,-1.0463758707046509,-0.004062080755829811,-0.005844295024871826,0.422477662563324
23.475,-1.1517727375030518,-0.9987401962280273,-1.7326257228851318,-0.08501963317394257,0.26964569091796875,0.2292592078447342
23.5,0.9854904413223267,-0.26039791107177734,-0.9525853395462036,-0.7366620898246765,0.4616727828979492,0.5778024792671204
23.525,2.1534430980682373,0.07501506805419922,-1.2956255674362183,-0.36688852310180664,0.17721450328826904,0.3543224036693573
23.55,1.298280119895935,-0.1020517349243164,-1.9226855039596558,-0.042162492871284485,-0.003041079267859459,-0.08598653972148895
23.575,0.47593194246292114,-0.1974020004272461,-0.9544562697410583,-0.5016528367996216,0.14522872865200043,0.034804489463567734
23.6,0.18718957901000977,-0.15817737579345703,-0.385831743478775,-0.42705151438713074,0.09785089641809464,-0.09670371562242508
23.625,0.7717820405960083,0.2783021926879883,-1.1224240064620972,-0.3347012400627136,0.24367019534111023,-0.35517269372940063
23.65,0.889458954334259,0.4670534133911133,-2.1647908687591553,-0.24068336188793182,0.3954083323478699,-0.672612190246582
23.675,0.42254403233528137,0.42113399505615234,-2.616319179534912,-0.2388952374458313,0.574603259563446,-0.8330711126327515
23.7,0.02763478457927704,0.6487417221069336,-1.7360553741455078,-0.30311235785484314,0.6013789176940918,-0.8336710333824158
23.725,0.08327551186084747,0.4725675582885742,-0.9577058553695679,-0.26865658164024353,0.567055344581604,-0.7869313359260559
23.75,0.16602587699890137,-0.23888397216796875,-0.8875607848167419,-0.015215359628200531,0.564555287361145,-0.8866572976112366
23.775,0.6400241255760193,-0.34247684478759766,-0.2101334035396576,0.018890146166086197,0.7300851345062256,-0.8557332158088684
23.8,1.4950543642044067,-0.020668983459472656,0.6945725679397583,0.23034954071044922,0.7875528931617737,-0.8241549730300903
23.825,1.7185646295547485,-0.18142318725585938,0.564752995967865,0.6458708643913269,0.666786253452301,-1.0798873901367188
23.85,1.215936303138733,-0.3351259231567383,-1.213525414466858,1.0068068504333496,0.8426333069801331,-1.4014190435409546
23.875,0.48209816217422485,0.26016712188720703,-3.7245633602142334,0.7237935066223145,1.7520849704742432,-1.336910605430603
23.9,-0.45806369185447693,1.386927604675293,-5.869856357574463,-0.10336227715015411,2.918497323989868,-0.8167593479156494
23.925,-1.3247160911560059,2.1624069213867188,-6.652557373046875,-1.2699453830718994,4.0684967041015625,0.244858980178833
23.95,-2.621487855911255,2.0979719161987305,-5.970932483673096,-1.9721388816833496,5.237358093261719,0.7501763105392456
23.975,-4.492304801940918,1.3772029876708984,-3.655517816543579,-2.24725604057312,6.317284107208252,0.7329517602920532
