Time [s],Acc_x [m/s^2],Acc_y [m/s^2],Acc_z [m/s^2],Gyro_x [1/s],Gyro_y [1/s],Gyro_z [1/s]
0.0,0.009757733903825283,0.2642946243286133,0.009234944358468056,-0.005625841207802296,-0.00820649228990078,0.004342096392065287
0.025,0.0005788605776615441,0.23600482940673828,0.002858797088265419,-0.009043711237609386,-0.005298558156937361,0.004355535842478275
0.05,0.011139930225908756,0.17620277404785156,-0.037142373621463776,-0.0096902372315526,-0.002115420065820217,0.0042504193261265755
0.075,-0.01565047726035118,0.16344738006591797,-0.05800159275531769,-0.004945901222527027,-0.0076155997812747955,0.009415436536073685
0.1,-0.031227264553308487,0.21426868438720703,-0.07326439768075943,-0.001010847627185285,-0.010950935073196888,0.012643486261367798
0.125,-0.03012710250914097,0.2572183609008789,-0.08819152414798737,-0.006553430110216141,-0.0021494566462934017,0.007369581609964371
0.15,-0.03653789311647415,0.2603492736816406,-0.0564105398952961,-0.01631486602127552,0.0016775364056229591,0.006283684633672237
0.175,-0.023219389840960503,0.21171283721923828,-0.007883911021053791,-0.018954459577798843,-0.0036489255726337433,0.0110931983217597
0.2,-0.0012070114025846124,0.15719890594482422,-0.0012555485591292381,-0.013432268984615803,0.0041286395862698555,0.007434713654220104
0.225,0.0011349024716764688,0.18304157257080078,0.00846843607723713,-0.000425888312747702,0.01226865965873003,0.008563329465687275
0.25,-0.03348807990550995,0.19550228118896484,-0.003963529132306576,0.004013224970549345,-0.005122773814946413,0.019480926916003227
0.275,-0.059422094374895096,0.20549297332763672,-0.02674146741628647,0.011033251881599426,-0.001751413568854332,0.021936172619462013
0.3,-0.07681339234113693,0.2258625030517578,-0.023101110011339188,0.01056857779622078,0.02612612396478653,-0.00020333542488515377
0.325,-0.06759186834096909,0.18323040008544922,-0.024361547082662582,0.02352004684507847,0.02693391963839531,-0.00827614776790142
0.35,-0.033552490174770355,0.11829471588134766,-0.02234162949025631,0.023750225082039833,-0.0016993246972560883,0.011633740738034248
0.375,-0.01610267162322998,0.052100181579589844,-0.0013978932984173298,0.02181968279182911,-0.011010460555553436,0.02495891973376274
0.4,-0.03762824460864067,-0.05130290985107422,-0.0535774901509285,0.030806947499513626,-0.001168699935078621,0.022280719131231308
0.425,-0.048449281603097916,-0.13102436065673828,-0.18743157386779785,0.040490224957466125,-0.013606694526970387,0.03657727316021919
0.45,-0.052701741456985474,-0.16825580596923828,-0.31585901975631714,0.053023811429739,-0.012586248107254505,0.038735613226890564
0.475,-0.11202143877744675,-0.15173053741455078,-0.3317369222640991,0.07572796195745468,-0.010274884290993214,0.03282523527741432
0.5,-0.12096533179283142,0.034796714782714844,-0.24498578906059265,0.16659240424633026,-0.03413159027695656,0.06031515821814537
0.525,-0.071788489818573,0.31662464141845703,-0.14066442847251892,0.2084682732820511,-0.04509614408016205,0.0723690316081047
0.55,-0.07499153167009354,0.39559459686279297,-0.11631855368614197,0.1216026097536087,-0.05258113518357277,0.08153071999549866
0.575,-0.11960018426179886,0.24586772918701172,-0.006410297937691212,0.08610841631889343,-0.054857753217220306,0.07671225816011429
0.6,-0.18484161794185638,-0.046538352966308594,0.28294533491134644,0.12096283584833145,-0.05344300717115402,0.08007273823022842
0.625,-0.26861491799354553,-0.2723703384399414,0.5868532657623291,0.24123044312000275,-0.05292055010795593,0.08995333313941956
0.65,-0.34670644998550415,-0.27431774139404297,0.814309298992157,0.4386146664619446,-0.07606109976768494,0.06753771007061005
0.675,-0.3957194983959198,-0.10820293426513672,0.8656281232833862,0.6351152658462524,-0.15098679065704346,0.052587710320949554
0.7,-0.3962784707546234,0.0753774642944336,0.604442834854126,0.7070587277412415,-0.22112320363521576,0.032771866768598557
0.725,-0.32727259397506714,0.2457132339477539,0.22661441564559937,0.6437305212020874,-0.2773943543434143,0.02972734346985817
0.75,-0.23312197625637054,0.3778095245361328,-0.06694574654102325,0.5907785892486572,-0.30948060750961304,0.034122616052627563
0.775,-0.1471213847398758,0.31780052185058594,-0.18069465458393097,0.5504528880119324,-0.30963295698165894,0.015027431771159172
0.8,-0.08676742017269135,0.1588907241821289,-0.22184690833091736,0.5328302979469299,-0.32187584042549133,0.010386111214756966
0.825,-0.02139587141573429,0.1118917465209961,-0.2866908609867096,0.5316627621650696,-0.33223822712898254,-0.005724113434553146
0.85,0.10879069566726685,0.12842369079589844,-0.4667915105819702,0.4848749339580536,-0.3338187634944916,-0.03532445803284645
0.875,0.40609264373779297,0.22327327728271484,-0.6396278142929077,0.4114904999732971,-0.36847108602523804,-0.0479106679558754
0.9,0.9180766344070435,0.4337472915649414,-0.6239487528800964,0.38555261492729187,-0.41207900643348694,-0.05596742779016495
0.925,1.5147508382797241,0.5543222427368164,-0.5322778820991516,0.34441885352134705,-0.46521246433258057,-0.04329874366521835
0.95,1.9886537790298462,0.35456371307373047,-0.44135594367980957,0.20497237145900726,-0.527235746383667,-0.0037507452070713043
0.975,2.2025234699249268,-0.11441326141357422,-0.3701300621032715,0.1470678150653839,-0.5319864153862,0.026940254494547844
1.0,2.1211845874786377,-0.6175861358642578,-0.2510957419872284,0.19809024035930634,-0.5358026027679443,0.04846861958503723
1.025,1.6090322732925415,-0.964813232421875,0.004214122891426086,0.3518999516963959,-0.6458237767219543,0.1370573788881302
1.05,0.70367431640625,-1.1457977294921875,0.2010054886341095,0.3499462902545929,-0.7432496547698975,0.11525895446538925
1.075,-0.2885652780532837,-0.8684148788452148,0.25836241245269775,0.5439152717590332,-0.8034002184867859,0.033338144421577454
1.1,-1.0379971265792847,-0.03350639343261719,0.1158648431301117,0.7505319714546204,-0.91945481300354,-0.07247340679168701
1.125,-1.48911452293396,1.1347265243530273,-0.3001829981803894,0.8295679688453674,-1.0960826873779297,-0.19078344106674194
1.15,-1.5473865270614624,1.9889068603515625,-0.8280295729637146,0.7690574526786804,-1.2728971242904663,-0.23402675986289978
1.175,-1.2061800956726074,1.9065017700195312,-0.9497491121292114,0.6294228434562683,-1.3911486864089966,-0.18713688850402832
1.2,-0.6268412470817566,1.283259391784668,-0.5806780457496643,0.5385896563529968,-1.4992470741271973,-0.07139167934656143
1.225,-0.266007661819458,0.7116823196411133,-0.1465206742286682,0.3634210228919983,-1.4849897623062134,0.012365143746137619
1.25,-0.3660457134246826,0.4133634567260742,-0.0735943391919136,0.2170739769935608,-1.4057831764221191,0.10812958329916
1.275,-0.7679024934768677,0.29996299743652344,-0.4386167526245117,0.23848488926887512,-1.3064143657684326,0.15541419386863708
1.3,-1.1066884994506836,0.13031673431396484,-0.9719371199607849,0.25936371088027954,-1.1894524097442627,0.025146042928099632
1.325,-1.315539002418518,0.1954669952392578,-1.191663146018982,0.3291894495487213,-1.1217504739761353,-0.09774796664714813
1.35,-1.369198203086853,0.43289947509765625,-1.14894437789917,0.34706494212150574,-1.1522308588027954,-0.11978351324796677
1.375,-1.0725960731506348,0.5548791885375977,-0.9981015920639038,0.2568482458591461,-1.2539904117584229,-0.10471883416175842
1.4,-0.5679552555084229,0.3809194564819336,-0.8097603917121887,0.11054825037717819,-1.3581169843673706,-0.11417052894830704
1.425,-0.28253018856048584,0.11266517639160156,-0.7181635499000549,-0.01813509128987789,-1.393052339553833,-0.08675391972064972
1.45,-0.28134578466415405,-0.06032085418701172,-0.8510854244232178,-0.09931457787752151,-1.3222523927688599,-0.03150056675076485
1.475,-0.4039101302623749,-0.13854026794433594,-1.126279592514038,-0.10556716471910477,-1.2100929021835327,-0.004760648123919964
1.5,-0.5863691568374634,-0.07811450958251953,-1.33504319190979,-0.0750744491815567,-1.1613171100616455,0.0037658256478607655
1.525,-0.7654843330383301,0.13540267944335938,-1.3974595069885254,-0.04377247765660286,-1.1715795993804932,0.007681075483560562
1.55,-0.7794183492660522,0.24853992462158203,-1.4329029321670532,-0.08804142475128174,-1.2551394701004028,-0.015887107700109482
1.575,-0.5925721526145935,0.21551036834716797,-1.3901772499084473,-0.12130402028560638,-1.303957223892212,-0.03671672195196152
1.6,-0.4074193239212036,0.1735525131225586,-1.221638798713684,-0.10724686086177826,-1.3110960721969604,-0.02261596918106079
1.625,-0.3650815486907959,0.12131404876708984,-1.1188616752624512,-0.08954071998596191,-1.3184360265731812,0.013124041259288788
1.65,-0.3663373589515686,0.06256580352783203,-1.2590980529785156,-0.0745081976056099,-1.3507744073867798,0.05113985762000084
1.675,-0.3509007394313812,-0.017637252807617188,-1.5616782903671265,-0.07100394368171692,-1.3763656616210938,0.0038122558034956455
1.7,-0.31945276260375977,-0.07958698272705078,-1.8543918132781982,0.004471321124583483,-1.3699711561203003,-0.009232016280293465
1.725,-0.2834612727165222,-0.14742374420166016,-2.00338077545166,0.08483497053384781,-1.379372000694275,0.01466396078467369
1.75,-0.15536746382713318,-0.29652881622314453,-2.0325722694396973,0.10294612497091293,-1.4009487628936768,0.005795617587864399
1.775,-0.0295855849981308,-0.39350318908691406,-1.8433847427368164,0.11320661753416061,-1.422981858253479,0.05296893045306206
1.8,0.013200677931308746,-0.38214683532714844,-1.3824549913406372,0.09885145723819733,-1.448045253753662,0.13701759278774261
1.825,0.07036422938108444,-0.21697616577148438,-0.7985454797744751,0.04675108939409256,-1.4716212749481201,0.18654164671897888
1.85,0.12493998557329178,0.08695697784423828,-0.07767999917268753,0.0027481280267238617,-1.5199146270751953,0.2364611029624939
1.875,0.3888513743877411,0.4990863800048828,0.8014446496963501,-0.05921215936541557,-1.5501142740249634,0.21909977495670319
1.9,0.7763712406158447,1.2649202346801758,1.8310375213623047,-0.15181280672550201,-1.6424702405929565,0.24866880476474762
1.925,0.977157473564148,1.8587579727172852,2.8608436584472656,-0.23068399727344513,-1.6592717170715332,0.12341780960559845
1.95,0.988654375076294,1.3226232528686523,3.538255453109741,-0.24277417361736298,-1.616665244102478,-0.10646893084049225
1.975,0.770450234413147,0.5532369613647461,3.6916399002075195,-0.16961978375911713,-1.5585123300552368,-0.10203786194324493
2.0,0.43814894556999207,0.14475154876708984,3.3928887844085693,-0.14333729445934296,-1.3875820636749268,-0.03612972050905228
2.025,0.2518671751022339,0.23509883880615234,2.9421982765197754,-0.06262832880020142,-1.1374151706695557,0.085403211414814
2.05,0.18751122057437897,0.5133962631225586,2.5165767669677734,-0.01750825345516205,-0.9267882108688354,0.2813870310783386
2.075,0.10740095376968384,0.4873828887939453,2.130474328994751,-0.07483422756195068,-0.7723955512046814,0.32082509994506836
2.1,-0.0032378584146499634,0.2733011245727539,1.8346515893936157,-0.14755940437316895,-0.6568714380264282,0.3068583011627197
2.125,-0.11975014954805374,-0.08573150634765625,1.6589362621307373,-0.23666882514953613,-0.5782684087753296,0.18563707172870636
2.15,-0.14380131661891937,-0.45265960693359375,1.6287890672683716,-0.30543389916419983,-0.4959845542907715,0.10625438392162323
2.175,-0.08490965515375137,-0.6602916717529297,1.6980046033859253,-0.308452844619751,-0.4249562621116638,0.0803709477186203
2.2,-0.14665213227272034,-0.6176996231079102,1.709718108177185,-0.26790106296539307,-0.3954513669013977,0.1749933660030365
2.225,-0.24816307425498962,-0.5032033920288086,1.6199123859405518,-0.19669443368911743,-0.37659040093421936,0.2660924196243286
2.25,-0.2944291830062866,-0.39166831970214844,1.4077565670013428,-0.1129949688911438,-0.36540356278419495,0.25303155183792114
2.275,-0.2896399199962616,-0.19530963897705078,1.090498685836792,-0.007644610479474068,-0.3257874846458435,0.2562192678451538
2.3,-0.35517916083335876,0.01963329315185547,0.809499204158783,0.09724975377321243,-0.2998887896537781,0.2584867477416992
2.325,-0.4119313061237335,0.15496253967285156,0.634993314743042,0.17277736961841583,-0.31265753507614136,0.21670866012573242
2.35,-0.3912666440010071,0.2298879623413086,0.5497276782989502,0.2535785138607025,-0.3207653760910034,0.10158402472734451
2.375,-0.3961969017982483,0.31050777435302734,0.5684471726417542,0.32998713850975037,-0.3398539423942566,0.047884002327919006
2.4,-0.4891080856323242,0.3843355178833008,0.6344175338745117,0.384986937046051,-0.3917008638381958,-0.006522407755255699
2.425,-0.6235525012016296,0.4510679244995117,0.6742222309112549,0.41546669602394104,-0.4074519872665405,-0.011891808360815048
2.45,-0.7690732479095459,0.5025320053100586,0.6630514860153198,0.4585765600204468,-0.36863112449645996,-0.007223200052976608
2.475,-0.8667560815811157,0.4137716293334961,0.5958973169326782,0.5173697471618652,-0.3630548119544983,-0.12387768924236298
2.5,-0.9194687008857727,0.3535270690917969,0.4905147850513458,0.5454912781715393,-0.3873259425163269,-0.19104693830013275
2.525,-0.8632397651672363,0.6134176254272461,0.4196126461029053,0.5505925416946411,-0.3572080135345459,-0.12165503203868866
2.55,-0.4195767939090729,1.0634946823120117,0.41098958253860474,0.5607441663742065,-0.3143852651119232,0.008454587310552597
2.575,0.190608412027359,1.2700824737548828,0.17580865323543549,0.5474534034729004,-0.3186739385128021,-0.05639041215181351
2.6,0.6423171758651733,1.004380226135254,-0.30985209345817566,0.4666493833065033,-0.3038647770881653,-0.06410832703113556
2.625,1.0190881490707397,0.48517513275146484,-0.6483803391456604,0.40334558486938477,-0.215949147939682,-0.00518803671002388
2.65,1.2699942588806152,0.08730697631835938,-0.6548368334770203,0.3371838927268982,-0.16859924793243408,-0.010362593457102776
2.675,1.1328754425048828,-0.015359878540039062,-0.4122493863105774,0.23419778048992157,-0.18620385229587555,0.008124059997498989
2.7,0.8114796280860901,0.06751155853271484,-0.08141452074050903,0.09945724904537201,-0.1796463131904602,0.06115196272730827
2.725,0.6402187347412109,0.09480094909667969,0.17312879860401154,0.005825871601700783,-0.1781022548675537,0.12169047445058823
2.75,0.5181122422218323,0.053648948669433594,0.22009733319282532,-0.025035222992300987,-0.15846358239650726,0.13480649888515472
2.775,0.3195691704750061,0.032268524169921875,0.080613873898983,-0.014080315828323364,-0.04292212799191475,0.17511369287967682
2.8,0.14405500888824463,-0.15799999237060547,-0.03528242185711861,0.005721563473343849,0.11519169807434082,0.21656155586242676
2.825,0.14144884049892426,-0.6951808929443359,-0.126662477850914,0.031660500913858414,0.23621408641338348,0.12299564480781555
2.85,0.31297141313552856,-1.3131380081176758,-0.25014278292655945,0.03780942037701607,0.3942636251449585,0.05341678112745285
2.875,0.4089774787425995,-1.629624366760254,-0.3878013789653778,0.005976004526019096,0.563362181186676,0.11341715604066849
2.9,0.3807734251022339,-1.607447624206543,-0.48433855175971985,-0.01032556314021349,0.7193264365196228,0.24011249840259552
2.925,0.24341453611850739,-1.298081398010254,-0.49750250577926636,-0.035537540912628174,0.862802267074585,0.4163420796394348
2.95,0.032492976635694504,-0.9121074676513672,-0.4424612820148468,-0.09881193935871124,1.0008424520492554,0.46751096844673157
2.975,-0.11635634303092957,-0.7500123977661133,-0.3890722692012787,-0.21861618757247925,1.1179444789886475,0.4237649738788605
3.0,-0.0478634387254715,-0.9418621063232422,-0.459450364112854,-0.3817524313926697,1.2072639465332031,0.382415771484375
3.025,0.20701834559440613,-1.3427419662475586,-0.5736650228500366,-0.5093844532966614,1.3224023580551147,0.4139440059661865
3.05,0.3606579899787903,-1.7152519226074219,-0.3718441426753998,-0.5881525278091431,1.422073245048523,0.550370454788208
3.075,0.20518769323825836,-1.8326082229614258,0.16734610497951508,-0.7051454186439514,1.4348382949829102,0.7068937420845032
3.1,-0.1577642410993576,-1.7084932327270508,0.8612813949584961,-0.8079578280448914,1.4105981588363647,0.9170168042182922
3.125,0.023888833820819855,-1.1119623184204102,1.5153580904006958,-0.8444306254386902,1.25320303440094,1.08657705783844
3.15,0.7202444076538086,-0.5046586990356445,1.9474507570266724,-0.8299034833908081,1.1367803812026978,1.215964913368225
3.175,1.0915583372116089,-0.34379100799560547,1.9736237525939941,-0.7607438564300537,1.0754444599151611,1.321560025215149
3.2,0.781891405582428,-0.6465063095092773,1.508052110671997,-0.5685486197471619,1.083287000656128,1.5331166982650757
3.225,0.22499021887779236,-1.3165225982666016,0.7467756867408752,-0.3048120439052582,1.142196536064148,1.6276190280914307
3.25,0.05833127349615097,-2.0589599609375,0.017146216705441475,-0.05645829439163208,1.1503937244415283,1.6057558059692383
3.275,0.47121721506118774,-2.495197296142578,-0.2555854022502899,0.13742896914482117,1.1530390977859497,1.4490898847579956
3.3,0.8115488290786743,-2.5694684982299805,0.04401025176048279,0.2937770187854767,0.9957786798477173,1.3685592412948608
3.325,0.8177768588066101,-2.4564452171325684,0.3532572090625763,0.4513213038444519,0.7668108940124512,1.6481404304504395
3.35,1.0638691186904907,-2.5173263549804688,0.5187201499938965,0.5412580966949463,0.5860245227813721,1.898592233657837
3.375,1.33770751953125,-2.4088940620422363,0.7406063675880432,0.5134238600730896,0.3778716027736664,1.9075772762298584
3.4,1.4174833297729492,-2.096743583679199,1.063166618347168,0.5941897630691528,0.23693124949932098,1.942791223526001
3.425,2.0921106338500977,-1.4866514205932617,1.3657629489898682,0.6406214833259583,0.2909625172615051,2.010455369949341
3.45,2.498800277709961,-0.1488513946533203,0.9348214864730835,0.670096755027771,0.34717538952827454,2.2409250736236572
3.475,1.8012182712554932,0.8665065765380859,-0.02313941717147827,0.6957240104675293,0.5496845841407776,2.5044288635253906
3.5,0.4415537714958191,1.1184682846069336,-0.7518339157104492,0.7182011008262634,0.7864176630973816,2.5983779430389404
3.525,-0.7937739491462708,1.464914321899414,-1.1773887872695923,0.7455488443374634,0.9913766384124756,2.712488889694214
3.55,-1.9272611141204834,1.8635072708129883,-1.265298843383789,0.8207696080207825,0.9210624694824219,2.6963295936584473
3.575,-2.37385892868042,1.819737434387207,-1.1154881715774536,0.6496623158454895,0.541465163230896,2.079104423522949
3.6,-1.802289605140686,2.0073938369750977,-0.8181365132331848,0.45528075098991394,0.21182659268379211,1.6673338413238525
3.625,-0.859359085559845,2.4734420776367188,-0.4376335144042969,0.28366005420684814,0.057270705699920654,1.4607226848602295
3.65,0.08915725350379944,2.2994604110717773,0.057535797357559204,0.07056918740272522,0.0564148873090744,1.0575838088989258
3.675,0.5725542306900024,1.7001523971557617,0.6500084400177002,0.05961126834154129,0.25999170541763306,1.0713576078414917
3.7,0.11926716566085815,1.807328224182129,0.7033127546310425,0.06150764226913452,0.5994148850440979,1.5970227718353271
3.725,-0.7874494194984436,2.322482109069824,0.2009153962135315,0.10685090720653534,0.810768187046051,1.8740068674087524
3.75,-1.23757803440094,1.9703044891357422,-0.4715408980846405,0.1048988476395607,0.7020717263221741,1.330803394317627
3.775,-1.3097928762435913,1.310647964477539,-0.7722489833831787,0.04320985823869705,0.632712185382843,1.0331019163131714
3.8,-1.1390366554260254,1.5332412719726562,-0.9517131447792053,-0.13701748847961426,0.6491230726242065,1.0579471588134766
3.825,-1.1465469598770142,1.502943992614746,-1.1472688913345337,-0.15204697847366333,0.5523279905319214,0.8998079299926758
3.85,-1.0917631387710571,1.178950309753418,-0.740207314491272,0.05094362795352936,0.4186771512031555,0.7286465764045715
3.875,-0.8499809503555298,1.2246379852294922,-0.5275619029998779,0.14029093086719513,0.29486948251724243,0.6388705968856812
3.9,-0.7153544425964355,1.3254680633544922,-0.5262215733528137,0.22543004155158997,0.16525429487228394,0.593720018863678
3.925,-0.7386001348495483,1.1923036575317383,-0.6145343780517578,0.23872633278369904,0.09091348946094513,0.49347957968711853
3.95,-0.8265185952186584,0.9280862808227539,-0.6727633476257324,0.2423417568206787,0.15133152902126312,0.40227022767066956
3.975,-0.8986241221427917,0.7456245422363281,-0.6131882667541504,0.3321693241596222,0.2622911036014557,0.34391409158706665
4.0,-0.7624706625938416,0.6460056304931641,-0.4487311542034149,0.36464402079582214,0.289272278547287,0.24641117453575134
4.025,-0.43143683671951294,0.5109281539916992,-0.24931645393371582,0.3217219114303589,0.19074200093746185,0.12310531735420227
4.05,-0.15850691497325897,0.30769824981689453,-0.09370729327201843,0.29731690883636475,0.05516767501831055,0.06598930805921555
4.075,-0.10518372803926468,0.14472675323486328,0.0015534395352005959,0.24549806118011475,0.009553289040923119,0.12790900468826294
4.1,-0.11624608933925629,0.29162120819091797,-0.09443152695894241,0.22492045164108276,0.08058346807956696,0.22727206349372864
4.125,-0.12767423689365387,0.48639392852783203,-0.2789376676082611,0.20003794133663177,0.20698240399360657,0.319892942905426
4.15,-0.19960306584835052,0.26257896423339844,-0.2788677513599396,0.012489218264818192,0.21124419569969177,0.0929114818572998
4.175,-0.19943800568580627,0.059546470642089844,-0.16040024161338806,0.08384236693382263,0.17437811195850372,0.10094518214464188
4.2,-0.21591471135616302,0.18254947662353516,-0.035844914615154266,0.11143238842487335,0.11842155456542969,0.18717741966247559
4.225,-0.2581312656402588,0.19513797760009766,0.00468740239739418,0.09692858904600143,0.08747292309999466,0.1851562112569809
4.25,-0.15116949379444122,0.08011817932128906,0.06753489375114441,0.049320586025714874,0.11387411504983902,0.11636018753051758
4.275,-0.04681400954723358,0.035370826721191406,0.16073498129844666,0.04168982803821564,0.17027510702610016,0.12299123406410217
4.3,-0.11228292435407639,0.07686424255371094,-0.16682736575603485,-0.0008829459547996521,0.22644060850143433,0.11348754167556763
4.325,-0.1679815798997879,0.1289501190185547,-0.3881291151046753,0.009025387465953827,0.23139719665050507,0.07451056689023972
4.35,-0.1115664541721344,0.1423931121826172,-0.3935137093067169,0.02192629687488079,0.14138080179691315,0.0021796580404043198
4.375,0.028207477182149887,0.06255722045898438,-0.2741550803184509,0.06740683317184448,-0.007443513721227646,-0.09778052568435669
4.4,0.03788844496011734,-0.10601139068603516,-0.09169326722621918,0.12470483779907227,-0.12701289355754852,-0.08967077732086182
4.425,-0.011436830274760723,-0.1407947540283203,0.08157230168581009,0.09463944286108017,-0.16568125784397125,-0.044829949736595154
4.45,-0.023188278079032898,-0.10346698760986328,0.19439326226711273,0.09065002202987671,-0.1559503972530365,0.0007793367840349674
4.475,0.031174538657069206,-0.11660003662109375,0.15497493743896484,0.046275705099105835,-0.1475372314453125,-0.019305776804685593
4.5,0.05598879233002663,-0.21570873260498047,0.0346166156232357,0.01613004319369793,-0.11549696326255798,0.009595626965165138
4.525,0.08926540613174438,-0.29807472229003906,-0.09361279755830765,-0.03607119992375374,-0.10898957401514053,0.036021385341882706
4.55,0.16698084771633148,-0.38845348358154297,-0.13759630918502808,-0.05854673683643341,-0.1327771544456482,-0.0036804843693971634
4.575,0.1711752712726593,-0.3583040237426758,-0.09419075399637222,-0.06056954339146614,-0.1496298909187317,0.045274410396814346
4.6,0.07039254903793335,-0.33592891693115234,-0.07482269406318665,-0.08918911963701248,-0.15923471748828888,0.12230484932661057
4.625,-0.031435899436473846,-0.3898334503173828,-0.06155302748084068,-0.08378886431455612,-0.1493653655052185,0.15662653744220734
4.65,-0.041884198784828186,-0.3952302932739258,-0.14812201261520386,-0.1350407600402832,-0.13126829266548157,0.13113535940647125
4.675,-0.09853705763816833,-0.34404563903808594,-0.23729047179222107,-0.15653802454471588,-0.10746597498655319,0.14411120116710663
4.7,-0.2304401397705078,-0.25702762603759766,-0.24246926605701447,-0.10796285420656204,-0.10397247225046158,0.18129676580429077
4.725,-0.2478722631931305,-0.08856582641601562,-0.21142607927322388,-0.09982983022928238,-0.10849952697753906,0.1372656524181366
4.75,-0.18248680233955383,0.10885906219482422,-0.17278574407100677,-0.05144767463207245,-0.13116802275180817,0.10274249315261841
4.775,-0.10311610251665115,0.2293834686279297,-0.11738937348127365,0.030105408281087875,-0.15086479485034943,0.10364608466625214
4.8,-0.16764137148857117,0.21668148040771484,-0.06282685697078705,0.08488645404577255,-0.12405294179916382,0.14989149570465088
4.825,-0.21386703848838806,0.22992610931396484,-0.0679902508854866,0.03271860256791115,-0.08791306614875793,0.12597481906414032
4.85,-0.10335636883974075,0.11447620391845703,-0.02354297786951065,0.020540907979011536,-0.09162570536136627,0.04063995182514191
4.875,-0.10106613487005234,-0.10521793365478516,0.06948008388280869,0.07561138272285461,-0.11157543212175369,0.047426529228687286
4.9,-0.16028256714344025,-0.1615285873413086,0.10820092260837555,0.07007527351379395,-0.14089776575565338,0.03452242165803909
4.925,-0.1428898274898529,-0.053012847900390625,0.0450504831969738,0.03319220989942551,-0.1446067839860916,-0.0024356564972549677
4.95,-0.05387888848781586,-0.031540870666503906,-0.03338516503572464,0.002174347173422575,-0.1112927794456482,-0.042901527136564255
4.975,-0.009570744819939137,-0.14618492126464844,-0.064500592648983,-0.003791460068896413,-0.061427876353263855,-0.02921956777572632
5.0,0.0305597223341465,-0.19176673889160156,-0.07100512832403183,-0.06557758152484894,-0.03923588618636131,-0.019981278106570244
5.025,0.07577761262655258,-0.10123920440673828,-0.13482917845249176,-0.07232235372066498,-0.0527595654129982,-0.03787459060549736
5.05,0.07717987149953842,0.0013904571533203125,-0.13473157584667206,-0.011225161142647266,-0.06511727720499039,-0.013464599847793579
5.075,0.08041367679834366,-0.03937244415283203,-0.12167894095182419,-0.021747341379523277,-0.08828362077474594,-0.022121096029877663
5.1,0.03992530331015587,-0.1474905014038086,-0.08074986934661865,-0.01600419357419014,-0.08505302667617798,0.03573627769947052
5.125,0.004387110937386751,-0.19450950622558594,-0.09180845320224762,-0.04470209777355194,-0.08991721272468567,0.023536210879683495
5.15,-0.07740163803100586,-0.17226791381835938,-0.10269332677125931,-0.04821887984871864,-0.05163225531578064,0.054267581552267075
5.175,-0.08251944184303284,-0.07851314544677734,-0.15993615984916687,-0.04137146845459938,-0.01979731023311615,0.022969326004385948
5.2,-0.03372896835207939,0.0012025833129882812,-0.240557461977005,-0.020829524844884872,-0.015291403979063034,-0.010890644043684006
5.225,-0.007745586335659027,-0.035058021545410156,-0.22251777350902557,0.013978137634694576,-0.03593381866812706,-0.009213514626026154
5.25,0.009209905751049519,-0.1665821075439453,-0.11534206569194794,0.035518959164619446,-0.0639910027384758,-0.013640708290040493
5.275,0.002203079406172037,-0.2318706512451172,-0.03495034575462341,0.024188298732042313,-0.07442925125360489,0.00689810561016202
5.3,-0.020511120557785034,-0.20287513732910156,0.01576901786029339,0.007416377775371075,-0.059781208634376526,0.027674440294504166
5.325,-0.03590787574648857,-0.18659114837646484,0.045044831931591034,0.003364201635122299,-0.04039100557565689,0.01780579425394535
5.35,-0.019145797938108444,-0.12697410583496094,0.017059706151485443,-0.008953755721449852,-0.016575662419199944,0.021964194253087044
5.375,0.0525163933634758,-0.06155872344970703,-0.06405062973499298,-0.05395564064383507,-0.005272386595606804,0.017142707481980324
5.4,0.07282201200723648,-0.1302471160888672,-0.052986714988946915,-0.038388192653656006,-0.009791357442736626,0.03726205974817276
5.425,0.06730122119188309,-0.21138286590576172,-0.013922135345637798,-0.02099332958459854,-0.025047821924090385,0.03317134454846382
5.45,0.06245839223265648,-0.19129657745361328,-0.0016161012463271618,-0.03880095109343529,-0.01368458941578865,0.0395701564848423
5.475,0.06409107893705368,-0.15302753448486328,-0.02467491663992405,-0.0505036786198616,-0.010856559500098228,0.04082673415541649
5.5,0.057026877999305725,-0.1546335220336914,-0.07104511559009552,-0.05396898463368416,-0.011407295241951942,0.038120366632938385
5.525,0.032801348716020584,-0.17586994171142578,-0.13853946328163147,-0.05029861629009247,-0.019900236278772354,0.02808736264705658
5.55,0.018274420872330666,-0.16083240509033203,-0.17684486508369446,-0.03218751400709152,-0.026194831356406212,0.020571183413267136
5.575,0.04387333616614342,-0.11975860595703125,-0.14391589164733887,-0.031229093670845032,-0.031119640916585922,0.019646091386675835
5.6,0.08981361985206604,-0.10639190673828125,-0.07911188155412674,-0.0045519666746258736,-0.03456282988190651,0.035902854055166245
5.625,0.09724333137273788,-0.07156562805175781,-0.04736652970314026,-0.028833212330937386,-0.03029678575694561,0.04958029463887215
5.65,0.032617248594760895,-0.09653949737548828,-0.051425300538539886,-0.04480762407183647,-0.0363738015294075,0.05361109972000122
5.675,-0.04799005016684532,-0.16404438018798828,-0.05824492499232292,-0.00665841531008482,-0.031413644552230835,0.055502403527498245
5.7,-0.08338059484958649,-0.1664590835571289,-0.10038089752197266,-0.019768506288528442,-0.01641848310828209,0.03997816517949104
5.725,-0.05921531468629837,-0.13359642028808594,-0.15630799531936646,-0.03370433300733566,0.008582205511629581,0.03636733442544937
5.75,-0.0007923413068056107,-0.14271926879882812,-0.1564994752407074,-0.0291273333132267,-0.0018230332061648369,0.00868214014917612
5.775,0.03324037417769432,-0.14604663848876953,-0.13362248241901398,-0.027118662372231483,-0.01345131453126669,0.020386099815368652
5.8,0.05124706029891968,-0.17858314514160156,-0.0954190269112587,-0.027800746262073517,-0.024709032848477364,0.03818249702453613
5.825,0.07389732450246811,-0.1696929931640625,-0.06596264243125916,-0.036941614001989365,-0.03787260875105858,0.017414869740605354
5.85,0.06966378539800644,-0.09401607513427734,-0.08672839403152466,-0.0435623861849308,-0.032929711043834686,0.033877938985824585
5.875,0.024197492748498917,-0.06843757629394531,-0.13260489702224731,-0.050408393144607544,-0.021465640515089035,0.04469640552997589
5.9,-0.00559419859200716,-0.0956430435180664,-0.1845073252916336,-0.04763020947575569,-0.021696139127016068,0.03352643921971321
5.925,-0.009590556845068932,-0.05658721923828125,-0.2625635266304016,-0.05168340727686882,-0.03272136300802231,0.012274064123630524
5.95,0.04463260620832443,0.03131866455078125,-0.3513455092906952,-0.060217928141355515,-0.04024820029735565,-0.018262969329953194
5.975,0.08567896485328674,0.1011953353881836,-0.3284660875797272,-0.066567562520504,-0.02967068925499916,-0.004272725898772478
6.0,-0.10334661602973938,0.41086292266845703,-0.2182566523551941,-0.20686469972133636,-0.0163068026304245,0.08965516835451126
6.025,-0.4563814103603363,0.8907375335693359,-0.24614225327968597,-0.19490285217761993,-0.021742574870586395,0.09415170550346375
6.05,-0.3737161159515381,1.191324234008789,-0.272588312625885,-0.11880476772785187,-0.15787184238433838,-0.2522667646408081
6.075,-0.2002372443675995,1.0136823654174805,-0.17024639248847961,0.06510235369205475,-0.22259733080863953,-0.32301753759384155
6.1,-0.2577437162399292,0.6849536895751953,-0.11115677654743195,0.09205947816371918,-0.21481794118881226,-0.32549741864204407
6.125,-0.3800976574420929,0.6020193099975586,-0.1737861931324005,0.04765632748603821,-0.14343231916427612,-0.4014131724834442
6.15,-0.2237640619277954,0.7065629959106445,-0.24310843646526337,0.005680199712514877,-0.1271926313638687,-0.5911461114883423
6.175,-0.010517329908907413,0.6143388748168945,-0.1927112340927124,0.0533163882791996,-0.16120362281799316,-0.685771107673645
6.2,0.09818945825099945,0.4627094268798828,-0.12322452664375305,0.08649454265832901,-0.24877801537513733,-0.7534813284873962
6.225,0.18255244195461273,0.3788166046142578,-0.08864535391330719,0.02923564240336418,-0.3327503502368927,-0.8372967839241028
6.25,0.2927244007587433,0.30599212646484375,-0.004577662795782089,-0.0219285786151886,-0.33728355169296265,-0.8972533941268921
6.275,0.4257405698299408,0.30171775817871094,0.09002969413995743,-0.026371024549007416,-0.3256071209907532,-0.9264971613883972
6.3,0.3985016345977783,0.2421426773071289,0.17038840055465698,0.0043013617396354675,-0.32781097292900085,-0.8918482661247253
6.325,0.1988869309425354,0.2158041000366211,0.1400076150894165,-0.033118318766355515,-0.276934415102005,-0.7309079170227051
6.35,0.04716603830456734,0.3338327407836914,-0.03835008293390274,-0.08350236713886261,-0.2629956901073456,-0.6271905303001404
6.375,0.10098175704479218,0.42019081115722656,-0.21746784448623657,-0.1034984141588211,-0.30831652879714966,-0.6516746282577515
6.4,0.3037010431289673,0.23871517181396484,-0.17205098271369934,-0.20494337379932404,-0.29092249274253845,-0.7145195603370667
6.425,0.4337526559829712,-0.15166091918945312,0.06937364488840103,-0.2679801881313324,-0.2519942820072174,-0.6408915519714355
6.45,0.48001396656036377,-0.47074127197265625,0.20266567170619965,-0.19991573691368103,-0.20195943117141724,-0.43070515990257263
6.475,0.47455692291259766,-0.7749261856079102,0.16017936170101166,-0.1849607229232788,-0.16443347930908203,-0.2748391926288605
6.5,0.2616446018218994,-1.308833122253418,0.12680968642234802,-0.21064423024654388,-0.18159371614456177,-0.09685962647199631
6.525,0.09335285425186157,-1.8192148208618164,-0.2157277911901474,-0.41728779673576355,-0.2541047930717468,-0.21322518587112427
6.55,-0.034557729959487915,-1.5337772369384766,-0.9588914513587952,-0.8483505249023438,-0.24272382259368896,-0.2985966205596924
6.575,-0.2560238540172577,-1.6551742553710938,-0.5094963908195496,-0.6137458086013794,-0.4485630691051483,-0.6241397857666016
6.6,-0.675650417804718,-1.5411367416381836,0.09238938987255096,-0.35188955068588257,-0.2494017779827118,-0.43573057651519775
6.625,-0.7820534706115723,-1.074819564819336,-0.07091883569955826,-0.18119437992572784,0.20376187562942505,-0.0775771215558052
6.65,-0.3848128318786621,-1.0604276657104492,-0.2297402173280716,0.04291466996073723,0.24226784706115723,-0.29354432225227356
6.675,-0.1622462123632431,-1.2218685150146484,0.03361719101667404,0.1771119385957718,0.11163489520549774,-0.30568623542785645
6.7,-0.01901654154062271,-0.9704675674438477,0.44426241517066956,0.15243561565876007,-0.00603698194026947,-0.18013866245746613
6.725,0.11065421998500824,-0.6798715591430664,0.5836179256439209,0.2819220721721649,-0.130347341299057,-0.08610687404870987
6.75,0.07889677584171295,-0.574152946472168,0.22843903303146362,0.3441886305809021,-0.04770965129137039,0.10169357061386108
6.775,0.13203424215316772,-0.5925350189208984,-0.12780636548995972,0.24320513010025024,0.10251408815383911,0.1383129209280014
6.8,0.5997971296310425,-0.555058479309082,-0.280785471200943,0.29433488845825195,0.09724242985248566,0.11446361243724823
6.825,1.384376049041748,-0.5041189193725586,-0.35620826482772827,0.44755810499191284,-0.04232533276081085,0.18232032656669617
6.85,1.9406007528305054,-0.6906671524047852,-0.220799520611763,0.4171273708343506,-0.08015415072441101,0.45931798219680786
6.875,1.9087077379226685,-1.0392913818359375,0.23132242262363434,0.30592045187950134,-0.07594051212072372,0.6424218416213989
6.9,1.0421311855316162,-1.1998567581176758,0.6773602962493896,0.3527909517288208,0.046086668968200684,0.8883450031280518
6.925,-0.1848483681678772,-0.9972705841064453,0.8195998668670654,0.41896167397499084,0.21737322211265564,0.8604105710983276
6.95,-1.014768362045288,-0.45664215087890625,0.7872607111930847,0.41692736744880676,0.41032034158706665,0.642935574054718
6.975,-1.1308372020721436,0.17821407318115234,0.5882537961006165,0.35961639881134033,0.4833555817604065,0.40496909618377686
7.0,-0.8924539685249329,0.6590557098388672,0.2200576364994049,0.27862295508384705,0.5573073625564575,0.49436625838279724
7.025,-0.3614051938056946,0.8804769515991211,-0.04106316342949867,0.2013317495584488,0.6459133625030518,0.5600073337554932
7.05,0.27693304419517517,0.918797492980957,-0.20695166289806366,0.27189403772354126,0.6489941477775574,0.445914089679718
7.075,0.49532386660575867,0.8169698715209961,-0.22700566053390503,0.3930845558643341,0.5953899621963501,0.4102081060409546
7.1,0.11944935470819473,0.5380420684814453,0.100788414478302,0.44016894698143005,0.5049973726272583,0.3986342251300812
7.125,-0.6282394528388977,0.1809406280517578,0.5459001660346985,0.4252786338329315,0.37886324524879456,0.37680578231811523
7.15,-1.1767194271087646,0.007973670959472656,0.7737346887588501,0.31208860874176025,0.2542603313922882,0.24269840121269226
7.175,-1.240959882736206,0.11033058166503906,0.603340208530426,0.11082278937101364,0.24085095524787903,0.17806202173233032
7.2,-0.8698990941047668,0.47393321990966797,0.11209780722856522,-0.07547850906848907,0.29629722237586975,0.12807263433933258
7.225,-0.452313095331192,0.8489923477172852,-0.4491938054561615,-0.11293859779834747,0.3133527636528015,0.06393657624721527
7.25,-0.1937543749809265,0.909266471862793,-0.7959389090538025,-0.10870159417390823,0.26151764392852783,-0.02976275235414505
7.275,-0.10953150689601898,0.4993457794189453,-0.7575564980506897,-0.07846751809120178,0.16621439158916473,-0.13123713433742523
7.3,-0.31996166706085205,-0.08758926391601562,-0.3378910720348358,0.09648679941892624,0.08955729752779007,-0.11892978101968765
7.325,-0.7756959795951843,-0.38076114654541016,0.011963356286287308,0.21582618355751038,0.08777081966400146,-0.07133463770151138
7.35,-1.0921763181686401,-0.1536703109741211,-0.07139596343040466,0.12781740725040436,0.2167576551437378,-0.05868981406092644
7.375,-1.022915005683899,0.21749210357666016,-0.35805901885032654,0.09405042231082916,0.4469038248062134,-0.0986403226852417
7.4,-0.7280322909355164,0.3753175735473633,-0.5923702120780945,0.27185559272766113,0.5586816072463989,-0.17852577567100525
7.425,-0.2636917531490326,0.40538597106933594,-0.8229836225509644,0.34782999753952026,0.494746595621109,-0.43760016560554504
7.45,0.35716408491134644,0.35194969177246094,-0.9796350598335266,0.24728858470916748,0.37763434648513794,-0.6667206287384033
7.475,0.8283959031105042,-0.03500652313232422,-0.7409394979476929,0.2096712440252304,0.20471161603927612,-0.6706064939498901
7.5,0.746942400932312,-0.7216587066650391,-0.11171866208314896,0.3146553039550781,-0.09138749539852142,-0.5460527539253235
7.525,-0.001418042927980423,-1.0493144989013672,0.4558679461479187,0.49700358510017395,-0.32228174805641174,-0.22605115175247192
7.55,-0.44787946343421936,-0.8032350540161133,0.3736170530319214,0.3997892141342163,-0.3191896080970764,-0.10782057046890259
7.575,-0.27942439913749695,-0.4578590393066406,-0.08973105251789093,0.26966848969459534,-0.12714046239852905,-0.13451769948005676
7.6,0.08733392506837845,-0.3136758804321289,-0.3199385702610016,0.2475559413433075,0.04725468158721924,-0.15779726207256317
7.625,0.4677748680114746,-0.3110237121582031,-0.3411678671836853,0.24835869669914246,0.03498569875955582,-0.1874837875366211
7.65,0.8691880106925964,-0.36923789978027344,-0.32866188883781433,0.13411399722099304,-0.13852475583553314,-0.24293164908885956
7.675,0.8239742517471313,-0.29088687896728516,-0.12479047477245331,0.039359405636787415,-0.28535914421081543,-0.06434382498264313
7.7,0.17192183434963226,-0.2554206848144531,0.18655265867710114,0.04678041487932205,-0.2901011109352112,0.10094548016786575
7.725,-0.4128151834011078,-0.1262369155883789,0.3903540372848511,0.11123489588499069,-0.12090066075325012,0.16868126392364502
7.75,-0.39786091446876526,0.017171859741210938,0.3713792562484741,0.2049337923526764,0.10973861068487167,0.11875636130571365
7.775,-0.013798857107758522,-0.0791921615600586,0.12761276960372925,0.1942777931690216,0.3011017143726349,-0.011831313371658325
7.8,0.43052834272384644,-0.21467113494873047,-0.12602856755256653,0.09553280472755432,0.34612393379211426,-0.1582789421081543
7.825,0.67790687084198,-0.23117923736572266,-0.18896833062171936,0.024309992790222168,0.17846417427062988,-0.18926295638084412
7.85,0.6389044523239136,-0.18309783935546875,-0.07948936522006989,-0.0031837006099522114,-0.13586926460266113,-0.09920523315668106
7.875,0.3089074194431305,-0.06533432006835938,0.12589773535728455,0.02503233402967453,-0.3778952360153198,0.030179627239704132
7.9,-0.19925826787948608,0.061484336853027344,0.2701093554496765,0.08032791316509247,-0.3941997289657593,0.11107179522514343
7.925,-0.5704119205474854,0.14689922332763672,0.3074764013290405,0.06606873869895935,-0.21679027378559113,0.08878091722726822
7.95,-0.4896906614303589,0.1531972885131836,0.22822827100753784,0.03344469517469406,0.02128078043460846,0.0010621934197843075
7.975,-0.11448778212070465,0.07586860656738281,0.0701170414686203,0.01969366893172264,0.185226708650589,-0.05557837337255478
8.0,0.22326788306236267,-0.06978321075439453,-0.09876036643981934,0.017266780138015747,0.16996300220489502,-0.07678990811109543
8.025,0.40958741307258606,-0.12443065643310547,-0.22329698503017426,-0.03088998794555664,0.04933592677116394,-0.0853644385933876
8.05,0.35365429520606995,-0.07617664337158203,-0.20291420817375183,-0.05106284096837044,-0.08183666318655014,-0.044754400849342346
8.075,0.011909129098057747,-0.044745445251464844,-0.017764445394277573,0.038586217910051346,-0.16513371467590332,0.030634282156825066
8.1,-0.33223363757133484,-0.013139724731445312,0.15703588724136353,0.10693436115980148,-0.15073850750923157,0.037642333656549454
8.125,-0.4547017812728882,-0.014192581176757812,0.23389942944049835,0.05391034856438637,-0.03980615735054016,0.009521150961518288
8.15,-0.2760573625564575,-0.09769439697265625,0.14490438997745514,0.006765496917068958,0.07932855933904648,-0.03242051601409912
8.175,0.05055297911167145,-0.10277271270751953,-0.06012822687625885,0.022430002689361572,0.12567093968391418,-0.056439805775880814
8.2,0.19147172570228577,-0.10918331146240234,-0.20167802274227142,0.04892268776893616,0.1075642928481102,-0.034664612263441086
8.225,0.19422028958797455,-0.1620321273803711,-0.17125706374645233,0.04570731893181801,0.07013683766126633,-0.020520564168691635
8.25,0.15244941413402557,-0.21808338165283203,-0.008673769421875477,0.057553235441446304,0.009842464700341225,0.007507240399718285
8.275,0.010485830716788769,-0.2840700149536133,0.1471855640411377,0.06221529468894005,-0.0312469732016325,0.05764509364962578
8.3,-0.13864444196224213,-0.22310924530029297,0.18346770107746124,0.007015788462013006,-0.011421041563153267,0.07435335218906403
8.325,-0.19133444130420685,-0.062209129333496094,0.09131073951721191,0.00034525920636951923,0.013711582869291306,0.034190092235803604
8.35,-0.19211071729660034,0.09420204162597656,-0.07170267403125763,0.04882063344120979,0.07379533350467682,0.03043459914624691
8.375,-0.10015538334846497,0.11414718627929688,-0.12826158106327057,0.07021111994981766,0.14328554272651672,-0.0060346792452037334
8.4,0.03997696191072464,0.008558273315429688,-0.10978106409311295,0.07827677577733994,0.16070130467414856,-0.008790392428636551
8.425,0.1290310174226761,-0.1228790283203125,-0.10071417689323425,0.06539648026227951,0.12952405214309692,0.01391705870628357
8.45,0.1328679919242859,-0.22867298126220703,-0.07599622756242752,0.039945535361766815,0.06333424150943756,0.026312554255127907
8.475,0.1280210167169571,-0.24546527862548828,-0.01130069512873888,0.006821643561124802,-0.031188320368528366,0.001926059601828456
8.5,0.05708586052060127,-0.15541458129882812,0.016044821590185165,-0.020425090566277504,-0.09359181672334671,-0.002578577259555459
8.525,-0.12506608664989471,-0.030529022216796875,0.01186174526810646,-0.027630748227238655,-0.06444428116083145,0.04827597737312317
8.55,-0.26661112904548645,0.07363700866699219,-0.03640208765864372,0.0097966268658638,0.022268323227763176,0.06454233080148697
8.575,-0.2142285257577896,0.031538963317871094,-0.10204866528511047,0.0463203527033329,0.12047428637742996,0.008190318942070007
8.6,-0.01473621279001236,-0.05313301086425781,-0.1512003391981125,0.026698771864175797,0.17007780075073242,-0.06230371817946434
8.625,0.10071705281734467,-0.11090564727783203,-0.14205428957939148,0.01749679446220398,0.13407182693481445,-0.04179461672902107
8.65,0.07365038990974426,-0.0998983383178711,-0.11408109962940216,0.05357058718800545,0.05235588550567627,0.020888522267341614
8.675,0.024457644671201706,-0.06654548645019531,-0.11686349660158157,0.04975656419992447,0.004772990942001343,0.038814954459667206
8.7,0.0051104347221553326,-0.09564876556396484,-0.0664958730340004,0.01980377547442913,0.007142690476030111,0.03792112320661545
8.725,0.011872433125972748,-0.16416263580322266,0.01039024256169796,0.003502374514937401,0.0006659174105152488,0.003781203180551529
8.75,-0.002509943675249815,-0.22533512115478516,0.04139399901032448,-0.01312799472361803,-0.028560247272253036,-0.02483830414712429
8.775,-0.13273552060127258,-0.21239852905273438,0.054082177579402924,-0.06698501110076904,-0.04392899572849274,-0.0008816150948405266
8.8,-0.23510129749774933,-0.05635356903076172,-0.013390280306339264,-0.06755337119102478,-0.008705688640475273,0.0321730338037014
8.825,-0.15710869431495667,0.13341617584228516,-0.13126523792743683,-0.02255130559206009,0.06739826500415802,-0.003407407086342573
8.85,0.014076238498091698,0.21454143524169922,-0.23741555213928223,0.003203213680535555,0.1264166384935379,-0.0598672479391098
8.875,0.11470630019903183,0.09995174407958984,-0.25023722648620605,0.041572269052267075,0.10151730477809906,-0.051345229148864746
8.9,0.12763939797878265,-0.0779266357421875,-0.15305882692337036,0.056039728224277496,0.038496196269989014,-0.02280847541987896
8.925,0.09804942458868027,-0.18846416473388672,-0.02162451669573784,0.017926519736647606,-0.021731697022914886,-0.019810106605291367
8.95,0.04554405435919762,-0.21642112731933594,0.053270213305950165,-0.035257525742053986,-0.05845159292221069,-0.016934406012296677
8.975,-0.05597785487771034,-0.17257976531982422,0.01916724070906639,-0.07603917270898819,-0.06754948943853378,-0.015548549592494965
9.0,-0.12869316339492798,-0.04053211212158203,-0.08756820857524872,-0.09117439389228821,-0.039144665002822876,-0.015425803139805794
9.025,-0.14333122968673706,0.07352924346923828,-0.15685781836509705,-0.06627405434846878,0.00012384168803691864,-0.032045867294073105
9.05,-0.14471006393432617,0.186492919921875,-0.1641375720500946,-0.031893134117126465,0.03604632616043091,-0.035236116498708725
9.075,-0.0520540215075016,0.3450756072998047,-0.1557367593050003,-0.06972507387399673,0.056446123868227005,-0.07202748954296112
9.1,0.09796997159719467,0.4031944274902344,-0.12675154209136963,-0.08857235312461853,0.02171264961361885,-0.08775727450847626
9.125,0.14672963321208954,0.24156665802001953,-0.06371557712554932,-0.055008839815855026,-0.05860133841633797,-0.07985207438468933
9.15,0.0930432379245758,0.04509449005126953,-0.03379134461283684,-0.07524826377630234,-0.11629801988601685,-0.0828058272600174
9.175,-0.01233040913939476,-0.020206451416015625,-0.05054311081767082,-0.14226458966732025,-0.13671249151229858,-0.08058595657348633
9.2,-0.07001945376396179,0.03549003601074219,-0.10377463698387146,-0.23165568709373474,-0.14692270755767822,-0.08976729214191437
9.225,-0.025866836309432983,0.1780853271484375,-0.20828981697559357,-0.2757275402545929,-0.1708442121744156,-0.12900230288505554
9.25,-0.05927804112434387,0.34380626678466797,-0.23234884440898895,-0.22291654348373413,-0.15699172019958496,-0.078003890812397
9.275,-0.08419451862573624,0.49976062774658203,-0.23922479152679443,-0.2655402421951294,-0.1041242778301239,-0.038953982293605804
9.3,-0.05948847159743309,0.5080661773681641,-0.23564088344573975,-0.32462844252586365,-0.1253867745399475,-0.05610740929841995
9.325,-0.031054329127073288,0.4656209945678711,-0.22624722123146057,-0.3116791844367981,-0.23994585871696472,-0.0635560005903244
9.35,-0.006041314452886581,0.48212623596191406,-0.21609078347682953,-0.3229414224624634,-0.35517174005508423,-0.03932809457182884
9.375,0.0780939906835556,0.4859294891357422,-0.17231304943561554,-0.38471534848213196,-0.42017045617103577,-0.05584997683763504
9.4,0.07841011881828308,0.36202144622802734,-0.009262800216674805,-0.44799917936325073,-0.4143678545951843,-0.046898506581783295
9.425,-0.09839361160993576,0.21969318389892578,0.1205199658870697,-0.500664234161377,-0.39725279808044434,-0.019882602617144585
9.45,-0.2764190137386322,0.26665687561035156,0.09094808250665665,-0.5785388946533203,-0.3334878385066986,0.027434296905994415
9.475,-0.15317106246948242,0.29987430572509766,-0.009005442261695862,-0.6865971088409424,-0.25890642404556274,-0.016660265624523163
9.5,0.19267429411411285,-0.015058517456054688,-0.004313412122428417,-0.7517080307006836,-0.2664879560470581,-0.08858612179756165
9.525,0.41712358593940735,-0.49329280853271484,0.062316782772541046,-0.783856213092804,-0.3345780074596405,-0.0637020468711853
9.55,0.30534374713897705,-0.9027509689331055,-0.005450000986456871,-0.8408001661300659,-0.36840611696243286,-0.03646913170814514
9.575,0.211760476231575,-1.0907173156738281,-0.18511709570884705,-0.90678471326828,-0.3457533121109009,-0.12233010679483414
9.6,0.2844168543815613,-1.1727533340454102,-0.13218781352043152,-0.7464559674263,-0.35219606757164,-0.14590051770210266
9.625,0.21386191248893738,-1.028061866760254,-0.027843141928315163,-0.4077532887458801,-0.36794137954711914,0.009951133280992508
9.65,0.003483908250927925,-0.8482322692871094,-0.22073960304260254,-0.27614185214042664,-0.23519402742385864,0.09146249294281006
9.675,-0.11554260551929474,-0.970515251159668,-0.34754201769828796,-0.3542742133140564,-0.07576710730791092,-0.053833525627851486
9.7,-0.2724305987358093,-1.2652215957641602,-0.12524272501468658,-0.27362260222435,-0.04053036868572235,-0.012924284674227238
9.725,-0.36411747336387634,-1.3386173248291016,0.13901573419570923,-0.21257825195789337,-0.12502165138721466,-0.017953887581825256
9.75,-0.3183947503566742,-0.9857816696166992,0.12024004757404327,-0.15698151290416718,-0.2905930280685425,-0.09879880398511887
9.775,-0.3517865538597107,-0.4776334762573242,-0.17142726480960846,-0.06130217760801315,-0.43423330783843994,-0.141079381108284
9.8,-0.40408796072006226,-0.21186542510986328,-0.3044009208679199,0.01995416358113289,-0.45376619696617126,-0.1893104761838913
9.825,-0.30568191409111023,0.010029792785644531,-0.0734962597489357,0.11918418109416962,-0.3549341559410095,-0.1691945493221283
9.85,0.027592619881033897,0.4302396774291992,0.2657417058944702,0.2621311843395233,-0.245692178606987,-0.07484327256679535
9.875,0.46148180961608887,0.766963005065918,0.430463045835495,0.28804561495780945,-0.15371255576610565,-0.03344622999429703
9.9,0.5888229608535767,0.6500940322875977,0.5457618236541748,0.17980806529521942,-0.07519946992397308,-0.03906916081905365
9.925,0.18880972266197205,0.3785820007324219,0.6514380574226379,0.08429232239723206,-0.07511171698570251,0.04133551940321922
9.95,-0.294872522354126,0.28684043884277344,0.5729852914810181,-0.016436036676168442,-0.16251873970031738,0.08553465455770493
9.975,-0.3890222907066345,0.1492452621459961,0.2824139893054962,-0.08861252665519714,-0.3159881830215454,-0.042804054915905
10.0,-0.21870921552181244,0.026062965393066406,-0.0222008153796196,-0.10312417149543762,-0.3818103075027466,-0.06346356868743896
10.025,0.10379421710968018,0.1969585418701172,-0.2444848269224167,-0.1838715821504593,-0.2980492413043976,0.017908895388245583
10.05,0.4316602945327759,0.3758707046508789,-0.37019824981689453,-0.2992277443408966,-0.22248181700706482,-0.030999941751360893
10.075,0.43951302766799927,0.29430294036865234,-0.37428808212280273,-0.3096581995487213,-0.18081659078598022,-0.062393441796302795
10.1,0.1381441354751587,0.2688589096069336,-0.26264575123786926,-0.23213714361190796,-0.15174710750579834,0.00456642359495163
10.125,-0.10402248799800873,0.45865535736083984,-0.17348267138004303,-0.2299603819847107,-0.14627671241760254,-0.04944296181201935
10.15,-0.22612132132053375,0.8387489318847656,-0.1462395340204239,-0.27689099311828613,-0.13130703568458557,-0.11207983642816544
10.175,-0.3541059195995331,1.3498201370239258,-0.005544906482100487,-0.2991890609264374,-0.15355069935321808,-0.18477174639701843
10.2,-0.4623987674713135,1.8125944137573242,0.20901204645633698,-0.31179705262184143,-0.27858155965805054,-0.43084830045700073
10.225,-0.6185370087623596,2.2279510498046875,0.3837670683860779,-0.2837800979614258,-0.3394632935523987,-0.6032759547233582
10.25,-0.9056031703948975,2.5534238815307617,0.5205905437469482,-0.20378081500530243,-0.23949800431728363,-0.5859107971191406
10.275,-1.0239343643188477,2.647250175476074,0.4509233236312866,-0.13194458186626434,-0.12569034099578857,-0.7120261788368225
10.3,-0.8103142976760864,2.510359764099121,0.21438872814178467,-0.134037047624588,-0.05106666684150696,-0.9515606760978699
10.325,-0.3281202018260956,2.1853933334350586,0.03719259798526764,-0.1549399197101593,-0.09989015758037567,-1.2152965068817139
10.35,0.3122631907463074,1.898777961730957,-0.083150714635849,-0.22567076981067657,-0.25525516271591187,-1.4573018550872803
10.375,0.7618101835250854,1.7559518814086914,-0.1604117751121521,-0.22398026287555695,-0.45695677399635315,-1.5901474952697754
10.4,0.7921674847602844,1.6482324600219727,-0.26928064227104187,-0.2239503115415573,-0.5346452593803406,-1.6129759550094604
10.425,0.5697908401489258,1.5075502395629883,-0.46895647048950195,-0.2126060426235199,-0.47437670826911926,-1.6252342462539673
10.45,0.404618501663208,1.4006872177124023,-0.8585249185562134,-0.1157393753528595,-0.46259549260139465,-1.6842769384384155
10.475,0.48493027687072754,1.1653623580932617,-1.3791587352752686,-0.04002667963504791,-0.5121755599975586,-1.8102034330368042
10.5,0.5799322724342346,0.6276130676269531,-1.5514259338378906,0.0342988446354866,-0.5660960078239441,-1.8956091403961182
10.525,0.6214990615844727,0.05784797668457031,-1.4539217948913574,0.10410481691360474,-0.6177554130554199,-1.8745884895324707
10.55,0.7277337312698364,-0.22251415252685547,-1.2980328798294067,0.21406659483909607,-0.7041390538215637,-1.7125935554504395
10.575,0.8344569802284241,-0.3531379699707031,-1.1354825496673584,0.2914092242717743,-0.8358147144317627,-1.5972228050231934
10.6,0.9950667023658752,-0.40404510498046875,-1.0974626541137695,0.26737940311431885,-0.8682609796524048,-1.5715705156326294
10.625,1.1568349599838257,-0.4743051528930664,-1.2354187965393066,0.20827388763427734,-0.7715296149253845,-1.6499830484390259
10.65,1.1973215341567993,-0.7476587295532227,-1.1643844842910767,0.21841153502464294,-0.6508384346961975,-1.702835202217102
10.675,1.0849171876907349,-0.9932832717895508,-0.8809786438941956,0.2710980176925659,-0.5800082087516785,-1.6031899452209473
10.7,0.8009852766990662,-1.0481023788452148,-0.6446104645729065,0.34050455689430237,-0.6530020236968994,-1.4026869535446167
10.725,0.5119946002960205,-1.0410242080688477,-0.49243083596229553,0.30671870708465576,-0.7462315559387207,-1.320173978805542
10.75,0.3682597279548645,-0.9774637222290039,-0.5554158687591553,0.190735325217247,-0.7951233386993408,-1.3179337978363037
10.775,0.3712500333786011,-0.8758926391601562,-0.9294945001602173,0.019127950072288513,-0.8648756742477417,-1.396086573600769
10.8,0.43425726890563965,-0.8584480285644531,-1.4783328771591187,-0.07703070342540741,-0.9494998455047607,-1.4608014822006226
10.825,0.6111952066421509,-1.0287466049194336,-1.9919997453689575,-0.09867044538259506,-1.0766499042510986,-1.4816489219665527
10.85,0.8550469875335693,-1.2232751846313477,-2.404712438583374,-0.009004496037960052,-1.1610523462295532,-1.467652678489685
10.875,1.1211585998535156,-1.4425535202026367,-2.3850300312042236,0.1510837972164154,-1.1960978507995605,-1.4390007257461548
10.9,1.3186280727386475,-1.623326301574707,-2.1399035453796387,0.2601802349090576,-1.3426645994186401,-1.3907450437545776
10.925,1.5791059732437134,-1.669839859008789,-1.9022419452667236,0.3106978237628937,-1.581160545349121,-1.3144965171813965
10.95,1.922844648361206,-1.4924306869506836,-1.4487508535385132,0.28829890489578247,-1.8718724250793457,-1.2630943059921265
10.975,1.9947175979614258,-0.9253120422363281,-1.0737751722335815,0.2648921012878418,-2.0374279022216797,-1.1259795427322388
11.0,1.957790732383728,-0.32651329040527344,-0.9237425923347473,0.3099689185619354,-2.0195512771606445,-1.062333583831787
11.025,1.866262435913086,-0.08455657958984375,-0.8310896158218384,0.37970009446144104,-1.961748480796814,-0.9834614396095276
11.05,1.7541112899780273,-0.23807525634765625,-0.8826372623443604,0.46209242939949036,-1.836746335029602,-0.9154505729675293
11.075,1.7337201833724976,-0.7341852188110352,-0.9117926359176636,0.5473812818527222,-1.6526507139205933,-0.9760664701461792
11.1,1.3346056938171387,-1.2121896743774414,-0.45877787470817566,0.5470839738845825,-1.62211275100708,-1.0034055709838867
11.125,0.3431256115436554,-1.3494338989257812,0.35328027606010437,0.2590113878250122,-1.6671711206436157,-0.8175556063652039
11.15,-0.47105011343955994,-1.0673141479492188,1.5801705121994019,-0.17326310276985168,-1.7965445518493652,-0.7030380368232727
11.175,-0.9909166693687439,0.19520187377929688,2.813802480697632,-0.40065890550613403,-2.0215811729431152,-0.977077841758728
11.2,-1.6853517293930054,1.4263696670532227,3.86734676361084,-0.5216024518013,-2.2552337646484375,-1.101509928703308
11.225,-2.2071285247802734,1.1160898208618164,4.317692279815674,-0.38484975695610046,-2.0545108318328857,-1.106390357017517
11.25,-2.6124439239501953,0.2568063735961914,3.7450544834136963,-0.24835848808288574,-1.5830010175704956,-0.6745174527168274
11.275,-2.4392919540405273,-0.5635709762573242,2.829737424850464,0.10709042847156525,-1.1045552492141724,-0.4804403781890869
11.3,-1.7824573516845703,-0.9958658218383789,2.051743984222412,0.2789950370788574,-1.0505253076553345,-0.4678196310997009
11.325,-1.3738069534301758,-0.8828115463256836,1.4576940536499023,0.2577205300331116,-1.0768901109695435,-0.4024510681629181
11.35,-1.420636534690857,-0.38802146911621094,1.145821452140808,0.15329065918922424,-1.065657377243042,-0.19837281107902527
11.375,-1.6093515157699585,0.0627450942993164,1.0397429466247559,0.04774116724729538,-1.0234688520431519,-0.11675546318292618
11.4,-1.7855134010314941,0.12360286712646484,0.8738118410110474,0.06461819261312485,-1.0011019706726074,-0.2818622589111328
11.425,-1.928865909576416,-0.22919368743896484,0.6913811564445496,0.18801575899124146,-1.0021898746490479,-0.45718908309936523
11.45,-1.9938418865203857,-0.8426837921142578,0.674423098564148,0.3265223205089569,-1.0100404024124146,-0.49033793807029724
11.475,-1.9529576301574707,-1.342453956604004,0.7496935129165649,0.35985735058784485,-1.0070946216583252,-0.35253068804740906
11.5,-1.8143151998519897,-1.390507698059082,0.651400625705719,0.3284476101398468,-0.9710855484008789,-0.16015897691249847
11.525,-1.6630522012710571,-1.0586719512939453,0.38317105174064636,0.2633400857448578,-0.9037584662437439,0.0037155989557504654
11.55,-1.5278303623199463,-0.6347103118896484,0.14866748452186584,0.2191935032606125,-0.86146479845047,0.0967748686671257
11.575,-1.3216181993484497,-0.3457527160644531,0.006086945533752441,0.21722324192523956,-0.8699418306350708,0.14013242721557617
11.6,-1.1610305309295654,-0.32013702392578125,-0.15196098387241364,0.305368572473526,-0.9059988856315613,0.15437254309654236
11.625,-1.1829687356948853,-0.45165443420410156,-0.2497246265411377,0.34030190110206604,-0.9855373501777649,0.19085392355918884
11.65,-1.3032935857772827,-0.4515666961669922,-0.29160913825035095,0.312992125749588,-1.1005351543426514,0.2406749725341797
11.675,-1.4486587047576904,-0.16289806365966797,-0.3160006105899811,0.24854041635990143,-1.1788811683654785,0.3018810749053955
11.7,-1.5653696060180664,0.2217235565185547,-0.2953002154827118,0.23959007859230042,-1.2302460670471191,0.3297024369239807
11.725,-1.4806686639785767,0.5603017807006836,-0.33015891909599304,0.282545804977417,-1.230025053024292,0.37143149971961975
11.75,-0.9882460832595825,1.049668312072754,-0.2966098189353943,0.4093382954597473,-1.2194948196411133,0.391863077878952
11.775,-0.24447433650493622,1.918111801147461,-0.010226846672594547,0.4092751145362854,-1.2140400409698486,0.48692721128463745
11.8,0.24792581796646118,2.532477378845215,0.6459683775901794,0.4734231233596802,-1.2954515218734741,0.5997210144996643
11.825,0.5999260544776917,2.6610755920410156,1.6606485843658447,0.5225035548210144,-1.295102596282959,0.689774215221405
11.85,1.0103343725204468,2.252685546875,2.432028293609619,0.4336637258529663,-1.2551071643829346,0.6560678482055664
11.875,1.4842278957366943,1.1361513137817383,2.600369930267334,0.50065016746521,-1.0534013509750366,0.5491942167282104
11.9,1.9397422075271606,-0.26233768463134766,2.5144553184509277,0.5796432495117188,-0.8750859498977661,0.39854735136032104
11.925,2.0174367427825928,-1.436899185180664,2.323404312133789,0.5729779005050659,-0.9121036529541016,0.28629693388938904
11.95,1.4909541606903076,-1.7804317474365234,1.8818174600601196,0.3439921736717224,-1.0849114656448364,0.17546474933624268
11.975,0.7130343914031982,-1.168731689453125,1.4231083393096924,0.09720838069915771,-1.2339465618133545,0.012470534071326256
12.0,0.18554526567459106,-0.13326168060302734,1.3092271089553833,-0.016368720680475235,-1.2711154222488403,-0.12913580238819122
12.025,-0.012508735060691833,0.6599588394165039,1.3610949516296387,-0.010366659611463547,-1.2629142999649048,-0.20882974565029144
12.05,0.0009471774101257324,0.6927928924560547,1.2831624746322632,0.07458557933568954,-1.2349650859832764,-0.2811848819255829
12.075,0.23845818638801575,0.15415000915527344,1.0070946216583252,0.14787672460079193,-1.1033753156661987,-0.30915969610214233
12.1,0.6696852445602417,-0.4425373077392578,0.6812704205513,0.1658908873796463,-0.9148986339569092,-0.28209635615348816
12.125,1.0821489095687866,-1.0003910064697266,0.42975476384162903,0.27863532304763794,-0.845565676689148,-0.2924264669418335
12.15,1.34371018409729,-1.2874441146850586,0.27501359581947327,0.2887182831764221,-0.8227911591529846,-0.30785322189331055
12.175,1.4043176174163818,-1.2317399978637695,0.20394212007522583,0.2610163986682892,-0.8090677857398987,-0.30327120423316956
12.2,1.3596161603927612,-0.9138402938842773,0.2062429040670395,0.1644972264766693,-0.7252788543701172,-0.2847049832344055
12.225,1.2871013879776,-0.49719905853271484,0.34070414304733276,0.13584978878498077,-0.5591597557067871,-0.2879693806171417
12.25,1.227755069732666,-0.07605171203613281,0.4967470169067383,0.2347642332315445,-0.3736846148967743,-0.32132476568222046
12.275,1.4331285953521729,0.33455562591552734,0.5312594771385193,0.29723483324050903,-0.2376256287097931,-0.3927288353443146
12.3,1.9085363149642944,0.7341117858886719,0.3853755593299866,0.3114505410194397,-0.0824756920337677,-0.3994824290275574
12.325,2.1024749279022217,1.2997465133666992,0.17224153876304626,0.3586353063583374,0.027348756790161133,-0.34360411763191223
12.35,1.6071207523345947,2.401503562927246,0.09607811272144318,0.09733551740646362,-0.06337636709213257,-0.4847679138183594
12.375,0.555668830871582,3.1824750900268555,0.4995118975639343,0.10011345148086548,-0.2571718394756317,-0.8349563479423523
12.4,-0.7219409346580505,3.089766502380371,1.2200934886932373,0.27506840229034424,-0.23523810505867004,-0.8649270534515381
12.425,-1.6998584270477295,2.3406763076782227,1.6985137462615967,0.30770838260650635,-0.1120966374874115,-0.80657559633255
12.45,-2.0497522354125977,1.2061491012573242,1.642845630645752,0.4120213985443115,0.06620895862579346,-0.6437017321586609
12.475,-2.1624045372009277,-0.5536050796508789,1.412690281867981,0.6963865160942078,0.2971562147140503,-0.37308385968208313
12.5,-2.1427338123321533,-2.1979503631591797,1.2445889711380005,0.63307124376297,0.5618326663970947,-0.13175734877586365
12.525,-1.7899818420410156,-2.7661495208740234,1.0208600759506226,0.25456687808036804,0.6629133224487305,-0.06308816373348236
12.55,-1.3302794694900513,-2.4985666275024414,0.8734332323074341,0.027910465374588966,0.6514216661453247,0.017310362309217453
12.575,-1.1935392618179321,-1.7533273696899414,0.9743880033493042,-0.17023637890815735,0.6462708711624146,0.12546060979366302
12.6,-1.1915980577468872,-0.3513755798339844,1.3181284666061401,-0.559959888458252,0.7295413017272949,0.2176375389099121
12.625,-0.9984818696975708,1.142897605895996,1.5004774332046509,-0.6881794333457947,0.821975827217102,0.26213496923446655
12.65,-0.5772421360015869,1.4864072799682617,1.251928687095642,-0.40536758303642273,0.7751175165176392,0.1980936974287033
12.675,-0.2364865243434906,0.8243961334228516,0.8551536798477173,-0.13454711437225342,0.7233954071998596,0.1692199409008026
12.7,-0.22234250605106354,-0.0160064697265625,0.4399152398109436,0.005192099139094353,0.5512014031410217,0.04943643882870674
12.725,-0.38882479071617126,-0.758936882019043,0.09215415269136429,0.09140263497829437,0.38073015213012695,-0.03313926234841347
12.75,-0.5116814374923706,-1.253896713256836,-0.07237981259822845,0.14880193769931793,0.2256302386522293,-0.048317939043045044
12.775,-0.6637218594551086,-1.4661083221435547,-0.028845371678471565,0.09431588649749756,0.005951302126049995,-0.03866006061434746
12.8,-0.9378131628036499,-1.3351631164550781,-0.04974415898323059,-0.019068391993641853,-0.12645824253559113,-0.04423905164003372
12.825,-1.0390616655349731,-0.9335126876831055,-0.21751156449317932,-0.11639624834060669,-0.16056177020072937,-0.04444272816181183
12.85,-1.0661624670028687,-0.46892261505126953,-0.2874513268470764,-0.20833678543567657,-0.1995987445116043,0.019879112020134926
12.875,-1.0330148935317993,0.08834362030029297,-0.3313634395599365,-0.2355196624994278,-0.24845091998577118,0.14976176619529724
12.9,-0.9518865942955017,0.8021154403686523,-0.3917979598045349,-0.24275381863117218,-0.31997641921043396,0.24958661198616028
12.925,-0.8699849843978882,1.3022632598876953,-0.3289165496826172,-0.15523748099803925,-0.4236856698989868,0.24771010875701904
12.95,-0.802558958530426,1.5969133377075195,-0.2308601289987564,-0.02605283446609974,-0.5120421648025513,0.21225588023662567
12.975,-0.5388977527618408,1.7741584777832031,-0.1125447005033493,0.1517016589641571,-0.5464481115341187,0.26742100715637207
13.0,-0.016749873757362366,2.1702919006347656,0.0006845546886324883,0.29200753569602966,-0.555232584476471,0.4510047435760498
13.025,0.41343992948532104,2.85463809967041,0.39836645126342773,0.010187815874814987,-0.524924099445343,0.6392446160316467
13.05,0.45173120498657227,3.0578508377075195,1.1058200597763062,0.22531193494796753,-0.5173996090888977,0.746865451335907
13.075,0.3954191207885742,2.700590133666992,1.875984787940979,0.315097451210022,-0.5927519798278809,0.6466160416603088
13.1,0.5258923768997192,1.4743165969848633,2.3384268283843994,0.5665509104728699,-0.5860718488693237,0.5670082569122314
13.125,0.7601834535598755,-0.4843454360961914,2.3585867881774902,0.893027126789093,-0.4941047430038452,0.4916934370994568
13.15,1.0415630340576172,-2.3434348106384277,1.9846398830413818,1.0178476572036743,-0.5067660212516785,0.3144035339355469
13.175,1.037869930267334,-3.1704626083374023,1.3696867227554321,0.7382640242576599,-0.6679621338844299,0.0620165690779686
13.2,0.720797598361969,-2.771373748779297,1.095116138458252,0.3461315929889679,-0.8668806552886963,-0.1223028227686882
13.225,0.4101780354976654,-1.3669652938842773,1.3859138488769531,-0.07275325059890747,-1.0338526964187622,-0.2699948847293854
13.25,-0.2994396388530731,0.3398876190185547,1.842486023902893,-0.21854983270168304,-1.0535814762115479,-0.36447811126708984
13.275,-0.9331615567207336,1.4113588333129883,1.8557640314102173,-0.05640831217169762,-0.9577124714851379,-0.4376339018344879
13.3,-0.9845778942108154,1.2013940811157227,1.3556272983551025,0.30314213037490845,-0.7048844695091248,-0.49863722920417786
13.325,-0.6477617025375366,0.12377643585205078,0.6818603277206421,0.5162226557731628,-0.44804176688194275,-0.488003671169281
13.35,-0.43155643343925476,-0.9482784271240234,0.17164567112922668,0.5028932094573975,-0.21403592824935913,-0.3988639712333679
13.375,-0.35228365659713745,-1.4642229080200195,-0.15683786571025848,0.45082929730415344,-0.018159106373786926,-0.3335643410682678
13.4,-0.27084967494010925,-1.408503532409668,-0.39908647537231445,0.2678000330924988,0.15941035747528076,-0.3466089069843292
13.425,-0.350582093000412,-1.1927194595336914,-0.5892481803894043,0.1638723760843277,0.3670392334461212,-0.30863577127456665
13.45,-0.6765963435173035,-1.0246286392211914,-0.7563480138778687,0.11049425601959229,0.6255258321762085,-0.21570613980293274
13.475,-0.9259467124938965,-0.986638069152832,-0.6789703369140625,0.058362312614917755,0.9546238780021667,-0.1603744924068451
13.5,-0.5952675342559814,-0.8732242584228516,-0.3284737169742584,-0.027153439819812775,1.3896845579147339,-0.1490756720304489
13.525,0.4249885082244873,-0.45902252197265625,0.058124564588069916,-0.15790075063705444,1.8695428371429443,-0.1691681295633316
13.55,1.4737040996551514,0.3316926956176758,0.3372533321380615,-0.26964250206947327,2.169966697692871,-0.24186639487743378
13.575,1.8945602178573608,1.7977094650268555,0.5018892884254456,-0.3921296298503876,2.16324520111084,-0.29889553785324097
13.6,1.691410779953003,3.671900749206543,0.9106921553611755,-0.7233548760414124,1.9514057636260986,-0.2838295102119446
13.625,1.1904054880142212,4.37636661529541,1.6154502630233765,-0.63315349817276,1.6619951725006104,-0.2676388621330261
13.65,0.1630178987979889,3.6916322708129883,2.026258945465088,-0.39427945017814636,1.3797595500946045,-0.26542800664901733
13.675,-1.1130660772323608,2.2988157272338867,2.1054294109344482,-0.23428194224834442,1.2204341888427734,-0.36318838596343994
13.7,-2.09531569480896,0.9105749130249023,2.2353341579437256,-0.05699589103460312,1.1207997798919678,-0.612535834312439
13.725,-2.6948211193084717,-0.5834169387817383,2.4986958503723145,0.09616201370954514,1.255561113357544,-0.7663159370422363
13.75,-2.7923309803009033,-2.0589280128479004,2.62239146232605,0.13606637716293335,1.5431265830993652,-0.7188630700111389
13.775,-2.419267416000366,-2.985912322998047,2.40433406829834,-0.03252476826310158,1.7443772554397583,-0.602569043636322
13.8,-1.8357560634613037,-3.2146553993225098,1.964615821838379,-0.24951569736003876,1.8107366561889648,-0.46566057205200195
13.825,-1.2052468061447144,-2.655463695526123,1.592692494392395,-0.594323992729187,1.7611361742019653,-0.23424559831619263
13.85,-0.7671113610267639,-1.356093406677246,1.4712591171264648,-0.8356667757034302,1.593195915222168,0.058724112808704376
13.875,-0.4747297167778015,0.7428226470947266,1.6979128122329712,-0.8942192792892456,1.4555565118789673,0.3013310432434082
13.9,-0.06922436505556107,2.869325637817383,1.7129520177841187,-0.6944178938865662,1.36357843875885,0.3940911293029785
13.925,0.11541884392499924,3.0764646530151367,1.2247365713119507,-0.1294679045677185,1.3884687423706055,0.31674909591674805
13.95,-0.36290886998176575,1.8525333404541016,0.6692869663238525,0.17503151297569275,1.3810580968856812,0.2713627219200134
13.975,-1.137323260307312,0.4557313919067383,0.36449989676475525,0.3847863972187042,1.2390847206115723,0.14303618669509888
14.0,-1.6554272174835205,-0.5432376861572266,0.30976682901382446,0.4572376310825348,1.2273762226104736,0.08535361289978027
14.025,-1.7561670541763306,-1.1175546646118164,0.2926422953605652,0.4753754734992981,1.307900071144104,0.12323416769504547
14.05,-1.6113770008087158,-1.3956489562988281,0.10010485351085663,0.5629945397377014,1.3648407459259033,0.17459258437156677
14.075,-1.4428167343139648,-1.3279504776000977,-0.3310399353504181,0.5971720814704895,1.3722875118255615,0.25770947337150574
14.1,-1.222925066947937,-1.0996551513671875,-0.7048382759094238,0.6158688068389893,1.2932623624801636,0.3262902498245239
14.125,-0.9108406901359558,-0.8796052932739258,-0.910071074962616,0.6149320602416992,1.1137739419937134,0.40133753418922424
14.15,-0.7648542523384094,-0.6505584716796875,-1.0084999799728394,0.5529842376708984,0.8011773824691772,0.4564322233200073
14.175,-0.8491541147232056,-0.46422863006591797,-1.0791913270950317,0.5382671356201172,0.4816882014274597,0.4561496078968048
14.2,-0.7635987997055054,-0.09859561920166016,-1.2115185260772705,0.3942156136035919,0.2551599144935608,0.5401619672775269
14.225,-0.3249577283859253,0.7591552734375,-0.7808382511138916,0.11293525993824005,0.22531461715698242,1.027823567390442
14.25,0.2381804883480072,1.5717763900756836,0.6404218673706055,0.3466414213180542,0.19138547778129578,1.1624679565429688
14.275,0.8935584425926208,2.34323787689209,2.195380210876465,0.4156337380409241,0.09353870153427124,1.3137156963348389
14.3,1.3540509939193726,2.738490104675293,2.6134114265441895,0.5024311542510986,0.041506826877593994,1.2727453708648682
14.325,1.750274419784546,1.9249496459960938,2.2079520225524902,0.5619932413101196,0.0625523030757904,0.8419927954673767
14.35,1.900762677192688,0.4225797653198242,1.7774808406829834,0.5977321267127991,0.11866635084152222,0.35676610469818115
14.375,1.3623653650283813,-0.6459321975708008,1.4016122817993164,0.4575139582157135,0.28559350967407227,0.27584514021873474
14.4,0.5574053525924683,-1.2011528015136719,1.122712254524231,0.1613689512014389,0.4248295724391937,0.17498613893985748
14.425,-0.08443707227706909,-1.3155832290649414,1.2825254201889038,-0.16914719343185425,0.5380173921585083,-0.24538369476795197
14.45,-0.4215129613876343,-0.911076545715332,1.6153714656829834,-0.6326450109481812,0.6448622941970825,-0.3279874324798584
14.475,-0.6053525805473328,-0.2623004913330078,1.3045185804367065,-0.9161580801010132,0.8888165950775146,0.19692471623420715
14.5,-0.2147911787033081,-0.3156471252441406,0.48334288597106934,-0.6870970129966736,1.2581324577331543,0.591925323009491
14.525,0.3484208881855011,-0.6911239624023438,-0.36008358001708984,-0.5824753642082214,1.2774702310562134,0.7237932085990906
14.55,0.643456757068634,-0.6442594528198242,-0.7456210851669312,-0.670769214630127,1.1637369394302368,0.8785629272460938
14.575,0.8984456658363342,-0.5670986175537109,-0.7570735812187195,-0.6583949327468872,1.0722261667251587,0.7655184268951416
14.6,0.953843355178833,-0.6337728500366211,-0.7343513369560242,-0.7310787439346313,0.9372066259384155,0.5386136770248413
14.625,0.9903036952018738,-0.6549577713012695,-0.5844807028770447,-0.7163279056549072,1.0223729610443115,0.3783652186393738
14.65,1.1484493017196655,-0.5050621032714844,-0.21354332566261292,-0.6376664042472839,1.2245852947235107,0.3810930550098419
14.675,1.3556946516036987,-0.04508209228515625,0.07540445774793625,-0.5858170986175537,1.389375925064087,0.4660004675388336
14.7,1.599762201309204,0.6693897247314453,-0.07452689111232758,-0.5646250247955322,1.5194610357284546,0.5151074528694153
14.725,1.644594669342041,1.1250848770141602,-0.5864484906196594,-0.5603505373001099,1.6270467042922974,0.41018691658973694
14.75,1.2148962020874023,1.1718034744262695,-0.9907218813896179,-0.657041072845459,1.7037760019302368,0.2210969179868698
14.775,0.06364931166172028,1.4349908828735352,-0.9546274542808533,-0.821215033531189,1.6524678468704224,0.131695955991745
14.8,-1.0669647455215454,1.5226716995239258,-0.5281130075454712,-1.1655406951904297,1.3533761501312256,0.6242035031318665
14.825,-0.5859415531158447,0.7665166854858398,0.7153264284133911,-1.1069307327270508,0.5733343362808228,-0.0978790745139122
14.85,-0.4064558744430542,1.1875190734863281,1.8009562492370605,-1.0595723390579224,0.17176678776741028,0.005033552646636963
14.875,-0.5148777365684509,1.4267387390136719,2.4880805015563965,-0.9070718288421631,0.07655264437198639,-0.08358241617679596
14.9,-0.528465211391449,0.7496738433837891,2.6915323734283447,-0.6180652379989624,0.22882772982120514,0.009532120078802109
14.925,-0.25846126675605774,0.14324092864990234,2.6116206645965576,-0.31543654203414917,0.3110883831977844,0.04061117395758629
14.95,-0.047335922718048096,-0.34597206115722656,2.188248872756958,-0.10670395195484161,0.6454476714134216,0.03260538727045059
14.975,0.003862731158733368,-0.9896259307861328,1.3657352924346924,0.039519600570201874,1.0656932592391968,0.09749826788902283
15.0,-0.36747127771377563,-1.1264209747314453,0.7832549214363098,0.15307122468948364,1.2614996433258057,0.5138706564903259
15.025,-0.7794702053070068,-0.355987548828125,1.0577466487884521,0.21762271225452423,1.0947550535202026,0.6757092475891113
15.05,-0.9426327347755432,0.8594646453857422,1.5626415014266968,0.04959193617105484,0.8228492140769958,0.6300760507583618
15.075,-1.0297425985336304,1.6333723068237305,1.5861656665802002,-0.2936588227748871,0.6917684674263,0.5058947205543518
15.1,-0.7569806575775146,1.4115066528320312,1.4022384881973267,-0.5362597107887268,0.7088801860809326,0.12692822515964508
15.125,-0.16704623401165009,0.6319360733032227,1.2673933506011963,-0.5881341695785522,0.8286721110343933,-0.30561563372612
15.15,0.38179320096969604,-0.12335205078125,1.1346635818481445,-0.5006827712059021,0.9712648391723633,-0.3027656078338623
15.175,0.507245659828186,-0.36695384979248047,0.8665998578071594,-0.30417880415916443,1.3598535060882568,0.003140721470117569
15.2,0.4417271614074707,-0.1771402359008789,0.5092176795005798,-0.14471176266670227,1.7108150720596313,0.13688570261001587
15.225,0.5260547399520874,-0.011762619018554688,0.18281371891498566,-0.18474321067333221,1.8492960929870605,0.1634504348039627
15.25,0.6260271072387695,-0.15102863311767578,0.0377156138420105,-0.4057776629924774,1.9041377305984497,0.1266634166240692
15.275,0.5128138661384583,-0.34427928924560547,0.14355947077274323,-0.674391508102417,1.9590028524398804,0.09531134366989136
15.3,0.5374780893325806,-0.2792243957519531,0.32712650299072266,-0.8960850834846497,1.8997031450271606,0.09323659539222717
15.325,0.6543283462524414,0.12462902069091797,0.26860859990119934,-1.0885928869247437,1.7666163444519043,0.09274879097938538
15.35,0.5296756029129028,0.9392681121826172,-0.1907656192779541,-1.1148927211761475,1.771710991859436,0.2598405182361603
15.375,-0.10351356863975525,2.009319305419922,-0.8294417262077332,-0.9515427350997925,1.86152184009552,0.41981393098831177
15.4,-0.8647722601890564,2.629960060119629,-1.1991403102874756,-0.6794697642326355,1.8864030838012695,0.34848612546920776
15.425,-1.1342521905899048,2.3085060119628906,-1.348559856414795,-0.46472522616386414,1.768369197845459,-0.013039346784353256
15.45,-1.1093621253967285,1.5246915817260742,-1.4953142404556274,-0.33667904138565063,1.4908664226531982,-0.35124948620796204
15.475,-1.1529914140701294,0.7451887130737305,-1.320785403251648,-0.1844387799501419,1.1833727359771729,-0.5274606943130493
15.5,-0.8633906841278076,0.045440673828125,-0.9505695700645447,-0.08664089441299438,0.8004685044288635,-0.6675084829330444
15.525,-0.35159948468208313,-0.4051704406738281,-0.5548657178878784,-0.022898569703102112,0.5200244188308716,-0.7529513239860535
15.55,0.04600907489657402,-0.5136852264404297,-0.08270814269781113,0.06662844121456146,0.45364993810653687,-0.7490808367729187
15.575,0.19027864933013916,-0.4125022888183594,0.36233747005462646,0.12568378448486328,0.45682480931282043,-0.6381848454475403
15.6,0.20035520195960999,-0.29555511474609375,0.6315816640853882,0.1277618408203125,0.48803454637527466,-0.4841565489768982
15.625,0.138060063123703,-0.15761280059814453,0.68636155128479,0.08928323537111282,0.603779137134552,-0.348688006401062
15.65,-0.033922478556632996,-0.03761863708496094,0.6572532653808594,0.022218957543373108,0.697624921798706,-0.2954692840576172
15.675,-0.1165134608745575,0.06879425048828125,0.5365680456161499,-0.02077302895486355,0.7517813444137573,-0.30635419487953186
15.7,-0.20370285212993622,0.17406749725341797,0.36056408286094666,0.0198558047413826,0.8203980922698975,-0.34317052364349365
15.725,-0.291652649641037,0.1302947998046875,0.19988475739955902,0.08047062903642654,0.7926323413848877,-0.3932945132255554
15.75,-0.23557335138320923,-0.12442970275878906,0.13688841462135315,0.04766225069761276,0.6860929131507874,-0.5170532464981079
15.775,-0.006733494810760021,-0.3416290283203125,0.23780468106269836,-0.011190041899681091,0.5318865180015564,-0.5320349335670471
15.8,0.34709805250167847,-0.32264137268066406,0.4087640345096588,-0.09629969298839569,0.36760270595550537,-0.48223623633384705
15.825,0.741678774356842,-0.13264179229736328,0.5042335987091064,-0.12517322599887848,0.3242684006690979,-0.38936492800712585
15.85,0.900597095489502,0.08015155792236328,0.5390857458114624,-0.13682258129119873,0.2492876946926117,-0.3540259301662445
15.875,0.8282484412193298,0.2983846664428711,0.5330948233604431,-0.07130670547485352,0.22563853859901428,-0.3281060457229614
15.9,0.6988183259963989,0.30585575103759766,0.5191487669944763,-0.08449876308441162,0.23060137033462524,-0.3810778558254242
15.925,0.3728277087211609,0.2359638214111328,0.4485439360141754,-0.08468624949455261,0.27419763803482056,-0.3332235515117645
15.95,-0.23591625690460205,0.26174163818359375,0.26791372895240784,-0.03502345085144043,0.3529556095600128,-0.24978002905845642
15.975,-0.8268503546714783,0.061774253845214844,-0.1742163747549057,0.14073491096496582,0.4459267258644104,-0.21678456664085388
16.0,-1.0674357414245605,-0.6598968505859375,-0.7966955900192261,0.294961541891098,0.5071284770965576,-0.4528587758541107
16.025,-1.0535492897033691,-1.2935819625854492,-1.2736327648162842,0.45512157678604126,0.5662015676498413,-0.6717708706855774
16.05,-1.0428839921951294,-1.4792766571044922,-1.4891719818115234,0.6031205654144287,0.542177677154541,-0.6860212683677673
16.075,-1.1136773824691772,-1.1666326522827148,-1.60335373878479,0.6942440867424011,0.45994359254837036,-0.47688254714012146
16.1,-1.0409865379333496,-0.3641977310180664,-1.9316513538360596,0.7125635147094727,0.3852747082710266,-0.24279797077178955
16.125,-0.6973328590393066,0.7758998870849609,-2.3582770824432373,0.6813569664955139,0.33966970443725586,-0.14119046926498413
16.15,-0.19171009957790375,1.7487859725952148,-2.5479190349578857,0.5588575005531311,0.23462294042110443,-0.23702922463417053
16.175,0.1246054545044899,2.0055618286132812,-2.545527219772339,0.40442758798599243,0.08688453584909439,-0.3261417746543884
16.2,-0.042050570249557495,1.6434440612792969,-2.4044432640075684,0.17977851629257202,0.07613102346658707,-0.31883764266967773
16.225,-0.3713168501853943,0.9674921035766602,-2.3457753658294678,-0.09873323142528534,0.16941581666469574,-0.3990291357040405
16.25,-0.5823849439620972,0.3388824462890625,-2.4269936084747314,-0.18703608214855194,0.2937614917755127,-0.5507965683937073
16.275,-0.7405049204826355,-0.03711414337158203,-2.4992449283599854,-0.13296040892601013,0.39847129583358765,-0.6563486456871033
16.3,-0.9662118554115295,-0.21684932708740234,-2.457207202911377,-0.1208842471241951,0.4701436161994934,-0.7374371290206909
16.325,-1.1318206787109375,-0.3686208724975586,-2.413257598876953,-0.18758819997310638,0.47602999210357666,-0.8072898387908936
16.35,-1.1836671829223633,-0.5197000503540039,-2.381643295288086,-0.2632791996002197,0.40779802203178406,-0.8229290246963501
16.375,-1.1832703351974487,-0.6334953308105469,-2.3204922676086426,-0.2826211154460907,0.34549906849861145,-0.7579432725906372
16.4,-1.2706079483032227,-0.7142763137817383,-2.3932595252990723,-0.2990036606788635,0.3193933665752411,-0.7042290568351746
16.425,-1.4841258525848389,-0.6391839981079102,-2.693105697631836,-0.2975156605243683,0.21930038928985596,-0.6458088159561157
16.45,-1.6334763765335083,-0.3125591278076172,-3.088636875152588,-0.26111334562301636,0.11923720687627792,-0.6245273351669312
16.475,-1.6071208715438843,0.1753396987915039,-3.3966078758239746,-0.20317459106445312,0.014293096959590912,-0.573294460773468
16.5,-1.490285038948059,0.6592826843261719,-3.560521125793457,-0.18118254840373993,-0.19799870252609253,-0.3950725793838501
16.525,-1.2126033306121826,0.8947610855102539,-3.599687337875366,-0.2610984444618225,-0.3824927806854248,-0.18963274359703064
16.55,-0.8679404258728027,0.9500646591186523,-3.2671008110046387,-0.34229519963264465,-0.46018925309181213,0.0020053666085004807
16.575,-0.3226592540740967,0.7978706359863281,-2.654254674911499,-0.41236791014671326,-0.5282366871833801,0.17686662077903748
16.6,0.2512899935245514,0.4569883346557617,-1.741073727607727,-0.3632129430770874,-0.6626121401786804,0.42470964789390564
16.625,0.43010613322257996,-0.22351741790771484,-0.4425821602344513,-0.35923659801483154,-0.48897111415863037,0.49668267369270325
16.65,0.2802751064300537,-0.9009828567504883,1.2725944519042969,-0.21509826183319092,0.09464112669229507,0.35320577025413513
16.675,0.19641952216625214,-0.9771842956542969,2.629770040512085,0.06172250211238861,0.17958486080169678,0.2992914617061615
16.7,-0.052423492074012756,-0.3642892837524414,2.998927354812622,0.20712874829769135,0.08435479551553726,0.22836118936538696
16.725,-0.6168001294136047,1.4845123291015625,3.2461249828338623,0.6669329404830933,0.038760311901569366,0.3702837824821472
16.75,-0.6563011407852173,3.347487449645996,3.577932596206665,0.8543733358383179,-0.09176602959632874,0.4308578670024872
16.775,-0.16753599047660828,4.264657020568848,3.0040552616119385,0.7230114936828613,-0.22656658291816711,0.4068617522716522
16.8,0.11191686987876892,3.991480827331543,2.05726957321167,0.5804497003555298,-0.516631007194519,0.13834519684314728
16.825,0.05703364312648773,3.166928291320801,1.7907638549804688,0.6716192960739136,-1.0165656805038452,0.1962207406759262
16.85,0.24090799689292908,1.2810678482055664,1.83981454372406,0.6052252650260925,-1.300221562385559,0.04408768564462662
16.875,0.41948384046554565,-1.50262451171875,1.068713665008545,0.45627927780151367,-1.2142518758773804,-0.2048378735780716
16.9,0.37668856978416443,-4.266125202178955,-0.11353466659784317,0.21797960996627808,-1.1496309041976929,-0.3969893753528595
16.925,0.22826585173606873,-6.727033615112305,-0.7613018155097961,-0.14635860919952393,-1.1576218605041504,-0.622123122215271
16.95,0.27963680028915405,-8.950358390808105,-0.8391790986061096,-0.6841186285018921,-1.1279945373535156,-0.8774064779281616
16.975,0.7240128517150879,-10.146979331970215,-0.3037024140357971,-1.0213745832443237,-0.9612320065498352,-0.8009378910064697
17.0,1.4329197406768799,-8.96280574798584,0.8009053468704224,-0.3820188045501709,-0.6535456776618958,0.4968748092651367
17.025,1.5165750980377197,-5.063995361328125,1.549081802368164,0.4991278052330017,-0.13401614129543304,1.8375484943389893
17.05,0.48364749550819397,3.094456672668457,1.4877514839172363,1.0424325466156006,0.39989566802978516,2.1636626720428467
17.075,-0.8910847902297974,12.053648948669434,1.0332282781600952,1.7667478322982788,0.7529315948486328,1.787550687789917
17.1,-2.106562376022339,11.361554145812988,-0.9192004203796387,1.3849115371704102,0.8233387470245361,0.2807857394218445
17.125,-3.5675768852233887,6.768126487731934,-2.221794843673706,0.45457080006599426,1.6140745878219604,-0.8933441042900085
17.15,-3.629979133605957,3.4455432891845703,-2.836803674697876,-0.19091401994228363,0.9415481090545654,-0.6822605133056641
17.175,-2.8886568546295166,1.4786815643310547,-2.8415799140930176,-0.6415095329284668,0.5028872489929199,-0.7377489805221558
17.2,-2.3750033378601074,-0.023069381713867188,-2.7280361652374268,-0.9595885872840881,0.18512800335884094,-0.7858192920684814
17.225,-2.5643341541290283,-0.5691089630126953,-2.562925100326538,-0.6495547294616699,0.007992919534444809,-0.36307281255722046
17.25,-2.6670539379119873,-0.48182106018066406,-2.2962896823883057,-0.3104110360145569,-0.22849102318286896,0.1125333160161972
17.275,-2.143836259841919,-1.4274110794067383,-2.002737045288086,-0.5550922155380249,-0.2705388069152832,-0.08877155184745789
17.3,-1.2435202598571777,-3.1671876907348633,-1.3441507816314697,-0.5827428102493286,-0.30259180068969727,-0.3574288487434387
17.325,-0.544680655002594,-3.9223804473876953,0.14203523099422455,-0.2112654149532318,-0.4701354503631592,-0.43296563625335693
17.35,0.031903088092803955,-2.4039297103881836,2.323026418685913,0.37523576617240906,-0.6593839526176453,-0.11620600521564484
17.375,1.320956826210022,1.7252683639526367,4.520352363586426,0.709153950214386,-0.8395317196846008,0.2687039375305176
17.4,3.9130866527557373,6.964739799499512,6.161174774169922,0.8979169130325317,-0.8425941467285156,0.9199696779251099
17.425,6.16214656829834,8.268511772155762,7.321191787719727,0.4700615406036377,-0.8081383109092712,0.4050722122192383
17.45,4.086238384246826,6.470088005065918,7.20712947845459,0.0811396911740303,-0.6346052289009094,0.37067165970802307
17.475,1.778977394104004,2.68039608001709,5.348989486694336,-0.8039566278457642,-0.04647170007228851,-0.08029155433177948
17.5,1.349287509918213,-0.5375604629516602,3.7289886474609375,-0.738426685333252,0.1938917338848114,-0.024203617125749588
17.525,1.4476161003112793,-3.209506034851074,2.155773162841797,-0.7357859015464783,0.12154339253902435,-0.18972818553447723
17.55,0.9364363551139832,-5.19123649597168,0.5371830463409424,-0.9906757473945618,-0.17647947371006012,-0.1552782952785492
17.575,0.3394027650356293,-6.732668399810791,-0.5872445702552795,-1.239637017250061,-0.3540841341018677,-0.25969189405441284
17.6,-0.045307330787181854,-8.511127471923828,-0.9830878376960754,-1.5873305797576904,-0.43947675824165344,-0.7182604670524597
17.625,-0.4192100763320923,-9.283690452575684,-0.8197335004806519,-1.5428141355514526,-0.3983006477355957,-0.7800135016441345
17.65,-1.00188148021698,-8.043009757995605,-0.5560702681541443,-0.6859354972839355,-0.15722957253456116,-0.08801378309726715
17.675,-1.3483365774154663,-5.946539878845215,-0.5189580321311951,0.36674538254737854,0.24876068532466888,0.421181321144104
17.7,-1.2051187753677368,-2.3991174697875977,-0.6442760825157166,0.982356607913971,0.42105406522750854,0.3319736123085022
17.725,-1.2880791425704956,6.949334144592285,-1.1202436685562134,1.8433390855789185,0.16397255659103394,0.8188576698303223
17.75,-1.8108412027359009,16.34925079345703,-1.5906891822814941,2.3618757724761963,-0.39630618691444397,1.2805663347244263
17.775,-0.6026321053504944,11.421477317810059,-1.7398654222488403,0.40544939041137695,-0.8142621517181396,-0.4885875880718231
17.8,0.44562697410583496,4.951298713684082,-1.4684711694717407,0.21417319774627686,-0.40639007091522217,-0.678057849407196
17.825,0.12184469401836395,2.0056562423706055,-2.206322431564331,0.046783413738012314,-0.030366256833076477,-1.2765936851501465
17.85,-0.10898178815841675,0.5823688507080078,-3.2918789386749268,0.25130775570869446,-0.40973514318466187,-1.36123788356781
17.875,0.1680418998003006,0.19154739379882812,-3.611093521118164,0.2791704833507538,-1.2830731868743896,-1.1068079471588135
17.9,0.6655511856079102,-0.004164695739746094,-3.3892195224761963,0.07873266190290451,-1.974141240119934,-1.099857211112976
17.925,0.8835510015487671,0.10264968872070312,-2.527045488357544,0.10921009629964828,-2.3583526611328125,-0.901326596736908
17.95,1.0308175086975098,0.0888509750366211,-1.1206003427505493,0.07528316229581833,-2.7064342498779297,-0.914192259311676
17.975,1.3888381719589233,-0.253387451171875,0.38613489270210266,-0.10521670430898666,-3.0215671062469482,-1.2248774766921997
18.0,1.4214709997177124,-0.9041996002197266,2.039693832397461,-0.2132774442434311,-3.1997008323669434,-1.4326738119125366
18.025,0.8228212594985962,-1.6013813018798828,3.4162979125976562,-0.2943387031555176,-3.4510374069213867,-1.1924326419830322
18.05,0.36555489897727966,-1.9493980407714844,3.774582862854004,-0.3175051212310791,-3.5674235820770264,-0.9451156258583069
18.075,0.42252686619758606,-1.474471092224121,3.4949777126312256,-0.3285728991031647,-3.5413472652435303,-0.7527182102203369
18.1,0.7401003241539001,-0.7817697525024414,2.7337000370025635,-0.44279423356056213,-3.5535244941711426,-0.47303643822669983
18.125,1.3738707304000854,-0.1730813980102539,2.1519391536712646,-0.4943919777870178,-3.6168696880340576,-0.3477639853954315
18.15,2.0512802600860596,0.9820671081542969,2.3381688594818115,-0.45691198110580444,-3.7676844596862793,-0.22427617013454437
18.175,2.055504083633423,1.9876642227172852,2.770221471786499,-0.20137494802474976,-3.837188720703125,-0.26005473732948303
18.2,1.3192185163497925,1.9129419326782227,3.0323586463928223,-0.12158507853746414,-3.9367904663085938,-0.2677275836467743
18.225,0.4235619902610779,0.8860969543457031,3.120190143585205,0.021717825904488564,-3.9354076385498047,-0.6345048546791077
18.25,-0.37607890367507935,-0.08778762817382812,3.0211966037750244,0.18495860695838928,-3.913634777069092,-0.8573616743087769
18.275,-0.8086487054824829,-0.5685968399047852,2.6477839946746826,0.2504405379295349,-3.823298692703247,-0.7966957092285156
18.3,-0.9885158538818359,-0.8049898147583008,2.3372974395751953,0.3195943832397461,-3.7978086471557617,-0.7011115550994873
18.325,-1.2619372606277466,-0.7791662216186523,2.3581576347351074,0.21039167046546936,-3.8055171966552734,-0.5871681571006775
18.35,-1.620644450187683,-0.6037807464599609,2.2363388538360596,0.0867980346083641,-3.8692703247070312,-0.726010799407959
18.375,-1.8239656686782837,-0.2862873077392578,1.7477054595947266,-0.0638919323682785,-3.7979187965393066,-0.8781908750534058
18.4,-1.912030577659607,-0.0021696090698242188,1.1919903755187988,-0.10938948392868042,-3.5616562366485596,-1.0243651866912842
18.425,-1.897577166557312,0.24456310272216797,0.905119776725769,-0.13816089928150177,-3.262164354324341,-1.1527178287506104
18.45,-1.8260302543640137,0.47879981994628906,0.8215765953063965,-0.05489461123943329,-2.9418797492980957,-1.1843938827514648
18.475,-1.3932297229766846,0.6555967330932617,0.7201074957847595,0.009607590734958649,-2.541940450668335,-0.9483168721199036
18.5,-0.5330312252044678,0.7874574661254883,0.5593125820159912,0.039396047592163086,-2.063436985015869,-0.5775433778762817
18.525,0.196935772895813,0.773472785949707,0.5944093465805054,0.09441176056861877,-1.7069988250732422,-0.25563880801200867
18.55,0.4739591181278229,0.5855684280395508,0.581967830657959,0.13557815551757812,-1.4715948104858398,-0.08733297139406204
18.575,0.5275942087173462,0.17011165618896484,0.5500581860542297,0.16550660133361816,-1.2685636281967163,-0.058452535420656204
18.6,0.5139490962028503,-0.14779090881347656,0.48729220032691956,0.18638356029987335,-1.0787479877471924,-0.07207943499088287
18.625,0.5166565179824829,-0.14240360260009766,0.18208914995193481,0.1969062089920044,-0.8947223424911499,-0.04108016937971115
18.65,0.48118481040000916,-0.2118844985961914,-0.041396427899599075,0.24015140533447266,-0.7573037147521973,0.01656114123761654
18.675,0.44351133704185486,-0.25380611419677734,-0.05568680539727211,0.20151016116142273,-0.6041620969772339,0.06795737147331238
18.7,0.44029760360717773,-0.08874225616455078,0.09352252632379532,0.09917259216308594,-0.4086412191390991,0.13371095061302185
18.725,0.4375022351741791,0.008460044860839844,0.18835534155368805,0.09320250898599625,-0.2491682767868042,0.12008168548345566
18.75,0.3680524230003357,0.11046791076660156,0.12048652023077011,0.05895090103149414,-0.09201626479625702,0.06620210409164429
18.775,0.2111055552959442,0.16487598419189453,-0.012891480699181557,0.07211440801620483,0.042774394154548645,0.008612602017819881
18.8,0.09049462527036667,0.10521793365478516,-0.18998977541923523,0.11981265246868134,0.12323063611984253,-0.0007210569456219673
18.825,0.011746753938496113,0.02337932586669922,-0.3104562759399414,0.08840327709913254,0.21381230652332306,0.06332526355981827
18.85,0.056027449667453766,0.03341960906982422,-0.2715807259082794,0.06418643891811371,0.3005828261375427,0.12558682262897491
18.875,0.24934887886047363,0.05592060089111328,-0.20957976579666138,0.04201479256153107,0.39337942004203796,0.12840749323368073
18.9,0.3982738256454468,0.06138324737548828,-0.20912401378154755,0.02601691335439682,0.45199841260910034,0.12566962838172913
18.925,0.43633681535720825,0.12813854217529297,-0.19349300861358643,0.015894731506705284,0.4578583240509033,0.08101685345172882
18.95,0.4166443645954132,0.1430950164794922,-0.11717046797275543,0.052469946444034576,0.4585835635662079,0.041280414909124374
18.975,0.28078311681747437,0.043560028076171875,0.0034509170800447464,0.0457853302359581,0.43739616870880127,0.03212376683950424
19.0,0.21351037919521332,0.00194549560546875,0.07921984046697617,-0.00858517736196518,0.4364185035228729,0.021887611597776413
19.025,0.2830111086368561,0.08620071411132812,0.07679123431444168,-0.05676707625389099,0.4647567570209503,0.0425579659640789
19.05,0.29508012533187866,0.08441448211669922,0.09184481203556061,-0.043972235172986984,0.4212988317012787,0.049603648483753204
19.075,0.27500084042549133,0.03915882110595703,0.19528402388095856,-0.04003763198852539,0.3798310160636902,0.043733734637498856
19.1,0.36052677035331726,0.08126449584960938,0.17207694053649902,-0.052588365972042084,0.36778873205184937,0.04282955825328827
19.125,0.4495903551578522,0.0572509765625,-0.02834450826048851,-0.03937705233693123,0.32948949933052063,0.03018396534025669
19.15,0.333041787147522,-0.06475067138671875,-0.20547369122505188,-0.06137373298406601,0.29280757904052734,0.004037926904857159
19.175,0.05094752460718155,-0.07268619537353516,-0.26110222935676575,-0.07495354861021042,0.28219616413116455,-0.004404024221003056
19.2,-0.1707884669303894,0.09321880340576172,-0.37637242674827576,-0.10883746296167374,0.30313557386398315,0.0061750635504722595
19.225,-0.4438736140727997,0.25308895111083984,-0.49288320541381836,-0.16950514912605286,0.35301077365875244,0.03024130128324032
19.25,-0.7100608348846436,0.2764272689819336,-0.46455591917037964,-0.1720198392868042,0.3975558876991272,0.0004533343017101288
19.275,-0.9172456860542297,0.2387075424194336,-0.4848672151565552,-0.16246145963668823,0.5207164287567139,-0.0023392662405967712
19.3,-1.3329278230667114,0.36367225646972656,-0.5684161186218262,-0.18296124041080475,0.6386240720748901,0.0027383463457226753
19.325,-2.0521488189697266,0.4622335433959961,-0.49810880422592163,-0.16339537501335144,0.7691289186477661,-0.014887534081935883
19.35,-2.8105108737945557,0.27163028717041016,-0.3139372766017914,-0.06449294090270996,1.0001510381698608,-0.034446023404598236
19.375,-3.516777276992798,0.034058570861816406,-0.029908940196037292,-0.04332171380519867,1.3007744550704956,-0.03176024556159973
19.4,-4.194830894470215,-0.1444406509399414,0.6071677207946777,0.04130777344107628,1.5519719123840332,-0.06839708238840103
19.425,-4.723012447357178,0.07717037200927734,1.4147902727127075,0.06972921639680862,1.8364603519439697,-0.09511376917362213
19.45,-4.903555870056152,0.6109619140625,2.3430612087249756,0.07301676273345947,2.222630023956299,-0.15303823351860046
19.475,-4.427267551422119,1.1902885437011719,3.346992015838623,0.19508284330368042,2.6864426136016846,-0.14713935554027557
19.5,-3.0773305892944336,1.999638557434082,3.9860260486602783,0.32483577728271484,3.188021659851074,-0.035542719066143036
19.525,-0.4038187563419342,1.9557390213012695,4.175175189971924,0.46111831068992615,3.7180213928222656,0.21977192163467407
19.55,2.1375629901885986,0.5802984237670898,3.759158134460449,0.8854885697364807,4.01185417175293,0.08985583484172821
19.575,3.58602237701416,-0.6102018356323242,2.323178291320801,0.9545136094093323,4.088760852813721,-0.15244857966899872
19.6,4.027968406677246,-1.1739826202392578,0.7438201308250427,0.8040594458580017,4.193569183349609,-0.2851719856262207
19.625,3.6654272079467773,-1.7741384506225586,-0.7093210816383362,0.7381680011749268,4.185323715209961,-0.3796156048774719
19.65,3.339259624481201,-1.8609495162963867,-1.6953458786010742,0.3295147716999054,4.201764106750488,-0.293790727853775
19.675,3.5924956798553467,-1.3833913803100586,-1.854958176612854,-0.29735067486763,4.376318454742432,0.047074541449546814
19.7,3.5213818550109863,0.10512161254882812,-0.7790225148200989,-0.6289293169975281,4.686983585357666,0.27388471364974976
19.725,3.649101495742798,1.9332752227783203,1.0464072227478027,-0.7228875756263733,4.797128677368164,0.609550952911377
19.75,5.598106861114502,3.0497913360595703,1.6962380409240723,-0.31039196252822876,5.336145401000977,0.7766351103782654
19.775,7.024027347564697,2.75445556640625,0.3255133628845215,0.7603127956390381,5.798490524291992,1.1790225505828857
19.8,5.454531192779541,0.2622814178466797,-1.1788619756698608,1.7303739786148071,5.715014457702637,0.7050886154174805
19.825,1.6858848333358765,-2.676163673400879,-2.111462116241455,1.5732303857803345,5.346628665924072,-0.07681897282600403
19.85,-3.0338377952575684,-4.700953483581543,-1.9099143743515015,0.9302256107330322,5.098850250244141,-0.6214985847473145
19.875,-5.063729286193848,-5.614475250244141,0.3355371952056885,0.3790907561779022,5.133011817932129,-0.43156898021698
19.9,-2.482116460800171,-4.715733051300049,2.5015811920166016,0.2768494188785553,4.854238986968994,0.32991719245910645
19.925,3.2775654792785645,0.8092260360717773,0.9508203268051147,0.6056942343711853,3.654489517211914,1.8638139963150024
19.95,6.569386005401611,7.602139472961426,-4.100916385650635,1.7100194692611694,2.852754592895508,2.881460666656494
19.975,3.0755858421325684,5.237561225891113,-5.519192695617676,-0.43189314007759094,3.0182836055755615,-1.3933823108673096
20.0,-0.16518133878707886,0.6734819412231445,-4.154989719390869,-0.8698579668998718,2.3427140712738037,-1.0484626293182373
20.025,-1.8551081418991089,-2.6504998207092285,-2.5094711780548096,-1.4812366962432861,2.764254331588745,-0.5434517860412598
20.05,-1.6097322702407837,-2.810372829437256,-2.125058889389038,-0.6012977957725525,2.2021484375,0.27154111862182617
20.075,-0.6848354339599609,1.1222572326660156,-2.371124744415283,0.9081864953041077,1.724057912826538,0.7490969300270081
20.1,-0.5030091404914856,4.38273811340332,-2.945767879486084,0.7143725752830505,1.336932897567749,0.7363385558128357
20.125,-1.6020991802215576,4.984109878540039,-3.39981746673584,0.3232133984565735,1.1020042896270752,0.5679055452346802
20.15,-2.26401686668396,3.6270713806152344,-2.5674986839294434,0.2963879704475403,0.7391045093536377,0.5695368051528931
20.175,-1.7501617670059204,1.9802446365356445,0.1990363597869873,-0.1932579129934311,0.4524025619029999,0.6150920391082764
20.2,-1.118912935256958,1.7942590713500977,2.309107780456543,-0.6860033869743347,0.328906774520874,0.33302175998687744
20.225,-1.4335601329803467,2.8287277221679688,3.554733991622925,-0.7886599898338318,0.2069634199142456,-0.012126721441745758
20.25,-1.6108689308166504,2.5768823623657227,3.7339560985565186,-1.8211238384246826,0.13963867723941803,-0.8116191029548645
20.275,-0.9601951241493225,1.1067743301391602,1.6184556484222412,-2.349764823913574,0.31553804874420166,-1.357506513595581
20.3,-1.1471116542816162,-1.0249338150024414,-2.6846683025360107,-2.3871724605560303,0.628800094127655,-1.48336660861969
20.325,-1.5599371194839478,-2.989184856414795,-4.471118450164795,-1.6451966762542725,0.5869818925857544,-1.3172587156295776
20.35,-1.185126781463623,-4.98402738571167,-3.663634777069092,-1.4156360626220703,0.4410254955291748,-1.342017412185669
20.375,-0.30290544033050537,-4.9839959144592285,-2.27392578125,-1.0688897371292114,-0.20013056695461273,-0.5301434993743896
20.4,0.7332960963249207,-2.065485954284668,-0.8170273900032043,0.4067985713481903,-0.45587751269340515,0.4684739112854004
20.425,1.1517651081085205,-0.2839326858520508,1.1029412746429443,-0.38945716619491577,-0.504485011100769,0.3023887574672699
20.45,0.7734673619270325,-0.8122577667236328,1.747157096862793,-0.2049245983362198,-0.7200779318809509,0.2552056610584259
20.475,0.4945753216743469,-1.288055419921875,1.117003083229065,0.1256038099527359,-0.7589029669761658,-0.05309827998280525
20.5,0.24355441331863403,-1.3484840393066406,0.05781395360827446,0.1338920295238495,-0.5768948197364807,-0.3435249328613281
20.525,0.3348156809806824,-1.5005006790161133,-0.8162811994552612,0.031210657209157944,-0.49642106890678406,-0.18580886721611023
20.55,0.7038933038711548,-1.9418401718139648,-1.3841519355773926,-0.06153382360935211,-0.4960509240627289,0.09721818566322327
20.575,0.9850340485572815,-2.179533004760742,-2.078068733215332,0.12131422013044357,-0.5386453866958618,0.2449924200773239
20.6,1.374258279800415,-1.576981544494629,-2.2020554542541504,0.7651415467262268,-0.6258505582809448,0.5001446008682251
20.625,1.2362260818481445,-0.5922279357910156,-0.8246787190437317,1.4359912872314453,-0.4995294213294983,0.6152744293212891
20.65,-0.2568254768848419,-0.42049694061279297,1.0836224555969238,1.5878969430923462,-0.5784200429916382,0.8194674849510193
20.675,-3.172801971435547,-1.9448351860046387,4.264520645141602,1.0609124898910522,-0.6797711253166199,0.8883064985275269
20.7,-3.439119815826416,-0.5161752700805664,9.1455078125,1.1227333545684814,-0.7506712079048157,1.2197567224502563
20.725,5.516858100891113,3.293084144592285,4.881817817687988,3.1788907051086426,-1.201022744178772,2.878218412399292
20.75,9.611013412475586,3.156757354736328,-9.914494514465332,4.468678951263428,0.3451463580131531,2.125537872314453
20.775,0.8265068531036377,6.070962905883789,-4.698150157928467,-0.03188370168209076,0.9289164543151855,-2.315253734588623
20.8,-5.372816562652588,13.651041984558105,0.8771777153015137,4.980878829956055,0.48495325446128845,0.9242744445800781
20.825,-1.3590975999832153,10.485993385314941,-2.6185789108276367,-1.459079384803772,-3.6713829040527344,0.12149068713188171
20.85,-0.9279863238334656,5.492611885070801,-1.793760895729065,-1.6055527925491333,-0.44061532616615295,-2.239534616470337
20.875,-0.04090148210525513,0.9649667739868164,-6.282138347625732,-1.2438132762908936,-0.5721807479858398,-1.0858619213104248
20.9,1.3716930150985718,-2.268439769744873,-4.38019323348999,-2.4377667903900146,-0.6404793858528137,-1.8742032051086426
20.925,-1.1729798316955566,1.8633747100830078,2.6793131828308105,-0.08652333915233612,-0.9898752570152283,-0.3185281753540039
20.95,-3.7850430011749268,2.804755210876465,-1.492005705833435,-2.570836067199707,-1.655873417854309,-1.0146796703338623
20.975,0.7389659881591797,2.88608455657959,1.6460835933685303,0.47975245118141174,-2.2348313331604004,0.6731434464454651
21.0,2.1289725303649902,-1.5720233917236328,1.6549713611602783,-2.1898751258850098,0.05419977381825447,-2.0000696182250977
21.025,1.1914396286010742,-4.320126056671143,1.266609787940979,-1.8898307085037231,0.19591748714447021,-1.6396833658218384
21.05,0.32351428270339966,-3.570124626159668,2.233332395553589,-1.166256308555603,-0.23023314774036407,-0.6515037417411804
21.075,0.6944782733917236,-4.008508682250977,1.7807610034942627,-0.500024139881134,0.052540477365255356,-0.6553429365158081
21.1,-0.25245988368988037,-4.905539035797119,0.6667886972427368,-1.1625192165374756,0.5486541986465454,-1.2856740951538086
21.125,-0.976300835609436,-2.4432358741760254,-0.3013198673725128,0.40189269185066223,-0.04117101803421974,0.24776972830295563
21.15,-0.5038143992424011,-1.417440414428711,-0.5116702914237976,0.01581048220396042,-0.08039844781160355,-0.04546505585312843
21.175,0.49940699338912964,-1.1196203231811523,-1.7194147109985352,0.13511976599693298,0.15458354353904724,0.2224934697151184
21.2,1.6949841976165771,-3.1895389556884766,-1.8349363803863525,-0.21274185180664062,0.3936478793621063,-0.5085359215736389
21.225,1.4493452310562134,-4.23483419418335,-0.793654203414917,0.5559664964675903,0.25669440627098083,0.37619414925575256
21.25,1.3969897031784058,-2.8553237915039062,-1.2663297653198242,0.9048202037811279,0.17298534512519836,1.1814196109771729
21.275,2.3818283081054688,-1.0049047470092773,-3.0832550525665283,1.2238099575042725,0.48559972643852234,1.6084071397781372
21.3,2.2683448791503906,1.3968896865844727,-3.516842842102051,1.7650890350341797,0.4087366461753845,1.906861424446106
21.325,1.185701608657837,3.179572105407715,-2.8563098907470703,1.4351203441619873,0.04264071583747864,1.825859785079956
21.35,-0.35904210805892944,4.372265815734863,-1.5635933876037598,1.8581047058105469,0.024892188608646393,1.9220904111862183
21.375,-0.3174700438976288,3.1350879669189453,-0.047292351722717285,1.1792343854904175,0.1253146082162857,1.23262357711792
21.4,0.24481885135173798,2.0774126052856445,0.1520037055015564,0.9530574679374695,0.4123210310935974,0.8710444569587708
21.425,0.42127862572669983,1.2994613647460938,-0.37210503220558167,0.5668275356292725,0.2508307993412018,0.5712298154830933
21.45,0.5032166242599487,-0.49831485748291016,-0.6223452687263489,-0.4286877512931824,0.22067579627037048,-0.08937080949544907
21.475,0.049767233431339264,-1.163315773010254,-0.6854769587516785,-0.025286875665187836,0.48281657695770264,0.0673309937119484
21.5,-0.1188274398446083,-0.9122562408447266,-0.8242778182029724,0.4076394736766815,0.34006184339523315,0.2671434283256531
21.525,0.13120169937610626,-0.13619518280029297,-0.3926488757133484,0.7485464811325073,0.10641968995332718,0.4731735587120056
21.55,-0.24992519617080688,0.6735296249389648,0.3362235724925995,0.6168858408927917,0.09565117210149765,0.4226827025413513
21.575,-1.0553960800170898,1.3719329833984375,0.9979713559150696,0.5129685401916504,-0.005638467147946358,0.43925902247428894
21.6,-1.1523491144180298,1.4317903518676758,1.1472878456115723,0.30787375569343567,-0.09337837994098663,0.31676268577575684
21.625,-0.7518637776374817,0.7759504318237305,0.7924543619155884,-0.10093732923269272,-0.1059015765786171,0.06755637377500534
21.65,-0.701834499835968,0.3189582824707031,0.5401308536529541,-0.22855569422245026,-0.18793444335460663,0.05685404688119888
21.675,-0.85173499584198,0.2584495544433594,0.644371747970581,0.05398839712142944,-0.2745441794395447,0.25401178002357483
21.7,-0.7691673636436462,0.16994571685791016,0.6210530400276184,0.11379535496234894,-0.39326241612434387,0.269228458404541
21.725,-0.6051285862922668,0.23385143280029297,0.6169440746307373,0.21332749724388123,-0.46173375844955444,0.3632396161556244
21.75,-0.5809133648872375,0.4572114944458008,0.7578212022781372,0.2074095606803894,-0.4705711305141449,0.4331579804420471
21.775,-1.088719129562378,0.49138450622558594,1.1151069402694702,0.1463853269815445,-0.3644936680793762,0.3150092363357544
21.8,-0.6854649186134338,0.31295108795166016,1.1668176651000977,0.27221643924713135,-0.47573885321617126,0.5138658881187439
21.825,-0.4111018180847168,-0.11043930053710938,0.9964681267738342,-0.15079163014888763,-0.4288484752178192,0.03303796052932739
21.85,-1.071919322013855,0.49703121185302734,1.210178017616272,0.31983494758605957,-0.3604443669319153,0.2978329658508301
21.875,-0.4970332384109497,0.03885841369628906,0.1278449296951294,0.11568862944841385,-0.3480604588985443,-0.02961093746125698
21.9,-0.8917847871780396,0.15948104858398438,-0.19775143265724182,0.25491824746131897,-0.2188701629638672,-0.08126096427440643
21.925,-0.8692561984062195,1.0473546981811523,-0.141816183924675,0.6171947121620178,-0.5260369777679443,0.37357544898986816
21.95,-0.5216847062110901,0.753626823425293,-0.6296619772911072,0.005620315670967102,-0.62392657995224,-0.03011937066912651
21.975,-0.2973289489746094,0.36720752716064453,-0.1608927994966507,-0.17369955778121948,-0.4359787404537201,-0.5556713938713074
22.0,-1.1206481456756592,0.5731668472290039,0.20377272367477417,-0.0550595223903656,-0.17029154300689697,-0.9554634690284729
22.025,-1.4904426336288452,0.6051874160766602,-0.0705595538020134,0.1779605746269226,-0.23510265350341797,-0.9787195920944214
22.05,-1.4532275199890137,0.2946128845214844,0.1634238064289093,0.23125141859054565,-0.5525116920471191,-0.8229231834411621
22.075,-1.512061357498169,0.19434642791748047,0.6234650015830994,0.3619329631328583,-0.6981517672538757,-0.44474831223487854
22.1,-1.288536787033081,0.724553108215332,1.0661107301712036,0.4800681471824646,-0.7904993891716003,0.011787256225943565
22.125,-0.5993193984031677,0.719111442565918,1.3336341381072998,0.15252447128295898,-0.8879993557929993,-0.03559248521924019
22.15,0.07345114648342133,0.6304636001586914,1.839868426322937,0.03553830087184906,-0.9179964065551758,-0.05816950276494026
22.175,0.6014817357063293,0.8117151260375977,2.584554433822632,-0.0308935958892107,-0.8577537536621094,-0.0053478749468922615
22.2,0.9492692351341248,0.7038869857788086,3.188577651977539,-0.2606354057788849,-0.629669725894928,-0.15126293897628784
22.225,1.157880187034607,0.3120851516723633,3.6282858848571777,-0.526917576789856,-0.404120534658432,-0.2821231484413147
22.25,1.8100509643554688,0.4685335159301758,3.7431600093841553,-0.46481069922447205,-0.14973440766334534,-0.004709608852863312
22.275,2.4790456295013428,0.8135004043579102,3.6555256843566895,-0.6186317205429077,-0.001995190978050232,-0.09443293511867523
22.3,2.7694642543792725,1.2588062286376953,4.076217174530029,-0.8751718997955322,0.025810718536376953,-0.3492140769958496
22.325,2.7361395359039307,2.0566282272338867,4.593685626983643,-0.9900028109550476,0.270830899477005,-0.22835510969161987
22.35,2.921251058578491,2.2125244140625,4.3352508544921875,-1.2800567150115967,0.6494500637054443,-0.3773840367794037
22.375,4.026296615600586,2.086928367614746,3.3144595623016357,-1.4971345663070679,1.1862311363220215,-0.49052807688713074
22.4,6.152683734893799,2.617145538330078,2.3155384063720703,-1.4828579425811768,1.9794501066207886,-0.38386476039886475
22.425,7.2996721267700195,3.0659637451171875,0.8410067558288574,-1.9459956884384155,2.651226043701172,-0.48831188678741455
22.45,5.373791694641113,2.930826187133789,-1.3583396673202515,-1.9389362335205078,3.596855640411377,-0.15886260569095612
22.475,3.1121766567230225,1.688267707824707,-4.091650009155273,-1.8927170038223267,4.475218296051025,-0.025665245950222015
22.5,0.521587610244751,-0.06373977661132812,-6.8298492431640625,-1.4793107509613037,5.077259540557861,-0.2703876793384552
22.525,-0.9787249565124512,-1.0712356567382812,-7.244831085205078,-0.7348930835723877,5.437564373016357,-0.8582066297531128
22.55,-1.3436083793640137,-2.614152431488037,-6.3459038734436035,-0.9827559590339661,5.229394912719727,-1.6164696216583252
22.575,-2.9744873046875,-3.5918545722961426,-4.796194553375244,-1.0572344064712524,5.0559611320495605,-1.6026285886764526
22.6,-3.7042901515960693,-3.53668212890625,-3.1816210746765137,-0.7321543097496033,4.597205638885498,-0.8049474954605103
22.625,-3.4885594844818115,-4.163409233093262,-2.0511527061462402,-0.6665276288986206,4.453765869140625,-0.4673084318637848
22.65,-3.4758217334747314,-4.8563079833984375,-1.131827712059021,-0.4483230412006378,4.350247859954834,-0.5329509377479553
22.675,-3.531412124633789,-4.438076019287109,-0.28538912534713745,-0.19198788702487946,3.991060256958008,-0.6263391971588135
22.7,-3.1261255741119385,-2.8956422805786133,0.6131163835525513,0.17876631021499634,3.5760412216186523,-0.8022029995918274
22.725,-1.9805819988250732,-1.0584287643432617,1.5113548040390015,0.5593253374099731,3.157900333404541,-1.130354881286621
22.75,-1.555562138557434,0.3968029022216797,2.8189611434936523,0.8488727807998657,2.7268614768981934,-1.4655663967132568
22.775,-2.7975447177886963,1.468531608581543,4.582444190979004,1.0465590953826904,2.609212875366211,-1.909132719039917
22.8,-3.593048572540283,2.6108407974243164,4.359058856964111,1.484525203704834,1.9310826063156128,-2.456932306289673
22.825,-2.0881381034851074,3.4856748580932617,3.912898063659668,1.8930612802505493,1.2521828413009644,-1.5931904315948486
22.85,1.3330183029174805,2.696239471435547,0.4911993145942688,1.6286211013793945,0.6635687351226807,0.42453163862228394
22.875,1.6665605306625366,2.557103157043457,-0.7819361686706543,2.4572856426239014,1.6115115880966187,-0.7236210107803345
22.9,-0.9589042663574219,1.1059818267822266,-0.9090915322303772,1.5401452779769897,1.4965918064117432,0.2237716019153595
22.925,-3.2651588916778564,-1.3899250030517578,-3.0781712532043457,0.39626848697662354,1.5031847953796387,1.2915180921554565
22.95,-2.004176139831543,-1.8945441246032715,-1.688436508178711,-0.16893431544303894,1.5570393800735474,1.6133482456207275
22.975,0.7025959491729736,-0.7106075286865234,0.4258784055709839,0.30487099289894104,1.0843127965927124,0.6629678606987
23.0,1.813620686531067,-0.18656539916992188,2.024209499359131,0.16543515026569366,1.2812366485595703,0.1588115245103836
23.025,2.9413223266601562,1.9376535415649414,2.0067412853240967,0.7754226922988892,0.5912736654281616,-1.5963090658187866
23.05,2.9621963500976562,4.038857460021973,1.3824734687805176,0.5208156108856201,0.960492730140686,-2.1756489276885986
23.075,2.6599066257476807,4.9081010818481445,2.734652042388916,0.6808914542198181,0.3378101587295532,-1.5672374963760376
23.1,2.4460878372192383,3.9282054901123047,4.044473171234131,0.7867998480796814,-0.6828585267066956,-0.4172695279121399
23.125,1.3752282857894897,1.3353891372680664,2.941612482070923,0.15862806141376495,-0.8254531025886536,0.35674843192100525
23.15,-2.054723024368286,-0.35216617584228516,0.44706687331199646,-0.1850215345621109,-0.369250625371933,0.18118532001972198
23.175,-4.420999526977539,-0.5007162094116211,-2.6770825386047363,-0.09672285616397858,-0.5033698081970215,-0.6702078580856323
23.2,-1.4452439546585083,0.012408256530761719,-1.4697141647338867,-0.7214123010635376,-1.066146731376648,0.6467928886413574
23.225,-2.24517822265625,-0.4296836853027344,-1.0259376764297485,-0.21627414226531982,-1.0326932668685913,-0.4005858302116394
23.25,-1.373303771018982,-1.2172536849975586,-0.998694658279419,-0.41944557428359985,-1.665032148361206,0.8252121210098267
23.275,-1.1317529678344727,-0.9324502944946289,-1.1419050693511963,0.029242847114801407,-1.111555576324463,0.46879416704177856
23.3,-0.9804743528366089,-0.7145586013793945,-1.8420487642288208,-0.6587568521499634,-0.9718549847602844,1.0642634630203247
23.325,-0.2898564636707306,-1.381967544555664,-2.6853392124176025,-1.284094214439392,-1.0900607109069824,1.4358316659927368
23.35,0.03731423616409302,-1.7165718078613281,-2.647409677505493,-1.7692090272903442,-0.8617011308670044,1.2406587600708008
23.375,-0.2559545934200287,-1.0075969696044922,-2.373358964920044,-1.2626057863235474,-0.5581868886947632,0.5006830096244812
23.4,-2.580042600631714,-2.0684595108032227,0.07399432361125946,-1.2196450233459473,-0.33593326807022095,0.30110782384872437
23.425,-5.016016006469727,-3.4953227043151855,2.8495774269104004,-1.1948087215423584,-0.02560862898826599,0.21740221977233887
23.45,-1.1432607173919678,-1.587824821472168,-0.37956467270851135,-0.5954943895339966,-0.4583609700202942,0.21455343067646027
23.475,0.27817025780677795,-0.8652524948120117,-1.9278819561004639,-0.34746065735816956,-0.25010237097740173,-0.08868405967950821
23.5,0.7817463874816895,-0.4545583724975586,-1.7448899745941162,-0.2425844967365265,0.022991839796304703,0.03108552284538746
23.525,1.4157311916351318,0.015087127685546875,-1.6573576927185059,-0.22356463968753815,-0.4233016073703766,0.5131094455718994
23.55,1.2350939512252808,0.2208566665649414,-1.088809847831726,0.14750824868679047,-0.5181082487106323,0.2959948480129242
23.575,-0.8337132334709167,-0.7257242202758789,-1.248674988746643,-0.3574560582637787,-0.01910720020532608,0.1451909840106964
23.6,-2.855839252471924,-1.846334457397461,-1.815157413482666,-0.042645808309316635,-1.085564136505127,0.563951849937439
23.625,0.43307065963745117,-0.3149995803833008,-1.9928488731384277,-0.10226599127054214,-0.09291956573724747,0.004405279643833637
23.65,4.773548603057861,1.6820306777954102,-3.350285291671753,0.6177852749824524,-0.5677668452262878,0.12815451622009277
23.675,4.458760738372803,1.9429130554199219,-3.584527015686035,0.4937577545642853,-0.1369815319776535,0.08518484234809875
23.7,2.107466697692871,1.2042570114135742,-2.1884407997131348,0.1629679799079895,0.1444232165813446,0.24789860844612122
23.725,1.1959972381591797,0.4768657684326172,-1.42715585231781,-0.0440148301422596,0.5250337719917297,0.2864668369293213
