Time [s],Acc_x [m/s^2],Acc_y [m/s^2],Acc_z [m/s^2],Gyro_x [1/s],Gyro_y [1/s],Gyro_z [1/s]
0.0,-0.057576246559619904,-0.14473439753055573,-0.11519448459148407,-0.23166632652282715,-0.06464153528213501,0.119878850877285
0.05,-0.1067391037940979,-0.11873531341552734,-0.4588383436203003,-0.22518736124038696,-0.03679832071065903,0.01886182650923729
0.1,-0.20335009694099426,0.15833763778209686,-1.018804907798767,-0.2351178079843521,0.11352099478244781,-0.0264547448605299
0.15,-0.4354826807975769,0.4071875214576721,-0.7133963704109192,-0.25831153988838196,0.28286442160606384,0.0926624983549118
0.2,-0.19920064508914948,-0.1448688805103302,-0.06430473923683167,-0.25753292441368103,0.4871736466884613,0.16062261164188385
0.25,-0.4351167380809784,-0.3912859857082367,0.1919707953929901,-0.4128354489803314,0.679901659488678,0.25834015011787415
0.3,-0.5009385347366333,0.2862548232078552,1.081144094467163,-0.3925744593143463,0.7414007782936096,0.29201143980026245
0.35,-0.19049887359142303,0.3743429183959961,0.10279230773448944,-0.41573643684387207,0.47778841853141785,0.4222562611103058
0.4,0.40751832723617554,0.2003995031118393,-1.0137674808502197,-0.33765438199043274,0.44992512464523315,0.3592928946018219
0.45,0.32691723108291626,0.22957807779312134,-0.09189587831497192,-0.2293340563774109,0.6976777911186218,0.2522258460521698
0.5,-0.14350774884223938,-0.6304321885108948,0.15312567353248596,-0.2205127477645874,0.6871105432510376,0.23992305994033813
0.55,0.20756161212921143,0.37722882628440857,-0.18493656814098358,-0.0626523569226265,0.4788801372051239,-0.09342240542173386
0.6,0.31985607743263245,-0.27013397216796875,-0.2881893813610077,-0.05619531497359276,0.4959059953689575,-0.11018584668636322
0.65,-0.06689286977052689,-0.575320303440094,0.06916557997465134,-0.07207052409648895,0.46747756004333496,0.002765125595033169
0.7,-0.3585454225540161,0.08371732383966446,-0.015696696937084198,0.03325951099395752,0.3229160010814667,-0.21886834502220154
0.75,0.03466196730732918,0.068268783390522,0.06781215965747833,0.012850970029830933,0.23151156306266785,-0.2688164710998535
0.8,0.3596213459968567,-0.01376246102154255,0.27700352668762207,-0.045158907771110535,0.10602769255638123,-0.23166227340698242
0.85,-0.4277240037918091,-0.5482369065284729,-0.1761566549539566,-0.06708361208438873,-0.11172150820493698,-0.2252233624458313
0.9,-0.5257068276405334,0.06645013391971588,-1.0486128330230713,-0.025792814791202545,-0.1498500257730484,-0.31821268796920776
0.95,-1.0723628997802734,0.32293033599853516,-1.1363978385925293,-0.036690324544906616,0.0949629545211792,-0.42347922921180725
1.0,-1.030495285987854,0.2667579650878906,-1.0714378356933594,-0.0825711041688919,0.4685164988040924,-0.30797234177589417
1.05,-1.061728596687317,0.7984133362770081,-0.4722524583339691,-0.08202965557575226,0.6813470125198364,-0.23639249801635742
1.1,-0.5456864833831787,0.18923282623291016,-0.2838298976421356,-0.031019151210784912,0.7474359273910522,0.14222055673599243
1.15,-0.8270254135131836,-0.44220080971717834,0.2987654507160187,-0.054319337010383606,0.6421234607696533,0.3194897770881653
1.2,-0.39591529965400696,0.017353970557451248,0.2627182602882385,-0.10163261741399765,0.4661139249801636,0.16677992045879364
1.25,-0.08798794448375702,-0.07440856844186783,0.44945472478866577,-0.12033388018608093,0.2736412584781647,0.2049964964389801
1.3,0.0799480751156807,-0.14912894368171692,0.3214111626148224,-0.1434226632118225,0.07906937599182129,0.2818719744682312
1.35,0.18468481302261353,0.0773000717163086,0.39314544200897217,-0.09867943823337555,-0.11951106786727905,0.2148788720369339
1.4,0.14625443518161774,-0.17209340631961823,0.14362196624279022,-0.0742003321647644,-0.2315576821565628,0.14062367379665375
1.45,0.20365700125694275,-0.10041239112615585,0.43864160776138306,-0.020794888958334923,-0.3171359598636627,0.07253046333789825
1.5,-0.17107287049293518,-0.5177613496780396,0.7296462655067444,-0.020159196108579636,-0.3976776599884033,-0.020973222330212593
1.55,-0.23302656412124634,-0.20483499765396118,0.19200600683689117,-0.008260168135166168,-0.6034995913505554,-0.21520960330963135
1.6,0.10169095546007156,0.417182981967926,0.01816779002547264,0.10989449918270111,-0.7445687055587769,-0.4037800431251526
1.65,0.44473356008529663,0.6773034334182739,0.020147548988461494,0.18393483757972717,-0.7012315988540649,-0.30886632204055786
1.7,0.375593900680542,0.05115605518221855,0.5441185235977173,0.24343566596508026,-0.5262930393218994,-0.04876004531979561
1.75,0.024625718593597412,-0.9715853929519653,0.539184033870697,0.25348323583602905,-0.6175304055213928,0.01596101000905037
1.8,-0.4566018879413605,-0.6407920122146606,0.13611671328544617,0.2940352261066437,-0.8495640754699707,-0.3286376893520355
1.85,-0.3107280135154724,0.2388296276330948,-0.2756935656070709,0.2995210289955139,-0.9327115416526794,-0.5705295205116272
1.9,-0.4660896062850952,0.30976104736328125,-0.2057720571756363,0.26504039764404297,-0.86068195104599,-0.47515222430229187
1.95,-0.4937184154987335,0.3233795166015625,-0.44712409377098083,0.22883448004722595,-0.8386932015419006,-0.3683963418006897
2.0,-0.35054463148117065,0.16987992823123932,-0.6941242218017578,0.2090636044740677,-0.8416582345962524,-0.23751811683177948
2.05,-0.5209537744522095,-0.012343421578407288,-0.5736784934997559,0.16604891419410706,-0.7868714332580566,-0.19071568548679352
2.1,-0.3450419306755066,-0.11167813837528229,-0.5115076303482056,0.1250169426202774,-0.7395287156105042,-0.23736672103405
2.15,-0.05088510364294052,-0.05517196282744408,-0.36129266023635864,0.11845619976520538,-0.7186954021453857,-0.291342556476593
2.2,-0.054999615997076035,-0.0349741131067276,0.11091029644012451,0.1673952043056488,-0.6738928556442261,-0.3415811061859131
2.25,-0.10898859053850174,-0.25236040353775024,0.24998947978019714,0.20789343118667603,-0.7170405983924866,-0.32271796464920044
2.3,0.15989375114440918,0.12526322901248932,0.11842875927686691,0.16350600123405457,-0.7174974679946899,-0.3755815327167511
2.35,0.6841286420822144,0.5152627229690552,0.21286176145076752,0.12778465449810028,-0.605381429195404,-0.36062297224998474
2.4,0.9766167998313904,0.16054067015647888,-0.0020176623947918415,0.04200126603245735,-0.3375190198421478,-0.1296204924583435
2.45,0.29503703117370605,0.2412920445203781,0.09228776395320892,-0.002068363130092621,0.0033066149335354567,-0.026547642424702644
2.5,-0.06706510484218597,-0.04825403168797493,0.16037480533123016,0.012876639142632484,0.034517500549554825,0.003655889770016074
2.55,-0.1416107714176178,-0.055483847856521606,0.2335624396800995,0.08771578967571259,-0.021867770701646805,-0.014500865712761879
2.6,-0.07526220381259918,-0.05692865327000618,0.14704380929470062,0.11401854455471039,-0.11311864852905273,-0.06527798622846603
2.65,0.025471895933151245,-0.1620359718799591,0.21780705451965332,0.12411435693502426,-0.1388722062110901,-0.10572006553411484
2.7,0.035491108894348145,0.04690074548125267,0.3105330467224121,0.12883026897907257,-0.18017609417438507,-0.12423551082611084
2.75,-0.025031261146068573,0.10590553283691406,0.21262645721435547,0.14052748680114746,-0.1989295333623886,-0.08965654671192169
2.8,-0.08298339694738388,-0.033207908272743225,0.0706341564655304,0.1390969455242157,-0.19541974365711212,-0.0249269288033247
2.85,-0.05230993032455444,-0.08646012097597122,-0.006601023022085428,0.12452240288257599,-0.13448654115200043,-0.00680301059037447
2.9,-0.15567001700401306,0.13286972045898438,0.08931376785039902,0.12601011991500854,-0.05566677078604698,-0.019984738901257515
2.95,-0.08892625570297241,0.06152724847197533,0.10768920183181763,0.14033657312393188,-0.042028121650218964,-0.008770890533924103
3.0,-0.05921943858265877,0.02821444533765316,0.16464388370513916,0.16331347823143005,-0.00034350744681432843,-0.005844488739967346
3.05,-0.1650295853614807,-0.07661155611276627,0.30614566802978516,0.17157401144504547,0.018696481361985207,-0.013295015320181847
3.1,-0.15141628682613373,-0.17078976333141327,0.3287651836872101,0.1450527310371399,-0.02404065430164337,-0.019897593185305595
3.15,-0.028537288308143616,-0.1665058434009552,0.38343527913093567,0.10417570173740387,-0.08349139243364334,-0.059219833463430405
3.2,0.11846587061882019,0.005806919187307358,0.2913707196712494,0.05754583328962326,-0.0942700058221817,-0.06032796949148178
3.25,0.06374435871839523,-0.133333221077919,0.13298748433589935,0.040554024279117584,-0.11781566590070724,-0.027672456577420235
3.3,-0.026332855224609375,-0.16035369038581848,0.12929433584213257,0.03828995302319527,-0.08479492366313934,-0.033062927424907684
3.35,-0.05644993111491203,-0.03145982325077057,0.14025533199310303,0.03875541687011719,-0.05869356170296669,-0.06503334641456604
3.4,-0.0169619582593441,0.012374874204397202,0.08452983945608139,0.03527733311057091,-0.051938146352767944,-0.049042925238609314
3.45,0.09011029452085495,0.011887554079294205,0.10981230437755585,0.009929141029715538,-0.018925586715340614,-0.013435771688818932
3.5,5.922466516494751e-05,-0.052243247628211975,0.14142677187919617,0.00889994390308857,0.01679840125143528,0.0007974313339218497
3.55,-0.14708027243614197,-0.1679697334766388,0.06216252222657204,0.012310824356973171,-0.024499859660863876,-0.011412161402404308
3.6,-0.09079541265964508,-0.053876906633377075,0.31694483757019043,0.022677112370729446,-0.01581474579870701,-0.030970102176070213
3.65,-0.07321292161941528,-0.1527586281299591,0.29104533791542053,0.017917495220899582,-0.0346553809940815,-0.02998417243361473
3.7,-0.10942056030035019,-0.07692911475896835,0.1419941633939743,0.029332272708415985,-0.04938637837767601,-0.043367791920900345
3.75,-0.03909284621477127,-0.008026137948036194,0.24211925268173218,0.035670310258865356,-0.047785088419914246,-0.050570275634527206
3.8,-0.02433840185403824,-0.04868127405643463,0.1381707489490509,0.03995871916413307,-0.048978809267282486,-0.032018985599279404
3.85,0.0038475478067994118,-0.06738186627626419,0.02371852844953537,0.04082726687192917,-0.04840705171227455,-0.0047777811996638775
3.9,0.00769352912902832,-0.02021504007279873,0.09483171999454498,0.02880707196891308,-0.029586564749479294,-0.017414379864931107
3.95,-0.10601784288883209,0.0011615646071732044,0.05826651304960251,0.02011709287762642,-0.007143814116716385,-0.01488282810896635
4.0,-0.08741959184408188,-0.08915998041629791,0.024364985525608063,0.016489170491695404,0.0016323080053552985,-0.00659810658544302
4.05,-0.12173540145158768,-0.18225577473640442,0.07795997709035873,0.01382147055119276,0.023445019498467445,-0.017157945781946182
4.1,-0.004696287214756012,-0.13397696614265442,0.18579979240894318,0.01534338016062975,0.02696927636861801,-0.03391866758465767
4.15,-0.09976412355899811,-0.0641336590051651,0.0646936371922493,0.024346591904759407,0.002033038530498743,-0.03485608845949173
4.2,-0.15717536211013794,-0.038678184151649475,-0.05061260610818863,0.03778807446360588,0.047340139746665955,-0.0364345982670784
4.25,-0.033653344959020615,-0.03664112463593483,-0.05782018229365349,0.06476406753063202,0.0564398355782032,-0.035006847232580185
4.3,0.024530813097953796,0.037830375134944916,-0.33236363530158997,0.07679818570613861,0.05133242532610893,-0.029222944751381874
4.35,0.0849076360464096,0.09045125544071198,-0.023475181311368942,0.12930689752101898,-0.005141091998666525,-0.07041420787572861
4.4,-0.006042957305908203,0.22795964777469635,0.28484126925468445,0.12084786593914032,-0.02212289161980152,-0.03862616792321205
4.45,-0.05454375594854355,0.269290953874588,0.08512275665998459,0.06195402890443802,-0.042120788246393204,0.07146462798118591
4.5,-0.11251071840524673,0.4061327576637268,-0.37652769684791565,0.04919673502445221,-0.014252137392759323,0.21024641394615173
4.55,-0.13981086015701294,0.44561678171157837,-0.2594061493873596,-0.043638020753860474,0.0815412774682045,0.36100438237190247
4.6,-0.1367424875497818,0.4016123116016388,0.584073007106781,-0.1446952521800995,0.15061572194099426,0.5190969705581665
4.65,-0.39919769763946533,-0.09798821061849594,0.7635000944137573,-0.40625354647636414,0.1029822900891304,0.7516336441040039
4.7,-0.324520081281662,-0.7185202836990356,0.4143943190574646,-0.4255698323249817,0.12599334120750427,0.7901579141616821
4.75,-0.41568660736083984,-0.4370204210281372,0.38887539505958557,-0.2766985595226288,0.2027498036623001,0.6055155396461487
4.8,-0.08067174255847931,-0.2911301255226135,0.4397052824497223,-0.2833852171897888,0.24782292544841766,0.4374641478061676
4.85,-0.295368492603302,-0.39488232135772705,0.5167058706283569,-0.3323546051979065,0.262085884809494,0.3384879231452942
4.9,-0.08477422595024109,-0.652255117893219,0.08063746988773346,-0.3722437918186188,0.24640639126300812,0.2225671261548996
4.95,0.03437778353691101,0.07907106727361679,-0.22606852650642395,-0.3986223638057709,0.25553351640701294,0.01580832153558731
5.0,0.08195948600769043,0.5088129639625549,-0.16404412686824799,-0.3149222731590271,0.24163730442523956,0.049610719084739685
5.05,0.13793273270130157,0.27736952900886536,0.07683272659778595,-0.3370720148086548,0.20650136470794678,0.22434787452220917
5.1,0.011119261384010315,0.03673457354307175,0.25859978795051575,-0.2715957462787628,0.27348288893699646,0.19855482876300812
5.15,-0.16981762647628784,-0.2730713486671448,0.22942525148391724,-0.16360998153686523,0.2612549364566803,0.27398917078971863
5.2,-0.5357708930969238,-0.6567336916923523,1.1450636386871338,-0.03904734551906586,0.1709340214729309,0.11147654801607132
5.25,-0.5592413544654846,-0.36907875537872314,0.8281472325325012,-0.045567672699689865,-0.12110510468482971,-0.07957909256219864
5.3,-0.64690762758255,-0.5090295076370239,0.5219886302947998,-0.0304226316511631,-0.44382020831108093,-0.18187950551509857
5.35,-0.08046029508113861,0.012959502637386322,-0.5790348649024963,-0.06650185585021973,-0.47162631154060364,-0.36626139283180237
5.4,0.3100021183490753,0.2875586450099945,-0.5611034631729126,0.005911603569984436,-0.38826385140419006,-0.40325042605400085
5.45,0.46271175146102905,0.4729663133621216,-0.21467411518096924,-0.08246485143899918,-0.36389440298080444,-0.3166402578353882
5.5,-0.17551468312740326,0.12347793579101562,-0.041708339005708694,-0.2633814811706543,-0.3412804901599884,-0.3220382332801819
5.55,0.0931864008307457,-0.04465198889374733,0.17347989976406097,-0.17422419786453247,-0.3764934241771698,-0.28365859389305115
5.6,-0.31453070044517517,-0.5681906938552856,0.32943660020828247,-0.12651404738426208,-0.4290914535522461,-0.2543988823890686
5.65,-0.08822537958621979,-0.04865173622965813,0.555010199546814,0.12290185689926147,-0.2972671389579773,-0.47423601150512695
5.7,-0.1934647560119629,0.3521594703197479,1.0730071067810059,0.15101167559623718,-0.3467181622982025,-0.512791633605957
5.75,-0.23011955618858337,0.14406485855579376,0.8418999910354614,0.16577638685703278,-0.5899791121482849,-0.42433759570121765
5.8,-0.0334821492433548,0.13063621520996094,0.23926518857479095,0.22032152116298676,-0.7389352321624756,-0.2659953236579895
5.85,0.5660020112991333,0.019222306087613106,-0.04239509999752045,0.28152263164520264,-0.7044690251350403,-0.11408892273902893
5.9,0.06968673318624496,-0.40499311685562134,-0.1486501395702362,0.35919126868247986,-0.28300604224205017,-0.23842567205429077
5.95,-0.32401949167251587,-0.2245684266090393,-0.034047920256853104,0.3246750235557556,-0.03977623209357262,-0.40883177518844604
6.0,-0.4649423360824585,-0.2383318543434143,-0.08090827614068985,0.26342639327049255,-0.12008951604366302,-0.5438753962516785
6.05,0.008489340543746948,-0.0062246243469417095,-0.17776982486248016,0.25764232873916626,-0.25767529010772705,-0.5619668960571289
6.1,0.21975374221801758,0.16174128651618958,-0.10173793882131577,0.15662436187267303,-0.253193199634552,-0.5304254293441772
6.15,0.27127060294151306,0.42188748717308044,-0.15743857622146606,0.21354535222053528,-0.13766570389270782,-0.4034954309463501
6.2,0.06353949010372162,0.38251978158950806,0.041009578853845596,0.2609387934207916,-0.20228904485702515,-0.16411755979061127
6.25,-0.1291019171476364,-0.3956490457057953,0.27317294478416443,0.13342717289924622,-0.13606466352939606,-0.041747383773326874
6.3,-0.40959271788597107,-0.3459683060646057,0.0693826675415039,0.17705044150352478,-0.06677686423063278,0.04847042262554169
6.35,-0.5435665845870972,0.15450666844844818,-0.19001232087612152,0.20039889216423035,-0.01475162897258997,0.02093311958014965
6.4,-0.15503647923469543,-0.08902837336063385,-0.057443004101514816,0.1680498719215393,-0.20651131868362427,0.013255346566438675
6.45,-0.10102275013923645,-0.1298074871301651,-0.13880963623523712,0.14267949759960175,-0.136197030544281,-0.02292686514556408
6.5,-0.0920419692993164,-0.006896022707223892,-0.09596871584653854,0.11155711114406586,-0.01630573160946369,-0.11750376969575882
6.55,-0.11891719698905945,-0.05837824195623398,0.1619912087917328,0.045163460075855255,0.024312956258654594,-0.12277957797050476
6.6,-0.012769162654876709,-0.07928946614265442,0.4375137686729431,0.01801624894142151,0.015096893534064293,-0.09544767439365387
6.65,0.09653495997190475,0.016940107569098473,0.39843401312828064,0.010228995233774185,-0.021448493003845215,-0.08253202587366104
6.7,-0.012230180203914642,-0.12516024708747864,0.15797992050647736,-0.10794562101364136,-0.004262043163180351,-0.023970313370227814
6.75,-0.00822487473487854,-0.13164237141609192,0.23969466984272003,-0.08254034072160721,0.04560110718011856,-0.03324448689818382
6.8,0.02111116796731949,-0.044911399483680725,0.26765596866607666,-0.09464259445667267,0.06887315958738327,-0.03413726016879082
6.85,-0.06621798872947693,-0.06138995289802551,0.34115713834762573,-0.12223603576421738,0.1045684888958931,-0.005999026820063591
6.9,-0.17919212579727173,-0.09746746718883514,0.3657412827014923,-0.07590391486883163,0.10682450234889984,0.006441912148147821
6.95,-0.08577604591846466,-0.04073717072606087,0.18339088559150696,-0.04149380698800087,0.0735313817858696,0.010395700111985207
7.0,-0.10488208383321762,0.03831670805811882,0.2735561728477478,-0.004797827918082476,0.02325303480029106,-0.012258649803698063
7.05,-0.10926669090986252,-0.08350470662117004,0.3320102393627167,-0.012069109827280045,0.05380960926413536,-0.0011641847668215632
7.1,-0.1422613561153412,-0.09336665272712708,0.21155299246311188,-0.019948801025748253,0.020879458636045456,0.014494388364255428
7.15,-0.132840096950531,-0.09382441639900208,0.17205318808555603,-0.0055791838094592094,0.0062083350494503975,0.014869286678731441
7.2,-0.15323111414909363,-0.03417684882879257,0.11845716089010239,-0.001706625334918499,0.008738404139876366,0.013700692914426327
7.25,-0.14779672026634216,-0.08550932258367538,0.051936276257038116,-0.006545091979205608,-0.003228038316592574,0.022304950281977654
7.3,-0.09968544542789459,-0.0880756601691246,0.12469243258237839,0.008504766970872879,0.00173280481249094,0.0012441129656508565
7.35,-0.09363115578889847,-0.040735263377428055,0.12771742045879364,0.006293542683124542,0.005698826629668474,-0.0013417558511719108
7.4,-0.06776443123817444,-0.042428985238075256,0.11931862682104111,-0.013000261038541794,0.02883043698966503,0.008465424180030823
7.45,-0.04666144400835037,-0.061131492257118225,0.11626297235488892,-0.012877748347818851,0.03899865597486496,0.0116033386439085
7.5,-0.0019176788628101349,-0.035471923649311066,0.07365363836288452,0.002908444730564952,0.02588675729930401,0.004230001475661993
7.55,-0.12172308564186096,-0.12362673878669739,0.07185599952936172,0.00387206906452775,-0.01584296114742756,-0.009441368281841278
7.6,-0.07522270083427429,-0.02210618555545807,0.14051663875579834,0.008118686266243458,0.004074729047715664,-0.017842918634414673
7.65,-0.11112627387046814,-0.04558088257908821,0.15132755041122437,-0.006724949926137924,0.00393816689029336,-0.005156300496309996
7.7,-0.12207020819187164,-0.09007646888494492,0.055795442312955856,-0.0034684708807617426,-0.008408986032009125,-0.0057520573027431965
7.75,-0.032814547419548035,-0.054399505257606506,0.13628751039505005,-0.009279714897274971,-0.001983782509341836,-0.00318814511410892
7.8,-0.23577344417572021,-0.1091776192188263,-0.03966015204787254,-0.006330464966595173,0.0038182458374649286,-0.00040914828423410654
7.85,-0.2030106782913208,-0.03209879249334335,0.10133522748947144,0.006715426221489906,-0.012765198945999146,-0.012441904284060001
7.9,-0.10969515144824982,-0.08695223182439804,0.14261139929294586,-0.003329796250909567,-0.021395133808255196,-0.009913168847560883
7.95,-0.21074922382831573,-0.049411799758672714,0.06486845016479492,-0.014484320767223835,-0.005919864401221275,0.0057396967895329
8.0,-0.16230522096157074,-0.0747699961066246,0.09297184646129608,-0.015659457072615623,-0.007689583580940962,0.005798742640763521
8.05,-0.023300085216760635,-0.027409566566348076,0.15065306425094604,-0.004763659089803696,0.005496266297996044,0.004262624774128199
8.1,-0.09120099991559982,-0.06616498529911041,0.0002543457376305014,-0.006386025343090296,-0.011521232314407825,-0.0026864800602197647
8.15,-0.09663979709148407,-0.043240565806627274,0.12948735058307648,0.022176843136548996,-0.03374137356877327,-0.02941945567727089
8.2,-0.07832888513803482,-0.03364088013768196,0.17346778512001038,-0.00803165603429079,0.004610611591488123,-0.011755204759538174
8.25,-0.1364915519952774,-0.04815962165594101,0.06865756213665009,-0.008615691214799881,0.0029800627380609512,0.005468294024467468
8.3,-0.10647308826446533,-0.006214150693267584,-0.006667837966233492,-0.008790964260697365,-0.007222725544124842,0.0023906948044896126
8.35,-0.10878078639507294,-0.08261778205633163,0.07819770276546478,0.0024863295257091522,-0.004688985180109739,-0.00516263535246253
8.4,-0.15237504243850708,-0.0440836139023304,0.036632291972637177,0.007946929894387722,-0.008341406472027302,-0.006647683680057526
8.45,-0.13949038088321686,-0.03170396760106087,0.09240774810314178,0.001309207291342318,-0.006464600563049316,-0.005110164172947407
8.5,-0.16566550731658936,-0.09158136695623398,0.09151468425989151,-0.00305330753326416,-0.005827557761222124,0.0048217312432825565
8.55,-0.17109620571136475,0.010321605019271374,0.004443713463842869,-0.002823798917233944,-0.003483835142105818,0.002942020306363702
8.6,-0.11406785994768143,-0.06420423835515976,0.10144339501857758,-0.004758353345096111,0.005503345746546984,0.004259414505213499
8.65,-0.13814911246299744,-0.0520496591925621,0.055458132177591324,0.003796565579250455,0.015133033506572247,0.002818497596308589
8.7,-0.1359054148197174,-0.06973841041326523,0.059036657214164734,0.012350205332040787,-0.02678346261382103,-0.012223721481859684
8.75,-0.15062940120697021,-0.06131937727332115,0.15000185370445251,0.01453800592571497,-0.0002948105975519866,-0.01752946525812149
8.8,-0.09113024920225143,-0.09424689412117004,0.16376391053199768,0.004469911567866802,0.00951357837766409,0.0007263828883878887
8.85,-0.14599251747131348,-0.11027339100837708,0.11201635003089905,0.0019804048351943493,-0.0015304682310670614,0.0035505995620042086
8.9,-0.14007781445980072,-0.08382322639226913,0.06214449554681778,0.0019111238652840257,-0.004231504164636135,-0.0022426825016736984
8.95,-0.15427447855472565,-0.03997327759861946,0.035022635012865067,0.008307244628667831,-0.008470076136291027,-0.0019161530071869493
9.0,-0.09665857255458832,-0.08345606178045273,0.15568973124027252,0.0034116539172828197,-0.00526438606902957,-0.0033468303736299276
9.05,-0.13386298716068268,-0.03785516694188118,0.1203259527683258,0.001909084152430296,-0.004233301617205143,-0.0022410291712731123
9.1,-0.12348167598247528,-0.05589105933904648,0.07997530698776245,-0.006058810278773308,-0.003749881638213992,0.007037948817014694
9.15,-0.08689188212156296,-0.06322480738162994,0.07473842799663544,-0.0016454104334115982,-0.0017013339092954993,0.002892556833103299
9.2,-0.11590993404388428,-0.04409028962254524,0.10829384624958038,0.00038591865450143814,0.0046577914617955685,0.0038142174016684294
9.25,-0.12919782102108002,-0.08223725855350494,0.007317211478948593,0.0033669527620077133,0.010445528663694859,0.006560725159943104
9.3,-0.14694693684577942,-0.05657198280096054,0.0528038926422596,0.0055554830469191074,-0.011912452057003975,-0.006544321309775114
9.35,-0.08802460879087448,-0.07887651771306992,0.1376149207353592,0.010284967720508575,-0.012671579606831074,-0.011735169216990471
9.4,-0.11781753599643707,-0.041910190135240555,0.09320015460252762,-0.0003292046021670103,0.007565805222839117,0.00011537458340171725
9.45,-0.17891360819339752,-0.07910063117742538,0.07336171716451645,0.0041135456413030624,-0.00032502817339263856,0.005307663232088089
9.5,-0.07041630893945694,-0.04720117151737213,0.06959385424852371,0.004129007924348116,-0.00817806739360094,0.0003520219761412591
9.55,-0.22845646739006042,-0.05460551008582115,0.015602882020175457,0.004980902187526226,-0.003602760611101985,0.0013343163300305605
9.6,-0.10599783807992935,-0.05379011109471321,0.09967214614152908,0.003718362422659993,-0.008076513186097145,-0.004397815093398094
9.65,-0.12638993561267853,-0.0569782480597496,0.10271444171667099,0.0019014118006452918,-0.004234964028000832,-0.0022444073110818863
9.7,-0.1278824508190155,-0.04950716346502304,0.07592957466840744,-0.007000519894063473,-0.0031758747063577175,0.005226874724030495
9.75,-0.15959610044956207,-0.051723502576351166,0.021955367177724838,-0.0031412162352353334,-0.0006661987863481045,0.004000529181212187
9.8,-0.1675558090209961,-0.05432607978582382,0.04674047976732254,-0.0019599618390202522,0.001106498995795846,0.003940833266824484
9.85,-0.12213054299354553,-0.035171523690223694,0.07916033267974854,0.0007181148394010961,0.0018451801734045148,0.002772733336314559
9.9,-0.13764065504074097,-0.05863478034734726,0.06673424690961838,-0.0055921319872140884,0.016641894355416298,0.013208230026066303
9.95,-0.12797629833221436,-0.06990434974431992,0.07143212854862213,-0.009563515894114971,-0.009073845110833645,0.007252976298332214
10.0,-0.13746623694896698,-0.09539607167243958,0.07763521373271942,-0.02079826407134533,-0.01942475698888302,0.009928023442626
10.05,-0.1326068639755249,-0.06400110572576523,0.11004725843667984,-0.03351696953177452,-0.008234559558331966,0.015078789554536343
10.1,-0.19646987318992615,-0.11508086323738098,0.05493059381842613,-0.025639576837420464,-0.026111086830496788,0.01792300119996071
10.15,-0.20463567972183228,-0.03234579786658287,0.10730353742837906,-0.009198063984513283,-0.0071156383492052555,-0.002278809668496251
10.2,-0.24506795406341553,0.00807282980531454,0.1268109679222107,-0.009660637006163597,-0.011767575517296791,0.001521207275800407
10.25,-0.12756583094596863,-0.006809248588979244,0.07567790150642395,0.006098529323935509,-0.01244909968227148,-0.009379378519952297
10.3,-0.08540912717580795,-0.0454874150454998,0.057194337248802185,0.004923677537590265,-0.014218850061297417,-0.009310256689786911
10.35,-0.07987964153289795,-0.0946512445807457,0.057595331221818924,0.0002735693706199527,-0.010682832449674606,0.0016489780973643064
10.4,-0.15550243854522705,-0.012289064936339855,0.09413619339466095,0.011633142828941345,-0.013377231545746326,-0.005077540408819914
10.45,-0.16069932281970978,-0.029952066019177437,0.022407812997698784,0.006267684046179056,-0.014845781028270721,-0.0027518344577401876
10.5,-0.0951484963297844,-0.10967925190925598,0.08442976325750351,0.006805016193538904,-0.007443904411047697,-0.0007621007389388978
10.55,-0.029286514967679977,-0.021175391972064972,0.06425975263118744,0.013062231242656708,0.01124793291091919,-0.005747041665017605
10.6,-0.11765745282173157,-0.1548013985157013,0.024641985073685646,0.015302570536732674,-0.0005572080262936652,-0.00805678404867649
10.65,-0.1638169288635254,-0.10181333869695663,-0.03998121991753578,0.03134854510426521,-0.024495581164956093,-0.02136334218084812
10.7,-0.1167629063129425,-0.038708705455064774,0.14492860436439514,0.012551939114928246,-0.004007426556199789,-0.012674417346715927
10.75,-0.1585405021905899,-0.051039718091487885,0.06904954463243484,0.0026880998630076647,-0.012301591224968433,0.0023014722391963005
10.8,-0.11750864237546921,-0.06983090937137604,0.02708485908806324,0.006791755557060242,-0.007451642770320177,-0.0008036693907342851
10.85,-0.02357282117009163,-0.06369878351688385,0.07124760746955872,0.00971386767923832,-0.004362095147371292,-0.0038453624583780766
10.9,-0.16658733785152435,0.010353070683777332,0.12343785166740417,0.010349239222705364,-0.009982230141758919,-0.005938377697020769
10.95,-0.177386075258255,0.05079459026455879,0.11874008923768997,0.0032424957025796175,-0.01276763528585434,-0.0006343699642457068
11.0,-0.10986737161874771,-0.006103528663516045,0.0768422782421112,0.0040365904569625854,-0.010887912474572659,-0.005436509847640991
11.05,-0.1529393345117569,-0.039496440440416336,0.08855929225683212,0.0014210210647433996,-0.008924406953155994,0.0015159989707171917
11.1,-0.13681519031524658,-0.042700786143541336,0.08077387511730194,0.004027546849101782,-0.0030387623701244593,-0.000473937630886212
11.15,-0.11588960140943527,-0.046297088265419006,0.0834423154592514,0.005766855087131262,-0.0017315936274826527,-0.0034552887082099915
11.2,-0.05852281674742699,0.12685203552246094,0.162423774600029,0.011840282008051872,0.014617540873587132,-0.006454868707805872
11.25,-0.21602843701839447,0.1948871612548828,0.13680899143218994,0.00836426205933094,-0.003712739795446396,-0.010413004085421562
11.3,-0.2099619358778,0.11123370379209518,0.07981123775243759,0.01896028220653534,-0.021308429539203644,-0.01647408865392208
11.35,-0.05429200828075409,-0.019411105662584305,0.268664687871933,0.020765256136655807,-0.0022349620703607798,-0.02381834201514721
11.4,-0.11016024649143219,-0.044241923838853836,0.13273835182189941,0.011433647945523262,-0.0031191681046038866,-0.006822306662797928
11.45,-0.15504613518714905,-0.1265106499195099,-0.01603730395436287,0.017408424988389015,-0.0072830310091376305,-0.011247014626860619
11.5,-0.0414712056517601,-0.048439040780067444,0.08458849042654037,0.021255407482385635,-0.012621857225894928,-0.01744017004966736
11.55,-0.1262664645910263,-0.050900477916002274,0.06342688202857971,0.03144172951579094,-0.009271795861423016,-0.019147340208292007
11.6,-0.1154942512512207,-0.020733850076794624,0.1162741482257843,0.022689081728458405,-0.008508477360010147,-0.019374540075659752
11.65,-0.09895292669534683,-0.00224496191367507,0.10506853461265564,0.019869429990649223,-0.014072087593376637,-0.009743873029947281
11.7,-0.11305271089076996,-0.1133890450000763,0.12190203368663788,0.008779289200901985,-0.008994771167635918,-0.004873818252235651
11.75,-0.11988594383001328,-0.0119714867323637,0.0378916934132576,0.011122684925794601,-0.013285425491631031,-0.009978990070521832
11.8,-0.15605106949806213,-0.05949213355779648,0.08217819780111313,0.007890419103205204,-0.0005874377675354481,-0.001684950664639473
11.85,-0.09522798657417297,-0.008981716819107533,0.08918935805559158,0.011414551176130772,0.015013455413281918,-0.003405983792617917
11.9,-0.2309418022632599,-0.14007380604743958,0.026749389246106148,0.002672360045835376,-0.0023269157391041517,-0.007063351571559906
11.95,-0.1333114504814148,-0.054371852427721024,0.01691272296011448,0.012826737016439438,-0.011978591792285442,-0.012991118244826794
12.0,-0.18287068605422974,-0.047333743423223495,0.09146999567747116,-7.738056592643261e-05,0.012439480051398277,-0.008269603364169598
12.05,-0.11143068969249725,-0.08644010871648788,0.08986449241638184,-0.00021871720673516393,0.007568345405161381,0.0001881948992377147
12.1,-0.13151562213897705,-0.0713367685675621,0.046649783849716187,0.008429709821939468,-0.0010567023418843746,-0.004636778961867094
12.15,-0.083406001329422,-0.08514215797185898,0.12104523926973343,0.0018288803985342383,0.000920064514502883,-0.0030682776123285294
12.2,-0.12173007428646088,-0.12151053547859192,0.07531028240919113,0.0057564121671020985,-0.0069281854666769505,-0.0026972016785293818
12.25,-0.12193335592746735,-0.0893106684088707,0.11629875004291534,0.0026702710893005133,-0.007487404625862837,-0.0062826997600495815
12.3,-0.15953633189201355,-0.08512785285711288,-0.01215779036283493,-0.002317446516826749,-0.009065085090696812,0.0007696275133639574
12.35,-0.127499058842659,-0.10407450795173645,0.1231432557106018,-0.0028621309902518988,-0.00861998088657856,0.003704381873831153
12.4,-0.12121444940567017,-0.06996157020330429,0.042715538293123245,-0.00249643181450665,0.0015418434049934149,0.0068775806576013565
12.45,-0.1588003933429718,-0.04300214722752571,0.03686772659420967,-0.0014842581003904343,0.01906251721084118,0.012156648561358452
12.5,-0.12438222765922546,-0.029377952218055725,0.03483938053250313,0.0006451653316617012,0.02537531964480877,0.013148931786417961
12.55,-0.1257614940404892,-0.04821112006902695,0.08392427116632462,0.00792686641216278,-0.010923725552856922,-0.0001638133981032297
12.6,-0.13611924648284912,-0.0722971186041832,0.07976799458265305,0.004095361102372408,0.004723651800304651,0.004512899089604616
12.65,-0.17346496880054474,-0.01254369504749775,0.02584865503013134,-0.005075414665043354,0.013775711879134178,0.012311982922255993
12.7,-0.16496430337429047,-0.08899214118719101,0.002179234754294157,-0.0028668073937296867,0.004606361035257578,0.015643401071429253
12.75,-0.05492756888270378,-0.04572679102420807,0.12700027227401733,-0.005149588920176029,0.0008082890999503434,0.008059864863753319
12.8,-0.11740627884864807,-0.03888799250125885,0.022999204695224762,0.005045139230787754,0.004132080357521772,0.006315989885479212
12.85,-0.12724748253822327,-0.08098509162664413,0.12907667458057404,0.005764995701611042,-0.006907150149345398,-0.00273259449750185
12.9,-0.14691036939620972,-0.03948404639959335,0.12312982976436615,-0.0010806890204548836,-0.007312729489058256,0.0007351363310590386
12.95,-0.12680436670780182,-0.1080656349658966,0.10216391831636429,-0.014211811125278473,-0.005624194163829088,0.0182272307574749
13.0,-0.1388491541147232,-0.03378107026219368,0.07722339034080505,-0.009554468095302582,-0.0012224753154441714,0.012216120958328247
13.05,-0.11883867532014847,-0.10059264302253723,0.13215962052345276,-0.009463509544730186,0.006599770858883858,0.01723378896713257
13.1,-0.06914681196212769,-0.11667444556951523,0.11311841756105423,-0.007954414002597332,0.01853865012526512,0.02031983993947506
13.15,-0.1916625201702118,-0.048778556287288666,0.03134361281991005,0.0016224292339757085,-0.006587180774658918,-0.00041661501745693386
13.2,-0.15170159935951233,0.008172023110091686,0.036053456366062164,0.006486673839390278,0.00016307839541696012,-0.008317735977470875
13.25,-0.14466224610805511,-0.08543684333562851,0.1269395500421524,-0.009446882642805576,0.016606386750936508,0.007972418330609798
13.3,-0.14991235733032227,-0.06411077827215195,0.14336030185222626,-0.0002078675024677068,0.0024117405992001295,0.000968103064224124
13.35,-0.1620488315820694,-0.05904867500066757,0.08259063959121704,-0.0012791503686457872,0.013310174457728863,-0.002454695524647832
13.4,-0.1333083063364029,-0.1535826027393341,0.11806321144104004,-0.004689083434641361,0.03366277366876602,-0.0015761589165776968
13.45,-0.1332642138004303,-0.0008287574746645987,0.09021645784378052,0.038674309849739075,0.016297200694680214,-0.025348221883177757
13.5,-0.1531267911195755,0.012944207526743412,0.0793885812163353,0.031259194016456604,0.026645168662071228,-0.020506247878074646
13.55,-0.1719561517238617,-0.08538343757390976,0.013538964092731476,0.0029811523854732513,0.002680280478671193,-0.003157808678224683
13.6,-0.15072396397590637,-0.01322270929813385,0.02520408295094967,0.004365525674074888,-0.01648823358118534,-0.007742426358163357
13.65,-0.06779889017343521,-0.03879262134432793,0.024479888379573822,-0.013507307507097721,-0.006337438244372606,0.0077450270764529705
13.7,-0.1239984855055809,0.029652588069438934,0.026358788833022118,-0.02899545058608055,0.012185076251626015,0.014650953933596611
13.75,-0.11733756214380264,-0.14724448323249817,0.0376603864133358,-0.019446101039648056,-0.015450667589902878,0.00040868346695788205
13.8,-0.09737234562635422,-0.011644374579191208,0.06800241768360138,0.004820549860596657,-0.0347692146897316,-0.006381395738571882
13.85,-0.11544620990753174,-0.0648508295416832,0.09569376707077026,-0.018156034871935844,-0.005566393490880728,0.013010101392865181
13.9,-0.15203651785850525,-0.14649012684822083,0.07163730263710022,-0.03012603521347046,-0.004730716813355684,0.024736417457461357
13.95,-0.023926351219415665,-0.0025777879636734724,0.0900351032614708,-0.005257073324173689,-0.0018372917547821999,0.0022997737396508455
14.0,-0.06221213936805725,-0.06513215601444244,0.06182554364204407,-0.02637910097837448,-0.005278850439935923,0.010010610334575176
14.05,-0.05109986662864685,-0.00915337260812521,0.028541676700115204,-0.02333427034318447,0.00527249975129962,0.004239394795149565
14.1,-0.08352600038051605,0.008113852702081203,0.05985851585865021,-0.03639969974756241,0.021435437723994255,-0.0036785788834095
14.15,-0.18724960088729858,-0.13813595473766327,0.24272587895393372,-0.05939054116606712,0.02782142348587513,0.020720450207591057
14.2,-0.11414913833141327,-0.021208783611655235,0.20110231637954712,-0.002611377742141485,0.0032094537746161222,-0.015087064355611801
14.25,-0.11954569071531296,0.06729220598936081,0.0735018253326416,-0.03983893617987633,-0.029276657849550247,0.014994613826274872
14.3,-0.4242543578147888,-0.12365060299634933,0.03689691796898842,-0.07681621611118317,0.016733141615986824,0.06910111010074615
14.35,-0.15574327111244202,0.0637817308306694,0.08457557111978531,-0.03550517559051514,-0.012358582578599453,0.04552996903657913
14.4,-0.1668374240398407,-0.07007504999637604,-0.05945579707622528,-0.0738978162407875,-0.0670904889702797,0.07482162863016129
14.45,-0.20781084895133972,-0.07720758765935898,-0.0577203631401062,-0.09046890586614609,-0.053715046495199203,0.07260677218437195
14.5,-0.09451892971992493,-0.15108968317508698,-0.044304147362709045,-0.026114918291568756,-0.16488438844680786,0.07595808804035187
14.55,-0.19985537230968475,0.07528112828731537,0.21869534254074097,0.022592058405280113,-0.1414526104927063,0.10435327142477036
14.6,-0.13900959491729736,-0.05353833734989166,-0.033687081187963486,0.05688481032848358,-0.10453946888446808,0.11674345284700394
14.65,0.16953735053539276,-0.260623961687088,0.35056763887405396,0.056596361100673676,-0.059229396283626556,0.20867562294006348
14.7,0.027705233544111252,-0.291172057390213,0.05019073560833931,0.1222866028547287,-0.0518573559820652,0.15227943658828735
14.75,0.2222229242324829,-0.3817148804664612,0.15927597880363464,0.1957944631576538,0.02726377733051777,0.03505055233836174
14.8,-0.13919149339199066,-0.07894327491521835,0.07728898525238037,0.1298886090517044,0.0848926454782486,-0.03554781153798103
14.85,-0.11782249808311462,0.01382826454937458,0.12072484195232391,0.07304343581199646,-0.025732818990945816,-0.06078217551112175
14.9,-0.08389216661453247,-0.22047047317028046,0.19339604675769806,0.021812204271554947,-0.08908208459615707,-0.04052397981286049
14.95,-0.14108878374099731,-0.07501603662967682,-0.05150226131081581,0.025715874508023262,-0.037043068557977676,-0.07660037279129028
15.0,-0.2820623219013214,-0.10927490144968033,0.026564544066786766,-0.015650629997253418,-0.06694173067808151,-0.1043512374162674
15.05,-0.24038594961166382,-0.0434131883084774,0.07731316983699799,0.0024135150015354156,-0.09365345537662506,-0.11687739938497543
15.1,-0.07512538135051727,0.08331965655088425,0.20012551546096802,-0.005065347999334335,-0.0711875930428505,-0.09361657500267029
15.15,0.000529872253537178,0.077454574406147,0.027089597657322884,-0.22310882806777954,-0.1436200886964798,-0.07732442021369934
15.2,-0.06206674873828888,-0.042991671711206436,0.5281221866607666,-0.38775435090065,-0.033708713948726654,-0.033432487398386
15.25,-0.18646840751171112,-0.15200236439704895,0.008237221278250217,-0.21582484245300293,-0.007415481843054295,0.062090206891298294
15.3,-0.4964342713356018,-0.2970896363258362,-0.29243946075439453,-0.1307143121957779,-0.0002765716635622084,0.08650610595941544
15.35,-0.29046034812927246,0.023996340110898018,-0.11348795890808105,0.1455741971731186,0.020493973046541214,-0.032396137714385986
15.4,-0.253668874502182,-0.09154131263494492,-0.13492318987846375,0.21174010634422302,-0.004759160801768303,-0.022339940071105957
15.45,-0.33415311574935913,0.20322610437870026,-0.2205314189195633,0.310128390789032,-0.012448913417756557,-0.07439085841178894
15.5,-0.152045339345932,-0.020910289138555527,0.2780039310455322,0.28579387068748474,-0.003969348035752773,-0.04534487426280975
15.55,-0.2047463059425354,-0.035229720175266266,0.3881337642669678,0.16915488243103027,0.07596982270479202,0.02504139393568039
15.6,-0.029479902237653732,-0.021844875067472458,0.1585802286863327,0.09065787494182587,0.013189336284995079,0.027118658646941185
15.65,0.15369023382663727,-0.21278288960456848,0.14890186488628387,0.10659053921699524,-0.06982526928186417,0.10005500167608261
15.7,-0.18953189253807068,-0.19261649250984192,-0.17446377873420715,0.11447758227586746,-0.0783126950263977,0.11793636530637741
15.75,0.10661890357732773,-0.13606645166873932,0.22920580208301544,0.11525623500347137,-0.01846594549715519,-0.0033144557382911444
15.8,0.04295678436756134,-0.14558318257331848,0.5101170539855957,0.08947861194610596,0.0369948111474514,-0.025856468826532364
15.85,-0.0984032154083252,-0.0791645422577858,0.4911966323852539,0.019912008196115494,0.08132682740688324,-0.018250267952680588
15.9,-0.11350032687187195,-0.04593279957771301,0.3567817211151123,-0.0612918995320797,-0.003921772353351116,-0.0007641952252015471
15.95,-0.0830356627702713,-0.11009600758552551,0.19069315493106842,-0.06461185216903687,-0.05498993769288063,-0.0019880004692822695
16.0,-0.2049928456544876,-0.18263056874275208,0.06283411383628845,-0.04840657487511635,-0.01220785453915596,-0.000168935555848293
16.05,-0.10261020809412003,-0.05619145929813385,-0.031133277341723442,0.008821218274533749,0.011803895235061646,-0.002694089664146304
16.1,0.008970528841018677,-0.13618852198123932,0.09691871702671051,0.0272961612790823,0.022282693535089493,0.014149443246424198
16.15,-0.0034869015216827393,0.058179859071969986,0.09911785274744034,0.054379597306251526,0.08089851588010788,0.01339690014719963
16.2,-0.27843326330184937,-0.015275995247066021,0.372334361076355,0.001560045056976378,0.11770661920309067,-0.0023769347462803125
16.25,-0.1971706748008728,-0.059799231588840485,0.33836629986763,-0.01943972520530224,0.03738591447472572,0.005373517982661724
16.3,-0.16197098791599274,0.016827566549181938,0.1435622274875641,0.024518560618162155,-0.039082497358322144,0.01413796842098236
16.35,-0.1361202746629715,-0.13049224019050598,0.07519897073507309,0.025221647694706917,-0.04034588485956192,0.06087065115571022
16.4,-0.19004227221012115,-0.12255289405584335,-0.17498287558555603,0.03695215657353401,-0.030498992651700974,0.06826721131801605
16.45,-0.17849913239479065,-0.09464457631111145,-0.009279333986341953,0.056879281997680664,0.0030995900742709637,0.03476862236857414
16.5,-0.39809030294418335,-0.049102816730737686,-0.10594343394041061,-0.016072575002908707,0.03626974672079086,0.04378100112080574
16.55,-0.13461679220199585,-0.008279822766780853,0.2457306683063507,-0.08744578063488007,0.11405444890260696,0.050057485699653625
16.6,-0.10772835463285446,-0.09887412190437317,0.1547967940568924,-0.03050640970468521,0.06932978332042694,-0.007772337179630995
16.65,-0.025029396638274193,-0.03908730298280716,0.017872175201773643,0.028794918209314346,-0.00041237956611439586,-0.025276578962802887
16.7,-0.002961592748761177,-0.12534429132938385,0.06915317475795746,0.03353072702884674,-0.0035057268105447292,-0.016275664791464806
16.75,-0.057637374848127365,-0.1385383903980255,0.09386520087718964,0.00577250961214304,0.013809476979076862,-0.008225002326071262
16.8,-0.16156910359859467,-0.11640074849128723,0.08344896882772446,-0.005502339452505112,0.018303990364074707,-0.003229195484891534
16.85,-0.14122216403484344,0.014137251302599907,0.16807982325553894,-0.02242962270975113,0.011360053904354572,-0.004279031418263912
16.9,-0.10046778619289398,-0.040017154067754745,0.303087055683136,0.008944903500378132,0.07462212443351746,0.0009726720745675266
16.95,-0.03167632222175598,-0.11719229817390442,0.19440539181232452,0.0757400393486023,0.03269539028406143,-0.013961109332740307
17.0,0.009067889302968979,-0.17042066156864166,0.024109967052936554,0.034704163670539856,0.020534025505185127,0.008855265565216541
17.05,-0.12230873107910156,-0.03675366938114166,0.07217111438512802,0.044705696403980255,-0.010686424560844898,-0.00754959974437952
17.1,-0.14422820508480072,-0.04635240137577057,0.010149464011192322,0.02340724691748619,-0.02242140658199787,-0.010393945500254631
17.15,-0.07894554734230042,-0.07975675910711288,0.11233895272016525,-0.00024321908131241798,-0.020104072988033295,-0.012033769860863686
17.2,-0.14508768916130066,-0.09277727454900742,0.09864400327205658,-0.0012427340261638165,-0.009441261179745197,-0.010226480662822723
17.25,-0.08878704905509949,-0.09447672218084335,0.09480162709951401,-0.00434076739475131,-0.002351101255044341,-0.01617078296840191
17.3,-0.11479167640209198,-0.09276106208562851,0.10558036714792252,-0.013122763484716415,0.008184065110981464,-0.012776694260537624
17.35,-0.12867096066474915,-0.07665254920721054,0.16245371103286743,-0.011042715981602669,0.0069138663820922375,-0.016878586262464523
17.4,-0.1025255098938942,-0.049902938306331635,0.16673482954502106,0.00039779627695679665,-0.00039148004725575447,-0.015470748767256737
17.45,-0.13559949398040771,-0.07327750325202942,0.21053951978683472,-0.009453615173697472,0.0032054169569164515,-0.00384968938305974
17.5,-0.07724335789680481,-0.04698755219578743,0.10663481801748276,-0.005604900419712067,0.0006811444764025509,0.0033241130877286196
17.55,-0.15266917645931244,-0.11021807789802551,0.1005493700504303,-0.0016051656566560268,-0.0018570560496300459,0.002818436361849308
17.6,-0.2142062932252884,-0.059528373181819916,0.0022476038429886103,-0.007300781086087227,-0.0007859683246351779,0.006254733540117741
17.65,-0.13367772102355957,-0.08360196650028229,0.01979825273156166,-0.0025395359843969345,0.008826609700918198,0.0045459819957613945
17.7,-0.16868557035923004,-0.1399717628955841,0.02508772723376751,-0.009560995735228062,0.013280132785439491,0.007369674276560545
17.75,-0.07791515439748764,-0.13755419850349426,0.0517357736825943,-0.010725056752562523,0.019085850566625595,0.004971875809133053
17.8,-0.08206474035978317,-0.02022935077548027,0.0606527253985405,-0.00741538917645812,-0.01575269177556038,-0.009037843905389309
17.85,-0.07669882476329803,-0.07593633979558945,0.20189207792282104,-0.014579396694898605,0.031653665006160736,0.0012668641284108162
17.9,-0.1277935802936554,-0.10680106282234192,0.13290037214756012,-0.022109879180788994,0.028854021802544594,0.009428770281374454
17.95,-0.10774227231740952,-0.06452467292547226,0.0996195450425148,-0.022285180166363716,0.044101279228925705,0.01225198432803154
18.0,-0.11999564617872238,-0.052820224314928055,0.003276272676885128,-0.029388243332505226,0.04860873147845268,0.022806352004408836
18.05,-0.12427231669425964,-0.06154634803533554,0.08307531476020813,-0.0030441726557910442,0.00919787585735321,0.007453137077391148
18.1,-0.13358965516090393,-0.03690244257450104,-0.0013444791547954082,0.006805240176618099,-0.009662900120019913,0.0006193721783347428
18.15,-0.14800967276096344,-0.07507898658514023,0.08186259865760803,-0.005748978350311518,-0.011807221919298172,0.0017351306742057204
18.2,-0.08227668702602386,-0.061464328318834305,0.0929437205195427,-0.010486772283911705,-0.003758480306714773,0.004578321240842342
18.25,-0.1414818912744522,-0.07387354224920273,0.04578092694282532,-0.011691569350659847,0.0020314701832830906,0.002145471516996622
18.3,-0.1557205468416214,-0.11365702748298645,0.03627047687768936,-0.013815298676490784,0.0008481258992105722,0.0003745407739188522
18.35,-0.13635393977165222,-0.07494547218084335,0.08778446912765503,-0.007538543548434973,0.001917449408210814,-0.000185105309356004
18.4,-0.13168254494667053,-0.07160189002752304,0.11364421993494034,-0.009450064972043037,-0.004445821978151798,-0.0012940560700371861
18.45,-0.169291689991951,0.004577625542879105,-0.03164652734994888,-0.004996774718165398,0.010440627112984657,0.0038597923703491688
18.5,-0.1084255650639534,-0.06905844062566757,0.10073251277208328,0.003471283707767725,-0.02275310829281807,-0.004514429718255997
18.55,-0.10606229305267334,-0.05957987159490585,0.1201661005616188,0.006269774399697781,-0.019514592364430428,-0.007484403904527426
18.6,-0.10499487817287445,-0.06102849915623665,0.0910346657037735,-0.001155574806034565,0.0054995338432490826,0.005122186150401831
18.65,-0.0972699522972107,-0.03886128589510918,0.040352147072553635,0.00019578891806304455,0.0021257507614791393,0.005769539624452591
18.7,-0.10051373392343521,-0.04924394562840462,0.04612744227051735,-6.005464820191264e-05,-0.002795191016048193,0.0016982079250738025
18.75,-0.12813930213451385,-0.08180143684148788,0.03702623024582863,0.0014447508146986365,-0.0037595469038933516,0.0005377960042096674
18.8,-0.06769219040870667,-0.08440114557743073,0.09133905917406082,0.001405045622959733,-0.013851356692612171,-0.00287005421705544
18.85,-0.15232518315315247,-0.08627321571111679,0.0961252897977829,-0.006807100027799606,-0.003606672864407301,-0.0024694381281733513
18.9,-0.10109372437000275,-0.07498171180486679,0.08836386352777481,-0.013192292302846909,0.003018982708454132,0.003306295722723007
18.95,-0.058221135288476944,0.04364299401640892,0.048995401710271835,-0.021735120564699173,0.02611757069826126,0.008219928480684757
19.0,-0.1642221361398697,-0.02179529145359993,0.08682786673307419,-0.06888379901647568,0.008228933438658714,0.020715009421110153
19.05,-0.1916230469942093,-0.04557230323553085,0.10662946105003357,-0.06440100073814392,-0.02226470410823822,0.020795809105038643
19.1,-0.1948077380657196,-0.10758879780769348,0.03022364340722561,-0.01982630044221878,-0.030251922085881233,0.018847715109586716
19.15,-0.10533391684293747,-0.11628343909978867,0.022309526801109314,-0.003941675648093224,-0.015157910995185375,0.015016337856650352
19.2,-0.030551020056009293,-0.07511521130800247,-0.06145365908741951,-0.0017839714419096708,0.023609023541212082,0.008774361573159695
19.25,-0.1045994758605957,0.02746676839888096,0.04216010496020317,0.00344619108363986,0.080170176923275,-0.01616426557302475
19.3,-0.12495655566453934,-0.06501676887273788,0.0990552231669426,0.0008332552388310432,0.04176081344485283,-0.007007904816418886
19.35,-0.08311468362808228,-0.03063298761844635,0.11502021551132202,0.007115168496966362,-0.033034615218639374,-0.022380532696843147
19.4,-0.11898329108953476,-0.05801107734441757,0.13491980731487274,-0.003987555857747793,-0.018113773316144943,-0.006171306129544973
19.45,-0.15365082025527954,-0.1344633400440216,-0.02580910548567772,-0.012638500891625881,0.012942980043590069,0.011398222297430038
19.5,-0.14808690547943115,-0.04749014228582382,0.037350475788116455,-0.0047318050637841225,0.015431207604706287,0.007794701959937811
19.55,-0.11079568415880203,-0.027125375345349312,0.10002627223730087,-0.005407626740634441,0.0031138372141867876,0.0015930054942145944
19.6,-0.13127544522285461,-0.06987860053777695,0.04352624714374542,-0.002451871521770954,-0.008960433304309845,-0.004022602923214436
19.65,-0.10721931606531143,-0.013403908349573612,0.12766331434249878,0.0035396693274378777,-0.012859182432293892,-0.008656289428472519
19.7,-0.14169003069400787,-0.07003118842840195,0.11293637752532959,-0.0029040956869721413,0.0015622563660144806,0.0022158604115247726
19.75,-0.15721628069877625,-0.0344553180038929,0.059313658624887466,-0.003168633906170726,-0.0032089771702885628,0.005887695588171482
19.8,-0.11091438680887222,-0.0558939166367054,0.06305238604545593,0.002099285600706935,-0.0015548518858850002,0.003470809431746602
19.85,-0.16881859302520752,-0.06813528388738632,0.05578137934207916,0.00223134970292449,0.0008298979955725372,0.0016348060453310609
19.9,-0.13406002521514893,-0.07014086097478867,0.05726031959056854,-3.891263622790575e-05,-0.002774531254544854,0.0017323599895462394
