Time [s],Acc_x [m/s^2],Acc_y [m/s^2],Acc_z [m/s^2],Gyro_x [1/s],Gyro_y [1/s],Gyro_z [1/s]
0.0,0.007541939616203308,-0.1444568634033203,-0.3596093952655792,-0.7184125185012817,-0.7362557649612427,-0.0015250506112352014
0.05,-0.0039043128490448,-0.12214182317256927,-0.6829793453216553,-0.7183913588523865,-0.7362750172615051,-0.0021655026357620955
0.1,-0.6623578667640686,0.8290244340896606,-1.1091713905334473,-0.695517897605896,-0.7096086144447327,-0.06060740724205971
0.15,-1.5207843780517578,2.484328508377075,-1.3002996444702148,-0.4857390522956848,-0.4948500096797943,-0.11705508828163147
0.2,0.810417890548706,-0.30176541209220886,0.005301120691001415,-0.11778222769498825,-0.16592621803283691,0.26269787549972534
0.25,-0.8394361734390259,-0.24640187621116638,-0.08583974093198776,-0.1989167332649231,-0.5246103405952454,0.2703140377998352
0.3,-1.2802479267120361,-0.6376611590385437,0.31476086378097534,-0.20388174057006836,-0.501422643661499,0.2154727727174759
0.35,-0.0518745481967926,-0.04248717427253723,0.48976364731788635,-0.2814919948577881,-0.03880414739251137,0.5027656555175781
0.4,0.5388380885124207,0.6454964280128479,0.347420334815979,-0.2790272831916809,0.338900625705719,0.6249237656593323
0.45,0.5988755226135254,0.6696777939796448,0.37822380661964417,-0.2827380299568176,0.19108706712722778,0.42905914783477783
0.5,-0.14281602203845978,0.7990390062332153,-0.19631846249103546,-0.2815626263618469,-0.17622755467891693,0.2407332807779312
0.55,0.8698278665542603,0.5428954362869263,-0.3379139304161072,-0.20053236186504364,0.08189890533685684,0.1086190789937973
0.6,0.4705815017223358,0.4793930947780609,-0.032091110944747925,-0.13762101531028748,-0.05613701045513153,-0.19259503483772278
0.65,-0.2646520435810089,0.03046129085123539,0.10091839730739594,-0.01877567172050476,-0.19860513508319855,-0.3538872301578522
0.7,-0.38471388816833496,0.027180658653378487,-0.26770102977752686,0.09546574205160141,0.12290532886981964,-0.31032246351242065
0.75,0.13630467653274536,0.10417845100164413,0.02265581674873829,0.11409812420606613,0.41258904337882996,-0.299398809671402
0.8,-0.3120824098587036,0.12092780321836472,-0.03963975980877876,0.10796119272708893,0.40204861760139465,-0.42041781544685364
0.85,-0.01041811890900135,0.10127927362918854,-0.0821915864944458,0.10346220433712006,0.7162715196609497,-0.4889305830001831
0.9,0.5801825523376465,0.06254010647535324,-0.03091602958738804,0.15177176892757416,0.8299883008003235,-0.6427386403083801
0.95,-0.5123390555381775,-0.07304099202156067,-0.3490561246871948,0.15420183539390564,0.6536846160888672,-0.698624849319458
1.0,-0.8070334196090698,-0.591349720954895,-0.5104976296424866,0.12456336617469788,0.5786408185958862,-0.4970158636569977
1.05,-0.8905344009399414,-0.4386206865310669,-0.48667702078819275,0.06888560205698013,0.4551774561405182,-0.16360899806022644
1.1,-0.715311586856842,-0.03963189572095871,-0.16454985737800598,-0.01162833720445633,0.3897242546081543,0.22484610974788666
1.15,-0.23447725176811218,-0.5993509888648987,0.03536657989025116,-0.10539209842681885,0.474525511264801,0.5422398447990417
1.2,-0.322875440120697,-0.3827114701271057,-0.4026252031326294,-0.2135183960199356,0.40197333693504333,0.5808818936347961
1.25,0.6450467705726624,0.03112514317035675,-0.44430622458457947,-0.24293090403079987,0.44635117053985596,0.5955182313919067
1.3,0.33428943157196045,0.7356034517288208,-0.3660999834537506,-0.23401279747486115,0.32409533858299255,0.5910813808441162
1.35,0.3271573781967163,0.5904370546340942,-0.3186626732349396,-0.12259860336780548,0.19728143513202667,0.368673712015152
1.4,0.3070276081562042,0.7336826920509338,-0.07781856507062912,-0.019537612795829773,0.09330711513757706,0.26787200570106506
1.45,-0.22078949213027954,0.7009678483009338,0.12880301475524902,0.06273271143436432,0.03028535284101963,0.06846597790718079
1.5,-0.2976597845554352,0.49680522084236145,0.23098063468933105,0.1318298876285553,0.08344197273254395,-0.09843240678310394
1.55,0.055731400847435,0.49512773752212524,0.29013144969940186,0.2248971164226532,0.2349376082420349,-0.28455907106399536
1.6,0.21278449892997742,0.8894673585891724,0.10823184996843338,0.3033301532268524,0.2009025663137436,-0.5047265887260437
1.65,0.716910183429718,1.1901895999908447,-0.40703853964805603,0.38984599709510803,0.08155268430709839,-0.5425608158111572
1.7,1.1384007930755615,1.4043171405792236,-0.9526907801628113,0.6762419939041138,-0.2799816131591797,-0.5100074410438538
1.75,1.4132057428359985,-0.00902644358575344,0.5114604234695435,0.944235622882843,-0.8042546510696411,-0.6197384595870972
1.8,1.206964135169983,-0.653172492980957,1.3460214138031006,0.7971638441085815,-1.2197833061218262,-1.068203330039978
1.85,-0.357649028301239,-0.43914616107940674,0.8503767251968384,0.49719297885894775,-1.3547942638397217,-1.4567116498947144
1.9,-0.9598293900489807,-0.6224815249443054,0.48306554555892944,0.3906659185886383,-1.0090570449829102,-1.3333890438079834
1.95,-1.2090376615524292,-1.0945513248443604,0.4687809646129608,0.33875367045402527,-0.7427664995193481,-1.050081491470337
2.0,-2.043179988861084,-0.4851972758769989,-0.13878022134304047,0.11798989772796631,-0.6490479707717896,-0.9000810384750366
2.05,-1.585008144378662,-0.4930498003959656,-0.006658598314970732,0.04389074444770813,-0.1778600662946701,-0.40224286913871765
2.1,-0.46498674154281616,-0.6659880876541138,0.03455181419849396,-0.07113827019929886,0.18063700199127197,0.010461593978106976
2.15,0.1964944750070572,-0.5072632431983948,-0.19971494376659393,-0.2026282250881195,0.28319424390792847,0.25202903151512146
2.2,0.34684622287750244,0.4138118028640747,-0.5576990246772766,-0.2575882375240326,0.23219464719295502,0.3434608578681946
2.25,0.6948908567428589,0.4357110559940338,-0.7351546883583069,-0.17818434536457062,0.017129473388195038,0.22320881485939026
2.3,0.585899293422699,0.4067155122756958,-0.5062864422798157,-0.018666692078113556,-0.39239948987960815,-0.10740833729505539
2.35,-0.5837866067886353,0.3764019310474396,-0.21282115578651428,0.10738036036491394,-0.7235867977142334,-0.3679291009902954
2.4,-1.2176249027252197,-0.2130194902420044,-0.08004417270421982,0.13341590762138367,-0.6879044771194458,-0.3817041516304016
2.45,-1.4907468557357788,-0.09938347339630127,-0.19194944202899933,0.06800161302089691,-0.42601776123046875,-0.16716307401657104
2.5,-0.5915730595588684,-0.08493523299694061,-0.09586446732282639,0.003472067415714264,-0.04060644283890724,0.1191757470369339
2.55,0.4448245167732239,0.27451425790786743,0.26323238015174866,-0.05846855789422989,0.19365517795085907,0.308306485414505
2.6,1.0297188758850098,0.4648725092411041,0.05592520162463188,-0.08572785556316376,0.08620081841945648,0.16661430895328522
2.65,0.8400806188583374,0.21661671996116638,0.08578156679868698,-0.057598598301410675,-0.18397583067417145,-0.08028089255094528
2.7,-0.03878036141395569,-0.007227908819913864,0.15672796964645386,-0.05865494906902313,-0.4434027075767517,-0.2682669758796692
2.75,-0.33140596747398376,-0.11489873379468918,0.2733636498451233,-0.08456548303365707,-0.4446948766708374,-0.23370061814785004
2.8,-0.23762695491313934,-0.12390998750925064,0.10865510255098343,-0.15565893054008484,-0.3677530586719513,-0.12213553488254547
2.85,-0.23580363392829895,0.07474517822265625,-0.29043105244636536,-0.1921614557504654,-0.3774730861186981,-0.11570585519075394
2.9,-0.05129523202776909,0.14043332636356354,-0.12751264870166779,-0.1623842865228653,-0.4058147370815277,-0.13746914267539978
2.95,-0.017985975369811058,0.094209685921669,-0.037953730672597885,-0.16505150496959686,-0.4540713429450989,-0.14073054492473602
3.0,0.09812773764133453,0.05602933466434479,-0.013530644588172436,-0.19317561388015747,-0.5099451541900635,-0.1848311722278595
3.05,0.1380758285522461,0.06546784937381744,0.07248757034540176,-0.21479810774326324,-0.6159618496894836,-0.2832552194595337
3.1,-0.07172558456659317,-0.0032262883614748716,0.04677737131714821,-0.19256240129470825,-0.7218695878982544,-0.39265966415405273
3.15,-0.31536972522735596,-0.012365360744297504,-0.14948686957359314,-0.1457023024559021,-0.6997919678688049,-0.4329195022583008
3.2,-0.17058664560317993,-0.007351889740675688,0.011226086877286434,-0.10330253839492798,-0.5232667326927185,-0.34860798716545105
3.25,-0.042254041880369186,0.0948333814740181,0.023081786930561066,-0.09944815933704376,-0.3529525399208069,-0.2138880044221878
3.3,0.035010214895009995,0.050997745245695114,-0.04592590034008026,-0.09229260683059692,-0.2746405303478241,-0.16889940202236176
3.35,-0.06326323747634888,0.14426423609256744,-0.1756352186203003,-0.07353699207305908,-0.27805814146995544,-0.19792482256889343
3.4,-0.2039344310760498,0.22844794392585754,-0.22072389721870422,-0.04339982569217682,-0.2289411723613739,-0.17449432611465454
3.45,-0.12264221161603928,0.15932466089725494,-0.149577796459198,-0.02768269181251526,-0.14112745225429535,-0.11152229458093643
3.5,-0.12374265491962433,0.0933523178100586,-0.04477738216519356,-0.025291791185736656,-0.07002247869968414,-0.04680425673723221
3.55,-0.030285440385341644,-0.012169846333563328,0.09449148178100586,-0.023965513333678246,-0.023304101079702377,-0.00622298289090395
3.6,0.06604424118995667,0.004123683553189039,0.20809487998485565,-0.015916375443339348,-0.02142840065062046,-0.013705389574170113
3.65,0.1359024941921234,-0.10735132545232773,0.3878726363182068,-0.008458705618977547,-0.048095349222421646,-0.044485870748758316
3.7,-0.015152417123317719,-0.05042841285467148,0.2752906084060669,-0.0174745861440897,-0.08779288083314896,-0.07557552307844162
3.75,0.04764476418495178,-0.0404062382876873,0.261067658662796,-0.017081480473279953,-0.12361901998519897,-0.10782914608716965
3.8,-0.08067122101783752,0.12205887585878372,0.10168232768774033,-0.03628160059452057,-0.16630896925926208,-0.12864163517951965
3.85,-0.10407698154449463,0.137483611702919,-0.01992691494524479,-0.03485453873872757,-0.15027469396591187,-0.0970052108168602
3.9,-0.08529563248157501,0.01907062530517578,-0.09061447530984879,-0.037907928228378296,-0.1000872552394867,-0.03745834901928902
3.95,-0.12018954008817673,0.13358785212039948,-0.05850176885724068,-0.042286645621061325,-0.06375342607498169,-0.022349419072270393
4.0,-0.05851318687200546,0.10625554621219635,-0.01968466490507126,-0.026934050023555756,-0.025569507852196693,-0.01164788007736206
4.05,-0.02773715928196907,0.026407239958643913,0.09111448377370834,-0.011974349617958069,-0.003427339717745781,-0.0035355344880372286
4.1,-0.041033633053302765,0.029295915737748146,0.14021509885787964,0.0013850051909685135,0.004043258260935545,-0.009941722266376019
4.15,-0.03150591999292374,-0.05196478217840195,0.23127508163452148,0.013450365513563156,0.004076531156897545,-0.016556266695261
4.2,-0.06739477813243866,0.006393423769623041,0.10325166583061218,4.738476127386093e-05,-0.020111793652176857,-0.025998637080192566
4.25,0.03643083572387695,0.01905345916748047,0.11286594718694687,-0.012847097590565681,-0.06296233087778091,-0.06144937500357628
4.3,0.08177115023136139,0.10293295234441757,-0.07903527468442917,-0.04079325869679451,-0.11928468942642212,-0.09459929913282394
4.35,0.10348943620920181,0.1818542778491974,-0.230337992310524,-0.04937589913606644,-0.1575177162885666,-0.13032738864421844
4.4,-0.24728542566299438,0.35721495747566223,-0.16064941883087158,-0.05784004181623459,-0.168969988822937,-0.1418866515159607
4.45,-0.21791647374629974,0.37774091958999634,-0.2247619926929474,-0.04141542315483093,-0.05074744299054146,-0.033817876130342484
4.5,-0.3586752712726593,0.2888489067554474,-0.27876409888267517,-0.04380705952644348,0.019350767135620117,0.07649879157543182
4.55,-0.7431231141090393,0.7971230745315552,-0.9416622519493103,-0.10181787610054016,0.021060112863779068,0.17865659296512604
4.6,-1.0384962558746338,0.6874637603759766,-0.528956949710846,-0.15863606333732605,0.06329835951328278,0.3489372730255127
4.65,-0.81916344165802,-0.026451176032423973,-0.03331789746880531,-0.16055820882320404,0.3552110493183136,0.638445258140564
4.7,0.19160306453704834,-0.4151097238063812,1.1279411315917969,-0.1766493022441864,0.6437329053878784,0.8864795565605164
4.75,0.22605367004871368,-0.5248480439186096,0.8450302481651306,-0.17324092984199524,0.5324053764343262,0.8236197829246521
4.8,-1.242828130722046,-0.3650780916213989,-0.3485998809337616,-0.09383988380432129,0.4044470489025116,0.6553370952606201
4.85,0.4963732957839966,-1.3032475709915161,1.7087136507034302,0.07419154047966003,0.759414553642273,0.5984939932823181
4.9,-2.035444974899292,-0.21444237232208252,-1.471832275390625,-0.02733108401298523,0.9521631002426147,0.7058141231536865
4.95,-0.1459273397922516,-0.7494765520095825,0.7292178869247437,0.19643063843250275,1.4710251092910767,0.6262152194976807
5.0,-0.5680051445960999,0.12473579496145248,0.15529265999794006,0.17013275623321533,1.508204460144043,0.7838799953460693
5.05,0.05726213753223419,0.09521960467100143,0.5615972280502319,0.2056097388267517,1.7583348751068115,1.0447877645492554
5.1,0.0678568035364151,0.9590026140213013,0.49965083599090576,0.19020375609397888,1.5574742555618286,0.888815701007843
5.15,2.0169291496276855,0.7678978443145752,1.2071589231491089,0.23656192421913147,1.3660600185394287,0.6456769108772278
5.2,3.8357901573181152,-0.8744839429855347,1.037882685661316,0.09762931615114212,0.6008015275001526,0.354635089635849
5.25,3.477637767791748,-1.926903247833252,1.312599778175354,-0.2889409065246582,-0.7064642310142517,-0.1466105431318283
5.3,3.304325580596924,-1.5944796800613403,1.9960023164749146,-0.7052715420722961,-1.8319005966186523,-0.2771506607532501
5.35,3.2569713592529297,-0.1946018785238266,1.973210096359253,-0.9315370321273804,-2.6810455322265625,0.20026972889900208
5.4,0.2983226776123047,1.7067652940750122,2.3856918811798096,-0.9387417435646057,-4.310743808746338,0.2505236566066742
5.45,-1.886950135231018,1.844192624092102,-0.41890519857406616,-0.772476315498352,-4.985530376434326,0.7509709596633911
5.5,-1.6946388483047485,1.0242624282836914,0.7944848537445068,-1.1547927856445312,-3.800619125366211,1.9668136835098267
5.55,-1.6936581134796143,-0.05156254395842552,2.1358914375305176,-2.032571315765381,-2.522564172744751,2.418065309524536
5.6,-2.8078079223632812,0.3049551546573639,2.769042491912842,-2.765671730041504,-2.0606770515441895,2.0157594680786133
5.65,-3.243898868560791,0.2893988788127899,0.9376799464225769,-2.9895389080047607,-2.140969753265381,1.3039233684539795
5.7,-3.0420913696289062,0.4423493444919586,-1.6264227628707886,-2.831510066986084,-2.169421911239624,0.584815502166748
5.75,-1.6329700946807861,0.9691850543022156,-3.433255434036255,-2.4652087688446045,-1.9810121059417725,0.10082823038101196
5.8,-0.6079132556915283,0.38315314054489136,-3.287076234817505,-1.803530216217041,-1.6219087839126587,-0.1405142843723297
5.85,-0.94717937707901,-0.9943714737892151,-2.74017071723938,-0.9738511443138123,-1.454862117767334,-0.054455291479825974
5.9,-1.29136323928833,-1.9967644214630127,-2.0316343307495117,-0.35690736770629883,-1.2938467264175415,-0.19713559746742249
5.95,-1.1208146810531616,-1.725775957107544,-1.7133206129074097,-0.1381581872701645,-1.0179364681243896,-0.6926760077476501
6.0,-0.42709726095199585,-0.9924259781837463,-1.7256265878677368,0.00985652208328247,-0.7514270544052124,-1.25144624710083
6.05,0.25669869780540466,0.35455235838890076,-0.9917978644371033,0.2706671953201294,-0.3526090085506439,-1.5161484479904175
6.1,1.0538629293441772,1.356365442276001,-1.0505115985870361,0.42939305305480957,-0.1476861536502838,-1.437820315361023
6.15,1.4857228994369507,1.8624767065048218,-0.5416504740715027,0.5122123956680298,0.029975805431604385,-1.0800807476043701
6.2,0.6971926689147949,1.5173906087875366,-0.551263689994812,0.6009984016418457,0.01372815202921629,-0.63846355676651
6.25,-0.018960893154144287,0.8632909059524536,0.29114821553230286,0.4552553594112396,0.46078044176101685,-0.6045048236846924
6.3,-0.6586495041847229,2.4618959426879883,2.048609495162964,0.24153268337249756,0.4757814109325409,-0.43355998396873474
6.35,-0.09804300963878632,0.18180467188358307,-0.07124289870262146,0.1629892736673355,0.19334495067596436,-0.27850618958473206
6.4,0.08775816112756729,0.08638669550418854,-0.07623863965272903,0.1624942272901535,0.29436713457107544,-0.2401377260684967
6.45,-0.28888195753097534,0.3546485900878906,0.4183829128742218,0.12054361402988434,0.19802290201187134,-0.1735958307981491
6.5,-0.40901753306388855,0.28939151763916016,0.26644590497016907,0.10306072235107422,-0.17130674421787262,-0.0012546856887638569
6.55,-0.2440567910671234,0.043083176016807556,0.0017475822241976857,0.08371070772409439,-0.43584010004997253,0.17272865772247314
6.6,-0.18141870200634003,0.011600491590797901,-0.22392967343330383,0.07160383462905884,-0.4514937698841095,0.19018049538135529
6.65,0.08064161241054535,-0.035175301134586334,-0.4194784164428711,-0.035897716879844666,-0.18388956785202026,0.049305930733680725
6.7,-0.24619048833847046,0.28168392181396484,0.23701433837413788,-0.13123819231987,0.03844868391752243,-0.039791762828826904
6.75,-0.09166514873504639,0.2364673763513565,0.11268249154090881,-0.14329276978969574,-0.06576068699359894,-0.0073006064631044865
6.8,-0.15545441210269928,0.21654416620731354,0.17166133224964142,-0.12838347256183624,-0.134516641497612,-0.0036026695743203163
6.85,-0.025287579745054245,0.21030142903327942,0.028261970728635788,-0.0926014631986618,-0.16512353718280792,-0.0033710708376020193
6.9,-0.12156818807125092,0.21958543360233307,0.016872288659214973,-0.10718835890293121,-0.08156030625104904,-0.05474071949720383
6.95,-0.24208253622055054,0.28009605407714844,0.16622883081436157,-0.09448811411857605,-0.039803873747587204,-0.03375478833913803
7.0,-0.14953075349330902,0.2027464061975479,0.11544167995452881,-0.06361217796802521,-0.0445096418261528,-0.006878694985061884
7.05,-0.19860415160655975,0.17095184326171875,0.07846729457378387,-0.038220684975385666,-0.05675685033202171,0.014953565783798695
7.1,-0.21278105676174164,0.2131500393152237,0.11548318713903427,-0.015284541994333267,-0.047337260097265244,0.025154778733849525
7.15,-0.14298251271247864,0.2759714424610138,0.08185629546642303,0.011879101395606995,-0.03542059659957886,0.031037641689181328
7.2,-0.20057666301727295,0.16507911682128906,0.05164254829287529,0.02946857549250126,-0.0388290137052536,0.061126913875341415
7.25,-0.23073682188987732,0.1621713638305664,0.05726814642548561,0.04105757549405098,-0.04983827471733093,0.07866188138723373
7.3,-0.19235920906066895,0.1663045883178711,0.06920242309570312,0.053722530603408813,-0.04309604689478874,0.0948525220155716
7.35,-0.20982852578163147,0.15172767639160156,0.05356816202402115,0.04931633919477463,-0.02791764959692955,0.08624330163002014
7.4,-0.11530542373657227,0.14592266082763672,0.06153635308146477,0.03354734554886818,-0.01663087122142315,0.06799832731485367
7.45,-0.1652318686246872,0.2024545818567276,0.011126461438834667,0.0205723587423563,-0.007273178547620773,0.050577785819768906
7.5,-0.21188335120677948,0.212587371468544,0.07298494130373001,-0.001844104379415512,0.007359969429671764,0.026549305766820908
7.55,-0.2182241827249527,0.19241143763065338,0.10926325619220734,-0.006488347426056862,0.012866627424955368,0.010253549553453922
7.6,-0.19254650175571442,0.16074752807617188,0.10489724576473236,-0.015153872780501842,0.01320164930075407,-0.013355031609535217
7.65,-0.2077251821756363,0.1607503890991211,0.07705968618392944,-0.01684972643852234,0.00527419475838542,-0.02043006755411625
7.7,-0.2608335614204407,0.20944595336914062,0.09901751577854156,-0.017388662323355675,0.014090849086642265,-0.022723183035850525
7.75,-0.24659550189971924,0.2031850963830948,0.07011774927377701,-0.008140997029840946,0.012484283186495304,-0.023180287331342697
7.8,-0.18445464968681335,0.15277385711669922,0.08536459505558014,-0.014189125970005989,0.006335744634270668,-0.022213080897927284
7.85,-0.2313905954360962,0.1461811065673828,0.04906226694583893,-0.012630672194063663,-0.0017444646218791604,-0.02707500196993351
7.9,-0.2871313691139221,0.11983489245176315,0.06828015297651291,-0.016057781875133514,0.0008010996971279383,-0.033905573189258575
7.95,-0.21618501842021942,0.12612438201904297,0.05520152300596237,-0.01167825423181057,0.009411930106580257,-0.023665133863687515
8.0,-0.26447057723999023,0.1445445865392685,0.08806927502155304,-0.005458384286612272,0.010720430873334408,-0.011727558448910713
8.05,-0.2456422746181488,0.1422281265258789,0.071809321641922,-0.0023555236402899027,0.0043449425138533115,-0.005299326963722706
8.1,-0.19346359372138977,0.15519046783447266,0.012903585098683834,-0.0025578581262379885,0.002426318358629942,-0.004497702699154615
8.15,-0.1787768304347992,0.1533985137939453,0.03991856798529625,-0.014176029711961746,0.0017706279177218676,-0.009556019678711891
8.2,-0.22332122921943665,0.14141845703125,0.06135152652859688,-0.020170412957668304,0.0020191536750644445,-0.019821610301733017
8.25,-0.23185214400291443,0.09584902971982956,0.07406550645828247,-0.027016744017601013,0.008403089828789234,-0.018109969794750214
8.3,-0.24756908416748047,0.10606478899717331,0.11284568905830383,-0.014438148587942123,0.016581382602453232,-0.015385590493679047
8.35,-0.2564460039138794,0.13093948364257812,0.044002119451761246,-0.009212124161422253,0.00862096156924963,-0.011777285486459732
8.4,-0.2538778483867645,0.1256856918334961,0.029734309762716293,-0.004567434079945087,0.004598590545356274,-0.005842947401106358
8.45,-0.24769087135791779,0.1942882537841797,0.11200596392154694,-0.0030713453888893127,0.003357492620125413,-0.006459963042289019
8.5,-0.2325875461101532,0.15934084355831146,0.11628314107656479,-0.002711948938667774,-0.004283913876861334,-0.0003262403479311615
8.55,-0.26796430349349976,0.15138910710811615,0.11221522092819214,0.002484858501702547,-0.0021454268135130405,0.00029745956999249756
8.6,-0.25308483839035034,0.16916273534297943,0.06576956063508987,0.0019790269434452057,-0.0019740271382033825,0.003946179989725351
8.65,-0.16933105885982513,0.15725040435791016,0.09806560724973679,-0.002708426909521222,0.0023314536083489656,0.00378748239018023
8.7,-0.22556740045547485,0.17980001866817474,0.11865201592445374,-0.006798182614147663,0.008438636548817158,-0.0012065861374139786
8.75,-0.18208739161491394,0.1852703094482422,0.06650125980377197,-0.006051449105143547,0.009411689825356007,-0.005083322059363127
8.8,-0.24091747403144836,0.12691877782344818,0.10309983789920807,-0.008498435840010643,0.003350535174831748,-0.0071420795284211636
8.85,-0.268711656332016,0.1694631427526474,0.11423976719379425,-0.003820702899247408,0.008452080190181732,-0.00466950424015522
8.9,-0.26883137226104736,0.1642446368932724,0.0981864333152771,0.0018327045254409313,0.006606420036405325,-0.0035392523277550936
8.95,-0.223285973072052,0.19207574427127838,0.09132327884435654,-0.0058694519102573395,0.004478225484490395,-0.0032301857136189938
9.0,-0.2580481767654419,0.18638895452022552,0.1084752231836319,-0.001279256772249937,0.0058847833424806595,-0.00269653694704175
9.05,-0.2192973792552948,0.1563405990600586,0.10042112320661545,-0.004292572382837534,0.0019189162412658334,0.0006262434762902558
9.1,-0.2680013179779053,0.16574285924434662,0.0779731273651123,-0.0044101811945438385,0.0036370642483234406,0.001209756126627326
9.15,-0.24981985986232758,0.16515444219112396,0.08757870644330978,-0.0035905232653021812,0.0037633965257555246,0.003317490452900529
9.2,-0.2361687421798706,0.21328067779541016,0.09557390958070755,-0.000751807470805943,0.005309001542627811,0.0044113872572779655
9.25,-0.25426411628723145,0.1646423190832138,0.11906160414218903,-0.0037046109791845083,0.0033597867004573345,0.0011191429803147912
9.3,-0.1871846318244934,0.19941331446170807,0.060968514531850815,-0.0005978237604722381,0.002591352676972747,0.0029278970323503017
9.35,-0.22170840203762054,0.1619100570678711,0.054487232118844986,-0.004476097412407398,0.006210923660546541,0.003803204046562314
9.4,-0.2206677496433258,0.14119529724121094,0.05155722796916962,-0.0035654844250530005,0.0012120476458221674,-0.004607886075973511
9.45,-0.22093701362609863,0.1789407730102539,0.08010829985141754,0.002492965431883931,0.006284491159021854,0.001791842863894999
9.5,-0.24340210855007172,0.17780685424804688,0.057058095932006836,0.004980325698852539,0.007493459619581699,-0.0030125349294394255
9.55,-0.25820016860961914,0.20906448364257812,0.09853116422891617,0.0012534877751022577,0.008106984198093414,0.0010019916808232665
9.6,-0.19476726651191711,0.18468856811523438,0.11830910295248032,-0.0005507342284545302,0.004443529527634382,0.001008609076961875
9.65,-0.22754350304603577,0.1852130889892578,0.10350743681192398,-0.001557750627398491,-0.0037891895044595003,0.0014948820462450385
9.7,-0.29309090971946716,0.1669778674840927,0.06659211963415146,-0.001818218850530684,0.0017964376602321863,0.00042889086762443185
9.75,-0.22576496005058289,0.18079280853271484,0.08230344951152802,-0.00044365919893607497,0.0026294076815247536,8.859003719408065e-05
9.8,-0.23418864607810974,0.14098453521728516,0.06987129896879196,-0.0026750308461487293,0.0056807198561728,-0.0018146517686545849
9.85,-0.23394517600536346,0.18114471435546875,0.07498644292354584,-0.0027871206402778625,0.003611144842579961,-0.006051954347640276
9.9,-0.22386929392814636,0.14107131958007812,0.08944937586784363,-0.0031094723381102085,0.009293698705732822,-0.007768211420625448
9.95,-0.253818541765213,0.16143512725830078,0.040667079389095306,-0.002136245835572481,0.0118801174685359,-0.011488561518490314
10.0,-0.27025964856147766,0.14072225987911224,0.10522616654634476,-0.004603213630616665,0.022058242931962013,-0.012099620886147022
10.05,-0.23441311717033386,0.20602895319461823,0.06882418692111969,-0.0026224018074572086,0.01715727709233761,-0.011441633105278015
10.1,-0.21695180237293243,0.22207070887088776,0.12178674340248108,-0.0013941449578851461,0.005820680875331163,0.006554149556905031
10.15,-0.2215013951063156,0.21078301966190338,0.07671168446540833,0.0025360453873872757,-0.005070168990641832,0.01438975054770708
10.2,-0.26698365807533264,0.182737335562706,0.09201287478208542,-0.002825741656124592,-0.012054075486958027,0.02675657905638218
10.25,-0.2740499973297119,0.15292643010616302,0.07026894390583038,-0.0004485752433538437,-0.008105812594294548,0.02608627825975418
10.3,-0.2817184329032898,0.14423654973506927,0.0684172585606575,0.003849973436444998,-0.005373003426939249,0.01829875074326992
10.35,-0.2397458851337433,0.1339082568883896,0.14176495373249054,0.0013175453059375286,0.0021939342841506004,0.005713873077183962
10.4,-0.20778000354766846,0.12814617156982422,0.07517512142658234,0.007132390048354864,-0.004484442062675953,-0.002465553116053343
10.45,-0.23112165927886963,0.13494873046875,-0.013900022022426128,0.008002805523574352,-0.005925564095377922,-0.012647406198084354
10.5,-0.27213242650032043,0.16642378270626068,0.08189484477043152,0.0034588854759931564,0.010000861249864101,-0.024187225848436356
10.55,-0.2412385493516922,0.16887855529785156,0.00952150672674179,0.0014522550627589226,0.008329985663294792,-0.020235218107700348
10.6,-0.3142339289188385,0.17722605168819427,0.04219314455986023,-0.0033919992856681347,0.002708479529246688,-0.0177572313696146
10.65,-0.1862463355064392,0.063963882625103,0.06169804558157921,-0.011616123840212822,0.0022651914041489363,-0.011242336593568325
10.7,-0.19248290359973907,0.23186399042606354,0.07235682010650635,0.002244248054921627,-0.011522507295012474,-0.009950609877705574
10.75,-0.2496701329946518,0.19014549255371094,0.09507137537002563,0.0028117094188928604,-0.011644026264548302,0.004712693393230438
10.8,-0.2212418019771576,0.16793251037597656,0.06272991001605988,0.00852870661765337,0.0003074602864217013,0.006111182272434235
10.85,-0.22940799593925476,0.109099380671978,0.07691290229558945,0.004504432436078787,0.0032571605406701565,0.00902224238961935
10.9,-0.245189368724823,0.11129569262266159,0.07478133589029312,0.0025733504444360733,0.0019877254962921143,0.010245134122669697
10.95,-0.19924838840961456,0.038696274161338806,0.10607084631919861,0.0011343765072524548,-0.0032437501940876245,0.005045520607382059
11.0,-0.18640029430389404,0.28008460998535156,0.16259817779064178,0.002762338612228632,-0.005436667241156101,-0.00031534957815892994
11.05,-0.3103584349155426,0.16652964055538177,0.0915566086769104,0.0031451513059437275,-0.011482052505016327,0.001296070870012045
11.1,-0.28380489349365234,0.13475225865840912,0.05842485651373863,-0.000242139445617795,-0.00035438095801509917,-0.0052241175435483456
11.15,-0.22096937894821167,0.18378637731075287,0.1365031898021698,-0.0021785234566777945,0.0068976846523582935,-0.0096241170540452
11.2,-0.21826758980751038,0.11013126373291016,0.018606888130307198,-0.008032869547605515,0.003151270793750882,-0.010515179485082626
11.25,-0.05523211508989334,-0.3264599144458771,-0.1525162160396576,-0.01208159327507019,0.0062742531299591064,-0.015277520753443241
11.3,-0.034744761884212494,-0.5811977982521057,0.015383332036435604,-0.008948663249611855,0.009759162552654743,-0.01387233380228281
11.35,-0.21708343923091888,0.25247669219970703,0.2207767367362976,0.0006059878505766392,-0.004067117348313332,-0.006767032202333212
11.4,-0.3194909691810608,0.008988352492451668,0.09749307483434677,-0.006646418012678623,-0.007263103034347296,0.006802646443247795
11.45,-0.28443774580955505,0.2021036148071289,0.08074099570512772,-0.004656042903661728,0.012343857437372208,0.0005680316244252026
11.5,-0.2645277678966522,0.2182903289794922,0.09481988102197647,-0.0008758069016039371,0.011251738294959068,0.00408791471272707
11.55,-0.2764303386211395,0.062620148062706,0.04986663907766342,-0.0012393370270729065,0.005277120973914862,0.004584924783557653
11.6,-0.2735183537006378,0.19171810150146484,0.11436721682548523,0.0038619576953351498,0.0032266376074403524,0.00041071634041145444
11.65,-0.23142234981060028,0.16084003448486328,0.0755467563867569,0.003270862391218543,-0.0039744749665260315,0.0004696616670116782
11.7,-0.24578258395195007,0.15631961822509766,0.05530823767185211,0.005675588268786669,-0.0013974346220493317,-0.0052933767437934875
11.75,-0.2507599890232086,0.1357574462890625,0.055014196783304214,0.0014287442900240421,-0.0019071521237492561,-0.008892165496945381
11.8,-0.2276240438222885,0.14947986602783203,0.09410511702299118,-0.00250763026997447,0.00745047815144062,-0.020306343212723732
11.85,-0.23668864369392395,0.17562389373779297,0.09065552800893784,-0.004860358778387308,0.01056938711553812,-0.019368886947631836
11.9,-0.25486546754837036,0.2342233806848526,0.03953637182712555,-0.006564822047948837,0.007677040528506041,-0.017144639045000076
11.95,-0.27485835552215576,0.19793224334716797,0.1401166468858719,-0.0070383138954639435,0.0019428121158853173,-0.013555558398365974
12.0,-0.22679966688156128,0.14327621459960938,0.0709863156080246,-0.0031544531229883432,-0.006705472245812416,-0.010193475522100925
12.05,-0.31969085335731506,0.1453218311071396,0.0723746120929718,-0.007255257107317448,-0.0013018912868574262,-0.000730514875613153
12.1,-0.24189749360084534,0.14585590362548828,0.05026021599769592,-3.423471935093403e-05,0.007389732636511326,0.005646647419780493
12.15,-0.20141258835792542,0.1790637969970703,0.057001616805791855,-4.534213803708553e-05,0.005855134688317776,0.007314084563404322
12.2,-0.24618825316429138,0.16695402562618256,0.11839481443166733,-0.0018688421696424484,0.008366822265088558,0.006970174610614777
12.25,-0.26272356510162354,0.1696920245885849,0.0790046900510788,5.2624905947595835e-05,0.001369488425552845,0.0005070414626970887
12.3,-0.22475779056549072,0.20530129969120026,0.0892118513584137,0.00035635853419080377,-0.0018263073870912194,0.0007869392284192145
12.35,-0.3111119866371155,0.21090221405029297,0.10964038223028183,-0.0006602120120078325,0.002846379764378071,-0.006271790247410536
12.4,-0.2790833115577698,0.20345211029052734,0.08187749981880188,-0.0016952487640082836,0.003057612106204033,-0.008300408720970154
12.45,-0.23035988211631775,0.16986751556396484,0.06673267483711243,-0.007098095491528511,0.0025778559502214193,-0.009710309095680714
12.5,-0.24760593473911285,0.13755320012569427,0.08829623460769653,-0.005720699671655893,0.0011678742012009025,-0.010314281098544598
12.55,-0.2651052474975586,0.1919698715209961,0.11214828491210938,-0.009219307452440262,0.0032851279247552156,-0.011842355132102966
12.6,-0.20379237830638885,0.15367698669433594,0.10960462689399719,-0.0062984018586575985,0.004272730089724064,-0.013880029320716858
12.65,-0.1763288676738739,0.17363929748535156,0.08965706825256348,-0.009279638528823853,-0.0045433626510202885,-0.013649538159370422
12.7,-0.24419689178466797,0.21074962615966797,0.12514567375183105,-0.008675248362123966,1.0450547051732428e-05,-0.005571641027927399
12.75,-0.22764848172664642,0.17587757110595703,0.07377543300390244,-0.007566157262772322,-0.00024161483452189714,-0.0051645743660628796
12.8,-0.24297066032886505,0.1461925357580185,0.08362062275409698,-0.012330598197877407,-0.0034974156878888607,-0.0016222161939367652
12.85,-0.23300127685070038,0.1657867282629013,0.1012130156159401,-0.01039738766849041,-0.007276987656950951,-0.004467118997126818
12.9,-0.2222280204296112,0.09528063982725143,0.0815359428524971,-0.010520605370402336,-0.00925417710095644,-0.007684213109314442
12.95,-0.206875279545784,0.1512289047241211,0.12602920830249786,-0.01154770702123642,0.00010116013436345384,-0.013640004210174084
13.0,-0.23719164729118347,0.1689615249633789,0.07923786342144012,-0.008580629713833332,-0.0055036949925124645,-0.012501910328865051
13.05,-0.2397235631942749,0.14957427978515625,0.05023141950368881,-0.004646139685064554,-0.005508155096322298,-0.010466611944139004
13.1,-0.25238949060440063,0.15106487274169922,0.044644616544246674,-0.004800016526132822,-0.005797781981527805,-0.006441844627261162
13.15,-0.18468806147575378,0.1675128936767578,0.05065496638417244,-0.009077271446585655,-0.005465293303132057,-0.0030193652492016554
13.2,-0.250679075717926,0.1449441760778427,0.07988563925027847,-0.013414861634373665,-0.013504943810403347,0.004471215885132551
13.25,-0.19535543024539948,0.16318416595458984,0.07620510458946228,-0.012193823233246803,-0.020293882116675377,0.00911695882678032
13.3,-0.26035526394844055,0.19207382202148438,0.10482718050479889,-0.008018764667212963,-0.0128500796854496,0.0242364052683115
13.35,-0.23718643188476562,0.18282507359981537,0.11156562715768814,0.003823614679276943,-0.015227287076413631,0.03409158065915108
13.4,-0.2302759289741516,0.2000713348388672,0.16274715960025787,0.0028522834181785583,-0.017324842512607574,0.049279581755399704
13.45,-0.23450161516666412,0.24493408203125,0.15521298348903656,0.017169736325740814,-0.02084897644817829,0.06626158207654953
13.5,-0.2584615647792816,0.2513284683227539,0.10729300230741501,0.045496921986341476,-0.04026581719517708,0.09072815626859665
13.55,-0.3026367723941803,0.16817186772823334,0.08075187355279922,0.0624653697013855,-0.049754537642002106,0.11220097541809082
13.6,-0.26872527599334717,0.09285448491573334,0.013976001180708408,0.0674583911895752,-0.03649921342730522,0.12203079462051392
13.65,-0.26179632544517517,0.20615006983280182,-0.01025821641087532,0.0449061244726181,-0.015154548920691013,0.10557297617197037
13.7,-0.20999082922935486,0.23636819422245026,0.08039530366659164,0.013063065707683563,-0.01981518603861332,0.10357525944709778
13.75,-0.27600234746932983,0.052655212581157684,-0.1006418839097023,-0.01694604381918907,-0.04545207694172859,0.09595143049955368
13.8,-0.2212144136428833,0.031671516597270966,-0.14781615138053894,-0.05594467371702194,-0.004364358726888895,0.06917902082204819
13.85,-0.197219118475914,0.19498729705810547,0.22994033992290497,-0.09359461069107056,0.13095493614673615,-0.009268748573958874
13.9,-0.30403175950050354,0.19562910497188568,0.3616640269756317,-0.1110040619969368,0.12596102058887482,-0.006467219442129135
13.95,-0.18365757167339325,0.0909566730260849,0.16170455515384674,-0.04892704263329506,-0.018034853041172028,0.0478215292096138
14.0,-0.17228633165359497,0.10690783709287643,0.16248218715190887,-0.006431903690099716,-0.08440200239419937,0.08324708044528961
14.05,-0.35300764441490173,0.049289681017398834,0.029203016310930252,-0.0422963947057724,-0.14207176864147186,0.10022945702075958
14.1,-0.2695252299308777,0.2580137252807617,0.2976300120353699,-0.047880735248327255,-0.22800134122371674,0.13529923558235168
14.15,-0.4004930257797241,0.49836158752441406,0.5149982571601868,-0.0003185197710990906,-0.3396173417568207,0.17704267799854279
14.2,-0.08316589891910553,0.2608690559864044,-0.020501909777522087,0.08391410112380981,-0.5059952735900879,0.24835723638534546
14.25,-0.4486425817012787,0.22753332555294037,0.2935749888420105,0.05699482560157776,-0.5808566212654114,0.3830451965332031
14.3,-0.5178473591804504,0.05106446519494057,-0.13134747743606567,0.051819056272506714,-0.6871232390403748,0.4017452597618103
14.35,0.0018631517887115479,-0.08156490325927734,-0.19031429290771484,0.10417124629020691,-0.45591986179351807,0.25822678208351135
14.4,-0.6617614030838013,0.2811259925365448,0.22357337176799774,0.08871518820524216,-0.30886027216911316,0.17110881209373474
14.45,-0.3979187309741974,0.05701252445578575,0.19597886502742767,0.11739632487297058,-0.41740530729293823,0.264972060918808
14.5,-0.6270394325256348,0.32428547739982605,0.1371822953224182,0.19112953543663025,-0.4646892845630646,0.27111297845840454
14.55,-0.725311279296875,0.2606353461742401,0.20845718681812286,0.22597184777259827,-0.4546310603618622,0.25623130798339844
14.6,-0.4484988749027252,0.31878089904785156,0.09753270447254181,0.23065540194511414,-0.5972434878349304,0.33223941922187805
14.65,-0.5083169937133789,0.22916507720947266,-0.22675760090351105,0.16012707352638245,-0.7299153804779053,0.36820268630981445
14.7,-0.7724588513374329,0.17206569015979767,0.05373300611972809,0.12652477622032166,-0.7744568586349487,0.4015606939792633
14.75,-0.265451043844223,-0.06574157625436783,0.19222456216812134,0.1821000874042511,-0.9130061864852905,0.33650752902030945
14.8,0.5692958831787109,0.27958399057388306,0.44300398230552673,0.19539016485214233,-0.9364421963691711,-0.002772228792309761
14.85,1.1429888010025024,0.07652102410793304,-0.2409726083278656,0.03774186968803406,-0.6480217576026917,-0.10120059549808502
14.9,-0.10136576741933823,-0.13523009419441223,0.08338835835456848,-0.10005706548690796,-0.16951608657836914,-0.08446167409420013
14.95,-0.2059987485408783,0.09180925041437149,0.30248209834098816,-0.14162611961364746,0.059765398502349854,-0.18856704235076904
15.0,-0.10573435574769974,0.27249622344970703,0.17548725008964539,-0.1289851814508438,0.13900072872638702,-0.24713028967380524
15.05,-0.4421938359737396,0.2545165717601776,0.2951825261116028,-0.19590695202350616,0.08082526922225952,-0.2527197599411011
15.1,-0.5722266435623169,0.1502513587474823,-0.010519551113247871,-0.14473770558834076,-0.07417131215333939,-0.19222302734851837
15.15,-0.26407262682914734,0.07279490679502487,-0.07690510898828506,-0.06901264190673828,-0.03586260974407196,-0.18310092389583588
15.2,-0.2472347915172577,0.31668949127197266,0.4180292785167694,-0.083711639046669,0.010178966447710991,-0.24410849809646606
15.25,-0.3140864074230194,0.19551658630371094,0.163636714220047,-0.09028545022010803,-0.14363980293273926,-0.13309022784233093
15.3,-0.2612389922142029,0.06703565269708633,0.15598562359809875,-0.013521801680326462,-0.15471450984477997,-0.1231904849410057
15.35,0.005974121391773224,0.25664809346199036,0.042886726558208466,0.032439544796943665,-0.0970081016421318,-0.11346622556447983
15.4,-0.34657496213912964,0.22772789001464844,-0.0167116466909647,0.023851651698350906,-0.03689328953623772,-0.12072907388210297
15.45,-0.36302927136421204,0.29663753509521484,-0.0015465798787772655,0.07725807279348373,-0.005980537738651037,-0.11533044278621674
15.5,-0.40833717584609985,0.22594547271728516,-0.15683607757091522,0.10215303301811218,-0.04816325753927231,-0.07200124114751816
15.55,-0.26791104674339294,0.11561013013124466,-0.3517838418483734,0.03153804689645767,-0.022008787840604782,-0.009108391590416431
15.6,-0.37168148159980774,0.3303794860839844,-0.12948912382125854,-0.05709972232580185,0.18385128676891327,0.011476293206214905
15.65,-0.03615417331457138,0.3862057328224182,-0.05207589268684387,-0.030906349420547485,0.29434603452682495,-0.011190238408744335
15.7,-0.18063797056674957,0.08123205602169037,0.10720831900835037,0.07552646845579147,0.2485518753528595,-0.02069304697215557
15.75,-0.4040191173553467,0.04207891970872879,0.569601833820343,0.12189038842916489,0.14738015830516815,-0.023391271010041237
15.8,0.057006508111953735,0.19888973236083984,0.6119645237922668,0.08057653903961182,-0.010269994847476482,0.014696675352752209
15.85,0.26898664236068726,0.08421707898378372,0.48304522037506104,0.02390889823436737,-0.1817948967218399,0.020579935982823372
15.9,0.17576901614665985,-0.061472900211811066,0.312447190284729,-0.03534496948122978,-0.19917207956314087,0.017496049404144287
15.95,-0.14489713311195374,0.13782499730587006,0.2599543631076813,-0.015532424673438072,-0.13710357248783112,-0.06509341299533844
16.0,-0.21061952412128448,0.22206497192382812,0.15758715569972992,-0.018195252865552902,-0.20118564367294312,-0.05782981216907501
16.05,-0.3924718499183655,0.18103788793087006,-0.0529605895280838,-0.0206929761916399,-0.2133844792842865,0.0012845615856349468
16.1,-0.3315756916999817,0.18005943298339844,-0.08586800843477249,-0.029948342591524124,-0.19110101461410522,0.05261692404747009
16.15,-0.09318267554044724,0.010016447864472866,-0.2817096412181854,-0.04743563383817673,-0.08483538776636124,0.005152327939867973
16.2,-0.05003476142883301,0.1287240982055664,0.3184158205986023,-0.04407493770122528,0.07713542878627777,-0.07887633144855499
16.25,-0.14758281409740448,0.21695709228515625,0.37021589279174805,-0.02669876255095005,0.06697702407836914,-0.11133678257465363
16.3,-0.30591079592704773,0.22228622436523438,0.26869410276412964,0.019380811601877213,0.013672097586095333,-0.10120387375354767
16.35,-0.3794289529323578,0.2030487060546875,-0.028030958026647568,0.09475604444742203,-0.010468441992998123,-0.07912429422140121
16.4,-0.22874099016189575,0.22344209253787994,-0.015084880404174328,0.12900449335575104,0.03877300024032593,-0.09578251093626022
16.45,-0.32342249155044556,0.2079629898071289,0.024553362280130386,0.09937386214733124,0.047347862273454666,-0.09946663677692413
16.5,-0.3335862159729004,0.3669090270996094,0.09614656865596771,0.06228270009160042,-0.019604304805397987,-0.07329198718070984
16.55,-0.4032210111618042,0.2597217559814453,0.019325293600559235,0.033816028386354446,-0.15563316643238068,-0.026642853394150734
16.6,-0.16546663641929626,0.04592609032988548,-0.10658585280179977,-0.003880993463099003,-0.15393252670764923,0.034321971237659454
16.65,-0.25296464562416077,0.18110178411006927,0.22632744908332825,0.0036185993812978268,0.07443700730800629,0.01393232773989439
16.7,-0.14772853255271912,0.11806106567382812,0.08572696894407272,0.02406514808535576,0.05636684596538544,0.043363869190216064
16.75,-0.20123302936553955,0.20053960382938385,0.07929158210754395,0.008848781697452068,0.044379353523254395,0.022598454728722572
16.8,-0.19367219507694244,0.2867708206176758,0.2276255488395691,0.006257197819650173,0.017224321141839027,0.016598904505372047
16.85,-0.2600386440753937,0.24477577209472656,0.33244243264198303,0.007620201446115971,-0.06291087716817856,0.0026019448414444923
16.9,-0.17680887877941132,0.22330571711063385,0.11138728260993958,0.024484915658831596,-0.16207146644592285,0.027500145137310028
16.95,-0.10476721823215485,0.11449814587831497,0.03988848626613617,0.04724311828613281,-0.1834319829940796,0.06223056837916374
17.0,-0.19529055058956146,0.12019538879394531,-0.05761394277215004,0.05956220626831055,-0.06857491284608841,0.0570070818066597
17.05,-0.1613069474697113,0.1310892105102539,0.05966193974018097,0.03954135999083519,0.027507234364748,0.03687407821416855
17.1,-0.16949604451656342,0.1636486053466797,0.1595793515443802,0.017062777653336525,0.05209645628929138,0.018906796351075172
17.15,-0.25145387649536133,0.24484920501708984,0.10496699810028076,0.012757165357470512,0.015397240407764912,0.008594362996518612
17.2,-0.20821520686149597,0.20659351348876953,0.15332430601119995,-0.0022631215397268534,0.009504606015980244,0.0051492564380168915
17.25,-0.17996543645858765,0.15608596801757812,0.14036564528942108,-0.004728207364678383,0.005737697705626488,-0.0012447219341993332
17.3,-0.2178599089384079,0.15462492406368256,0.139339417219162,-0.02016635239124298,0.007235814351588488,-0.011236038990318775
17.35,-0.1662641316652298,0.1443195343017578,0.11751902103424072,-0.022722110152244568,0.012507438659667969,-0.007232388481497765
17.4,-0.19996899366378784,0.1876964569091797,0.19612757861614227,-0.01834126189351082,0.013392103835940361,-0.006826326251029968
17.45,-0.15314336121082306,0.15076637268066406,0.1601688712835312,-0.010108858346939087,-0.00919346697628498,-0.0014725428773090243
17.5,-0.18658336997032166,0.12398623675107956,0.1241559088230133,0.004481908865272999,-0.006207891274243593,0.00038966620923019946
17.55,-0.230239138007164,0.21846866607666016,0.13313017785549164,0.014657653868198395,-0.010410942137241364,0.00010136794298887253
17.6,-0.2687825858592987,0.19257545471191406,0.08591011166572571,0.0174128208309412,-0.01865185983479023,0.006369412411004305
17.65,-0.15811565518379211,0.1635417938232422,0.06489301472902298,0.011982893571257591,-0.023487310856580734,0.005765531212091446
17.7,-0.23493362963199615,0.1932058334350586,0.10872940719127655,0.00698354747146368,-0.01840386912226677,0.009109670296311378
17.75,-0.20360033214092255,0.17071056365966797,0.10152734071016312,0.0023957276716828346,-0.01270722784101963,0.01040192786604166
17.8,-0.21210454404354095,0.22668935358524323,0.13042466342449188,-0.005839566234499216,-0.003990833647549152,0.008590812794864178
17.85,-0.3519517779350281,0.26688194274902344,0.06818977743387222,-0.013452397659420967,0.0015761057147756219,0.006090830080211163
17.9,-0.20054669678211212,0.18584632873535156,0.11859575659036636,-0.02296215482056141,0.014541378244757652,-0.00014521517732646316
17.95,-0.2001124918460846,0.17821979522705078,0.08826896548271179,-0.009304223582148552,0.026084208860993385,0.0029150235932320356
18.0,-0.1938730925321579,0.14742755889892578,0.09459294378757477,-0.007355296052992344,0.029247507452964783,-0.0009190488490276039
18.05,-0.21257540583610535,0.2079315185546875,0.19361817836761475,0.0050000986084342,0.03509367257356644,-0.0052312989719212055
18.1,-0.223665252327919,0.13961315155029297,0.10659445822238922,0.015012465417385101,0.01589229702949524,-0.00013878566096536815
18.15,-0.2362159788608551,0.14079666137695312,0.02552674524486065,0.009522431530058384,0.0034789331257343292,-0.002634641481563449
18.2,-0.28639423847198486,0.13872621953487396,0.06598687171936035,0.0016483634244650602,0.013107679784297943,-0.0057015568017959595
18.25,-0.23267357051372528,0.20774270594120026,0.04913308843970299,-0.003980184905230999,0.002472616732120514,-0.0034424162004143
18.3,-0.2528185248374939,0.22977639734745026,0.04504140466451645,-0.011025320738554,0.015317549929022789,-0.003779464168474078
18.35,-0.2313336431980133,0.22908784449100494,0.0981377437710762,-0.012721477076411247,0.017983637750148773,-0.0016516211908310652
18.4,-0.2040909379720688,0.21463395655155182,0.0934847742319107,-0.012707358226180077,0.0079181008040905,-0.0012989568058401346
18.45,-0.12374546378850937,0.18619155883789062,0.17454974353313446,-0.010792933404445648,0.009722081013023853,-0.0003770841867662966
18.5,-0.099204421043396,0.14007091522216797,0.09702123701572418,-0.0026255780830979347,0.0036287540569901466,-0.0005229039816185832
18.55,-0.1835879385471344,0.20252133905887604,0.059871889650821686,-0.00023164955200627446,0.004659296944737434,-0.0018738576909527183
18.6,-0.21381035447120667,0.18406105041503906,0.0815289169549942,-0.0014950251206755638,0.008590730838477612,-0.005987896118313074
18.65,-0.20970886945724487,0.21570397913455963,0.11615238338708878,-0.0007327704224735498,0.007037017494440079,-0.005796009674668312
18.7,-0.21248753368854523,0.15654277801513672,0.11635355651378632,0.0029176354873925447,0.01200417522341013,-0.0011375501053407788
18.75,-0.2155371457338333,0.21255016326904297,0.12913112342357635,0.0025979592464864254,0.014547621831297874,0.0018366664880886674
18.8,-0.13097992539405823,0.17141056060791016,0.09911127388477325,-0.002687153872102499,-0.0029624500311911106,0.002937857061624527
18.85,-0.14908449351787567,0.16445541381835938,0.05932500585913658,-0.0015424104640260339,0.0021398509852588177,0.0016588137950748205
18.9,-0.17035719752311707,0.19447137415409088,0.0836656391620636,-0.006007251795381308,0.010674438439309597,-0.00537658529356122
18.95,-0.21445578336715698,0.14660358428955078,0.022409481927752495,0.003643961623311043,0.026646336540579796,-0.0033549645449966192
19.0,-0.18547649681568146,0.15247726440429688,0.08264804631471634,0.010718733072280884,0.0440986193716526,-0.0016156700439751148
19.05,-0.2609349489212036,0.22808361053466797,0.26795539259910583,0.02717435359954834,0.006221017800271511,0.0021817819215357304
19.1,-0.34244173765182495,0.2149496078491211,0.06591632962226868,0.04465320333838463,-0.055350158363580704,0.026275502517819405
19.15,-0.24409562349319458,0.2375517040491104,-0.009497554041445255,0.049270641058683395,-0.025764716789126396,0.03780566155910492
19.2,-0.19632849097251892,0.12030982971191406,-0.025676999241113663,0.040486134588718414,0.041229698807001114,0.046621862798929214
19.25,-0.12725801765918732,0.0708932876586914,-0.030737658962607384,0.0375799834728241,0.10130070894956589,0.04996414855122566
19.3,-0.2686131000518799,0.275543212890625,0.23412609100341797,0.021610204130411148,0.14055638015270233,0.01512241642922163
19.35,-0.19819088280200958,0.2446422576904297,0.21219594776630402,0.010275788605213165,0.026432804763317108,0.027838507667183876
19.4,-0.18197251856327057,0.2018880993127823,0.07970517873764038,0.016885852441191673,-0.033229634165763855,0.021179279312491417
19.45,-0.16990360617637634,0.19906999170780182,0.09859976172447205,0.00784604623913765,5.168321149540134e-05,-0.0029598944820463657
19.5,-0.3054458498954773,0.211151123046875,0.11319863051176071,-0.0011660754680633545,0.03178635984659195,-0.018545564264059067
19.55,-0.24403299391269684,0.1670045703649521,0.09559933841228485,0.0016253364738076925,0.021943852305412292,-0.0036996956914663315
19.6,-0.29164591431617737,0.1933450698852539,0.08117355406284332,0.003718114458024502,0.008913267403841019,0.0036090032663196325
19.65,-0.19517283141613007,0.19616319239139557,0.09350376576185226,0.002818834502249956,0.0022552490700036287,0.008320902474224567
19.7,-0.19038137793540955,0.2089843899011612,0.08878210932016373,-0.0030581532046198845,0.0056923977099359035,0.003950073849409819
19.75,-0.1716257780790329,0.2378692775964737,0.1105547845363617,-0.004239927977323532,0.012200548313558102,-0.006040459964424372
19.8,-0.2523364722728729,0.2135000228881836,0.10045097023248672,0.004300379194319248,0.008101238869130611,-0.003424226539209485
19.85,-0.2030964493751526,0.18961526453495026,0.08232743293046951,0.00043015944538637996,0.008865472860634327,-0.0004961860831826925
19.9,-0.250272274017334,0.20947742462158203,0.08548554033041,-0.0028558271005749702,0.008030453696846962,-0.003486504079774022
