Time [s],Acc_x [m/s^2],Acc_y [m/s^2],Acc_z [m/s^2],Gyro_x [1/s],Gyro_y [1/s],Gyro_z [1/s]
0.0,0.5697305202484131,-0.4732208549976349,0.5783178210258484,-0.20753368735313416,-0.0881028100848198,0.15682825446128845
0.05,0.5088546276092529,-0.46488669514656067,0.5016039609909058,-0.2076454609632492,-0.08803845942020416,0.15671639144420624
0.1,0.42293161153793335,-0.444374144077301,0.45056211948394775,-0.17494818568229675,-0.08315329998731613,0.15296198427677155
0.15,0.2514601945877075,-0.3125658333301544,0.3552396893501282,-0.03210747614502907,-0.063532754778862,0.11113367229700089
0.2,0.0034816544502973557,-0.01585579290986061,0.055269598960876465,0.1117418110370636,-0.03919989988207817,-0.0009596643503755331
0.25,-0.13600824773311615,0.08714007586240768,0.09973958134651184,0.1425587683916092,0.008466835133731365,-0.04749622941017151
0.3,-0.07169228792190552,0.18262195587158203,0.1744394749403,0.13719238340854645,0.07654979825019836,-0.0028745539020746946
0.35,-0.01511499285697937,0.32903385162353516,0.3293362557888031,0.1318078190088272,0.1375153511762619,0.036769576370716095
0.4,-0.04222550988197327,0.4846058189868927,0.3812814950942993,-0.0007847044616937637,0.16351310908794403,0.04539676755666733
0.45,-0.16185545921325684,0.11084266752004623,0.8422510623931885,-0.16479340195655823,0.2071526050567627,0.117720827460289
0.5,-0.017333418130874634,-0.2355232983827591,0.8517771363258362,-0.11004508286714554,0.18161380290985107,0.253430038690567
0.55,0.3130166530609131,-0.1783609688282013,0.8127081394195557,-0.04104417562484741,0.042868632823228836,0.37791621685028076
0.6,0.6095507144927979,-0.2188110202550888,0.20214807987213135,0.0294598788022995,-0.10480007529258728,0.32908713817596436
0.65,0.5924283266067505,-0.4357357323169708,0.2917981743812561,-0.08413176238536835,-0.16043420135974884,0.2066534012556076
0.7,0.47493910789489746,-0.3989086449146271,0.4508019983768463,-0.10525587946176529,-0.1375834047794342,0.14990480244159698
0.75,0.5024788975715637,-0.20099735260009766,0.32257676124572754,-0.002136293798685074,-0.11482591181993484,0.12153131514787674
0.8,0.5577902793884277,-0.07243916392326355,0.0710977092385292,0.08202256262302399,-0.06946922838687897,0.0601826012134552
0.85,0.3350940942764282,-0.052401527762413025,0.0885215774178505,0.09554299712181091,-0.027852889150381088,0.0036226187366992235
0.9,0.11167403310537338,-0.32760336995124817,-0.03990036994218826,0.04664507880806923,-0.05657998472452164,-0.04916999116539955
0.95,-0.305667906999588,-0.35670000314712524,-0.09442871809005737,0.10837887227535248,0.013699661940336227,-0.1046397015452385
1.0,-0.4349534511566162,-0.31861406564712524,-0.2587004005908966,0.2819336950778961,0.12511123716831207,-0.1026354432106018
1.05,-0.635093092918396,0.25346946716308594,-0.6412753462791443,0.4855184555053711,0.2377341240644455,-0.18128518760204315
1.1,-0.8987608551979065,0.6796742081642151,-0.9532148241996765,0.5730666518211365,0.3338753283023834,-0.2313614934682846
1.15,-0.9237082004547119,0.12542244791984558,-0.5843410491943359,0.42187365889549255,0.3534374237060547,-0.21841029822826385
1.2,-1.0191978216171265,0.15170663595199585,-0.045044347643852234,0.29515647888183594,0.2770976126194,-0.250142902135849
1.25,-0.8354381918907166,0.25855156779289246,0.014791064895689487,0.2711869776248932,0.09899702668190002,-0.20513038337230682
1.3,-0.5498555898666382,0.3841438591480255,0.03567421808838844,0.2111116498708725,-0.04920818656682968,-0.1398509293794632
1.35,-0.40892717242240906,0.3725471496582031,0.21622322499752045,0.07106570154428482,-0.10007871687412262,-0.07531571388244629
1.4,-0.17747420072555542,0.292755126953125,0.40898314118385315,0.01965864934027195,-0.14931930601596832,0.07730703800916672
1.45,0.08713389933109283,0.15342426300048828,0.5540111064910889,-0.027422510087490082,-0.22476281225681305,0.1943136304616928
1.5,0.48300981521606445,-0.0146550964564085,0.38909488916397095,-0.09701044112443924,-0.30733639001846313,0.25380977988243103
1.55,0.5328153967857361,-0.19598770141601562,0.3732026219367981,-0.2221318930387497,-0.3412291705608368,0.17314745485782623
1.6,0.3718414902687073,0.12220576405525208,0.29260674118995667,-0.2749325633049011,-0.3078553080558777,0.02437695302069187
1.65,0.024027466773986816,0.42386728525161743,0.33679232001304626,-0.2737584710121155,-0.20910020172595978,0.0036409087479114532
1.7,-0.1444939821958542,0.40282920002937317,0.1102045327425003,-0.2880111336708069,-0.128964364528656,0.14257095754146576
1.75,-0.023018885403871536,-0.26540663838386536,-0.10107890516519547,-0.37602102756500244,-0.07713387161493301,0.30940887331962585
1.8,-0.016762278974056244,-0.4277191758155823,0.2627444267272949,-0.49715638160705566,-0.06101302057504654,0.32990550994873047
1.85,0.16916149854660034,-0.4103432297706604,0.1275947242975235,-0.5045404434204102,-0.1139211356639862,0.26350051164627075
1.9,0.2754947543144226,0.00782111193984747,-0.14721764624118805,-0.39960959553718567,-0.12335791438817978,0.1535676270723343
1.95,0.05543789267539978,0.5056286454200745,-0.09529747068881989,-0.3772983253002167,-0.1124255508184433,0.05713081732392311
2.0,0.10377046465873718,-0.1269216537475586,-0.15339680016040802,-0.41725754737854004,-0.13616923987865448,0.012384581379592419
2.05,-0.14442777633666992,-0.29331210255622864,0.01483694463968277,-0.3611401319503784,-0.10620579868555069,-0.10984907299280167
2.1,-0.1901407539844513,-0.35375693440437317,-0.03341309726238251,-0.19961214065551758,-0.09575749933719635,-0.18304623663425446
2.15,-0.08498628437519073,-0.19502833485603333,-0.09974180161952972,-0.011186875402927399,-0.11421539634466171,-0.2640635669231415
2.2,-0.03003905713558197,-0.07861042022705078,-0.23563897609710693,0.09292113780975342,-0.1582699716091156,-0.36082565784454346
2.25,0.06932222843170166,0.042744655162096024,-0.24709248542785645,0.10103145241737366,-0.19411151111125946,-0.4252329170703888
2.3,0.09628632664680481,0.07896330207586288,-0.1126038059592247,0.043806180357933044,-0.1827784925699234,-0.4605214297771454
2.35,-0.1162770688533783,0.30412009358406067,0.014577408321201801,0.03762929141521454,-0.0855322927236557,-0.45039767026901245
2.4,-0.3305469751358032,0.6062355637550354,0.07105086743831635,0.01732562482357025,0.006954633630812168,-0.29646456241607666
2.45,-0.22076502442359924,0.3753052055835724,0.039286572486162186,-0.05752132087945938,0.02720160037279129,-0.03599366918206215
2.5,0.011607840657234192,-0.066926971077919,0.1162944808602333,-0.05895330756902695,0.03171100839972496,0.13310930132865906
2.55,0.38003477454185486,-0.22370338439941406,0.019607970491051674,0.017612189054489136,0.006346271373331547,0.18873605132102966
2.6,0.37281814217567444,-0.15504072606563568,-0.11482776701450348,0.07825405150651932,0.0014770601410418749,0.10911878198385239
2.65,0.2682662606239319,-0.059765785932540894,-0.35154175758361816,0.10545588284730911,0.011851123534142971,0.0021224704105407
2.7,0.14422258734703064,0.1037931814789772,-0.2736673653125763,0.08712640404701233,0.03251596912741661,-0.07047709822654724
2.75,0.0235968679189682,0.1763925850391388,-0.24986307322978973,0.016693048179149628,0.018996357917785645,-0.12262319028377533
2.8,-0.15095242857933044,0.18204881250858307,-0.1385745257139206,-0.047781169414520264,0.021009953692555428,-0.14589299261569977
2.85,-0.24142000079154968,0.08330344408750534,-0.03512628376483917,-0.0544971264898777,0.0403154194355011,-0.12059159576892853
2.9,-0.2567112445831299,0.0556783601641655,-0.0726402997970581,-0.010549867525696754,0.05164846032857895,-0.06911210715770721
2.95,-0.19550387561321259,0.042500488460063934,-0.07566902786493301,0.030114319175481796,0.0574253685772419,-0.03346938267350197
3.0,-0.13687989115715027,0.03205012530088425,0.01505990233272314,0.07001904398202896,0.06833553314208984,-0.010087977163493633
3.05,-0.09386683255434036,0.09664345532655716,-0.02800958789885044,0.10375514626502991,0.06821909546852112,-0.004126967396587133
3.1,-0.07159364968538284,0.1658353954553604,-0.021338772028684616,0.09878039360046387,0.05887700617313385,-0.02967304177582264
3.15,-0.027461254969239235,0.2119322121143341,-0.022075310349464417,0.06209060177206993,0.029163073748350143,-0.03808893263339996
3.2,-0.030945274978876114,0.15845204889774323,-0.0011241927277296782,0.006116767413914204,0.0009511237149126828,-0.019071446731686592
3.25,-0.037279561161994934,0.07317352294921875,0.08966835588216782,-0.02812069281935692,-0.021090485155582428,0.011139911599457264
3.3,0.02137443982064724,-0.005109790246933699,0.0932486429810524,-0.01795046404004097,-0.05606861785054207,0.0289767999202013
3.35,0.169728621840477,0.021557822823524475,0.005796687677502632,0.005754170939326286,-0.09057073295116425,0.02280757576227188
3.4,0.2810158431529999,0.09005454182624817,-0.0930011048913002,0.01590815559029579,-0.0954311266541481,0.016983462497591972
3.45,0.23607882857322693,0.12523750960826874,-0.11362086236476898,0.015465058386325836,-0.062411900609731674,0.007801721338182688
3.5,0.19951394200325012,0.03091433085501194,-0.10778480768203735,0.010844502598047256,-0.027337711304426193,-0.0038702019955962896
3.55,0.14796082675457,0.02307988330721855,0.033667173236608505,0.00159836420789361,-0.010659079998731613,-0.010954059660434723
3.6,0.07077524811029434,0.06841946393251419,0.08188648521900177,-0.0029852110892534256,-0.018872732296586037,-0.02385898120701313
3.65,0.03560084104537964,0.08039379864931107,0.05967289209365845,-0.006874913349747658,-0.032356616109609604,-0.034386713057756424
3.7,-0.018972240388393402,0.053243640810251236,0.08076320588588715,-0.021566370502114296,-0.027109559625387192,-0.04700600355863571
3.75,-0.006271664053201675,0.018261907622218132,0.07754398137331009,-0.01859874092042446,-0.021320810541510582,-0.03999234363436699
3.8,-0.008471191860735416,0.02202320285141468,-0.008133969269692898,-0.008841258473694324,-0.019668681547045708,-0.03125299513339996
3.85,-0.02509808912873268,0.14551450312137604,-0.05622216314077377,-0.025754068046808243,-0.027961527928709984,-0.021176472306251526
3.9,0.10229157656431198,0.10693266242742538,-0.04057421162724495,-0.039117395877838135,-0.040751103311777115,0.006738685071468353
3.95,0.14530900120735168,0.046340957283973694,-0.024203184992074966,-0.034150734543800354,-0.032666921615600586,0.005673719570040703
4.0,0.11716477572917938,0.02568722888827324,0.01669255457818508,-0.02387140318751335,-0.006650051102042198,-0.0014807485276833177
4.05,0.07702866941690445,0.037249576300382614,-0.02633117325603962,-0.009891951456665993,0.02002176269888878,-0.01140670571476221
4.1,-0.03031696006655693,0.03253650665283203,0.03779425099492073,-0.01088619977235794,0.039452340453863144,-0.021595066413283348
4.15,-0.048006728291511536,0.003325458848848939,0.005862540099769831,-0.0021046167239546776,0.03464016690850258,-0.021390359848737717
4.2,0.009761123917996883,0.04424763470888138,-0.02461930923163891,0.0165623240172863,0.023629380390048027,-0.018548622727394104
4.25,0.02391166239976883,0.036880504339933395,-0.11219478398561478,0.04210788384079933,0.03696230798959732,-0.0021667093969881535
4.3,0.06255697458982468,-0.10573291778564453,-0.18984173238277435,0.07413511723279953,0.06454738229513168,0.022486506029963493
4.35,0.05297509580850601,0.177494078874588,-0.30568620562553406,0.14017733931541443,0.05948255583643913,0.030310438945889473
4.4,0.21578826010227203,0.35610780119895935,-0.6355707049369812,0.1552126109600067,0.02539200708270073,0.022547530010342598
4.45,0.09810672700405121,0.15546230971813202,-0.3472587466239929,0.0456208735704422,0.034549932926893234,-0.05314110219478607
4.5,-0.07332853227853775,-0.05618764087557793,-0.05339214950799942,0.02692793309688568,-0.02436125837266445,-0.1705877035856247
4.55,-0.1978420615196228,0.46090131998062134,-0.32784518599510193,0.1013604924082756,-0.12421788275241852,-0.3143419027328491
4.6,-0.4394860863685608,0.8133317232131958,-0.36905595660209656,0.07828332483768463,-0.08858484774827957,-0.27205657958984375
4.65,-0.6308659911155701,0.44133853912353516,0.0017683900659903884,-0.01852891594171524,0.027199048548936844,-0.11377178877592087
4.7,-0.6408035159111023,0.15465255081653595,0.3063933253288269,-0.11834375560283661,0.05883452668786049,-0.0063720704056322575
4.75,-0.4160888195037842,-0.3016596734523773,0.5074604153633118,-0.1705738753080368,0.0563984252512455,0.1379990130662918
4.8,-0.23582008481025696,-0.303320974111557,0.7148211002349854,-0.15118670463562012,0.0643024742603302,0.2378426194190979
4.85,0.03357395529747009,-0.062110934406518936,0.6573215126991272,-0.11748120188713074,0.0328092947602272,0.30116480588912964
4.9,0.3460763096809387,-0.33620646595954895,0.378553181886673,-0.11044099181890488,0.008944018743932247,0.34347403049468994
4.95,0.35236477851867676,-0.47719770669937134,0.2893349528312683,-0.08676409721374512,0.017076268792152405,0.3052259683609009
5.0,0.33330434560775757,-0.156126007437706,0.061117708683013916,0.0478442907333374,0.011781731620430946,0.23922447860240936
5.05,0.24697817862033844,0.3591967225074768,-0.012426910921931267,0.19221092760562897,0.04155540466308594,0.20100724697113037
5.1,0.3027808666229248,0.4602290093898773,-0.05494367703795433,0.24805083870887756,0.027311941608786583,0.21798965334892273
5.15,0.455282062292099,0.1154680848121643,-0.2444877326488495,0.16791932284832,0.0082934545353055,0.2052929401397705
5.2,0.30900996923446655,0.1399431675672531,0.004876894410699606,0.01509883627295494,0.04895607382059097,0.15638819336891174
5.25,0.06175832077860832,-0.330657035112381,0.1976567953824997,-0.1128525361418724,0.08413997292518616,0.07730428129434586
5.3,-0.04838300496339798,-0.15299418568611145,0.20344625413417816,-0.14158572256565094,0.048764634877443314,0.02336949110031128
5.35,0.07211998105049133,-0.11779118329286575,0.0011773973237723112,-0.12994146347045898,-0.02325040102005005,-0.005037928000092506
5.4,0.1657358556985855,-0.1655883640050888,-0.29557761549949646,-0.0852392390370369,-0.04927816987037659,-0.05711405351758003
5.45,0.0047787949442863464,0.05005266144871712,-0.19683095812797546,-0.0409020334482193,0.010657168924808502,-0.1311178207397461
5.5,-0.11229206621646881,0.3937559723854065,-0.04156658053398132,-0.0336519218981266,0.0299418643116951,-0.1377488523721695
5.55,0.24926216900348663,0.25662142038345337,-0.21878290176391602,-0.08631947636604309,-0.06921383738517761,-0.03615260496735573
5.6,0.6101099848747253,0.1731606274843216,-0.34193411469459534,-0.1990319788455963,-0.0996657982468605,-0.011782059445977211
5.65,0.5784792900085449,0.1537657380104065,-0.031018497422337532,-0.35521116852760315,-0.046552449464797974,-0.0517563559114933
5.7,0.35023951530456543,0.11552909016609192,0.26762616634368896,-0.45248496532440186,0.0556163415312767,-0.09332748502492905
5.75,0.13361060619354248,0.17122459411621094,0.5343693494796753,-0.5006256699562073,0.0878729596734047,-0.1357993185520172
5.8,0.035974860191345215,-0.0060940091498196125,0.6978356838226318,-0.5505617260932922,0.004723826888948679,-0.15098556876182556
5.85,-0.06412941217422485,-0.20373445749282837,0.6967175602912903,-0.5299534797668457,-0.10220823436975479,-0.14324243366718292
5.9,0.23049040138721466,-0.26105788350105286,0.42781347036361694,-0.401535302400589,-0.1426447331905365,-0.0714651346206665
5.95,0.6373541355133057,-0.5446405410766602,0.3529115915298462,-0.24278686940670013,-0.08061516284942627,-0.010881155729293823
6.0,0.7116910815238953,-0.661473274230957,0.41100603342056274,-0.10394780337810516,0.016838438808918,-0.06864675134420395
6.05,0.3367947041988373,-0.520668089389801,0.4083404839038849,0.06955378502607346,0.10416606068611145,-0.2532739043235779
6.1,-0.18633389472961426,-0.1538715660572052,0.1170305386185646,0.29385316371917725,0.15117675065994263,-0.37997132539749146
6.15,-0.6754207015037537,0.2908115088939667,-0.12170899659395218,0.38390859961509705,0.13054965436458588,-0.36480942368507385
6.2,-0.6047532558441162,0.4064235985279083,-0.34991487860679626,0.3770475685596466,0.06458327174186707,-0.2013707309961319
6.25,-0.4473239779472351,0.34041693806648254,-0.42244336009025574,0.37595516443252563,0.037814997136592865,-0.06947608292102814
6.3,-0.2248181849718094,0.12440206855535507,-0.4711301028728485,0.3432605266571045,0.042993366718292236,0.00595136359333992
6.35,-0.3414313793182373,0.12305357307195663,-0.6530699133872986,0.3422245681285858,0.08353537321090698,0.016158558428287506
6.4,-0.39739522337913513,0.16092872619628906,-0.4859893321990967,0.31117773056030273,0.07069031894207001,-0.029055463150143623
6.45,-0.2677888870239258,0.16616155207157135,-0.5229760408401489,0.2546793222427368,-0.041288670152425766,-0.05611183121800423
6.5,-0.12698765099048615,0.24301056563854218,-0.5780815482139587,0.19893798232078552,-0.12225349247455597,-0.04432065412402153
6.55,0.07432103157043457,0.3113613724708557,-0.7125953435897827,0.18683019280433655,-0.08930359035730362,-0.04198392853140831
6.6,-0.21459093689918518,0.42492395639419556,-0.34055230021476746,0.1247549057006836,-0.04460211098194122,-0.08097339421510696
6.65,0.04122381657361984,0.3641367554664612,-0.2610672414302826,0.006574427708983421,-0.12279865890741348,-0.0666712075471878
6.7,0.28101372718811035,0.13361935317516327,-0.039078522473573685,-0.04168328642845154,-0.08291159570217133,-0.022604987025260925
6.75,0.21774423122406006,0.0045023104175925255,0.06831354647874832,-0.03429211676120758,-0.007834848947823048,-0.01828254759311676
6.8,-0.0920395478606224,0.09844397753477097,0.25300657749176025,-0.03458615019917488,0.020460667088627815,-0.041110556572675705
6.85,-0.1546921730041504,0.18935777246952057,0.12073619663715363,-0.055666834115982056,-0.032038476318120956,-0.040554147213697433
6.9,0.035856474190950394,0.15259839594364166,-0.020787153393030167,-0.06562690436840057,-0.04844213277101517,-0.009270831011235714
6.95,-0.027026718482375145,0.04166698455810547,0.07182519137859344,-0.0701785683631897,0.011924597434699535,0.022424986585974693
7.0,0.007407747209072113,-0.02630711905658245,0.2139834314584732,-0.07298292964696884,0.0471707321703434,0.037098031491041183
7.05,-0.08810733258724213,0.0655050128698349,0.29034730792045593,-0.058163296431303024,0.033399805426597595,0.021478185430169106
7.1,-0.028733644634485245,0.09389973431825638,0.13643239438533783,-0.049609411507844925,-0.01002646517008543,0.010889090597629547
7.15,-0.06620306521654129,0.0735483169555664,0.10575243830680847,-0.062219150364398956,-0.029265303164720535,0.0024483625311404467
7.2,0.006888195872306824,0.02449321560561657,0.11485093832015991,-0.07338407635688782,-0.025272123515605927,0.02176508679986
7.25,0.03657060116529465,-0.010030750185251236,0.11936695873737335,-0.05788911506533623,-0.018041357398033142,0.024995848536491394
7.3,0.04775191470980644,-0.06063557788729668,0.17098459601402283,-0.034746166318655014,-0.03717630356550217,0.007201273459941149
7.35,0.10706928372383118,-0.010746952146291733,0.06948461383581161,-0.010964510031044483,-0.07577696442604065,-0.012564335949718952
7.4,0.20221641659736633,0.060013797134160995,-0.036664579063653946,0.007859836332499981,-0.08698856830596924,-0.02673875167965889
7.45,0.1894587278366089,0.055634524673223495,-0.0716102197766304,0.009883438237011433,-0.05600278824567795,-0.013388712890446186
7.5,0.2179076373577118,0.07382777333259583,-0.05205654725432396,0.0021916753612458706,-0.0157100148499012,-0.0047251381911337376
7.55,0.18931995332241058,0.03501226380467415,-0.04677050933241844,-0.007127559743821621,0.008030585013329983,-0.0067992969416081905
7.6,0.04882875084877014,0.060091983526945114,0.020609518513083458,-0.016947485506534576,0.01109707448631525,-0.010839673690497875
7.65,0.07641828805208206,0.0325784794986248,-0.056860681623220444,-0.015421668067574501,-0.0006452042725868523,-0.010593535378575325
7.7,0.0014030570164322853,0.07549668103456497,-0.019088929519057274,-0.021818917244672775,0.01560106873512268,-0.034469299018383026
7.75,-0.061917804181575775,0.05038928985595703,0.02519615925848484,-0.03108619526028633,0.03449220582842827,-0.026851292699575424
7.8,-0.06528778374195099,0.03600120171904564,0.06852017343044281,-0.02323446422815323,0.033430419862270355,-0.012485562823712826
7.85,-0.04594379663467407,0.06154346838593483,0.02993137575685978,-0.017384186387062073,0.008114628493785858,0.007294711656868458
7.9,0.0266860481351614,0.06915570795536041,-0.05883099511265755,-0.01287372037768364,-0.01048075221478939,0.017880676314234734
7.95,0.05776762589812279,0.09254266321659088,-0.0314776636660099,-0.0220915749669075,-0.009478517808020115,0.002615148201584816
8.0,0.014125209301710129,0.03974438086152077,0.033158790320158005,-0.032559964805841446,0.0012801439734175801,-0.01317279227077961
8.05,-0.028582792729139328,0.021391866728663445,0.02200911194086075,-0.03402445465326309,-0.00098171248100698,-0.023345721885561943
8.1,0.020224109292030334,0.0424499548971653,0.056345172226428986,-0.03425620123744011,-0.009602406062185764,-0.02435038611292839
8.15,0.07981891185045242,0.05133725330233574,0.017340265214443207,-0.02167138271033764,-0.011399674229323864,-0.015075081028044224
8.2,0.14459116756916046,0.09025957435369492,-0.049493204802274704,-0.011399175971746445,-0.005439695902168751,-0.012459690682590008
8.25,0.06408712267875671,0.05299092456698418,0.01089638751000166,-0.01939249038696289,0.012114603072404861,-0.033877115696668625
8.3,-0.0007274746894836426,0.04083728790283203,0.04976094141602516,-0.025518156588077545,0.023908380419015884,-0.04566600173711777
8.35,-0.1036917120218277,0.05269336327910423,0.09020157903432846,-0.01436220295727253,0.019921358674764633,-0.038841526955366135
8.4,-0.08424859493970871,0.07093238830566406,0.010172869078814983,0.0011538490653038025,-0.001004557590931654,-0.021002091467380524
8.45,-0.01579088717699051,0.08610440045595169,-0.05728819593787193,0.002858206396922469,-0.013120768591761589,-0.0021730191074311733
8.5,0.009829636663198471,0.07417966425418854,-0.06686770170927048,-0.002381446771323681,-0.014571910724043846,0.006035998463630676
8.55,0.0509180910885334,0.06490422040224075,0.012737041339278221,-0.014329468831419945,-0.010628562420606613,0.0019518015906214714
8.6,0.05100613087415695,0.038470275700092316,0.041854504495859146,-0.011460665613412857,-0.00841599702835083,-0.00824186485260725
8.65,0.025341149419546127,-0.002907751826569438,0.011549150571227074,0.0002837451174855232,-0.005921103060245514,-0.01621026173233986
8.7,0.05093530938029289,0.027277955785393715,-0.02143036387860775,0.010425623506307602,0.001163681736215949,-0.012925287708640099
8.75,0.04711397737264633,0.0940561443567276,0.027506524696946144,0.008835533633828163,0.009937243536114693,-0.0018891084473580122
8.8,0.04683452472090721,0.07461930811405182,-0.03855849802494049,0.003692964557558298,0.005814351607114077,0.0016798462020233274
8.85,0.0024332755710929632,0.0504760816693306,-0.009604069404304028,-0.007910491898655891,0.008834511041641235,-0.016794010996818542
8.9,-0.050166863948106766,0.021054264158010483,0.034989286214113235,-0.007075663655996323,0.017145954072475433,-0.018199078738689423
8.95,-0.012660707347095013,0.041761402040719986,-0.049095336347818375,0.006425103638321161,0.01388910599052906,-0.01282717939466238
9.0,-0.019340548664331436,0.05899525433778763,-0.01353504229336977,0.0067585911601781845,0.014835682697594166,-0.0021807653829455376
9.05,-0.0052030207589268684,0.06693363934755325,-0.038057416677474976,0.00535529525950551,0.015701016411185265,0.0085759237408638
9.1,-0.0019234685460105538,0.060770995914936066,0.001911421655677259,0.0014143595471978188,0.02024957910180092,0.0071072946302592754
9.15,-0.028530364856123924,0.06845474988222122,0.014789748936891556,-0.004883544519543648,0.009266583248972893,0.000388164771720767
9.2,0.020451989024877548,0.03633880987763405,0.01434229128062725,-0.008009484969079494,-0.005028450861573219,-0.005472284276038408
9.25,0.02750891074538231,0.0379800871014595,-0.03062676265835762,-0.001319550327025354,-0.0014348729746416211,-0.003199242288246751
9.3,0.0027332082390785217,0.027438167482614517,0.009022033773362637,0.0014426553389057517,0.003530230140313506,0.003110961290076375
9.35,0.024702318012714386,0.06709194928407669,0.05343712121248245,0.0074104308150708675,-0.00251387688331306,0.0026289273519068956
9.4,0.0742112472653389,0.005413063336163759,-0.0401541031897068,0.011164756491780281,-0.008959769271314144,0.0031413708347827196
9.45,0.02979505993425846,0.053095828741788864,-0.05817200616002083,0.006154700648039579,0.0037896365392953157,-0.014107812196016312
9.5,-0.021345041692256927,0.03270244598388672,0.051151689141988754,-0.0012622594367712736,0.01868457905948162,-0.008437324315309525
9.55,0.017899135127663612,0.09493733942508698,0.030680283904075623,0.009252210147678852,0.008943473920226097,-0.003334582317620516
9.6,0.007716415449976921,0.14058400690555573,-0.03853075951337814,0.00866776891052723,-0.008344514295458794,0.0036306323017925024
9.65,0.04897739365696907,0.11150076240301132,-0.06556347757577896,0.0017616013064980507,-0.012622654438018799,0.011842207051813602
9.7,0.03865113854408264,0.05572320148348808,-0.03978608548641205,-0.007760055363178253,-0.0029683320317417383,0.0026354766450822353
9.75,0.015723254531621933,0.03213215246796608,0.0028539076447486877,-0.010598709806799889,0.0016243522986769676,-0.0020313092973083258
9.8,-0.010343782603740692,0.0558624304831028,0.045295242220163345,-0.006185988895595074,0.0033134750556200743,-0.0030460648704320192
9.85,-0.03583974391222,0.07943440228700638,0.01766030490398407,0.001065041171386838,0.002271163510158658,0.00016819036682136357
9.9,-0.08458241820335388,0.09486199170351028,-0.036743275821208954,0.000672629103064537,-0.0060720983892679214,0.011690626852214336
9.95,-0.0690091997385025,0.1949005424976349,-0.05135321244597435,-0.01047759223729372,-0.021148918196558952,0.022225497290492058
10.0,-0.1351046860218048,0.24023915827274323,-0.026633087545633316,-0.03227628767490387,-0.028616080060601234,0.0454849936068058
10.05,-0.0933147668838501,0.2291727364063263,-0.0995291993021965,-0.05884304642677307,-0.0470566563308239,0.0983453169465065
10.1,-0.023593755438923836,0.07796860486268997,-0.06549172848463058,-0.09315565228462219,-0.04823689162731171,0.13685356080532074
10.15,0.11372688412666321,-0.13825418055057526,0.10624337196350098,-0.09502632170915604,-0.04324747622013092,0.14003154635429382
10.2,0.16139495372772217,-0.20864678919315338,0.07610279321670532,-0.040111005306243896,-0.04662428796291351,0.07205242663621902
10.25,0.08374936878681183,-0.08658599853515625,0.032385990023612976,0.006267092190682888,-0.03990874066948891,-0.008787926286458969
10.3,0.03594813495874405,0.04631520062685013,-0.00841627735644579,0.024800218641757965,-0.02961631305515766,-0.038812585175037384
10.35,0.10212507098913193,0.1015796884894371,0.007463427260518074,0.022807668894529343,-0.020920608192682266,-0.03345129266381264
10.4,0.1411939114332199,0.0825815349817276,0.01724759116768837,0.012269886210560799,-0.013957773335278034,-0.03344826027750969
10.45,0.0713975727558136,0.043307311832904816,0.01605769246816635,0.017532985657453537,-0.005602517630904913,-0.03789002075791359
10.5,0.048454903066158295,0.014257438480854034,-0.03385029733181,0.030280455946922302,0.004326489754021168,-0.04269850254058838
10.55,-0.021971121430397034,0.0551614835858345,-0.07077837735414505,0.03130713850259781,0.014224415645003319,-0.03975642845034599
10.6,-0.07738972455263138,0.08025646209716797,-0.022072631865739822,0.022884640842676163,0.015133322216570377,-0.02327495440840721
10.65,-0.06318363547325134,0.08915043622255325,-0.03659607097506523,0.012018833309412003,0.00011839624494314194,-0.014349169097840786
10.7,-0.010432310402393341,0.11364080011844635,-0.032070692628622055,0.001079983776435256,-0.017652565613389015,-0.00852319598197937
10.75,-0.014491066336631775,0.09413625299930573,-0.019002258777618408,-0.0006659757345914841,-0.01785551756620407,-0.02729444019496441
10.8,-0.03539342060685158,0.07610225677490234,0.05648361146450043,0.0002834536135196686,-0.00883127748966217,-0.03935017064213753
10.85,-0.05885656550526619,0.0646810531616211,0.0032145308796316385,0.009600413031876087,-0.004860960878431797,-0.02615327388048172
10.9,0.026743901893496513,0.07592488080263138,0.009112355299293995,0.01658179797232151,-0.0058516692370176315,-0.006411207839846611
10.95,0.03977228328585625,0.11043550819158554,-0.05397161468863487,0.022019537165760994,-0.011184999719262123,-0.0006820941925980151
11.0,0.06475825607776642,0.1493997722864151,-0.05150898918509483,0.013447445817291737,-0.013015402480959892,-0.008832412771880627
11.05,0.07884550094604492,0.05293180048465729,-0.04788434877991676,0.001864769496023655,-0.008243442513048649,-0.01696479506790638
11.1,0.030689187347888947,0.03644467145204544,-0.04238820821046829,-0.002469528466463089,0.005505925044417381,-0.02291484735906124
11.15,-0.05169194936752319,0.049576763063669205,-0.002986471401527524,0.0019717104732990265,0.020043788477778435,-0.022548919543623924
11.2,-0.06212227791547775,0.04444694519042969,-0.03339695930480957,0.011077807284891605,0.01818566769361496,-0.02040937729179859
11.25,-0.0528363436460495,0.027077676728367805,-0.05537549778819084,0.004996735602617264,0.013813872821629047,-0.013092405162751675
11.3,-0.09011776745319366,0.14757443964481354,0.004269735887646675,-0.00987570732831955,0.01055044773966074,-0.013592839241027832
11.35,0.019811395555734634,0.1409177929162979,0.03474884852766991,-0.01462619286030531,-2.4208991817431524e-05,-0.01008521392941475
11.4,0.03581225499510765,0.04972459003329277,-0.025553153827786446,-0.007217920385301113,0.0034411021042615175,-0.019258584827184677
11.45,-0.07000522315502167,0.056420326232910156,0.04772978276014328,-0.006040847860276699,0.015135823749005795,-0.025784417986869812
11.5,-0.05943261831998825,0.04140186309814453,0.02062240242958069,0.0050142984837293625,0.010831793770194054,-0.008117255754768848
11.55,-0.004144114442169666,0.06157685071229935,-0.002429984975606203,0.009582825005054474,0.0015209871344268322,0.00556189427152276
11.6,0.03946584463119507,0.04855157062411308,-0.050141263753175735,0.010451789945363998,-0.0038858677726238966,0.011489835567772388
11.65,0.08205302059650421,0.07644368708133698,-0.06558671593666077,0.005339582450687885,-0.005360797513276339,-0.0002120358549291268
11.7,0.07128339260816574,0.03304101154208183,-0.029210364446043968,0.0010957992635667324,0.0016285532619804144,-0.014373652637004852
11.75,0.05287405848503113,0.03630925342440605,-0.045788779854774475,0.010140850208699703,0.005871430970728397,-0.026046641170978546
11.8,-0.03771335259079933,0.10338117182254791,-0.07003852725028992,0.013392845168709755,0.017537718638777733,-0.02943127602338791
11.85,-0.07759124785661697,0.1170511394739151,-0.08660956472158432,0.0030861510895192623,0.02350657805800438,-0.016841042786836624
11.9,-0.06505368649959564,0.11919404566287994,-0.042931754142045975,-0.008953415788710117,0.018025478348135948,-0.006455871742218733
11.95,-0.010409667156636715,0.03816891089081764,-0.005391845013946295,-0.018931377679109573,0.006970856338739395,-0.005484930705279112
12.0,0.028235867619514465,0.027314193546772003,-0.04647372290492058,-0.017079368233680725,-0.008027022704482079,-0.006338469218462706
12.05,-0.0006962819024920464,0.03359508886933327,-0.03113953024148941,-0.015295826829969883,0.0017548053292557597,-0.016824228689074516
12.1,-0.02328655868768692,0.02702808380126953,0.038433995097875595,-0.017140081152319908,0.018527647480368614,-0.022666441276669502
12.15,-0.044423095881938934,0.028290748596191406,0.024042971432209015,-0.005118089262396097,0.013149647042155266,-0.01764800027012825
12.2,-0.053780652582645416,0.08017539978027344,0.01805020496249199,0.003524246159940958,-0.001096599269658327,-0.011432904750108719
12.25,0.019457396119832993,0.080353744328022,-0.03249938413500786,0.0011140723945572972,-0.012956999242305756,-0.0007097586058080196
12.3,0.08095012605190277,0.07514287531375885,-0.03618665039539337,-0.00240241433493793,-0.015675490722060204,0.0006270115845836699
12.35,0.09930573403835297,0.08611871302127838,-0.04394843429327011,0.0004447503015398979,-0.0038778299931436777,-0.009414543397724628
12.4,0.06770575046539307,0.05116177722811699,-0.005210450850427151,0.0024598659947514534,0.010324832983314991,-0.010973402298986912
12.45,-0.01455219741910696,0.04099941626191139,-0.032532863318920135,0.008847878314554691,0.014885663986206055,-0.008563454262912273
12.5,-0.035742901265621185,0.07050324231386185,-0.06256585568189621,0.011316884309053421,0.014860345050692558,-0.0011587651679292321
12.55,-0.014621900394558907,0.09187031537294388,-0.04788508266210556,0.01322651281952858,0.009220978245139122,0.004214553162455559
12.6,-0.032951030880212784,0.1049671322107315,-0.0026321420446038246,0.01247815228998661,0.003512511495500803,0.0067927176132798195
12.65,0.051656898111104965,0.07062341272830963,-0.07699836045503616,0.014236034825444221,-0.009181251749396324,0.01235935464501381
12.7,0.0686974972486496,0.0565195232629776,-0.06978052854537964,0.0018157209269702435,0.0038906587287783623,-0.007455086335539818
12.75,0.03700381517410278,0.01613617315888405,0.020039837807416916,-0.004375682212412357,0.01275510061532259,-0.01346407737582922
12.8,0.004646864719688892,0.021800996735692024,0.023544346913695335,0.01170392893254757,0.007333419751375914,-0.016906019300222397
12.85,-0.004145227372646332,0.12755776941776276,0.05977479740977287,0.015445602126419544,0.0021137245930731297,-0.020958106964826584
12.9,0.019556844606995583,0.14918996393680573,-0.05046982318162918,0.015163000673055649,-0.003104856237769127,-0.005315715912729502
12.95,-0.03555530682206154,0.13960744440555573,-0.07304394245147705,0.0028653645422309637,-0.001184797496534884,0.00436348095536232
13.0,-0.013292105868458748,0.05024433881044388,-0.039814382791519165,-0.01193186640739441,-0.0029385474044829607,0.009374472312629223
13.05,-0.005031629931181669,0.015997888520359993,-0.001218062941916287,-0.016262469813227654,0.0026785198133438826,0.001770341070368886
13.1,-0.05691643804311752,0.08953095227479935,-0.038044191896915436,-0.009272031486034393,0.006736363749951124,-0.006372878793627024
13.15,-0.05576556921005249,0.09946252405643463,-0.03606904298067093,-0.010932469740509987,0.004166895058006048,0.001078926376067102
13.2,-0.04231581091880798,0.05362224951386452,-0.02165900729596615,-0.010988451540470123,0.0009176021558232605,0.01280206348747015
13.25,0.02126680687069893,0.06992055475711823,-0.07618960738182068,-0.011564051732420921,-0.012756912969052792,0.0021398814860731363
13.3,-0.019276563078165054,0.09229946881532669,-0.03933701664209366,-0.025464128702878952,-0.00011520558473421261,-0.021201781928539276
13.35,-0.07550478726625443,0.09708882123231888,0.017874833196401596,-0.038490019738674164,0.01163267157971859,-0.02222575806081295
13.4,-0.070172980427742,0.1593923717737198,-0.020542087033391,-0.0405961349606514,0.005427821073681116,-0.023795541375875473
13.45,-0.16631245613098145,0.2657022774219513,-0.2858085632324219,-0.06746655702590942,-0.017552506178617477,-0.038983989506959915
13.5,-0.21011827886104584,0.2869777977466583,-0.31052595376968384,-0.15635021030902863,-0.06711705774068832,-0.04332159087061882
13.55,-0.18112066388130188,0.22179892659187317,-0.2688075304031372,-0.24908322095870972,-0.1300106793642044,-0.032808560878038406
13.6,-0.11713509261608124,0.3073730766773224,-0.4025767147541046,-0.3214907646179199,-0.1703040450811386,-0.011246219277381897
13.65,-0.03504152595996857,0.24653343856334686,-0.3502950370311737,-0.3918142318725586,-0.13580051064491272,0.05535246804356575
13.7,-0.026506517082452774,0.0699920728802681,-0.1002751961350441,-0.44051265716552734,-0.08068521320819855,0.11551599204540253
13.75,-0.03119775839149952,-0.022894863039255142,0.0034434699919074774,-0.47622475028038025,-0.10079721361398697,0.12568750977516174
13.8,0.04387609660625458,0.007726671174168587,0.05133991315960884,-0.4921611547470093,-0.16837602853775024,0.11001579463481903
13.85,0.26347342133522034,-0.07102202624082565,0.060663722455501556,-0.48063135147094727,-0.21978916227817535,0.10605350881814957
13.9,0.35620826482772827,-0.11254595965147018,0.08177550882101059,-0.43114331364631653,-0.1907033771276474,0.09413496404886246
13.95,0.3034147024154663,-0.06180571764707565,0.14282062649726868,-0.37700310349464417,-0.1042579784989357,0.06169324740767479
14.0,0.25225645303726196,-0.14705848693847656,0.2466684728860855,-0.3171379566192627,-0.0389513224363327,0.05202387645840645
14.05,0.1899915188550949,-0.15294744074344635,0.2656291425228119,-0.2242077887058258,0.00025696647935546935,0.03947736322879791
14.1,0.2838491201400757,-0.033048614859580994,0.07607303559780121,-0.11550731956958771,0.04023095220327377,0.01824796572327614
14.15,0.2451789230108261,-0.02358911745250225,-0.021131927147507668,-0.025283733382821083,0.11550071090459824,-0.0057168984785676
14.2,0.01753600686788559,0.012896541506052017,-0.019307967275381088,-0.01668316312134266,0.15254241228103638,-0.06295231729745865
14.25,-0.09014689922332764,0.10469914227724075,-0.06638895720243454,-0.04300575703382492,0.11362754553556442,-0.12643902003765106
14.3,-0.05792257934808731,0.19639496505260468,-0.3567717969417572,-0.04550592601299286,0.05672489479184151,-0.1622389703989029
14.35,0.04177995026111603,0.2417317032814026,-0.440755695104599,-0.11264560371637344,0.04642047360539436,-0.1844218373298645
14.4,0.04509466886520386,0.11529354006052017,-0.40580877661705017,-0.1944091022014618,0.07816780358552933,-0.21272283792495728
14.45,0.025074757635593414,0.049304984509944916,-0.2720056176185608,-0.21259373426437378,0.1426663100719452,-0.23648162186145782
14.5,0.05642581731081009,0.004450811538845301,-0.18894007802009583,-0.18610753118991852,0.2195056974887848,-0.24964696168899536
14.55,0.013412844389677048,-0.02172374539077282,-0.04736502096056938,-0.15496507287025452,0.29166293144226074,-0.2544355094432831
14.6,0.0582762286067009,-0.05292034521698952,0.02184726484119892,-0.11415471136569977,0.3156663775444031,-0.2511812150478363
14.65,0.009286586195230484,-0.07184602320194244,0.12094198912382126,-0.0888446718454361,0.28558090329170227,-0.2632043659687042
14.7,-0.012336589395999908,0.03281401842832565,0.1847352385520935,-0.08421388268470764,0.2642456889152527,-0.23812082409858704
14.75,0.05503661930561066,-0.027470599859952927,0.24150486290454865,-0.09089525789022446,0.2672581374645233,-0.1495291292667389
14.8,0.2241126149892807,-0.038437847048044205,0.36358362436294556,-0.06964035332202911,0.26466530561447144,-0.03920460119843483
14.85,0.32547497749328613,-0.06380653381347656,0.3658811151981354,0.009252037853002548,0.22677522897720337,0.009767897427082062
14.9,0.3104623556137085,-0.021641718223690987,0.21169328689575195,0.06609632819890976,0.15528182685375214,-0.018499920144677162
14.95,0.11396060883998871,-0.03293609991669655,0.19177812337875366,0.10488986223936081,0.12334080040454865,-0.05783074349164963
15.0,-0.07040680199861526,-0.031369227916002274,0.17197370529174805,0.1595950573682785,0.0773882046341896,-0.07040712982416153
15.05,-0.08601949363946915,0.063079833984375,0.008079161867499352,0.1967092752456665,-0.01014756876975298,-0.07138250768184662
15.1,-0.10307097434997559,0.17125989496707916,-0.09750516712665558,0.2070673108100891,-0.07662270218133926,-0.058159686625003815
15.15,-0.019104722887277603,0.32094958424568176,-0.10576584190130234,0.22896768152713776,-0.07639969140291214,-0.04905472695827484
15.2,0.10830920934677124,0.18524935841560364,-0.12596377730369568,0.25960773229599,-0.015722792595624924,-0.009227992966771126
15.25,0.003451399505138397,0.021932611241936684,-0.16741186380386353,0.28185245394706726,0.027602093294262886,0.004611077252775431
15.3,-0.034666139632463455,-0.10203839093446732,-0.16250978410243988,0.24638496339321136,0.014526714570820332,0.018895672634243965
15.35,-0.05747493356466293,-0.15575791895389557,-0.13036613166332245,0.21611176431179047,0.016217218711972237,0.01957503892481327
15.4,-0.13691523671150208,-0.08584500849246979,-0.05851051211357117,0.242204487323761,0.037394098937511444,0.011262435466051102
15.45,-0.17746272683143616,0.025410644710063934,-0.040006380528211594,0.3016323745250702,0.04341643676161766,0.004303518682718277
15.5,-0.18525752425193787,-0.014611243270337582,-0.36110052466392517,0.39275062084198,0.039411041885614395,-0.023510631173849106
15.55,-0.2553805708885193,0.28237250447273254,-0.5595118999481201,0.44658440351486206,0.0890025720000267,-0.07796557992696762
15.6,-0.3359830677509308,0.5588942170143127,-0.27139371633529663,0.38185495138168335,0.13799452781677246,-0.032574329525232315
15.65,-0.2012798935174942,0.22400668263435364,-0.23126310110092163,0.2971930205821991,0.0817447304725647,0.07142654061317444
15.7,-0.10019990056753159,-0.06716348230838776,-0.06589604169130325,0.21964837610721588,0.016141792759299278,0.12197396904230118
15.75,0.045937679708004,0.0969104915857315,0.10889806598424911,0.18038582801818848,-0.05816734582185745,0.1232975646853447
15.8,0.12213297933340073,0.3425303101539612,-0.1807861030101776,0.1358271837234497,-0.16943193972110748,0.09648662805557251
15.85,0.2665920555591583,0.3526831269264221,-0.26261284947395325,-0.009585587307810783,-0.18944816291332245,0.07545363903045654
15.9,0.22756250202655792,0.13255980610847473,-0.011891457252204418,-0.1385696679353714,-0.08357416838407516,0.09146669507026672
15.95,0.2528192698955536,-0.19507315754890442,0.35495057702064514,-0.17543049156665802,-0.0019741214346140623,0.12044883519411087
16.0,0.18926581740379333,-0.2915354073047638,0.3928745985031128,-0.11878826469182968,0.0044443486258387566,0.07188577204942703
16.05,0.18638549745082855,-0.25347235798835754,0.3153148591518402,-0.030171573162078857,-0.005543846637010574,0.027913924306631088
16.1,0.12934112548828125,-0.11533547937870026,0.29413291811943054,0.06887941807508469,0.017831720411777496,0.013493258506059647
16.15,0.06722618639469147,0.003884310834109783,0.22147220373153687,0.20025591552257538,0.053192585706710815,0.008850802667438984
16.2,0.05679870769381523,0.026601796969771385,0.07223492115736008,0.28226640820503235,0.0490279421210289,-0.013020711950957775
16.25,-0.061095383018255234,0.24418547749519348,-0.09976741671562195,0.23526205122470856,-0.010728785768151283,-0.07866431772708893
16.3,-0.1794528216123581,0.3196306526660919,-0.26467981934547424,0.1159769594669342,-0.053841881453990936,-0.09468219429254532
16.35,-0.25617074966430664,0.25870421528816223,-0.19989433884620667,0.019614925608038902,-0.036821819841861725,-0.06735901534557343
16.4,-0.25016772747039795,0.08394335955381393,-0.05563350021839142,-0.015257654711604118,-0.0029253321699798107,-0.00875266082584858
16.45,-0.16843882203102112,-0.018765462562441826,-0.047549664974212646,0.01077962201088667,0.002555534476414323,0.03574733808636665
16.5,0.027493517845869064,0.05053998529911041,-0.1500236541032791,0.06953896582126617,-0.012776602059602737,0.031411707401275635
16.55,0.08086755871772766,0.09696391224861145,-0.22929231822490692,0.10232962667942047,-0.0004751852247864008,-0.028119182214140892
16.6,-0.04728567600250244,0.1481170952320099,-0.25046518445014954,0.08561926335096359,0.010148517787456512,-0.09842632710933685
16.65,-0.16849225759506226,0.2035398781299591,-0.2080751210451126,0.012607075273990631,-0.00046367684262804687,-0.11682343482971191
16.7,-0.191419780254364,0.17193317413330078,-0.014452680014073849,-0.03929218649864197,-0.002067189896479249,-0.06726833432912827
16.75,-0.08039937913417816,0.13405895233154297,0.039047252386808395,-0.04045470803976059,-0.02976200543344021,-0.0011929523898288608
16.8,0.03517630323767662,0.11833001673221588,-0.010847805999219418,-0.03016051836311817,-0.05371489375829697,0.030472157523036003
16.85,0.10220078378915787,0.08967496454715729,-0.011194917373359203,-0.021490827202796936,-0.039173953235149384,0.035663094371557236
16.9,0.046786583960056305,0.0818939283490181,0.0027823222335428,-0.01416386291384697,0.0019461517222225666,0.016497137024998665
16.95,-0.09883103519678116,0.029474252834916115,0.024664372205734253,-0.031237352639436722,0.026899410411715508,-0.0028114658780395985
17.0,-0.10985113680362701,0.01701258309185505,0.1334735006093979,-0.04770815372467041,0.015202515758574009,0.009501546621322632
17.05,0.02679864689707756,-0.05653095990419388,0.08093863725662231,-0.03842727094888687,-0.016798565164208412,0.036185361444950104
17.1,0.1203344389796257,-0.0915060043334961,-0.006777566857635975,-0.012006495147943497,-0.025314126163721085,0.04172099009156227
17.15,0.11989396810531616,0.04767324775457382,-0.11455406993627548,0.006058831233531237,-0.03289622813463211,0.02570359781384468
17.2,0.11030618846416473,0.1328287422657013,-0.18749107420444489,-0.007146258372813463,-0.041088853031396866,0.0032749646343290806
17.25,0.08050376176834106,0.09036161005496979,-0.09413295984268188,-0.04063417389988899,-0.02540896087884903,0.0031236144714057446
17.3,0.04891045391559601,0.012626653537154198,0.009672676213085651,-0.04544026404619217,-0.008220738731324673,0.011304580606520176
17.35,0.0770840048789978,-0.06792355328798294,0.09323900938034058,-0.02837696671485901,-0.00478722620755434,0.004345501307398081
17.4,0.047482311725616455,0.0341491736471653,0.09305211156606674,-0.00921495072543621,-0.00878832396119833,-0.010365908965468407
17.45,-0.04509836435317993,0.08772469311952591,-0.002296795602887869,0.002189494203776121,-0.014440886676311493,-0.01565583050251007
17.5,-0.07872634381055832,0.11709500104188919,-0.033018212765455246,-0.007153146900236607,-0.013460664078593254,-0.018235722556710243
17.55,-0.031340423971414566,0.13145257532596588,-0.033248089253902435,-0.019952092319726944,-0.0043372781947255135,-0.005685050040483475
17.6,-0.027687976136803627,0.07656288892030716,0.007514604367315769,-0.01942445896565914,-0.007098307833075523,-0.0004921906511299312
17.65,-0.07273127138614655,0.12313366681337357,0.00266894674859941,-0.02037022076547146,-0.01968701183795929,0.0025857645086944103
17.7,-0.056088414043188095,0.12573720514774323,-0.07639879733324051,-0.03002813458442688,-0.02938903495669365,0.012898753397166729
17.75,0.0013138744980096817,0.11607743799686432,-0.05414383485913277,-0.04864216968417168,-0.031413815915584564,0.02311735600233078
17.8,0.008390569128096104,0.07754231244325638,-0.0027417009696364403,-0.06725296378135681,-0.03469417244195938,0.029482830315828323
17.85,0.02089727856218815,0.09822465479373932,0.018178362399339676,-0.07136762887239456,-0.03641479089856148,0.026907771825790405
17.9,0.05517679825425148,0.005017285700887442,-0.014330210164189339,-0.07087839394807816,-0.028193274512887,0.022545484825968742
17.95,0.11098123341798782,-0.027311325073242188,0.11099764704704285,-0.06679124385118484,-0.008865135721862316,0.015923358500003815
18.0,0.07552768290042877,0.005073548760265112,0.10379567742347717,-0.04070878401398659,0.0011914618080481887,0.008969498798251152
18.05,0.015066194348037243,0.04357529059052467,0.05376211553812027,-0.018708277493715286,-9.170592966256663e-05,-0.0012396220117807388
18.1,0.005232242401689291,0.07898140698671341,0.01980830542743206,-0.002939840778708458,-0.010385393165051937,-0.009731591679155827
18.15,0.04459158703684807,0.09168531000614166,-0.061873067170381546,0.010655209422111511,-0.022305065765976906,-0.009018484503030777
18.2,0.07819123566150665,0.10599520802497864,-0.11699765175580978,0.004686735570430756,-0.027032509446144104,-0.009770465083420277
18.25,0.06742995977401733,0.12136175483465195,-0.06923649460077286,-0.013539178296923637,-0.01751629449427128,-0.003118857042863965
18.3,0.041795339435338974,0.05840016528964043,-0.026436470448970795,-0.023729728534817696,-0.002593706361949444,-0.002890648553147912
18.35,0.0032340879552066326,0.011281969025731087,-0.005681746639311314,-0.020191295072436333,0.0078102597035467625,-0.010178758762776852
18.4,-0.030707376077771187,0.0004596694197971374,-0.014903392642736435,-0.012267393991351128,0.006964767351746559,-0.012919188477098942
18.45,-0.013145910575985909,0.016131404787302017,-0.06962136179208755,-0.013583220541477203,-0.0029149421025067568,-0.014582918956875801
18.5,-0.042557429522275925,0.030981063842773438,-0.0006625587120652199,-0.021969856694340706,0.0024813665077090263,-0.012778318487107754
18.55,-0.06110206991434097,0.022107118740677834,0.07797665894031525,-0.015222127549350262,0.005091492552310228,-0.00617341510951519
18.6,-0.0019104047678411007,0.025544170290231705,-0.017259318381547928,-0.005056452937424183,-0.010050238110125065,-0.0031384306494146585
18.65,0.008359089493751526,0.018809324130415916,-0.0794663056731224,-0.004759390372782946,-0.003314460627734661,-0.007333414629101753
18.7,-0.003710424527525902,0.06283093243837357,-0.023268872871994972,-0.009427838027477264,0.00896059162914753,-0.010465477593243122
18.75,-0.010831073857843876,0.06505108624696732,0.007408244535326958,-0.004778024274855852,0.0018189310794696212,-0.010892583057284355
18.8,-0.006356666795909405,0.051453597843647,-0.028042133897542953,-0.0038331286050379276,-0.013810873962938786,-0.007489630952477455
18.85,-0.01503013912588358,0.04514980688691139,-0.02282324619591236,-0.002355204662308097,-0.018832998350262642,-0.008296309038996696
18.9,0.012866560369729996,0.042552001774311066,-0.048175130039453506,0.0032307629007846117,-0.02219894342124462,-0.009211525321006775
18.95,-0.10060454905033112,0.1434803158044815,-0.04878700152039528,-0.002554865088313818,-0.018025925382971764,-0.02110040932893753
19.0,-0.31884196400642395,0.22058391571044922,0.050567056983709335,-0.006075004581362009,-0.01617668941617012,-0.017195412889122963
19.05,-0.3123173415660858,0.13623331487178802,0.021501554176211357,-0.012112321332097054,-0.05701702833175659,0.02355017326772213
19.1,-0.04500926285982132,0.02974128909409046,-0.048934850841760635,-0.031062867492437363,-0.11237599700689316,0.06700877845287323
19.15,0.10835738480091095,0.000453961081802845,-0.0812559500336647,-0.03822679445147514,-0.10778974741697311,0.07661735266447067
19.2,0.10932722687721252,-0.005209912545979023,-0.05178050324320793,-0.027720600366592407,-0.055120453238487244,0.07245568186044693
19.25,0.09659263491630554,-0.007302274461835623,-0.07658423483371735,-0.008956462144851685,-0.02730417624115944,0.06787191331386566
19.3,0.14232508838176727,0.08441545814275742,-0.11106523126363754,-0.0008712615817785263,-0.02459910698235035,0.060096073895692825
19.35,0.15983234345912933,0.06330397725105286,-0.13887980580329895,-0.020599365234375,-0.03209025040268898,0.04212997481226921
19.4,0.08703729510307312,0.08034994453191757,-0.09910241514444351,-0.05552548170089722,-0.04456683248281479,0.01260692160576582
19.45,0.08619199693202972,0.058453578501939774,-0.08734943717718124,-0.07276087254285812,-0.028511125594377518,0.012336636893451214
19.5,0.05518293008208275,-0.017079349607229233,-0.012627115473151207,-0.07695089280605316,0.01095195859670639,0.01928579807281494
19.55,0.016024984419345856,-0.06746483594179153,0.10533173382282257,-0.0577237531542778,0.0276277307420969,0.0050444756634533405
19.6,-0.006028424948453903,0.006944652646780014,0.08859554678201675,-0.02204962447285652,0.011632299050688744,-0.019845634698867798
19.65,-0.05788798630237579,0.10200405865907669,0.0014519782271236181,-0.0022130245342850685,-0.0036256806924939156,-0.02187078818678856
19.7,-0.010479183867573738,0.1161050945520401,-0.05578744411468506,-0.0014537356328219175,-0.005599398631602526,-0.004009845666587353
19.75,0.024889785796403885,0.08157921582460403,-0.03765247017145157,-0.012613206170499325,0.0032334073912352324,0.0016755613032728434
19.8,0.02589535526931286,0.02699756994843483,0.03536473214626312,-0.020413119345903397,0.00671497592702508,-0.0003397905675228685
19.85,-0.034152720123529434,0.006010052282363176,0.03864140808582306,-0.011735035106539726,0.0022689453326165676,-0.0019602247048169374
19.9,-0.061629101634025574,0.0162734966725111,-0.00465891370549798,0.0025361436419188976,-0.010726804845035076,-0.00039663611096329987
