Time [s],Acc_x [m/s^2],Acc_y [m/s^2],Acc_z [m/s^2],Gyro_x [1/s],Gyro_y [1/s],Gyro_z [1/s]
0.0,-0.0021874350495636463,0.03917407616972923,0.006483192089945078,0.019491445273160934,-0.009817545302212238,0.006584641989320517
0.025,-0.00382528780028224,0.0394287072122097,0.009627985768020153,0.019491346552968025,-0.009817575104534626,0.006584894843399525
0.05,-0.010857095941901207,0.0431060753762722,0.012868290767073631,0.019490854814648628,-0.01007281057536602,0.0065722097642719746
0.075,-0.020662857219576836,0.05943011865019798,0.005711698904633522,0.019533922895789146,-0.01610635407269001,0.006157292984426022
0.1,-0.01044328510761261,0.08155345171689987,-0.021973498165607452,0.02059934474527836,-0.021387722343206406,0.003922287840396166
0.125,0.011789252050220966,0.08287524431943893,-0.05095701292157173,0.022171547636389732,-0.018399450927972794,0.003937151283025742
0.15,0.018128644675016403,0.07798861712217331,-0.06537972390651703,0.020635589957237244,-0.011115704663097858,0.0045736548490822315
0.175,0.00728006474673748,0.07927798479795456,-0.06489686667919159,0.020334988832473755,-0.013591434806585312,0.008387369103729725
0.2,-0.00555204413831234,0.09842204302549362,-0.05592110753059387,0.02435472048819065,-0.013749675825238228,0.011734017170965672
0.225,0.0005852598696947098,0.10711955279111862,-0.04033968597650528,0.02340414933860302,-0.016977597028017044,0.01402160432189703
0.25,0.01083632092922926,0.07157038897275925,-0.033768679946660995,0.025911204516887665,-0.029377082362771034,0.0197345782071352
0.275,0.005423348397016525,0.034895893186330795,-0.05319486930966377,0.03126210719347,-0.042896416038274765,0.02443387545645237
0.3,-0.008940327912569046,0.0579366609454155,-0.07408922165632248,0.030584603548049927,-0.039531320333480835,0.019915351644158363
0.325,-0.012557430192828178,0.10420512408018112,-0.06335699558258057,0.024788960814476013,-0.02034560963511467,0.015553266741335392
0.35,-0.01509262528270483,0.12648199498653412,-0.04573513939976692,0.019707519561052322,-0.003376889741048217,0.01649458333849907
0.375,-0.000860339030623436,0.1170654222369194,-0.03357362747192383,0.020246442407369614,0.0002699884935282171,0.016296744346618652
0.4,0.011999284848570824,0.07944392412900925,-0.011633377522230148,0.020172949880361557,-0.007279830053448677,0.01439073495566845
0.425,-0.0005380231887102127,0.04288482293486595,-0.009917818941175938,0.01740969717502594,-0.01256775576621294,0.014352130703628063
0.45,-0.026383843272924423,0.04332350939512253,-0.04530640318989754,0.013704321347177029,-0.004488531965762377,0.010378764010965824
0.475,-0.005640845745801926,0.07208537310361862,-0.05318775773048401,0.008447907865047455,0.0011570730712264776,0.0028225290589034557
0.5,0.029817204922437668,0.0819396898150444,-0.024562429636716843,0.006895088590681553,-0.002810670994222164,0.002368051325902343
0.525,0.010084573179483414,0.05904006585478783,-0.01685110479593277,0.006867389194667339,-0.013305183500051498,0.007528131827712059
0.55,-0.01026066578924656,0.040617939084768295,-0.04963686689734459,0.008323484100401402,-0.021494893357157707,0.007154055405408144
0.575,0.0385267399251461,0.037299152463674545,-0.09838143736124039,0.010060775093734264,-0.018484026193618774,0.002846864750608802
0.6,0.08720888197422028,0.05368327721953392,-0.12666834890842438,0.008737076073884964,-0.0074060894548892975,0.00262525025755167
0.625,0.075348861515522,0.07377051562070847,-0.09545759111642838,0.003008768893778324,0.0028523120563477278,0.00745087256655097
0.65,0.04576396942138672,0.078398697078228,-0.06422190368175507,-0.00012990739196538925,0.007797458674758673,0.010074538178741932
0.675,0.031170053407549858,0.05892181023955345,-0.0851152166724205,0.0006588571704924107,0.008445944637060165,0.0097696827724576
0.7,0.030139446258544922,0.04993915185332298,-0.11393512040376663,0.0038326189387589693,0.011358518153429031,0.008490473963320255
0.725,0.034458182752132416,0.049902912229299545,-0.11713893711566925,0.004206215962767601,0.015431471168994904,0.010053199715912342
0.75,0.021688345819711685,0.04807090386748314,-0.0878060907125473,0.0032329189125448465,0.02154865674674511,0.011717037297785282
0.775,-0.0010780785232782364,0.05601214990019798,-0.04000260680913925,0.005610072053968906,0.027354417368769646,0.010848544538021088
0.8,-0.008545739576220512,0.07062148302793503,-0.02144232951104641,0.00848529115319252,0.03242434933781624,0.006823102943599224
0.825,-0.017069417983293533,0.0729818269610405,-0.02516106516122818,0.008836342953145504,0.03603660687804222,0.005358738824725151
0.85,-0.03360096365213394,0.05218314379453659,-0.01221802644431591,0.009750432334840298,0.03797360509634018,0.006584831979125738
0.875,-0.03792572394013405,0.03742217645049095,0.012122088111937046,0.012134023010730743,0.033773280680179596,0.009286081418395042
0.9,0.006908927112817764,0.08284091204404831,0.11702284961938858,0.014229160733520985,0.03140231966972351,0.020710622891783714
0.925,0.09191842377185822,0.24815082550048828,0.4083799719810486,0.010034430772066116,0.020318880677223206,0.07942801713943481
0.95,0.05721646547317505,0.5107755064964294,0.8889169096946716,0.0025358274579048157,-0.03194144368171692,0.19432184100151062
0.975,-0.1709308922290802,0.5678614974021912,1.3541325330734253,0.009149476885795593,-0.1822107434272766,0.3148230314254761
1.0,-0.3008551597595215,0.15240478515625,1.6218898296356201,0.07245288789272308,-0.4836158752441406,0.42698442935943604
1.025,-0.16057118773460388,-0.4372348189353943,1.693983554840088,0.17918138206005096,-0.8382878303527832,0.5722324252128601
1.05,0.04400813579559326,-0.6816214323043823,1.6356632709503174,0.26568764448165894,-1.1728342771530151,0.7550577521324158
1.075,0.1678684949874878,-0.4738577902317047,1.5720891952514648,0.28219088912010193,-1.4401233196258545,0.9621213674545288
1.1,0.06371796131134033,-0.10242362320423126,1.5573798418045044,0.2502685785293579,-1.5644632577896118,1.1501892805099487
1.125,-0.31777888536453247,-0.018624287098646164,1.4500465393066406,0.19737806916236877,-1.5472888946533203,1.236225962638855
1.15,-0.7978559136390686,-0.40244004130363464,1.2563797235488892,0.14917412400245667,-1.4181833267211914,1.2040311098098755
1.175,-1.171736240386963,-1.0550040006637573,1.1730778217315674,0.16129672527313232,-1.3107887506484985,1.1052237749099731
1.2,-1.433340072631836,-1.6728581190109253,1.1300268173217773,0.22685828804969788,-1.315948486328125,1.0004667043685913
1.225,-1.6800415515899658,-2.14786696434021,0.8033884763717651,0.2811904549598694,-1.3863914012908936,0.8765686750411987
1.25,-1.8686400651931763,-2.50817608833313,0.14437416195869446,0.2969955503940582,-1.490919589996338,0.6906668543815613
1.275,-1.7837406396865845,-2.705979108810425,-0.5367388129234314,0.34491002559661865,-1.6386828422546387,0.43460705876350403
1.3,-1.3349273204803467,-2.720538377761841,-0.8483188152313232,0.44330286979675293,-1.7402856349945068,0.1504407674074173
1.325,-0.7752575874328613,-2.6374237537384033,-0.684312641620636,0.5113497972488403,-1.679183840751648,-0.08492375165224075
1.35,-0.4230242669582367,-2.5365359783172607,-0.3963903486728668,0.4587164521217346,-1.4412059783935547,-0.21752074360847473
1.375,-0.2964528203010559,-2.392857789993286,-0.4248504340648651,0.3205755949020386,-1.107597827911377,-0.3325268626213074
1.4,-0.26365530490875244,-2.226555109024048,-0.77284175157547,0.22135108709335327,-0.7976242899894714,-0.5142436027526855
1.425,-0.2136911153793335,-2.1276509761810303,-1.0931578874588013,0.21924713253974915,-0.5910429954528809,-0.7281509041786194
1.45,-0.1625322699546814,-2.0171115398406982,-1.2139678001403809,0.27269428968429565,-0.5009809732437134,-0.8755078315734863
1.475,-0.182940274477005,-1.7871531248092651,-1.2422325611114502,0.29742157459259033,-0.5079448819160461,-0.9449897408485413
1.5,-0.19653144478797913,-1.4492071866989136,-1.2906869649887085,0.3053397536277771,-0.6088220477104187,-1.037695050239563
1.525,-0.0637100338935852,-1.0389899015426636,-1.2795324325561523,0.3716810345649719,-0.7708262801170349,-1.1755512952804565
1.55,0.3361755311489105,-0.6782578825950623,-1.1322270631790161,0.44595277309417725,-0.9365673065185547,-1.2817797660827637
1.575,0.8675962686538696,-0.40291112661361694,-0.8695758581161499,0.46414536237716675,-0.9832789897918701,-1.2715951204299927
1.6,1.1662744283676147,-0.1313723921775818,-0.6298731565475464,0.4385802447795868,-0.8820342421531677,-1.1907981634140015
1.625,1.1038886308670044,0.1690693199634552,-0.5592116117477417,0.39084547758102417,-0.7454919219017029,-1.1520723104476929
1.65,0.9511924982070923,0.5002155303955078,-0.6266922950744629,0.3600471615791321,-0.6152017712593079,-1.141300082206726
1.675,0.9534156322479248,0.805363655090332,-0.6441584229469299,0.39631369709968567,-0.4947863817214966,-1.0610800981521606
1.7,1.1403965950012207,0.8970365524291992,-0.5586897730827332,0.4495490491390228,-0.4425179064273834,-0.8954366445541382
1.725,1.3999255895614624,0.7663955688476562,-0.4603143632411957,0.459963858127594,-0.4857570230960846,-0.6995351314544678
1.75,1.572935700416565,0.5825586318969727,-0.3807431757450104,0.4349270761013031,-0.5563128590583801,-0.5298446416854858
1.775,1.6388585567474365,0.46749502420425415,-0.2978745400905609,0.4228309988975525,-0.6346893310546875,-0.40814828872680664
1.8,1.4967379570007324,0.6180906295776367,-0.2577447295188904,0.42648765444755554,-0.639549970626831,-0.2652517855167389
1.825,1.067987084388733,1.080595850944519,-0.31419268250465393,0.3998512029647827,-0.503109872341156,-0.08288668096065521
1.85,0.6884472966194153,1.415918231010437,-0.43295374512672424,0.3579429090023041,-0.32456523180007935,0.01365902740508318
1.875,0.6381698846817017,1.4137991666793823,-0.5361456274986267,0.3568398952484131,-0.22522255778312683,0.03015085868537426
1.9,0.7518447041511536,1.2903059720993042,-0.5721939206123352,0.40786638855934143,-0.18690551817417145,0.06989236176013947
1.925,0.6837475895881653,1.2028950452804565,-0.47740334272384644,0.45782774686813354,-0.16232089698314667,0.14894995093345642
1.95,0.4631112217903137,1.073419451713562,-0.36694276332855225,0.46499139070510864,-0.1037948951125145,0.2224971204996109
1.975,0.17321720719337463,0.9049071669578552,-0.3512553870677948,0.47948673367500305,-0.07444291561841965,0.2850986421108246
2.0,-0.1274319291114807,0.7819356322288513,-0.3286113739013672,0.5008220076560974,-0.13494713604450226,0.3323512673377991
2.025,-0.3256240785121918,0.6813220381736755,-0.30127832293510437,0.4882950782775879,-0.22934356331825256,0.34816795587539673
2.05,-0.42279115319252014,0.5936201810836792,-0.3219556212425232,0.4727086126804352,-0.32461264729499817,0.34349361062049866
2.075,-0.415032297372818,0.538171648979187,-0.36225101351737976,0.4678233861923218,-0.4017518162727356,0.3298918902873993
2.1,-0.28094741702079773,0.49593061208724976,-0.35939180850982666,0.45907601714134216,-0.4740471839904785,0.3091869354248047
2.125,-0.15497495234012604,0.5264920592308044,-0.2462814450263977,0.4799721837043762,-0.5127061605453491,0.2877357602119446
2.15,-0.16414989531040192,0.6792764067649841,-0.08643300831317902,0.5048893690109253,-0.46331846714019775,0.2569728195667267
2.175,-0.27116674184799194,0.927705705165863,0.017568077892065048,0.4953728914260864,-0.3566652536392212,0.22496397793293
2.2,-0.39321914315223694,1.2446297407150269,0.11164449155330658,0.47921091318130493,-0.2208317518234253,0.190306156873703
2.225,-0.48982030153274536,1.5933140516281128,0.26719793677330017,0.4751875698566437,-0.1128731444478035,0.14579211175441742
2.25,-0.5206644535064697,1.8485478162765503,0.4479164481163025,0.4564949870109558,-0.05229424685239792,0.08530572801828384
2.275,-0.480843186378479,1.9113291501998901,0.6030969023704529,0.4292985200881958,-0.038456354290246964,0.00858338363468647
2.3,-0.41686469316482544,1.8401955366134644,0.7908387184143066,0.39814770221710205,-0.05399841070175171,-0.06452327966690063
2.325,-0.3436281681060791,1.7409037351608276,0.9881908893585205,0.37593793869018555,-0.08519323915243149,-0.12169454246759415
2.35,-0.21997208893299103,1.6785200834274292,1.0511866807937622,0.34564316272735596,-0.12369923293590546,-0.16679760813713074
2.375,-0.03772765398025513,1.7382944822311401,0.9458454847335815,0.2975389063358307,-0.1751638948917389,-0.19710196554660797
2.4,0.16500362753868103,1.9372872114181519,0.7696474194526672,0.22410181164741516,-0.2203277349472046,-0.20516183972358704
2.425,0.3115949332714081,2.224658727645874,0.643216073513031,0.14189109206199646,-0.2233857363462448,-0.19978976249694824
2.45,0.3656218647956848,2.546908140182495,0.603564441204071,0.0702323243021965,-0.15918444097042084,-0.18993955850601196
2.475,0.33979928493499756,2.81339430809021,0.6134012341499329,0.007907044142484665,-0.021913615986704826,-0.17155998945236206
2.5,0.2705010771751404,2.9385488033294678,0.7250738739967346,-0.04095625877380371,0.16420495510101318,-0.14305919408798218
2.525,0.19381630420684814,2.9541633129119873,0.9152102470397949,-0.08400188386440277,0.35706496238708496,-0.11330956965684891
2.55,0.16592872142791748,2.9361159801483154,1.0108507871627808,-0.14105676114559174,0.5224776864051819,-0.08523600548505783
2.575,0.27925190329551697,2.8442046642303467,0.9518116116523743,-0.19907927513122559,0.6533127427101135,-0.04870335012674332
2.6,0.502239465713501,2.7074382305145264,0.8053420782089233,-0.25537222623825073,0.7461594343185425,0.03404553234577179
2.625,0.5731004476547241,2.706648588180542,0.6252071261405945,-0.29204899072647095,0.7899828553199768,0.12297285348176956
2.65,0.5605882406234741,2.9358317852020264,0.3843996524810791,-0.32279640436172485,0.8906509876251221,0.15610894560813904
2.675,0.7780622243881226,3.199618101119995,-0.005360078997910023,-0.3250783681869507,1.0974019765853882,0.16147515177726746
2.7,1.0771760940551758,3.1370084285736084,-0.35558152198791504,-0.2716004252433777,1.2996081113815308,0.15180931985378265
2.725,1.0302789211273193,2.7643191814422607,-0.3839227259159088,-0.25067222118377686,1.5580675601959229,0.2168339192867279
2.75,0.652277946472168,2.3916423320770264,-0.1811913698911667,-0.2705869972705841,1.9354406595230103,0.34456193447113037
2.775,0.16504593193531036,2.188214063644409,-0.11840441823005676,-0.263085275888443,2.2880725860595703,0.4581615626811981
2.8,-0.2810903787612915,2.023949384689331,-0.32379937171936035,-0.2424149513244629,2.507892370223999,0.5456523895263672
2.825,-0.6583388447761536,1.656335711479187,-0.5318480134010315,-0.22497548162937164,2.5937445163726807,0.5983200073242188
2.85,-0.9258601069450378,1.2990024089813232,-0.41477063298225403,-0.18193012475967407,2.582642078399658,0.6237340569496155
2.875,-1.0090845823287964,1.1770455837249756,-0.1833755224943161,-0.19332051277160645,2.5540707111358643,0.6325467824935913
2.9,-0.9697881937026978,1.067726969718933,-0.13748741149902344,-0.27280542254447937,2.431454658508301,0.6135916113853455
2.925,-0.8286135792732239,0.7641438245773315,-0.2693461775779724,-0.35828274488449097,2.193953037261963,0.5564984679222107
2.95,-0.5951522588729858,0.33354276418685913,-0.4475500285625458,-0.38665494322776794,1.943630337715149,0.5214880704879761
2.975,-0.38360387086868286,0.05305667966604233,-0.5095034837722778,-0.3489321172237396,1.715694785118103,0.5346246957778931
3.0,-0.20343796908855438,0.03888127580285072,-0.5019662976264954,-0.33519986271858215,1.4975214004516602,0.556135892868042
3.025,0.1426336020231247,-0.12771032750606537,-0.6257007718086243,-0.34733226895332336,1.2726277112960815,0.5627400875091553
3.05,0.6952793598175049,-0.6683434844017029,-0.7985722422599792,-0.262663871049881,1.0059818029403687,0.6090131998062134
3.075,1.1997127532958984,-1.147227168083191,-0.7247157692909241,-0.1257808655500412,0.6536918878555298,0.7227487564086914
3.1,1.4932887554168701,-1.0926311016082764,-0.45138928294181824,-0.10219986736774445,0.2769961655139923,0.882760226726532
3.125,1.6051905155181885,-0.6866263151168823,-0.31056931614875793,-0.2097288817167282,0.13955318927764893,1.164505124092102
3.15,1.6840986013412476,-0.30077922344207764,-0.3206840455532074,-0.2824100852012634,0.18731188774108887,1.4612268209457397
3.175,1.4562965631484985,-0.02061455138027668,-0.366754412651062,-0.3060917556285858,0.23791182041168213,1.6420398950576782
3.2,0.4958701431751251,-0.12900635600090027,-0.46030497550964355,-0.4072680175304413,0.28214970231056213,1.7376856803894043
3.225,-0.6892923712730408,-0.9460268020629883,-0.7478215098381042,-0.535285472869873,0.3945029079914093,1.758614182472229
3.25,-1.2904249429702759,-1.9820480346679688,-0.9621871709823608,-0.6302140355110168,0.5449166297912598,1.6417644023895264
3.275,-1.2336018085479736,-2.4945333003997803,-0.8473635911941528,-0.771148681640625,0.6134582161903381,1.4770587682724
3.3,-1.016423225402832,-2.706348180770874,-0.5185736417770386,-0.9719774723052979,0.6476033329963684,1.3761498928070068
3.325,-0.618696928024292,-3.2069289684295654,-0.06689873337745667,-1.3313114643096924,0.806839108467102,1.3933929204940796
3.35,-0.06697732210159302,-3.390904188156128,0.6404811143875122,-1.7822080850601196,1.1131200790405273,1.520965814590454
3.375,0.5757853388786316,-2.6578609943389893,1.6024006605148315,-2.4198598861694336,1.3018360137939453,1.798679232597351
3.4,1.2006866931915283,-1.1797778606414795,2.597233533859253,-3.078673839569092,1.211753010749817,2.1471900939941406
3.425,1.5107221603393555,1.0083379745483398,3.0601444244384766,-3.6443276405334473,1.1309188604354858,2.4882142543792725
3.45,1.3219282627105713,2.7514772415161133,2.329084634780884,-4.164355278015137,1.216378927230835,3.005237102508545
3.475,0.19898168742656708,2.9079654216766357,0.5034745335578918,-4.450191020965576,1.4703503847122192,3.483100414276123
3.5,-1.4636600017547607,1.3963220119476318,-1.3519316911697388,-4.7811784744262695,1.6787525415420532,3.747840404510498
3.525,-2.684253454208374,-0.9286757707595825,-2.2043237686157227,-5.378884792327881,2.019098997116089,3.7912285327911377
3.55,-3.2669031620025635,-3.2674551010131836,-1.643957257270813,-5.910202980041504,2.4478402137756348,3.5729024410247803
3.575,-3.0484583377838135,-4.74910831451416,-0.24770833551883698,-5.854336261749268,2.5698351860046387,3.0513274669647217
3.6,-2.1597089767456055,-5.153050899505615,0.8982826471328735,-5.257821083068848,2.4593257904052734,2.4967386722564697
3.625,-1.219793438911438,-5.0213823318481445,1.403293251991272,-4.31491756439209,2.38730525970459,2.0111546516418457
3.65,-0.775538980960846,-4.4846110343933105,0.9773274660110474,-3.2375760078430176,2.2157366275787354,1.449709415435791
3.675,-0.6134459376335144,-4.028079509735107,-0.023433489724993706,-2.218341827392578,1.9985785484313965,0.8725078105926514
3.7,-0.6776815056800842,-4.019821643829346,-0.7121990919113159,-1.3920729160308838,1.8098194599151611,0.3635072708129883
3.725,-0.8552819490432739,-4.523271083831787,-0.5518202185630798,-0.7115730047225952,1.6789071559906006,-0.015650134533643723
3.75,-0.9911669492721558,-5.102616310119629,-0.22272329032421112,0.06813264638185501,1.57747220993042,-0.4335186779499054
3.775,-1.1645370721817017,-5.001258850097656,-0.22630469501018524,0.6301363110542297,1.5413103103637695,-1.0402557849884033
3.8,-1.3301526308059692,-4.07183837890625,-0.25979384779930115,0.7447769641876221,1.6403591632843018,-1.674249529838562
3.825,-1.448538899421692,-2.646136522293091,0.1099563017487526,0.6418792605400085,1.7846952676773071,-2.1944844722747803
3.85,-1.2079014778137207,-1.0589150190353394,0.9775891900062561,0.5834110975265503,1.8566349744796753,-2.5301523208618164
3.875,-0.4865627884864807,0.15707874298095703,1.9064967632293701,0.7445574998855591,1.7540193796157837,-2.679586172103882
3.9,0.18069744110107422,0.9242658615112305,2.485607385635376,0.9322116374969482,1.4633409976959229,-2.771697998046875
3.925,0.7614114880561829,1.64984130859375,2.8118228912353516,0.9511522650718689,1.0530754327774048,-2.7756240367889404
3.95,1.4273284673690796,2.3427248001098633,2.8594188690185547,0.784371018409729,0.6439522504806519,-2.6123008728027344
3.975,1.9766181707382202,2.784902572631836,2.732414484024048,0.4790102541446686,0.36272650957107544,-2.2422163486480713
4.0,2.295034885406494,2.725844383239746,2.6171014308929443,0.09703952074050903,0.2978166937828064,-1.6453185081481934
4.025,2.371629476547241,2.034597396850586,2.4751994609832764,-0.20010602474212646,0.3794698119163513,-0.9234515428543091
4.05,2.1920688152313232,1.2333955764770508,2.2684273719787598,-0.27958956360816956,0.4051259160041809,-0.31020912528038025
4.075,1.8437552452087402,0.9077311158180237,1.9520872831344604,-0.2272678017616272,0.336783766746521,0.0808868408203125
4.1,1.3187586069107056,0.9432631134986877,1.5807981491088867,-0.12500546872615814,0.2273392230272293,0.2741621136665344
4.125,0.6797390580177307,0.7878046035766602,1.2977135181427002,-0.04203387349843979,0.16703538596630096,0.40420001745224
4.15,0.18734440207481384,0.3696298599243164,1.1331578493118286,-0.04162152111530304,0.19753585755825043,0.4691154360771179
4.175,-0.08746781945228577,-0.17769715189933777,0.9665641188621521,-0.0856524407863617,0.22975358366966248,0.41660088300704956
4.2,-0.2752351462841034,-0.6254872679710388,0.5951337814331055,-0.1473681479692459,0.26546648144721985,0.2859414219856262
4.225,-0.3829428553581238,-0.6676282286643982,0.19472090899944305,-0.21560871601104736,0.28630995750427246,0.09665294736623764
4.25,-0.380778968334198,-0.4065685272216797,0.22433671355247498,-0.2549717128276825,0.23305673897266388,-0.12726585566997528
4.275,-0.4943840205669403,-0.29059696197509766,0.2528887093067169,-0.33484262228012085,0.20904065668582916,-0.19949854910373688
4.3,-0.9345153570175171,-0.4073648750782013,-0.21135582029819489,-0.4134308695793152,0.21830327808856964,-0.23264490067958832
4.325,-1.4723944664001465,-0.5100794434547424,-0.9052733182907104,-0.4534037113189697,0.2735576331615448,-0.42564988136291504
4.35,-1.547602653503418,-0.4445668160915375,-1.1286518573760986,-0.5482630133628845,0.44041579961776733,-0.5851942300796509
4.375,-0.9285851120948792,-0.1035967469215393,-0.6437199115753174,-0.5119972825050354,0.506351888179779,-0.7488831281661987
4.4,0.12022529542446136,0.4194755256175995,0.11690378934144974,-0.2466396689414978,0.3235599398612976,-0.9946432113647461
4.425,0.8690683841705322,0.8532590866088867,0.3712169826030731,0.0795711874961853,-0.03208203986287117,-1.2078125476837158
4.45,0.6795206665992737,1.006539225578308,-0.22130945324897766,0.24706336855888367,-0.26780933141708374,-1.1403557062149048
4.475,-0.007735490798950195,0.9510869383811951,-1.0030795335769653,0.15744462609291077,-0.16374671459197998,-0.8407473564147949
4.5,-0.2419692873954773,0.8214510679244995,-0.993338406085968,-0.05422253906726837,0.19739268720149994,-0.511435329914093
4.525,0.22815895080566406,0.9660901427268982,-0.26887792348861694,-0.11824501305818558,0.33703166246414185,-0.35336121916770935
4.55,0.8386809229850769,1.348789095878601,0.4249321520328522,0.03373953700065613,0.12699614465236664,-0.38809341192245483
4.575,0.8543709516525269,1.4786118268966675,0.4806772470474243,0.21962931752204895,-0.14921537041664124,-0.4549127221107483
4.6,0.39117661118507385,1.2967852354049683,0.0005140127614140511,0.27838844060897827,-0.20582111179828644,-0.4194948971271515
4.625,0.16771367192268372,1.1425789594650269,-0.17015190422534943,0.18635566532611847,-0.07792707532644272,-0.2936268150806427
4.65,0.39969104528427124,1.2108410596847534,0.2852088212966919,0.0718228667974472,0.006704628001898527,-0.1637430340051651
4.675,0.7081731557846069,1.4100064039230347,0.77797931432724,0.07624942064285278,-0.07327493280172348,-0.10909491032361984
4.7,0.6438047289848328,1.5295981168746948,0.7652563452720642,0.15967926383018494,-0.2448231279850006,-0.10588144510984421
4.725,0.4019635319709778,1.553665041923523,0.47240716218948364,0.18963783979415894,-0.34702268242836,-0.059931255877017975
4.75,0.4877646863460541,1.5058268308639526,0.3673543632030487,0.12370006740093231,-0.3119138479232788,0.06708981096744537
4.775,0.849506139755249,1.4949826002120972,0.4979858696460724,0.051211774349212646,-0.2845575511455536,0.19600732624530792
4.8,1.1323957443237305,1.5514097213745117,0.5660691261291504,0.05540725588798523,-0.36972758173942566,0.27437466382980347
4.825,1.089972972869873,1.4832067489624023,0.4914996922016144,0.09435898810625076,-0.4963429868221283,0.3502700626850128
4.85,0.9119476079940796,1.3515281677246094,0.532373309135437,0.09963826835155487,-0.597993791103363,0.4649536907672882
4.875,0.8678635358810425,1.3468656539916992,0.7129624485969543,0.08873318135738373,-0.6269753575325012,0.6035925149917603
4.9,0.8774442672729492,1.4361639022827148,0.9053667187690735,0.09763415157794952,-0.601418137550354,0.7041594386100769
4.925,0.7935051918029785,1.4473295211791992,1.0882676839828491,0.11412650346755981,-0.6487980484962463,0.796960175037384
4.95,0.5777395963668823,1.2766046524047852,1.3789420127868652,0.09679964184761047,-0.7482824325561523,0.9426913857460022
4.975,0.3454437851905823,1.0010517835617065,1.682938814163208,0.028935790061950684,-0.7809146642684937,1.083635687828064
5.0,0.0984535813331604,0.7024984359741211,1.7767438888549805,-0.02138945460319519,-0.7771856188774109,1.1577483415603638
5.025,-0.255741149187088,0.5262355208396912,1.619276762008667,-0.06743887066841125,-0.8543235659599304,1.199590802192688
5.05,-0.6277680993080139,0.46875664591789246,1.4323381185531616,-0.15889355540275574,-1.0029122829437256,1.2779672145843506
5.075,-0.888009250164032,0.2472514808177948,1.5071946382522583,-0.2382279336452484,-1.1332403421401978,1.3322217464447021
5.1,-1.2464476823806763,-0.08092024177312851,1.692689299583435,-0.22769609093666077,-1.2959545850753784,1.2974756956100464
5.125,-1.8049216270446777,-0.20889286696910858,1.4890053272247314,-0.1122567355632782,-1.5030202865600586,1.2864433526992798
5.15,-2.4462475776672363,-0.17401038110256195,0.672400176525116,0.037695229053497314,-1.7150713205337524,1.3144612312316895
5.175,-2.839754343032837,-0.16616550087928772,-0.3665023446083069,0.12510904669761658,-1.8851789236068726,1.3258135318756104
5.2,-2.7106118202209473,-0.18693271279335022,-0.9119014739990234,0.08960866928100586,-1.908145546913147,1.2674514055252075
5.225,-2.1959893703460693,-0.17865192890167236,-0.7375469207763672,0.03445771336555481,-1.7849582433700562,1.1183106899261475
5.25,-1.697515606880188,-0.18142041563987732,-0.3891792297363281,0.10705947875976562,-1.678642749786377,0.951819121837616
5.275,-1.3854237794876099,-0.2427874356508255,-0.43369051814079285,0.28156962990760803,-1.6631170511245728,0.8432356715202332
5.3,-1.1663792133331299,-0.32092005014419556,-0.7275646924972534,0.37258297204971313,-1.681968331336975,0.8579123020172119
5.325,-1.1042146682739258,-0.35415273904800415,-0.9066135883331299,0.2688509523868561,-1.654181957244873,0.9171803593635559
5.35,-1.245402216911316,-0.3636952042579651,-1.0029430389404297,0.03109067678451538,-1.5783997774124146,0.9433082342147827
5.375,-1.3959577083587646,-0.47437673807144165,-1.1495782136917114,-0.20207016170024872,-1.5196936130523682,0.9462761282920837
5.4,-1.394618034362793,-0.6323862671852112,-1.2218666076660156,-0.3314710259437561,-1.480837106704712,0.9071840047836304
5.425,-1.2376611232757568,-0.6767626404762268,-1.2130744457244873,-0.3709971606731415,-1.4121781587600708,0.8070363402366638
5.45,-1.0686392784118652,-0.5862836837768555,-1.2655298709869385,-0.33808237314224243,-1.3118513822555542,0.7250241041183472
5.475,-1.0625860691070557,-0.5350713729858398,-1.3199176788330078,-0.27067452669143677,-1.2138177156448364,0.7223276495933533
5.5,-1.2044497728347778,-0.7508164048194885,-1.2690263986587524,-0.26026636362075806,-1.1524901390075684,0.761873722076416
5.525,-1.3507137298583984,-1.1622352600097656,-1.1938875913619995,-0.27468496561050415,-1.0986591577529907,0.7775807976722717
5.55,-1.4743300676345825,-1.3898229598999023,-1.1497403383255005,-0.2561674416065216,-1.0285868644714355,0.7306314706802368
5.575,-1.5231969356536865,-1.4054622650146484,-0.9864706993103027,-0.26421958208084106,-0.9407038688659668,0.6356739401817322
5.6,-1.6203376054763794,-1.517862319946289,-0.6265621781349182,-0.33734843134880066,-0.8821962475776672,0.49124056100845337
5.625,-1.9924272298812866,-1.7819280624389648,-0.23064126074314117,-0.4645256996154785,-0.909500241279602,0.30570873618125916
5.65,-2.388679027557373,-1.8577799797058105,0.11415760964155197,-0.5819985866546631,-1.0058038234710693,0.15218307077884674
5.675,-2.522266149520874,-1.5684137344360352,0.30631956458091736,-0.6348173022270203,-1.0461491346359253,-0.010697421617805958
5.7,-2.4978435039520264,-1.3608665466308594,0.2234766036272049,-0.5768008828163147,-1.0461572408676147,-0.18357236683368683
5.725,-2.5238535404205322,-1.6377363204956055,-0.27388396859169006,-0.4040740728378296,-1.1348084211349487,-0.25014787912368774
5.75,-2.6637020111083984,-2.0123538970947266,-0.943354606628418,-0.3001207113265991,-1.2564144134521484,-0.2539319694042206
5.775,-2.9527673721313477,-1.9045745134353638,-1.3976744413375854,-0.32438457012176514,-1.3704801797866821,-0.36678406596183777
5.8,-3.2312278747558594,-1.2986232042312622,-1.3901863098144531,-0.3878821134567261,-1.5114731788635254,-0.6366066336631775
5.825,-3.2602522373199463,-0.8103324174880981,-1.0365142822265625,-0.3080097436904907,-1.6275683641433716,-0.9355352520942688
5.85,-3.0470223426818848,-0.9289065599441528,-0.7821943163871765,-0.026263713836669922,-1.7631717920303345,-1.0692651271820068
5.875,-2.8714823722839355,-1.2405444383621216,-0.9820337891578674,0.31761491298675537,-1.9649378061294556,-0.9929443597793579
5.9,-3.027559995651245,-0.8167392015457153,-1.6647138595581055,0.5556192994117737,-2.1960079669952393,-0.8859696984291077
5.925,-3.2121880054473877,0.194319486618042,-2.086660623550415,0.6792653799057007,-2.395437479019165,-0.8807983994483948
5.95,-2.9064173698425293,0.3162505626678467,-1.5343663692474365,0.9631710052490234,-2.5204827785491943,-0.9234582185745239
5.975,-2.2394607067108154,-0.5925837159156799,-1.019739031791687,1.4657913446426392,-2.8678762912750244,-0.7056576609611511
6.0,-1.6219578981399536,-1.4046316146850586,-0.8231099843978882,1.6982067823410034,-3.257316827774048,-0.3388366401195526
6.025,-1.4741700887680054,-1.5162982940673828,-0.7641991376876831,1.7302266359329224,-3.5285027027130127,-0.04932793974876404
6.05,-1.4207719564437866,-0.7653933167457581,-1.67218017578125,1.812976360321045,-3.923717975616455,0.3002830445766449
6.075,-0.6653165817260742,0.5193508267402649,-3.499701976776123,1.824008584022522,-4.442203998565674,0.6953784823417664
6.1,0.7874847650527954,1.551213026046753,-4.97137451171875,1.7966119050979614,-4.9924397468566895,0.9445363879203796
6.125,2.151430368423462,1.6314600706100464,-5.382118225097656,1.8309513330459595,-5.494688510894775,0.904122531414032
6.15,2.869438648223877,1.1242731809616089,-5.197366237640381,1.9142683744430542,-5.788986682891846,0.6139726042747498
6.175,3.2421391010284424,1.0219420194625854,-5.145871639251709,1.9440637826919556,-6.007045745849609,0.4799482822418213
6.2,3.734405040740967,1.557210922241211,-5.144062042236328,1.6823490858078003,-6.41624116897583,0.7118643522262573
6.225,4.51682186126709,2.1130666732788086,-4.754465103149414,1.089262843132019,-7.059683322906494,1.0872578620910645
6.25,5.462027549743652,2.394979476928711,-4.000537395477295,0.25857412815093994,-7.666571140289307,1.335031270980835
6.275,6.517333030700684,2.612067222595215,-3.0765058994293213,-0.573912501335144,-8.061766624450684,1.145250916481018
6.3,7.60990047454834,2.8297502994537354,-1.6825352907180786,-1.1026132106781006,-8.174711227416992,0.5728414058685303
6.325,8.35403060913086,2.5713999271392822,0.4230380952358246,-1.2160804271697998,-7.832713603973389,-0.10544193536043167
6.35,8.445701599121094,1.7588247060775757,2.702601909637451,-0.9002016186714172,-7.007845878601074,-0.5502458214759827
6.375,7.915840148925781,1.0957826375961304,4.197261333465576,-0.4269745945930481,-6.166957855224609,-0.7773557305335999
6.4,6.806861400604248,0.3701615035533905,4.7719855308532715,0.14242224395275116,-5.340453624725342,-0.9215214848518372
6.425,5.2105326652526855,-0.9510369300842285,5.090263366699219,0.8071454763412476,-4.460142135620117,-0.8513271808624268
6.45,3.6976733207702637,-2.2566041946411133,5.376650333404541,1.1496636867523193,-3.7118911743164062,-0.5063169002532959
6.475,2.735790252685547,-2.569913864135742,5.212154388427734,1.0402987003326416,-3.0536351203918457,-0.1129751205444336
6.5,2.208594799041748,-2.1511764526367188,4.643209457397461,0.613714337348938,-2.4889233112335205,-0.048206642270088196
6.525,1.8217558860778809,-1.8291956186294556,4.395177364349365,0.14792943000793457,-2.0095248222351074,-0.21332839131355286
6.55,1.1692774295806885,-1.7495534420013428,4.859675407409668,-0.07567067444324493,-1.4015446901321411,-0.19816750288009644
6.575,0.023299455642700195,-1.5748755931854248,5.560310363769531,0.008007271215319633,-0.6410077214241028,0.02339138649404049
6.6,-0.4964097738265991,-1.0468719005584717,5.686456680297852,0.16011027991771698,0.1965269148349762,0.1753203272819519
6.625,0.6525506973266602,-0.04833492636680603,4.7581892013549805,0.1680823266506195,1.0584039688110352,0.27794280648231506
6.65,2.3010432720184326,0.7675143480300903,2.847362995147705,0.19835826754570007,1.55759596824646,0.16388070583343506
6.675,2.929525852203369,1.2881661653518677,0.8511378169059753,0.05249457061290741,1.552253246307373,0.008103886619210243
6.7,2.5507020950317383,1.6302003860473633,-0.20827625691890717,-0.32709652185440063,1.1638829708099365,-0.1272028088569641
6.725,2.009727716445923,1.3704299926757812,-0.09478231519460678,-0.7496751546859741,0.599181592464447,-0.3051391541957855
6.75,1.328153133392334,0.604154646396637,0.9003682732582092,-0.8937193751335144,0.5061535835266113,-0.2673368752002716
6.775,1.0003268718719482,0.1352606564760208,1.6501612663269043,-0.9790552854537964,0.6984943747520447,-0.2526905834674835
6.8,1.8196773529052734,0.04627431929111481,1.6995248794555664,-1.0830745697021484,0.8071399927139282,-0.30031412839889526
6.825,2.9563608169555664,-0.06498316675424576,1.4753519296646118,-0.9996492862701416,0.932353138923645,-0.28925517201423645
6.85,3.1385867595672607,-0.28565096855163574,1.2482463121414185,-0.780904233455658,1.0424472093582153,-0.20019087195396423
6.875,2.418414354324341,-0.34121590852737427,1.1050320863723755,-0.6218718886375427,1.092279314994812,-0.01721886359155178
6.9,1.6651957035064697,-0.4053543508052826,1.3114900588989258,-0.5304123163223267,1.2078557014465332,0.1440993696451187
6.925,1.483116626739502,-0.42410069704055786,2.419342517852783,-0.489984393119812,1.4856606721878052,0.2871396541595459
6.95,1.9256755113601685,0.22159500420093536,4.5719757080078125,-0.43375715613365173,2.1070778369903564,0.4248965382575989
6.975,3.0249035358428955,1.4219963550567627,6.936518669128418,-0.24758055806159973,3.1328768730163574,0.3956895172595978
7.0,4.974364280700684,2.7931740283966064,8.099252700805664,-0.030575178563594818,4.405083179473877,0.2761760354042053
7.025,7.191378593444824,3.83617901802063,6.78162145614624,0.265964150428772,5.830331802368164,0.014007593505084515
7.05,8.568605422973633,3.890591859817505,3.110532760620117,0.3530299663543701,7.020263195037842,-0.4758295714855194
7.075,8.609540939331055,3.1736671924591064,-1.2873597145080566,-0.0034073591232299805,7.424794673919678,-0.8718655705451965
7.1,7.360274791717529,2.3054819107055664,-4.787694931030273,-0.6479144096374512,7.081913471221924,-0.9753829836845398
7.125,5.508111000061035,1.4055805206298828,-6.499311923980713,-1.4348149299621582,6.273383617401123,-0.7542195916175842
7.15,3.996034622192383,0.6231880187988281,-6.54756498336792,-2.0680313110351562,5.37598180770874,-0.24585077166557312
7.175,3.1915664672851562,0.1260681450366974,-5.886687278747559,-2.2780508995056152,4.708755970001221,0.29290953278541565
7.2,3.0316245555877686,-0.34396448731422424,-5.1506500244140625,-2.118696451187134,4.353437900543213,0.6233822107315063
7.225,3.1962709426879883,-0.8377503156661987,-4.622677326202393,-1.788177490234375,4.321877956390381,0.6033312082290649
7.25,2.9545135498046875,-1.2615326642990112,-4.561569690704346,-1.502738356590271,4.5540547370910645,0.30134809017181396
7.275,1.9780994653701782,-1.5845545530319214,-4.912981986999512,-1.3312252759933472,4.799124717712402,-0.10292930901050568
7.3,0.4511481523513794,-1.8898334503173828,-5.177655220031738,-1.2902238368988037,4.8911919593811035,-0.3608250319957733
7.325,-0.958580493927002,-2.2176613807678223,-4.940985679626465,-1.2152578830718994,4.773991107940674,-0.3040721118450165
7.35,-1.8260661363601685,-2.4999022483825684,-4.423714637756348,-1.0196305513381958,4.530505180358887,-0.008011432364583015
7.375,-2.3225502967834473,-2.6936473846435547,-4.041143417358398,-0.6689245104789734,4.282382488250732,0.3222016394138336
7.4,-2.7518563270568848,-2.783726692199707,-3.9056951999664307,-0.28480061888694763,4.150950908660889,0.47801801562309265
7.425,-3.320855140686035,-2.6189727783203125,-3.8965654373168945,0.048150524497032166,4.176830768585205,0.4332248866558075
7.45,-4.0751824378967285,-2.321643352508545,-3.725297212600708,0.29966601729393005,4.292292594909668,0.23237964510917664
7.475,-4.776396751403809,-2.284783363342285,-3.174164295196533,0.553957462310791,4.4299750328063965,-0.015126224607229233
7.5,-5.3253984451293945,-2.39719820022583,-2.5392730236053467,0.9218983054161072,4.540765285491943,-0.23436346650123596
7.525,-5.927979469299316,-2.2651960849761963,-2.151125192642212,1.3588659763336182,4.501101493835449,-0.4440678358078003
7.55,-6.451686859130859,-2.109201669692993,-1.631449580192566,1.7817332744598389,4.35911750793457,-0.607087254524231
7.575,-6.657394886016846,-2.031046152114868,-1.2125006914138794,2.4546613693237305,4.136049747467041,-0.8223353028297424
7.6,-6.727513313293457,-1.6923954486846924,-1.357885479927063,3.197497844696045,3.6734566688537598,-1.2357583045959473
7.625,-6.778317451477051,-0.5421861410140991,-1.6117477416992188,3.689634323120117,3.168649673461914,-1.8178499937057495
7.65,-6.541558742523193,1.198671817779541,-1.2839241027832031,3.9040050506591797,2.8178184032440186,-2.444162130355835
7.675,-6.004316329956055,2.5358099937438965,-0.37174704670906067,3.8082997798919678,2.6672067642211914,-2.997884750366211
7.7,-5.452250003814697,2.763988971710205,0.5347844958305359,3.375704288482666,2.7867462635040283,-3.2402842044830322
7.725,-5.1246795654296875,2.376769542694092,1.166621208190918,2.842203140258789,3.082473039627075,-3.2464401721954346
7.75,-4.8240251541137695,2.0075535774230957,1.6098757982254028,2.3322219848632812,3.3656105995178223,-3.0324466228485107
7.775,-4.227962970733643,1.8527389764785767,2.0559778213500977,1.9151220321655273,3.5294301509857178,-2.7140941619873047
7.8,-3.3573641777038574,1.8803327083587646,2.681971549987793,1.6048026084899902,3.6051371097564697,-2.4392075538635254
7.825,-2.204434871673584,1.8495739698410034,3.185014247894287,1.4339174032211304,3.687227487564087,-2.155951976776123
7.85,-0.6641855835914612,1.6184881925582886,3.446593761444092,1.410607099533081,3.6656272411346436,-2.042710065841675
7.875,0.8936280012130737,1.0151853561401367,3.552135467529297,1.4121993780136108,3.3356428146362305,-2.1204116344451904
7.9,1.7154717445373535,0.1970454901456833,3.439695358276367,1.4138574600219727,2.8809478282928467,-2.2050704956054688
7.925,1.7776012420654297,-0.12525349855422974,2.859987258911133,1.2233514785766602,2.4379358291625977,-2.3978734016418457
7.95,1.8577803373336792,0.21149171888828278,1.9576587677001953,0.9097579717636108,2.0915634632110596,-2.5447826385498047
7.975,2.3639309406280518,0.4541236162185669,1.2162442207336426,0.713815450668335,1.7974475622177124,-2.4462697505950928
8.0,2.7029192447662354,0.23910346627235413,0.790655255317688,0.6675230860710144,1.5583982467651367,-2.00327467918396
8.025,2.473750114440918,-0.15148146450519562,0.42421954870224,0.6611073017120361,1.37282395362854,-1.502898931503296
8.05,2.1075682640075684,-0.5421016812324524,0.19946590065956116,0.5360430479049683,1.1723014116287231,-1.2582145929336548
8.075,1.8016031980514526,-0.910137951374054,0.24621155858039856,0.3225606679916382,0.9209884405136108,-1.0526446104049683
8.1,1.4386521577835083,-1.2172629833221436,0.3603553771972656,0.09016527235507965,0.691360592842102,-0.736079752445221
8.125,0.9804632067680359,-1.3634545803070068,0.45338401198387146,-0.10227878391742706,0.5728874802589417,-0.3176287114620209
8.15,0.5863195061683655,-1.2805536985397339,0.503402829170227,-0.311777263879776,0.5155215859413147,-0.011935443617403507
8.175,0.5094548463821411,-0.9101666212081909,0.4737834334373474,-0.5566272735595703,0.492503821849823,0.12030412256717682
8.2,0.7964942455291748,-0.18317407369613647,0.2469014972448349,-0.847008466720581,0.4132128655910492,-0.05138516053557396
8.225,1.1024973392486572,0.8644933700561523,-0.39097610116004944,-1.062588095664978,0.1767755001783371,-0.22299158573150635
8.25,1.2036545276641846,1.6255749464035034,-0.9281222820281982,-1.0440176725387573,-0.05196657404303551,-0.17020757496356964
8.275,1.4860670566558838,1.566904902458191,-0.9686887264251709,-0.9735075235366821,-0.23786561191082,0.0014744543004781008
8.3,1.788865089416504,0.7896060943603516,-0.5103057622909546,-0.9687008261680603,-0.45150089263916016,0.30993130803108215
8.325,1.6364953517913818,0.09384354948997498,0.19654923677444458,-0.9187945127487183,-0.6400285959243774,0.8321864008903503
8.35,1.4800312519073486,-0.4384535551071167,0.739112138748169,-0.7709556818008423,-0.7058215141296387,1.356959581375122
8.375,1.9486091136932373,-1.1739051342010498,0.7946671843528748,-0.797685980796814,-0.8696037530899048,1.690301537513733
8.4,2.756436824798584,-1.6612260341644287,0.49538877606391907,-0.79839688539505,-1.07569420337677,2.171152353286743
8.425,3.2464256286621094,-1.2503153085708618,0.2786339223384857,-0.6077504754066467,-1.1020209789276123,2.919753074645996
8.45,3.162306547164917,-0.16097335517406464,0.24570389091968536,-0.43467503786087036,-0.994466245174408,3.7805564403533936
8.475,2.756316661834717,1.0823497772216797,0.453133761882782,-0.38751769065856934,-0.7767056226730347,4.607553958892822
8.5,2.055114984512329,2.0880117416381836,1.163455605506897,-0.5460898876190186,-0.46867644786834717,5.397568225860596
8.525,0.9150000214576721,2.818439245223999,2.554227828979492,-0.9378221035003662,-0.05147562548518181,6.117977619171143
8.55,-0.5599298477172852,3.360687017440796,4.002641201019287,-1.6322742700576782,0.49045857787132263,6.6215410232543945
8.575,-1.8393213748931885,3.0963027477264404,4.353135585784912,-2.486069440841675,0.9517700672149658,6.675121307373047
8.6,-2.2619361877441406,1.8995627164840698,3.83766770362854,-3.168027400970459,1.2297412157058716,6.111323833465576
8.625,-1.9698071479797363,0.9241723418235779,3.525563955307007,-3.721205234527588,1.1828455924987793,5.110918045043945
8.65,-1.6150615215301514,0.7277602553367615,3.5232319831848145,-4.070755958557129,0.6399213671684265,4.032839298248291
8.675,-1.5566353797912598,1.0205801725387573,3.410839319229126,-3.998840570449829,-0.37285852432250977,2.972687244415283
8.7,-1.9056293964385986,1.2596796751022339,2.8009490966796875,-3.39168119430542,-1.7871489524841309,2.0397491455078125
8.725,-2.551663875579834,1.032881498336792,1.776199460029602,-2.3823845386505127,-3.141063928604126,1.4700559377670288
8.75,-3.0288472175598145,0.1884802132844925,0.67247474193573,-1.2761389017105103,-4.10330867767334,1.3001794815063477
8.775,-3.1202564239501953,-0.8560715913772583,-0.24148596823215485,-0.2838655710220337,-4.58132791519165,1.2783163785934448
8.8,-2.8885092735290527,-1.6169854402542114,-0.9042974710464478,0.46751123666763306,-4.659154415130615,1.3099348545074463
8.825,-2.40869402885437,-1.9720983505249023,-1.2923229932785034,0.8404311537742615,-4.472110748291016,1.349841594696045
8.85,-1.731021523475647,-2.0032801628112793,-1.3940223455429077,0.8890265226364136,-4.1528706550598145,1.2665650844573975
8.875,-0.8509342074394226,-1.9225225448608398,-1.2158629894256592,0.765795111656189,-3.776381254196167,1.0076205730438232
8.9,0.1842612624168396,-1.7211111783981323,-0.7143229842185974,0.6126428842544556,-3.3552563190460205,0.656379759311676
8.925,0.9018414616584778,-1.1748942136764526,0.1442061960697174,0.5297650098800659,-2.876859426498413,0.32647794485092163
8.95,0.9470402598381042,-0.35486018657684326,1.132875919342041,0.4453010559082031,-2.4186694622039795,0.09144417941570282
8.975,0.55409836769104,0.4201841652393341,1.8241733312606812,0.395422101020813,-2.27514386177063,-0.03797365725040436
9.0,0.16911280155181885,0.8698577880859375,2.2002294063568115,0.39711621403694153,-2.30271577835083,-0.10611745715141296
9.025,-0.18990927934646606,0.8310737609863281,2.392287254333496,0.5015154480934143,-2.3593006134033203,-0.16379468142986298
9.05,-0.577115535736084,0.24810504913330078,2.128715991973877,0.7744514346122742,-2.454878330230713,-0.2562128007411957
9.075,-1.172723412513733,-0.24314787983894348,1.0505659580230713,1.2620856761932373,-2.7064809799194336,-0.33947622776031494
9.1,-1.785531997680664,-0.28767308592796326,-0.9270070791244507,1.6800121068954468,-3.0757198333740234,-0.2021837830543518
9.125,-1.6583062410354614,-0.5067654848098755,-3.3922934532165527,1.7648835182189941,-3.229041814804077,0.1179780513048172
9.15,-0.34994935989379883,-1.1504411697387695,-5.778618812561035,1.635242223739624,-3.026033401489258,0.41750580072402954
9.175,1.9394817352294922,-1.449631690979004,-7.282368183135986,1.4812602996826172,-2.5574235916137695,0.4737841784954071
9.2,3.790907382965088,-1.21074378490448,-7.549015522003174,1.1775562763214111,-1.4908567667007446,0.16080182790756226
9.225,3.9693613052368164,-0.8290680646896362,-7.5053300857543945,0.8043525218963623,0.030843965709209442,-0.4007243514060974
9.25,2.771089553833008,-0.32876014709472656,-7.415345668792725,0.5629571676254272,1.2613534927368164,-0.7547895312309265
9.275,1.1210938692092896,-0.026778319850564003,-6.956915855407715,0.5152872800827026,2.1322593688964844,-0.7155575156211853
9.3,-0.2006664276123047,-0.11028590798377991,-6.240909576416016,0.6477246880531311,2.5619852542877197,-0.4675896465778351
9.325,-0.6789208650588989,-0.21798720955848694,-5.546508312225342,0.8284558057785034,2.5822765827178955,-0.17574620246887207
9.35,-0.6567486524581909,-0.16989053785800934,-5.112676620483398,0.9508358836174011,2.4829351902008057,0.0646413266658783
9.375,-0.855994701385498,0.1833980828523636,-4.582357406616211,1.036818265914917,2.594170331954956,0.1809876263141632
9.4,-1.6550155878067017,0.9244897365570068,-3.4135241508483887,1.1138124465942383,2.936631441116333,0.2060646265745163
9.425,-2.5951156616210938,1.7064424753189087,-1.765030026435852,1.1279255151748657,3.294739007949829,0.2259131819009781
9.45,-2.750595808029175,2.23527193069458,-0.24965108931064606,1.117455005645752,3.536705255508423,0.23915652930736542
9.475,-2.041701316833496,2.4180266857147217,1.0803359746932983,1.147654414176941,3.568425416946411,0.1669827699661255
9.5,-0.9072681665420532,2.1700236797332764,1.820123314857483,1.0700738430023193,3.357226610183716,0.05945036560297012
9.525,0.2004159688949585,1.8079642057418823,1.5039006471633911,0.8567707538604736,3.090679883956909,-0.012944942340254784
9.55,1.0974177122116089,1.5203685760498047,0.47169849276542664,0.6667724251747131,2.8685624599456787,0.02428612858057022
9.575,1.9955341815948486,1.3304386138916016,-0.5396174192428589,0.6040326356887817,3.007704019546509,0.21252891421318054
9.6,2.65864634513855,1.0784006118774414,-1.3543068170547485,0.6023277044296265,3.1648967266082764,0.3714710474014282
9.625,1.4834864139556885,-0.13745681941509247,-0.7114787101745605,0.6926092505455017,2.7174487113952637,0.4688369333744049
9.65,0.2815989851951599,-1.6774557828903198,0.2872640788555145,0.9809380173683167,2.154038906097412,0.4877385199069977
9.675,-0.12060150504112244,-2.7214033603668213,0.9452826380729675,1.305864691734314,1.9117289781570435,0.4541921019554138
9.7,-0.3859294354915619,-3.2398579120635986,1.9561820030212402,1.552659273147583,1.7926349639892578,0.3880075216293335
9.725,-0.5401074886322021,-3.160010576248169,3.1495580673217773,1.6469690799713135,1.641961693763733,0.29834097623825073
9.75,-0.5130758881568909,-2.311640977859497,4.000055313110352,1.5735846757888794,1.3986815214157104,0.11494959145784378
9.775,-0.26233911514282227,-0.6701592206954956,4.287520408630371,1.4011964797973633,1.2294912338256836,-0.21114493906497955
9.8,0.33821403980255127,1.0657329559326172,3.9774246215820312,1.1472835540771484,1.3006536960601807,-0.700725257396698
9.825,1.0109411478042603,1.890777587890625,3.47996187210083,0.8018971681594849,1.6369537115097046,-1.1330064535140991
9.85,1.0495225191116333,1.9731769561767578,3.1552321910858154,0.23968705534934998,1.5278918743133545,-1.4592124223709106
9.875,0.19024807214736938,2.292126417160034,2.156785011291504,-0.38663941621780396,1.0432462692260742,-1.5764909982681274
9.9,-0.27595898509025574,2.5010898113250732,0.6003385782241821,-0.9594980478286743,0.6664493083953857,-1.3910281658172607
9.925,0.4506875276565552,1.3001946210861206,-0.06659604609012604,-1.2902005910873413,0.7253729701042175,-1.0385715961456299
9.95,1.4839872121810913,-1.1536471843719482,0.5241097211837769,-1.4626084566116333,1.2597674131393433,-0.7144174575805664
9.975,2.3471784591674805,-3.6609644889831543,1.2247306108474731,-1.5304248332977295,1.5113307237625122,-0.5355148315429688
10.0,3.0077970027923584,-5.205259799957275,1.0111185312271118,-1.4951332807540894,1.0909324884414673,-0.49874529242515564
10.025,3.23152494430542,-5.514192581176758,-0.22158029675483704,-1.537051796913147,0.30356481671333313,-0.501499593257904
10.05,3.1522505283355713,-4.604572296142578,-1.8267333507537842,-1.5829832553863525,-0.5450320243835449,-0.45986393094062805
10.075,3.0445923805236816,-1.7661092281341553,-2.3927431106567383,-1.4912331104278564,-1.3396514654159546,-0.2562430202960968
10.1,2.475233554840088,2.8809754848480225,-1.8495738506317139,-1.4921081066131592,-2.2331066131591797,0.1705407053232193
10.125,1.3244389295578003,6.4060139656066895,-2.7584125995635986,-1.5409619808197021,-3.2446110248565674,1.0358549356460571
10.15,0.7990262508392334,7.625359058380127,-5.338046550750732,-1.1918976306915283,-3.403306245803833,1.6960885524749756
10.175,1.2275340557098389,7.752142429351807,-6.237949848175049,-0.3790229856967926,-2.1612532138824463,1.9889206886291504
10.2,1.5812420845031738,7.770388126373291,-4.246689796447754,0.05110514163970947,-0.2544178068637848,2.3165957927703857
10.225,1.6436607837677002,7.6869988441467285,-2.1772165298461914,-0.19058960676193237,0.8888471126556396,2.5948147773742676
10.25,1.4901249408721924,7.026302814483643,-1.8401293754577637,-0.5017820000648499,1.0267785787582397,2.7084238529205322
10.275,1.0105098485946655,5.268454074859619,-2.08176326751709,-0.5235135555267334,1.008097767829895,2.7881999015808105
10.3,0.33605656027793884,2.636091947555542,-1.748643398284912,-0.3890339136123657,1.0534549951553345,2.7572097778320312
10.325,-0.31195250153541565,-0.02114775963127613,-0.6910005807876587,-0.2539657950401306,1.087723731994629,2.615009069442749
10.35,-0.7380189895629883,-2.3429834842681885,0.21227170526981354,-0.10107976198196411,0.8608967661857605,2.436161518096924
10.375,-0.9575309753417969,-4.155063152313232,0.5194796323776245,0.10289883613586426,0.4316583573818207,2.2459805011749268
10.4,-1.0259963274002075,-5.244964599609375,0.4931578040122986,0.27588409185409546,0.052716538310050964,2.0930638313293457
10.425,-0.9065349698066711,-5.525751113891602,0.2573961615562439,0.33185815811157227,-0.14864370226860046,2.0363898277282715
10.45,-0.7633593082427979,-5.110311985015869,-0.18076986074447632,0.22778218984603882,-0.15688569843769073,2.0910093784332275
10.475,-0.7430531978607178,-4.5215067863464355,-0.5944300293922424,-0.03194248676300049,-0.0002267422096338123,2.377734899520874
10.5,-0.5574886202812195,-3.6130282878875732,-0.7154531478881836,-0.39795786142349243,0.1709001362323761,2.6066246032714844
10.525,0.051132768392562866,-2.3316409587860107,-0.39307302236557007,-0.797238826751709,0.30267757177352905,2.6286187171936035
10.55,0.6335356831550598,-1.328469157218933,0.481364369392395,-0.9107203483581543,0.3208899199962616,2.462691307067871
10.575,0.44849759340286255,-0.9289740324020386,1.142822504043579,-0.7358847856521606,0.059180084615945816,2.123350143432617
10.6,-0.3916695713996887,-0.7172717452049255,0.7617893218994141,-0.3658168315887451,-0.283077597618103,1.614213228225708
10.625,-0.930999755859375,-0.15765480697155,-0.15276065468788147,0.11858516931533813,-0.43732020258903503,0.9962710738182068
10.65,-0.85081946849823,0.5656918287277222,-1.0956940650939941,0.4212707281112671,-0.45052146911621094,0.3341813385486603
10.675,-0.9202574491500854,1.2140872478485107,-2.077773094177246,0.4700815975666046,-0.3840230107307434,-0.45819520950317383
10.7,-1.2882356643676758,1.4224364757537842,-2.871211528778076,0.43820783495903015,-0.24548916518688202,-1.143741488456726
10.725,-1.5605173110961914,0.6231648921966553,-3.207610607147217,0.24542483687400818,-0.1337997168302536,-1.5647209882736206
10.75,-1.657207727432251,-1.2337102890014648,-3.1253204345703125,0.11151319742202759,-0.06272771954536438,-1.8805749416351318
10.775,-1.9108253717422485,-3.5226082801818848,-2.959449052810669,0.25950533151626587,-0.08061810582876205,-2.051814079284668
10.8,-2.425504207611084,-5.0113444328308105,-2.7447402477264404,0.408343106508255,-0.15966399013996124,-2.097006320953369
10.825,-2.9506192207336426,-5.026711940765381,-2.3933956623077393,0.5225191116333008,-0.23105227947235107,-2.1455910205841064
10.85,-3.3153226375579834,-4.117245674133301,-2.071993589401245,0.6297370791435242,-0.22111988067626953,-2.2467665672302246
10.875,-3.2781362533569336,-3.2075400352478027,-1.6749098300933838,0.5663491487503052,0.1434885561466217,-2.273582935333252
10.9,-2.9911370277404785,-2.4740543365478516,-1.0299476385116577,0.35476940870285034,0.6886716485023499,-2.276520013809204
10.925,-3.01228404045105,-1.2078237533569336,-0.4212188720703125,0.06893330812454224,1.0728973150253296,-2.388857841491699
10.95,-3.3105392456054688,0.7217795848846436,-0.7093604207038879,-0.2222074270248413,1.2202415466308594,-2.557570695877075
10.975,-3.8705034255981445,2.259798526763916,-2.7461133003234863,-0.3336063027381897,1.4307359457015991,-2.6815102100372314
11.0,-5.492068767547607,4.083136558532715,-5.73544454574585,-0.14675986766815186,2.0229711532592773,-3.032287120819092
11.025,-7.330502510070801,7.61332893371582,-7.36509370803833,0.3206446170806885,2.719560384750366,-3.7014780044555664
11.05,-7.0669708251953125,10.786919593811035,-6.473867893218994,0.8463642597198486,2.7841227054595947,-4.186351776123047
11.075,-4.510470390319824,11.065200805664062,-2.2520182132720947,1.348569631576538,2.7973482608795166,-4.137449264526367
11.1,-0.9801428318023682,8.75323486328125,2.58965802192688,1.6025257110595703,2.8912885189056396,-3.6943578720092773
11.125,1.9485622644424438,5.566524028778076,5.188199996948242,1.6077044010162354,2.8439433574676514,-3.2689621448516846
11.15,3.8560516834259033,2.8361473083496094,5.629003524780273,1.7152657508850098,3.0553414821624756,-2.9436750411987305
11.175,5.291018962860107,0.45411431789398193,4.8040618896484375,1.879065752029419,3.3167521953582764,-2.574425458908081
11.2,6.488791465759277,-1.7921384572982788,3.5504603385925293,2.075026512145996,3.508291482925415,-2.1687350273132324
11.225,7.15175724029541,-3.85370135307312,2.503586769104004,2.222717761993408,3.578705310821533,-1.7931073904037476
11.25,7.211583137512207,-5.503714084625244,1.5712556838989258,2.0572893619537354,3.3588595390319824,-1.6343690156936646
11.275,7.01647424697876,-6.372056007385254,0.19845403730869293,1.5421185493469238,3.0816397666931152,-1.6841779947280884
11.3,6.176370620727539,-6.326155662536621,-1.561988353729248,0.9924023151397705,2.6209678649902344,-1.703389048576355
11.325,4.831397533416748,-5.524020671844482,-2.3162500858306885,0.6750310659408569,2.122148036956787,-1.663344144821167
11.35,4.133935928344727,-4.238229751586914,-1.9502649307250977,0.39486780762672424,1.7488385438919067,-1.6427618265151978
11.375,3.8790855407714844,-2.2570090293884277,-1.6338387727737427,0.09182161092758179,1.4681386947631836,-1.432273268699646
11.4,3.4256176948547363,0.06757654994726181,-1.81638765335083,0.045629411935806274,1.3435150384902954,-0.9523561596870422
11.425,2.919464111328125,1.5421009063720703,-2.1262025833129883,0.08710610121488571,1.3498917818069458,-0.31657668948173523
11.45,2.1077868938446045,1.6863679885864258,-1.9137238264083862,-0.15399305522441864,1.176132082939148,0.21598027646541595
11.475,1.0826956033706665,1.0814694166183472,-1.22587251663208,-0.5419741272926331,0.7667240500450134,0.6540836691856384
11.5,0.4288703501224518,-0.1769533008337021,-0.8501334190368652,-0.6605294346809387,0.4130266308784485,1.0701344013214111
11.525,0.5429298281669617,-1.960016131401062,-0.8059242367744446,-0.4662412106990814,0.334547758102417,1.356497049331665
11.55,0.9020265340805054,-3.2670772075653076,-0.852099597454071,-0.2707776427268982,0.46436455845832825,1.6374118328094482
11.575,0.7762945294380188,-3.8306219577789307,-1.0078728199005127,-0.1437913179397583,0.5977291464805603,1.9851791858673096
11.6,0.3992847204208374,-4.160129547119141,-1.105716586112976,0.05301636457443237,0.6480026841163635,2.3100857734680176
11.625,0.3986673057079315,-4.189715385437012,-1.1175016164779663,0.3031803369522095,0.6823330521583557,2.61043643951416
11.65,0.7704012393951416,-3.473548173904419,-1.251198410987854,0.5421938896179199,0.6637239456176758,2.957646369934082
11.675,1.284871220588684,-1.8450044393539429,-1.644081711769104,0.6745098829269409,0.5263266563415527,3.324472665786743
11.7,2.2630763053894043,0.9049482345581055,-1.687040090560913,0.6672594547271729,0.09036912024021149,3.5150349140167236
11.725,2.206068754196167,4.869021892547607,-0.2809627652168274,0.37129342555999756,-1.1138992309570312,3.5676331520080566
11.75,-1.4817440509796143,7.218576908111572,1.011235237121582,0.23690783977508545,-3.550800323486328,3.796302318572998
11.775,-5.8443779945373535,6.819328308105469,0.0065673100762069225,0.35570991039276123,-5.243412971496582,3.330289363861084
11.8,-6.625649929046631,5.668880462646484,-1.9110461473464966,0.9038000702857971,-5.038338661193848,2.2404181957244873
11.825,-4.922210216522217,5.304752349853516,-2.817492961883545,1.783665418624878,-3.284623861312866,1.5418076515197754
11.85,-2.968473196029663,5.245238780975342,-2.5911800861358643,2.343374252319336,-0.9826334714889526,1.47514009475708
11.875,-1.4636257886886597,4.380087375640869,-1.9362668991088867,2.293827533721924,0.880730390548706,1.6494202613830566
11.9,-0.4198220372200012,2.7624213695526123,-1.477527141571045,1.8869900703430176,1.794018030166626,1.749102234840393
11.925,0.275397926568985,0.8215741515159607,-1.3964955806732178,1.5222606658935547,1.8071880340576172,1.745550274848938
11.95,0.5647616982460022,-1.1401623487472534,-1.560177206993103,1.326723337173462,1.3660229444503784,1.5846463441848755
11.975,0.44745445251464844,-2.628669500350952,-1.5740303993225098,1.19925057888031,0.8691005110740662,1.1908730268478394
12.0,0.03471916913986206,-3.465919256210327,-1.1792292594909668,1.1490745544433594,0.5599958300590515,0.7488219141960144
12.025,-0.45269638299942017,-3.8551361560821533,-0.4277990460395813,1.229797601699829,0.4436107575893402,0.4285632073879242
12.05,-0.8883074522018433,-3.7849972248077393,0.4723951518535614,1.3830822706222534,0.45890486240386963,0.28387293219566345
12.075,-1.177832841873169,-3.1382644176483154,1.4098882675170898,1.4164541959762573,0.613146960735321,0.34518906474113464
12.1,-1.2764908075332642,-2.1073052883148193,2.2425689697265625,1.281886339187622,0.9006305932998657,0.521202564239502
12.125,-1.4874279499053955,-1.2228955030441284,2.6001124382019043,1.067435383796692,1.260393500328064,0.6865118741989136
12.15,-2.2226486206054688,-0.7090597152709961,2.191718816757202,0.8524206876754761,1.6357656717300415,0.7812614440917969
12.175,-3.2172324657440186,0.2008865773677826,1.5931789875030518,0.4774918854236603,2.031651735305786,0.7441211938858032
12.2,-3.4123730659484863,1.6945531368255615,1.6015487909317017,-0.02638523280620575,2.539433479309082,0.5599545836448669
12.225,-3.014665365219116,2.419173002243042,2.082908868789673,-0.425447016954422,3.1264331340789795,0.3836284577846527
12.25,-3.2509803771972656,1.637634038925171,2.2579283714294434,-0.4446929693222046,3.6552250385284424,0.4708845913410187
12.275,-4.684708118438721,0.21944883465766907,2.676345109939575,-0.010276466608047485,3.989762544631958,0.5755845308303833
12.3,-5.9707536697387695,-0.04068395867943764,4.7477922439575195,0.21929380297660828,4.193610668182373,0.3131614625453949
12.325,-5.927475929260254,1.4489047527313232,7.399351119995117,-0.014267919585108757,4.276083469390869,0.10817588865756989
12.35,-5.219225883483887,3.1006228923797607,9.132312774658203,-0.0473463274538517,4.8540358543396,0.04789698123931885
12.375,-3.503782272338867,4.062574863433838,9.624648094177246,0.09620983153581619,5.851093769073486,-0.2691959738731384
12.4,0.612189531326294,4.708199977874756,7.718036651611328,0.1788889765739441,6.704636096954346,-0.6309094429016113
12.425,4.90802526473999,5.425097465515137,3.057936906814575,0.41148269176483154,6.645234107971191,-1.034411907196045
12.45,6.289924144744873,5.562390327453613,-1.190863013267517,0.5322960019111633,5.791275978088379,-1.7958861589431763
12.475,5.473910331726074,4.531996726989746,-2.56317400932312,0.3282213807106018,5.019631385803223,-2.601712942123413
12.5,4.722715377807617,2.79459285736084,-2.5172066688537598,0.06280052661895752,4.621331691741943,-2.9431753158569336
12.525,4.61680269241333,0.9373065233230591,-3.11692476272583,0.015226364135742188,4.392592430114746,-2.978034257888794
12.55,4.228274822235107,-0.6738527417182922,-4.417608261108398,-0.07495272159576416,4.16982364654541,-2.9398770332336426
12.575,2.9172747135162354,-1.7802265882492065,-5.292068958282471,-0.5114768743515015,3.8043670654296875,-2.7614643573760986
12.6,1.3385258913040161,-2.4695699214935303,-5.117852687835693,-1.0730292797088623,3.4064903259277344,-2.3941946029663086
12.625,0.30436432361602783,-3.1428635120391846,-3.987039089202881,-1.3729255199432373,3.09978985786438,-1.9675724506378174
12.65,-0.09972792863845825,-4.017312526702881,-2.7853729724884033,-1.2761790752410889,2.847578287124634,-1.6450464725494385
12.675,-0.38083451986312866,-4.858441352844238,-2.355341911315918,-0.9256566166877747,2.606276750564575,-1.4640470743179321
12.7,-0.6123386025428772,-5.292072296142578,-2.535444974899292,-0.5690391659736633,2.3273143768310547,-1.3447710275650024
12.725,-0.6321586966514587,-5.399725914001465,-2.5959043502807617,-0.40371832251548767,2.0487589836120605,-1.2406429052352905
12.75,-0.40181994438171387,-5.155121326446533,-2.076533794403076,-0.38793307542800903,1.79384183883667,-1.1333696842193604
12.775,-0.18163886666297913,-4.297843933105469,-1.4696673154830933,-0.3306640386581421,1.506123423576355,-1.0392780303955078
12.8,-0.29220879077911377,-2.9494264125823975,-1.1472527980804443,-0.1988353729248047,1.2229602336883545,-0.8551197648048401
12.825,-0.6963011622428894,-1.5052412748336792,-0.7099317312240601,-0.10102064907550812,1.0356553792953491,-0.5748322010040283
12.85,-1.0006307363510132,-0.28136351704597473,-0.392153799533844,-0.0829397439956665,0.9623000025749207,-0.12520061433315277
12.875,-0.9969475865364075,0.8884752988815308,-0.43064114451408386,-0.2799660563468933,0.9500085115432739,0.54432612657547
12.9,-0.650529682636261,2.0097854137420654,-0.26186320185661316,-0.5715361833572388,0.9629775285720825,1.1365059614181519
12.925,-0.09542451798915863,2.84358286857605,-0.005383918061852455,-0.48062798380851746,1.0078548192977905,1.299044132232666
12.95,0.19896787405014038,3.1311328411102295,-0.22369714081287384,-0.01649734377861023,1.064738154411316,1.050034523010254
12.975,0.10807099938392639,2.704716444015503,-0.7469837665557861,0.47104382514953613,1.2225549221038818,0.6011916995048523
13.0,0.10869178175926208,1.8912237882614136,-0.9834107160568237,0.7449610829353333,1.5286625623703003,0.26566803455352783
13.025,0.6349109411239624,0.9050158858299255,-0.7394000887870789,0.7988611459732056,1.8572365045547485,0.19301293790340424
13.05,1.6647515296936035,-0.43045032024383545,-0.22004327178001404,0.7321190237998962,2.1035332679748535,0.1732635200023651
13.075,2.873806953430176,-1.9448096752166748,0.12449181079864502,0.6117048263549805,2.235811233520508,0.12241829186677933
13.1,3.6582093238830566,-2.9313645362854004,-0.09989459067583084,0.46485456824302673,2.22503399848938,0.1303487867116928
13.125,3.696464776992798,-3.0784778594970703,-0.5779990553855896,0.31595277786254883,2.0758464336395264,0.11304385215044022
13.15,3.0739479064941406,-2.800102710723877,-0.7233514189720154,0.22988003492355347,1.9201231002807617,0.01796278916299343
13.175,2.0803561210632324,-2.520620107650757,-0.2602136433124542,0.2953191101551056,2.1383349895477295,-0.1634998470544815
13.2,1.2324219942092896,-2.2764952182769775,0.4352475106716156,0.46532154083251953,2.704803705215454,-0.3517034649848938
13.225,0.3285501003265381,-1.8021477460861206,0.7295363545417786,0.5304239392280579,3.035630226135254,-0.19913390278816223
13.25,-0.9531952142715454,-1.2549399137496948,0.4792269766330719,0.6499708294868469,2.9614529609680176,0.42462778091430664
13.275,-1.8762797117233276,-0.7034664750099182,-0.3042058050632477,0.9659771919250488,2.7579524517059326,1.3200613260269165
13.3,-1.7681128978729248,-0.10963738709688187,-1.4499380588531494,1.5373313426971436,2.568075656890869,2.0299885272979736
13.325,-1.1809958219528198,0.18689237534999847,-2.3440816402435303,2.1925315856933594,2.5789196491241455,2.026078939437866
13.35,-1.5064072608947754,0.07473835349082947,-2.6587204933166504,2.5848968029022217,2.8379387855529785,1.418678641319275
13.375,-3.290008783340454,-0.1490299552679062,-2.490966320037842,2.7612698078155518,3.0274667739868164,0.8625091910362244
13.4,-5.590739727020264,-0.5069001317024231,-1.7980424165725708,3.1605992317199707,2.7741711139678955,0.8564141988754272
13.425,-6.983695983886719,-1.196380853652954,-0.6938077807426453,3.8695614337921143,2.125101089477539,1.2480777502059937
13.45,-6.9788923263549805,-1.6785900592803955,0.2868679463863373,4.681231498718262,1.2689727544784546,1.4867318868637085
13.475,-5.946490287780762,-1.4659178256988525,1.1052004098892212,5.250357627868652,0.4023701548576355,1.2975215911865234
13.5,-4.300604820251465,-0.7878333330154419,2.109389066696167,5.343955039978027,-0.27350306510925293,0.9439907073974609
13.525,-2.991849660873413,-0.37532907724380493,3.837557554244995,5.140991687774658,-0.7477497458457947,0.5545228123664856
13.55,-3.4579460620880127,-1.6421040296554565,5.997243881225586,4.401100158691406,-0.8087823390960693,0.16091768443584442
13.575,-5.098527431488037,-3.6556754112243652,6.609065055847168,3.7295150756835938,-1.6285439729690552,-0.03874506801366806
13.6,-6.717489719390869,-3.263510227203369,5.140141487121582,3.0218615531921387,-2.371926784515381,-0.4916970431804657
13.625,-7.908159255981445,-0.28469595313072205,3.1234848499298096,2.277824878692627,-3.1529428958892822,-1.1912860870361328
13.65,-8.983201026916504,3.656322717666626,0.6976814270019531,1.8242595195770264,-4.509286403656006,-1.8886972665786743
13.675,-8.59557819366455,7.812763214111328,-2.2961153984069824,1.5692970752716064,-6.140059947967529,-2.7034881114959717
13.7,-5.132449150085449,11.063556671142578,-4.701986789703369,1.2753829956054688,-7.451135635375977,-3.280379056930542
13.725,0.44976019859313965,12.329111099243164,-4.487094879150391,0.9805742502212524,-8.277685165405273,-3.360098123550415
13.75,4.946087837219238,11.23033332824707,-1.3713384866714478,0.5883730053901672,-8.477323532104492,-3.2237892150878906
13.775,6.55270528793335,8.57322883605957,2.004420280456543,-0.07079422473907471,-7.3084564208984375,-3.3275599479675293
13.8,6.415707588195801,4.860457420349121,3.20512056350708,-0.2912626266479492,-4.931454181671143,-3.6042520999908447
13.825,5.914912223815918,0.4245389699935913,2.9284541606903076,-0.025508880615234375,-2.884500503540039,-3.1533501148223877
13.85,5.250203609466553,-2.819202423095703,2.6256706714630127,0.2409244179725647,-1.796918511390686,-2.207217216491699
13.875,4.735004425048828,-4.1252264976501465,2.263289213180542,0.20843225717544556,-0.9736813306808472,-1.592865228652954
13.9,4.917520523071289,-5.065718650817871,1.2668776512145996,-0.018283307552337646,-0.4901649057865143,-1.4181029796600342
13.925,5.088582992553711,-6.080134391784668,0.02200675569474697,-0.24880480766296387,-0.3693031370639801,-1.0511493682861328
13.95,4.379971981048584,-6.369032382965088,-0.5347553491592407,-0.30791017413139343,-0.23708634078502655,-0.3994629979133606
13.975,3.4623539447784424,-6.365088939666748,-0.3120412528514862,-0.25352609157562256,-0.04869654029607773,0.05373218283057213
14.0,2.9135963916778564,-7.076208591461182,0.33818745613098145,-0.044769782572984695,0.4387616217136383,0.17923107743263245
14.025,2.6657543182373047,-8.034940719604492,1.003588080406189,0.48361602425575256,1.4543520212173462,0.419914186000824
14.05,2.9043359756469727,-7.395786285400391,0.878093421459198,1.3289635181427002,2.839747428894043,0.9672121405601501
14.075,3.436570882797241,-3.8329977989196777,0.28558409214019775,1.96522057056427,3.4621903896331787,1.3589736223220825
14.1,3.967806100845337,1.453818440437317,1.3884360790252686,2.1245973110198975,3.3316738605499268,1.376061201095581
14.125,4.34130334854126,6.286829948425293,4.365732669830322,1.7349836826324463,3.220249652862549,1.5823397636413574
14.15,4.629603385925293,9.022388458251953,6.31313943862915,0.8358265161514282,3.523575782775879,1.6936321258544922
14.175,4.605754852294922,10.443632125854492,6.128146648406982,-0.4381718337535858,4.190401554107666,1.5071344375610352
14.2,3.3836400508880615,11.656967163085938,5.120057106018066,-2.466320037841797,4.222702503204346,0.8502028584480286
14.225,2.532463550567627,12.537233352661133,5.083566188812256,-4.501566410064697,3.4008567333221436,-0.08934029191732407
14.25,3.479398488998413,13.758480072021484,4.759679794311523,-4.697962760925293,3.5962610244750977,-0.5825787782669067
14.275,4.436819076538086,14.224594116210938,0.9526653289794922,-4.338714599609375,5.733811855316162,-1.182123064994812
14.3,2.5120279788970947,11.914203643798828,-5.480570316314697,-4.605432987213135,7.873017311096191,-2.4663150310516357
14.325,-0.9091191291809082,6.940874099731445,-9.268072128295898,-5.008744239807129,7.722527027130127,-3.6316850185394287
14.35,-3.247504472732544,1.749387264251709,-9.373030662536621,-5.109670162200928,5.902807235717773,-3.4773871898651123
14.375,-4.705458164215088,-2.0432722568511963,-7.525018215179443,-4.915489196777344,4.174936294555664,-2.0629067420959473
14.4,-5.543423175811768,-4.487791061401367,-5.075791358947754,-4.398891448974609,3.1710939407348633,-0.3545228838920593
14.425,-5.025173664093018,-6.415667533874512,-3.2012476921081543,-3.7842559814453125,2.5216939449310303,1.0172300338745117
14.45,-3.306847333908081,-8.217704772949219,-2.4830307960510254,-3.2993240356445312,2.091308355331421,1.8010534048080444
14.475,-1.5596368312835693,-9.96268081665039,-2.604992389678955,-3.1402273178100586,1.833330750465393,1.7310913801193237
14.5,-0.6343618035316467,-11.282054901123047,-2.6054913997650146,-3.3674440383911133,1.548839807510376,0.9613370895385742
14.525,-0.7358285784721375,-11.57939624786377,-1.9551362991333008,-3.968143939971924,1.1154727935791016,-0.19416898488998413
14.55,-1.6023560762405396,-10.795546531677246,-0.8284357786178589,-4.523512363433838,0.32917606830596924,-1.0146983861923218
14.575,-2.466761350631714,-9.059515953063965,0.25937968492507935,-4.649779319763184,-0.632274329662323,-1.1396369934082031
14.6,-2.85017728805542,-6.3670654296875,0.9633569121360779,-4.199934005737305,-1.4810305833816528,-0.7673379778862
14.625,-3.1836047172546387,-3.666494369506836,2.0278847217559814,-3.3028218746185303,-1.9286606311798096,-0.40309011936187744
14.65,-2.665947437286377,-1.9378132820129395,3.6439807415008545,-2.009579658508301,-1.797834873199463,-0.22602076828479767
14.675,0.5824567079544067,-0.04871068522334099,4.47947359085083,-0.8746216297149658,-1.3518856763839722,0.19115136563777924
14.7,3.888350248336792,2.764266014099121,3.195302724838257,-0.2112954556941986,-1.3461780548095703,0.3049938380718231
14.725,3.7216928005218506,4.439513206481934,1.5089058876037598,0.11745305359363556,-1.7133787870407104,-0.09683439880609512
14.75,2.0262279510498047,4.46836519241333,0.7366307973861694,0.33016812801361084,-1.8020159006118774,-0.47651222348213196
14.775,2.0506842136383057,3.7087361812591553,0.05486621335148811,0.7024893760681152,-1.5090144872665405,-0.3933476507663727
14.8,3.3233983516693115,2.6839609146118164,-0.6727197766304016,0.8582456707954407,-1.0778086185455322,-0.15890207886695862
14.825,3.885694980621338,2.0236387252807617,-1.024269938468933,0.7836793065071106,-0.7423398494720459,-0.225570410490036
14.85,3.343918800354004,1.7347583770751953,-0.9531915187835693,0.6174711585044861,-0.4859800636768341,-0.555352509021759
14.875,2.186938524246216,1.212782859802246,-0.8137802481651306,0.38569632172584534,-0.1778004765510559,-0.7052043080329895
14.9,0.9538693428039551,0.13374902307987213,-0.8311034440994263,0.10165771842002869,0.16196481883525848,-0.4810454547405243
14.925,0.1312742680311203,-1.086337924003601,-0.8143734335899353,-0.1315649449825287,0.4858301281929016,-0.06970807164907455
14.95,-0.11886529624462128,-2.080998659133911,-0.4556064307689667,-0.19375458359718323,0.74688720703125,0.2673247754573822
14.975,-0.07922811061143875,-2.67325758934021,0.14497055113315582,-0.018388032913208008,0.9041444063186646,0.4282723367214203
15.0,-0.13060729205608368,-2.996307134628296,0.7290788888931274,0.3914371430873871,0.9966250061988831,0.46375569701194763
15.025,-0.37965917587280273,-3.4728095531463623,1.361646056175232,1.0032516717910767,1.1486746072769165,0.5956197381019592
15.05,-0.5212321877479553,-4.344783306121826,1.8464919328689575,1.823175072669983,1.4080296754837036,0.9498788714408875
15.075,-0.009773313999176025,-5.379725456237793,1.4505209922790527,2.749500274658203,1.4829537868499756,1.273558497428894
15.1,0.7926228046417236,-6.124599933624268,0.14855778217315674,3.4293525218963623,1.1820855140686035,1.1189337968826294
15.125,0.7611838579177856,-6.568912029266357,-1.362695574760437,3.839462995529175,0.6937596201896667,0.5356428027153015
15.15,-0.400174617767334,-6.602939605712891,-3.0264506340026855,4.148342609405518,0.2837880551815033,-0.17216552793979645
15.175,-2.0786023139953613,-5.463336944580078,-4.949248313903809,4.272593021392822,0.09451660513877869,-0.7323030233383179
15.2,-3.646756410598755,-2.7671661376953125,-6.187768936157227,4.156826972961426,0.10393150895833969,-0.9670958518981934
15.225,-4.859561920166016,0.5960345268249512,-5.7835469245910645,4.183703422546387,0.11739227175712585,-0.6994980573654175
15.25,-5.359748363494873,2.7497122287750244,-4.055948734283447,4.534900665283203,-0.12205897271633148,-0.11414109915494919
15.275,-4.530832767486572,2.4753308296203613,-2.3398234844207764,4.810939788818359,-0.7513208985328674,0.5282734036445618
15.3,-2.608381509780884,1.664432168006897,-1.6560875177383423,4.883325099945068,-1.5601410865783691,0.7612805366516113
15.325,-0.615568995475769,2.153684377670288,-1.3729320764541626,4.524256229400635,-1.8398973941802979,0.4302866458892822
15.35,0.2994799017906189,3.787989377975464,-1.1315605640411377,3.9452686309814453,-1.7239408493041992,0.06509016454219818
15.375,0.0704556405544281,6.140345096588135,-0.8678562641143799,3.478973865509033,-1.658872365951538,-0.24868108332157135
15.4,-0.20023788511753082,7.889641284942627,-0.28609269857406616,3.1023061275482178,-1.586377739906311,-0.5858278274536133
15.425,0.32303935289382935,7.758841037750244,0.46974772214889526,2.8725249767303467,-1.3636209964752197,-0.7412512302398682
15.45,2.1928296089172363,6.1670241355896,1.7293068170547485,2.995849609375,-1.2488256692886353,-0.47690361738204956
15.475,4.698310852050781,3.980013847351074,3.6654276847839355,2.8325328826904297,-1.318297266960144,0.22913964092731476
15.5,6.276427268981934,1.8961375951766968,4.519330978393555,2.072960138320923,-1.2176233530044556,0.5656186938285828
15.525,5.990537643432617,0.5989898443222046,3.462280750274658,1.244113564491272,-0.698764443397522,0.7205896377563477
15.55,4.4842352867126465,0.04121427610516548,1.9270250797271729,0.48463165760040283,-0.31886720657348633,0.9185000658035278
15.575,2.951167345046997,0.3299209177494049,1.2239768505096436,0.12839549779891968,-0.09926948696374893,0.9756268262863159
15.6,1.7949079275131226,0.8374443650245667,1.4288792610168457,0.09060108661651611,0.06073954328894615,0.9218171834945679
15.625,0.6940500736236572,0.483249694108963,1.4029667377471924,-0.1663161963224411,0.23833304643630981,0.7214498519897461
15.65,-0.2967633903026581,-0.3045768439769745,0.8614862561225891,-0.30964845418930054,0.2883513271808624,0.3998170793056488
15.675,-0.637345016002655,-0.6026543974876404,0.7001736760139465,-0.22298911213874817,0.00038095604395493865,0.10464951395988464
15.7,-0.026572972536087036,-0.336483895778656,1.0393633842468262,-0.2005641758441925,-0.365909218788147,-0.05118422210216522
15.725,0.8903946876525879,0.07479293644428253,1.432356595993042,-0.2885299324989319,-0.5370309352874756,-0.08456657826900482
15.75,1.2681699991226196,0.4149342477321625,1.8485252857208252,-0.47670671343803406,-0.5035862326622009,-0.1011955589056015
15.775,0.8126967549324036,0.6611014008522034,2.4589037895202637,-0.8160268664360046,-0.3078416585922241,-0.07298871874809265
15.8,0.34131789207458496,-0.026626508682966232,2.493640661239624,-1.6619772911071777,0.05395952984690666,-0.11405321955680847
15.825,0.24520865082740784,-1.645029902458191,1.0927515029907227,-2.4820337295532227,0.995881199836731,-0.46052253246307373
15.85,-0.5743046998977661,-2.6657941341400146,-1.2446407079696655,-2.214832305908203,2.053601026535034,-0.8929600715637207
15.875,-2.260756015777588,-2.429476737976074,-2.486999273300171,-1.3393646478652954,2.2695705890655518,-1.123448371887207
15.9,-2.826572895050049,-1.7447997331619263,-2.042302131652832,-0.7453890442848206,1.9051190614700317,-1.252267837524414
15.925,-1.2559170722961426,-1.7461175918579102,-1.4550293684005737,-0.5951955318450928,1.45602285861969,-1.5103806257247925
15.95,0.3555651903152466,-1.6645621061325073,-1.1588274240493774,-0.1844927966594696,0.8400920629501343,-1.4215095043182373
15.975,1.1445207595825195,-0.720849871635437,-0.8022171258926392,0.47544148564338684,0.24704322218894958,-0.9510267376899719
16.0,1.837219476699829,0.30567842721939087,-0.056157488375902176,0.8392725586891174,0.14869540929794312,-0.582573652267456
16.025,1.9527181386947632,0.7261677384376526,1.2193248271942139,1.00026535987854,0.3297499418258667,-0.3769356608390808
16.05,1.0687782764434814,0.6871185898780823,2.299032688140869,1.130275011062622,0.37624412775039673,-0.24057459831237793
16.075,0.12837982177734375,0.5528354644775391,2.348386287689209,1.125028371810913,0.22431372106075287,-0.12043873965740204
16.1,0.2401111125946045,1.0459336042404175,1.7528091669082642,0.9174107909202576,0.1458531767129898,-0.25629475712776184
16.125,0.6661065816879272,1.9808273315429688,1.738542914390564,0.44862309098243713,0.0847909152507782,-0.1467214971780777
16.15,0.38466787338256836,2.05204176902771,1.888413429260254,-0.17939558625221252,-0.1431170105934143,0.3984223008155823
16.175,0.09579193592071533,1.9657658338546753,1.8136467933654785,-0.6515318751335144,-0.2998453378677368,0.6126461029052734
16.2,0.35978513956069946,1.572291374206543,1.8592236042022705,-1.3883249759674072,-0.35264506936073303,0.6430346965789795
16.225,0.11388498544692993,0.45816993713378906,0.8569457530975342,-1.7623002529144287,-0.17310887575149536,0.4633411765098572
16.25,-0.5576795339584351,0.2766560912132263,-0.020307065919041634,-1.3615950345993042,-0.06258082389831543,0.13290712237358093
16.275,-0.49308642745018005,0.48942941427230835,-0.017859846353530884,-1.3297626972198486,0.3913348913192749,-0.2027961015701294
16.3,0.16912028193473816,-0.35074421763420105,-0.7598930597305298,-1.5187301635742188,1.2764984369277954,-0.722156286239624
16.325,0.37692978978157043,-1.2714565992355347,-1.6801525354385376,-1.396825909614563,1.5764775276184082,-1.1420732736587524
16.35,-0.5850883722305298,-1.299168586730957,-1.4898720979690552,-0.9585330486297607,1.3037396669387817,-1.067858338356018
16.375,-1.0808568000793457,-0.895808219909668,-1.0955913066864014,-0.4858114421367645,0.4717625379562378,-0.6600728034973145
16.4,0.1051776111125946,-0.931276261806488,-1.347267746925354,-0.3171912133693695,-0.2735053300857544,-0.3323398530483246
16.425,1.5732409954071045,-0.9397553205490112,-1.599208116531372,0.06617949157953262,-0.38665303587913513,-0.13927286863327026
16.45,1.6910873651504517,-0.7447832822799683,-0.999982476234436,0.5460208058357239,-0.07965432852506638,-0.0497295968234539
16.475,0.36341947317123413,-0.3071278929710388,0.4367917478084564,1.0058852434158325,0.17033091187477112,0.0662364587187767
16.5,-1.0852020978927612,-0.13719844818115234,1.804474115371704,1.237837791442871,0.0527481883764267,0.3798588216304779
16.525,-1.41661536693573,0.003581963712349534,1.7640345096588135,1.2698074579238892,-0.2175540328025818,0.38901835680007935
16.55,0.12123414874076843,1.1380680799484253,0.9602757096290588,1.0335710048675537,-0.2992332875728607,0.08092765510082245
16.575,1.6019809246063232,2.1007535457611084,1.2981222867965698,0.5946061015129089,-0.22581268846988678,0.067257821559906
16.6,1.8739523887634277,2.0187759399414062,1.9532886743545532,0.2060127556324005,0.011536890640854836,0.2726401090621948
16.625,2.038869857788086,1.8081893920898438,1.6973034143447876,-0.30664271116256714,0.3425609767436981,0.2559235394001007
16.65,1.505184531211853,1.8627433776855469,1.2417454719543457,-0.7232296466827393,0.4823763370513916,0.2401220202445984
16.675,0.4143301248550415,2.340501546859741,1.6296366453170776,-0.8112431764602661,0.2881319224834442,0.3792971968650818
16.7,-0.17561429738998413,2.4930388927459717,2.0257461071014404,-1.1000418663024902,0.3062973916530609,0.3492937982082367
16.725,0.45932629704475403,1.9004486799240112,1.204304814338684,-1.6267893314361572,0.5661346912384033,0.13110056519508362
16.75,2.4017016887664795,0.8186360001564026,-0.8908295035362244,-1.9518715143203735,0.6666813492774963,-0.07710490375757217
16.775,3.4097752571105957,-0.24007877707481384,-2.551675319671631,-1.891721487045288,0.8360386490821838,-0.007850458845496178
16.8,1.7969599962234497,-0.7972182035446167,-2.3346004486083984,-1.4553128480911255,1.1656861305236816,0.3265746235847473
16.825,-0.03413611650466919,-1.4693526029586792,-1.9499520063400269,-1.0440412759780884,1.2012265920639038,0.35824480652809143
16.85,-0.1276046633720398,-2.564366579055786,-2.519500732421875,-0.8266927003860474,1.1520575284957886,0.10662581771612167
16.875,0.4996536374092102,-3.1959035396575928,-3.1199076175689697,-0.4669298529624939,1.1668286323547363,-0.11899766325950623
16.9,0.5891879796981812,-2.2076289653778076,-2.4203877449035645,0.1459890902042389,1.1862871646881104,-0.19046157598495483
16.925,-0.032639279961586,-0.3773631751537323,-0.5196125507354736,0.6380860805511475,1.1016968488693237,-0.11466298252344131
16.95,-1.478344440460205,-0.08865264803171158,1.587751865386963,0.7537050843238831,0.9633737802505493,0.09700404107570648
16.975,-1.922467589378357,-1.0416336059570312,1.9512611627578735,0.8869546055793762,0.5185725092887878,0.17869536578655243
17.0,1.1654127836227417,-0.22923842072486877,0.4192560613155365,1.1979310512542725,-0.1517900675535202,0.016271362081170082
17.025,4.635918140411377,1.3820334672927856,-0.25696322321891785,1.131547451019287,-0.21386195719242096,0.18143953382968903
17.05,5.0766401290893555,1.832306981086731,0.16607250273227692,0.8458294868469238,0.6545735597610474,0.6401229500770569
17.075,3.852781057357788,2.144927978515625,0.6090194582939148,0.46275314688682556,1.6351014375686646,0.5175114870071411
17.1,2.71907377243042,2.520329475402832,0.8758701682090759,-0.09307221323251724,2.5310068130493164,0.45699211955070496
17.125,1.3706779479980469,2.9005773067474365,1.436660885810852,-0.3967312276363373,2.9211175441741943,0.8594517707824707
17.15,-0.2046123743057251,3.8197181224823,2.627035617828369,-0.39193031191825867,2.571655035018921,1.339812994003296
17.175,-1.21763014793396,3.8994357585906982,3.4510180950164795,-0.6657851338386536,1.9790726900100708,1.7344392538070679
17.2,-1.6080076694488525,2.4988067150115967,3.127159357070923,-1.1159154176712036,1.4857453107833862,1.9972331523895264
17.225,-2.4869041442871094,0.30723464488983154,2.072538375854492,-1.196488380432129,0.9817115068435669,2.1150593757629395
17.25,-3.9334819316864014,-2.0745301246643066,0.9021373987197876,-0.8949658870697021,0.44329220056533813,1.9897388219833374
17.275,-4.476707458496094,-4.0202484130859375,-0.17206037044525146,-0.3626345098018646,-0.09586402773857117,1.7125720977783203
17.3,-3.70546817779541,-5.053989410400391,-0.9218794107437134,0.2707296907901764,-0.47828882932662964,1.4168541431427002
17.325,-2.385377883911133,-4.867366313934326,-1.7980172634124756,0.5535310506820679,-0.4211800694465637,0.9817183017730713
17.35,-1.4933011531829834,-4.010196208953857,-2.9564831256866455,0.2529878616333008,0.027396269142627716,0.45691144466400146
17.375,-1.5906440019607544,-3.4351625442504883,-3.5210483074188232,-0.3915189504623413,0.6844853162765503,-0.12918038666248322
17.4,-2.212075710296631,-2.868864059448242,-2.8830678462982178,-1.0736271142959595,1.4034831523895264,-0.8611158132553101
17.425,-2.7953555583953857,-1.7752124071121216,-1.2129783630371094,-1.5206329822540283,1.995371699333191,-1.4471075534820557
17.45,-3.148113489151001,-0.5041924118995667,1.283644676208496,-1.4029858112335205,2.2587010860443115,-1.5738550424575806
17.475,-3.1247825622558594,0.10774984955787659,3.8414466381073,-0.6864255666732788,1.9462449550628662,-1.4354660511016846
17.5,-2.559049606323242,0.3897036612033844,3.8826472759246826,0.252071738243103,0.8084349632263184,-1.4028279781341553
17.525,-1.0086541175842285,1.3853834867477417,1.0726613998413086,1.0105875730514526,-0.5540559887886047,-1.1635897159576416
17.55,1.0012860298156738,2.6271255016326904,-1.048563003540039,1.481577754020691,-1.163839340209961,-0.5620576739311218
17.575,1.9979948997497559,3.2033965587615967,-1.229159951210022,1.1658748388290405,-0.852721095085144,-0.23278261721134186
17.6,1.9708048105239868,3.486128568649292,-0.5146716833114624,0.2253803014755249,-0.11651573330163956,-0.15822245180606842
17.625,1.8877284526824951,3.8483455181121826,0.11666173487901688,-0.48346975445747375,0.5835624933242798,0.2165963053703308
17.65,1.790245771408081,4.22326135635376,0.5367596745491028,-0.6332459449768066,0.8628111481666565,0.7474828362464905
17.675,1.2421040534973145,4.471682071685791,0.9872676730155945,-0.6574399471282959,0.7108842730522156,1.2118396759033203
17.7,0.2673580050468445,4.290489673614502,1.4515613317489624,-0.7066840529441833,0.4034271836280823,1.7407468557357788
17.725,-0.7724823951721191,3.609205961227417,1.7124742269515991,-0.6198548078536987,0.14403432607650757,2.206066608428955
17.75,-1.4786772727966309,2.6528613567352295,1.485282301902771,-0.3979005813598633,-0.1417239010334015,2.4652628898620605
17.775,-1.799290418624878,1.9408938884735107,1.0051299333572388,-0.09800976514816284,-0.3484639525413513,2.552924156188965
17.8,-1.9933466911315918,1.7420432567596436,0.5949774980545044,0.08771461248397827,-0.34707316756248474,2.5473225116729736
17.825,-1.9857680797576904,1.8292014598846436,-0.026282718405127525,-0.13966351747512817,-0.15181125700473785,2.5906198024749756
17.85,-1.9360038042068481,1.6858222484588623,-0.40745341777801514,-0.6421765089035034,0.03563650697469711,2.7038755416870117
17.875,-2.289794683456421,1.3405930995941162,-0.1476106196641922,-1.1412322521209717,0.1288871318101883,2.654947280883789
17.9,-2.782479763031006,0.7774675488471985,0.37329888343811035,-1.4772069454193115,0.012608611956238747,2.656259775161743
17.925,-2.828972101211548,0.052928779274225235,0.6051100492477417,-1.5169278383255005,-0.09154650568962097,2.716987133026123
17.95,-2.345118284225464,-0.5629921555519104,0.22635886073112488,-1.2248647212982178,-0.1494913101196289,2.6714608669281006
17.975,-1.684338927268982,-1.128809928894043,-0.35707801580429077,-0.8648378849029541,-0.14310085773468018,2.602640390396118
18.0,-1.1932768821716309,-1.6857366561889648,-0.48797422647476196,-0.704200804233551,-0.07513651996850967,2.5100507736206055
18.025,-0.94126296043396,-2.078368902206421,-0.3111304044723511,-0.7278764843940735,-0.056910302489995956,2.391599416732788
18.05,-0.7805059552192688,-2.347696542739868,-0.1756816953420639,-0.872551679611206,-0.17215020954608917,2.269056797027588
18.075,-0.6410240530967712,-2.6171910762786865,-0.010676078498363495,-1.0295798778533936,-0.36492404341697693,2.1258718967437744
18.1,-0.3877009451389313,-2.8601434230804443,0.18752984702587128,-1.1125904321670532,-0.5458399057388306,1.9765868186950684
18.125,0.09047604352235794,-2.958894968032837,0.26420366764068604,-1.0907748937606812,-0.6392888426780701,1.8478426933288574
18.15,0.5832728743553162,-3.0708086490631104,0.2600872218608856,-1.0033864974975586,-0.7021847367286682,1.672487735748291
18.175,1.1084871292114258,-3.4024274349212646,0.28569677472114563,-0.9440810680389404,-0.8064743876457214,1.5127536058425903
18.2,1.7173646688461304,-3.8536598682403564,0.19623251259326935,-0.9178576469421387,-0.9061810374259949,1.3277833461761475
18.225,2.801157236099243,-4.54558801651001,-0.2918887436389923,-1.035417079925537,-1.0664292573928833,1.0764260292053223
18.25,4.648939609527588,-5.855379104614258,-0.7487492561340332,-1.3083821535110474,-1.313170075416565,0.6661134362220764
18.275,6.287531852722168,-7.42655086517334,-0.4023480713367462,-1.403541922569275,-1.4793812036514282,0.021036891266703606
18.3,6.706324577331543,-8.257105827331543,0.42406824231147766,-1.1694093942642212,-1.4714900255203247,-0.7393177151679993
18.325,5.745005130767822,-7.999382019042969,1.0538501739501953,-0.6885591745376587,-1.2326797246932983,-1.4713385105133057
18.35,3.700007915496826,-7.079803943634033,1.45569908618927,-0.09736579656600952,-0.730043351650238,-2.1348912715911865
18.375,1.3700942993164062,-6.214980602264404,1.6218007802963257,0.7717937231063843,-0.11361295729875565,-2.6065077781677246
18.4,-0.7049987316131592,-5.953575134277344,1.3863087892532349,1.641350269317627,0.1844368577003479,-3.111426830291748
18.425,-2.591989517211914,-6.102044582366943,0.7057518362998962,1.901063323020935,0.11519492417573929,-3.8484179973602295
18.45,-4.614714622497559,-5.966360092163086,-0.6846513748168945,1.878748893737793,-0.03820168599486351,-4.496565818786621
18.475,-6.817966461181641,-3.8687736988067627,-2.860344648361206,2.044708490371704,-0.18054841458797455,-4.892496585845947
18.5,-8.127059936523438,0.5800174474716187,-3.9168903827667236,1.9798734188079834,-0.11734331399202347,-5.30718469619751
18.525,-7.6412529945373535,5.22279167175293,-2.52677321434021,1.999420166015625,0.3054960370063782,-5.5062055587768555
18.55,-5.882509708404541,7.979351043701172,0.08125638961791992,2.738945484161377,0.42862462997436523,-5.248119354248047
18.575,-3.1986758708953857,8.683502197265625,1.1577675342559814,3.509674549102783,-0.2589036226272583,-4.755866527557373
18.6,-0.12084050476551056,8.750423431396484,0.418154239654541,3.6183602809906006,-0.9917852282524109,-4.183161735534668
18.625,1.7150044441223145,8.403888702392578,-0.003691101213917136,3.3043324947357178,-1.1932648420333862,-3.361470937728882
18.65,1.835803508758545,6.731010913848877,0.25436583161354065,2.7330121994018555,-1.2638158798217773,-2.6692428588867188
18.675,1.6609382629394531,4.013965129852295,0.45367035269737244,2.1018266677856445,-1.370638370513916,-2.189695119857788
18.7,1.6586790084838867,2.511096715927124,0.34932994842529297,1.7910544872283936,-1.007279396057129,-1.7922570705413818
18.725,1.7972913980484009,2.8784701824188232,0.38298094272613525,1.6315603256225586,-0.5391122102737427,-1.324228286743164
18.75,1.599432110786438,2.812141180038452,0.5409507155418396,1.541081190109253,-0.667543888092041,-0.7364700436592102
18.775,0.6481220126152039,1.4296034574508667,0.3229217529296875,1.3826521635055542,-0.9060258269309998,-0.4727064371109009
18.8,-0.0952053889632225,0.6373719573020935,-0.06751059740781784,1.192419171333313,-0.8607277870178223,-0.5049386620521545
18.825,-0.20242659747600555,0.6251172423362732,-0.7045620083808899,1.2644215822219849,-0.9135665893554688,-0.545581042766571
18.85,-0.03710591793060303,0.17832273244857788,-1.5317858457565308,1.4946973323822021,-1.023383617401123,-0.5188934206962585
18.875,1.072289228439331,0.2342529445886612,-1.515938401222229,1.8204082250595093,-0.966115415096283,-0.6472907066345215
18.9,2.1159331798553467,1.0732736587524414,-0.3652210831642151,2.231196641921997,-1.0877479314804077,-0.7045393586158752
18.925,1.7517573833465576,1.4424800872802734,0.8333302140235901,2.4566214084625244,-1.4441734552383423,-0.5102893114089966
18.95,0.25830692052841187,0.7003021240234375,1.5641288757324219,2.142153739929199,-1.719200849533081,-0.10736294090747833
18.975,-0.15820616483688354,0.4040231704711914,1.4125282764434814,1.4581137895584106,-1.5537229776382446,-0.013699975796043873
19.0,0.8406648635864258,1.3890180587768555,1.2516511678695679,0.9120169878005981,-1.3530856370925903,-0.08358428627252579
19.025,1.5906708240509033,2.304427146911621,1.4029253721237183,0.2685932219028473,-0.9850329756736755,0.11991547793149948
19.05,2.031324625015259,2.660153388977051,1.6831475496292114,-0.4760465621948242,-0.546676516532898,0.4910954535007477
19.075,2.618067502975464,3.0726699829101562,2.3477017879486084,-1.0561803579330444,-0.47565212845802307,0.7969474196434021
19.1,3.0645084381103516,3.967909812927246,2.919542074203491,-1.5534907579421997,-0.6123653650283813,1.0850954055786133
19.125,2.988929271697998,4.900554180145264,2.4648709297180176,-2.0635323524475098,-0.5725597739219666,1.4962143898010254
19.15,2.166836738586426,5.105956554412842,1.1090028285980225,-2.517082691192627,-0.3424152731895447,2.1052839756011963
19.175,0.3563412129878998,4.717653751373291,0.09044778347015381,-2.7833170890808105,0.014717846177518368,2.723255157470703
19.2,-1.6442075967788696,4.089773654937744,-0.4161366820335388,-2.9865713119506836,0.1566881388425827,3.051644802093506
19.225,-2.7779428958892822,3.4394354820251465,-0.9908908009529114,-3.064150810241699,0.033979885280132294,3.2386209964752197
19.25,-3.121454954147339,2.70505952835083,-1.7202047109603882,-3.047802448272705,-0.042379897087812424,3.3105618953704834
19.275,-3.48512601852417,1.5558000802993774,-1.892087697982788,-3.1883416175842285,0.09774787724018097,3.241079092025757
19.3,-3.9261882305145264,0.27701255679130554,-1.4333189725875854,-3.381075859069824,0.18828456103801727,3.106192111968994
19.325,-4.009960174560547,-0.6834461092948914,-1.1104354858398438,-3.456847667694092,0.137645423412323,2.9938976764678955
19.35,-3.6391003131866455,-1.3514796495437622,-1.1684410572052002,-3.3760876655578613,0.023514525964856148,2.887645721435547
19.375,-2.9116578102111816,-1.9847246408462524,-1.4711006879806519,-3.2131919860839844,-0.1301543414592743,2.767552137374878
19.4,-2.2082979679107666,-2.5209498405456543,-1.5800079107284546,-3.0158498287200928,-0.2839282155036926,2.6524624824523926
19.425,-1.8785669803619385,-2.916855812072754,-1.1749526262283325,-2.761551856994629,-0.3728501796722412,2.5201611518859863
19.45,-1.5027631521224976,-3.213707208633423,-0.7821146249771118,-2.3828368186950684,-0.45676857233047485,2.4001717567443848
19.475,-0.7994092702865601,-3.2945353984832764,-0.5911419987678528,-1.9794774055480957,-0.5218356847763062,2.365577220916748
19.5,-0.03687426447868347,-3.042088270187378,-0.5068787336349487,-1.637901782989502,-0.4597407281398773,2.3598954677581787
19.525,0.5585869550704956,-2.7854344844818115,-0.5113398432731628,-1.4705226421356201,-0.34926027059555054,2.2061805725097656
19.55,0.69414222240448,-2.7811620235443115,-0.21049416065216064,-1.4583135843276978,-0.2532466650009155,1.9526126384735107
19.575,0.5754878520965576,-2.7244303226470947,0.15018095076084137,-1.3517659902572632,-0.20715290307998657,1.834335446357727
19.6,0.7966299057006836,-2.5060651302337646,0.12256312370300293,-1.2803351879119873,-0.20873232185840607,1.813995122909546
19.625,1.115904688835144,-2.2870137691497803,0.11361540853977203,-1.2934749126434326,-0.24121621251106262,1.6483696699142456
19.65,1.1164683103561401,-2.125383138656616,0.4352260231971741,-1.2825309038162231,-0.3576295077800751,1.3537604808807373
19.675,1.07045316696167,-2.0155489444732666,0.6597020626068115,-1.2248727083206177,-0.5050103664398193,1.125537633895874
19.7,1.1403533220291138,-1.7979724407196045,0.5907740592956543,-1.1319630146026611,-0.5716211795806885,0.9942099452018738
19.725,1.0144437551498413,-1.5389354228973389,0.5907363891601562,-1.0049958229064941,-0.6202752590179443,0.8614735007286072
19.75,0.7568050026893616,-1.3485268354415894,0.7755953669548035,-0.8745594024658203,-0.6771206855773926,0.7160118222236633
19.775,0.5363779067993164,-1.2134932279586792,0.8558982014656067,-0.7065474390983582,-0.6555649638175964,0.5972370505332947
19.8,0.4782662093639374,-1.0107372999191284,0.8091671466827393,-0.5367923378944397,-0.5592363476753235,0.547382652759552
19.825,0.48461633920669556,-0.7049072980880737,0.7749706506729126,-0.4151381552219391,-0.455999493598938,0.4689154624938965
19.85,0.41713300347328186,-0.3815125823020935,0.6712318658828735,-0.31514906883239746,-0.3611341118812561,0.36464354395866394
19.875,0.3696337640285492,-0.27878087759017944,0.5176223516464233,-0.24506670236587524,-0.3158566653728485,0.29452627897262573
19.9,0.39347919821739197,-0.31330960988998413,0.4825945794582367,-0.2063305377960205,-0.3251210153102875,0.2266572266817093
19.925,0.39610981941223145,-0.31187719106674194,0.6311133503913879,-0.14109404385089874,-0.3110921084880829,0.13438881933689117
