Time [s],Acc_x [m/s^2],Acc_y [m/s^2],Acc_z [m/s^2],Gyro_x [1/s],Gyro_y [1/s],Gyro_z [1/s]
0.0,0.0007003778591752052,0.05910300835967064,0.03778592124581337,0.01529732160270214,-0.01693067140877247,0.0013348079519346356
0.025,-0.005007327534258366,0.07159232348203659,0.03378244861960411,0.015491089783608913,-0.016960734501481056,0.0012196629540994763
0.05,-0.012790411710739136,0.10469722002744675,0.019692564383149147,0.019918762147426605,-0.01782257854938507,-0.001260120770893991
0.075,-0.0007468268740922213,0.13278864324092865,0.0038014675956219435,0.02040812373161316,-0.022165387868881226,0.0013670324115082622
0.1,0.014303815551102161,0.1444549411535263,-0.0021725802216678858,0.021481584757566452,-0.023578591644763947,0.005355785135179758
0.125,0.01650785654783249,0.15811823308467865,0.020380796864628792,0.021588485687971115,-0.011898907832801342,0.0042831855826079845
0.15,0.05186554044485092,0.1741323322057724,0.0320780985057354,0.02849585749208927,-0.019894171506166458,0.005389263853430748
0.175,0.09031826257705688,0.1796731799840927,0.0253433920443058,0.02653312310576439,-0.017283625900745392,0.00550409872084856
0.2,0.06660136580467224,0.1591634601354599,0.023301759734749794,0.030410148203372955,-0.010441264137625694,0.011311466805636883
0.225,0.038396403193473816,0.12630079686641693,0.026733536273241043,0.03744513541460037,-0.022563185542821884,0.01121827494353056
0.25,0.045753054320812225,0.11206244677305222,0.025265617296099663,0.03190753608942032,-0.020826691761612892,0.008799250237643719
0.275,0.0428600087761879,0.13274477422237396,0.008886471390724182,0.027080748230218887,-0.02380220592021942,0.01914164610207081
0.3,-0.022057661786675453,0.14938734471797943,0.013460798189043999,0.021724797785282135,-0.018645763397216797,0.031023751944303513
0.325,-0.12198515981435776,0.14598749577999115,0.05599377676844597,0.0215151384472847,4.645199078368023e-05,0.027349622920155525
0.35,-0.1486804187297821,0.12825201451778412,0.08559569716453552,0.026935219764709473,-0.012617511674761772,0.01734558679163456
0.375,-0.08146172761917114,0.11984347552061081,0.07455796748399734,0.02027638629078865,-0.025777118280529976,0.006023115012794733
0.4,-0.011080997064709663,0.13709066808223724,0.06936759501695633,0.020226500928401947,-0.015713421627879143,-0.0011158552952110767
0.425,-0.0054100556299090385,0.1559724658727646,0.045118048787117004,0.017350533977150917,-0.011772887781262398,0.0033264709636569023
0.45,-0.017848839983344078,0.1511058658361435,0.02733565866947174,0.00795289222151041,-0.008329364471137524,0.008728544227778912
0.475,0.014246225357055664,0.14351938664913177,0.020342787727713585,0.0018913004314526916,-0.00071266561280936,-0.0013532980810850859
0.5,0.0651247501373291,0.13848303258419037,-0.021734628826379776,-0.0025365659967064857,0.007092112675309181,-0.014040290378034115
0.525,0.08117387443780899,0.12849806249141693,-0.04272203519940376,0.0077937268652021885,-0.0007905485108494759,-0.008917104452848434
0.55,0.05995127186179161,0.12241744250059128,-0.04092228412628174,0.008281206712126732,-0.014967594295740128,0.011506601236760616
0.575,0.03495536744594574,0.12846849858760834,-0.057391345500946045,-0.0038710404187440872,0.00016065513773355633,0.015145125798881054
0.6,0.04533401131629944,0.14371012151241302,-0.0595988966524601,-0.009635045193135738,0.02037605084478855,0.0025376302655786276
0.625,0.06920400261878967,0.14092634618282318,-0.08954189717769623,-0.00017954678332898766,0.01115534920245409,0.0004311039811000228
0.65,0.061574749648571014,0.12932108342647552,-0.0841975137591362,0.006913942284882069,0.0055234394967556,0.010152896866202354
0.675,0.027261659502983093,0.11457156389951706,-0.04393691197037697,0.007199154235422611,0.01917266473174095,0.01575271598994732
0.7,-0.004386022686958313,0.11540507525205612,-0.05086566507816315,0.00393119640648365,0.012185431085526943,0.0121766971424222
0.725,-0.00765322707593441,0.12585066258907318,-0.06554920971393585,0.005901275668293238,0.010338766500353813,0.00779208866879344
0.75,0.015113465487957,0.12075232714414597,-0.06686750054359436,0.012621097266674042,0.016902973875403404,0.004379128571599722
0.775,-0.0069451481103897095,0.11330985277891159,-0.055198341608047485,0.016807839274406433,0.023902200162410736,0.007224279455840588
0.8,-0.03531431034207344,0.09169291704893112,-0.034407395869493484,0.021166667342185974,0.017448190599679947,0.010531505569815636
0.825,-0.0351497046649456,0.08707999438047409,-0.0034583951346576214,0.01997287943959236,0.017254358157515526,0.0018660047790035605
0.85,-0.039630137383937836,0.08782672137022018,0.037028636783361435,0.020049389451742172,0.022582611069083214,-0.005209085065871477
0.875,0.0024012867361307144,0.11552714556455612,0.0858573466539383,0.024849209934473038,0.012620685622096062,-0.01051962561905384
0.9,0.24432708323001862,0.19408130645751953,0.18797077238559723,0.044600389897823334,-0.013435731641948223,-0.048951100558042526
0.925,0.5264502167701721,0.39464473724365234,0.4686947166919708,0.07815255224704742,-0.008838724344968796,-0.11980217695236206
0.95,0.4700993299484253,0.46093371510505676,1.0013295412063599,0.1763925552368164,-0.13816531002521515,-0.059299252927303314
0.975,0.16501259803771973,0.05847076326608658,1.435197353363037,0.3008214831352234,-0.6638790965080261,0.14963379502296448
1.0,-0.27502962946891785,-0.5723828673362732,1.4940211772918701,0.39189016819000244,-1.2024099826812744,0.3295714855194092
1.025,-1.0214736461639404,-0.8173398375511169,1.3755035400390625,0.5166983604431152,-1.4724409580230713,0.38361096382141113
1.05,-1.8672621250152588,-0.5622282028198242,1.3395583629608154,0.7094494104385376,-1.7767850160598755,0.39023005962371826
1.075,-2.340266466140747,-0.22742757201194763,1.2293825149536133,0.7882978916168213,-2.3005404472351074,0.3230131268501282
1.1,-2.2464239597320557,-0.22035130858421326,0.9780881404876709,0.7615049481391907,-2.8562967777252197,0.24630337953567505
1.125,-1.9006233215332031,-0.6521482467651367,0.6798162460327148,0.7119219899177551,-3.0790534019470215,0.17072495818138123
1.15,-1.6279033422470093,-1.2130146026611328,0.4693809151649475,0.7185126543045044,-2.908876657485962,0.07053443044424057
1.175,-1.4604829549789429,-1.7217721939086914,0.4540773928165436,0.7161318063735962,-2.5372796058654785,-0.0856376588344574
1.2,-1.3685853481292725,-2.082219362258911,0.6990929245948792,0.7087020874023438,-2.111921548843384,-0.2688066065311432
1.225,-1.3062466382980347,-2.2275702953338623,1.0772833824157715,0.7327946424484253,-1.7631205320358276,-0.40381336212158203
1.25,-1.2914776802062988,-2.339948892593384,1.2120606899261475,0.6545116901397705,-1.5165157318115234,-0.42450931668281555
1.275,-1.2671122550964355,-2.517226457595825,0.816121518611908,0.4522538483142853,-1.396475076675415,-0.37577542662620544
1.3,-1.1186754703521729,-2.809875726699829,0.02390940859913826,0.20647534728050232,-1.334166407585144,-0.3689596652984619
1.325,-0.8935262560844421,-2.936406373977661,-0.5889081358909607,0.13364283740520477,-1.2377355098724365,-0.3947199583053589
1.35,-0.8144782185554504,-2.686053514480591,-0.6745951175689697,0.23037657141685486,-1.0587888956069946,-0.38919514417648315
1.375,-0.9183775186538696,-2.268052339553833,-0.4862982928752899,0.28032708168029785,-0.9042044281959534,-0.3664287030696869
1.4,-1.0082167387008667,-1.930241584777832,-0.3880825936794281,0.23213618993759155,-0.8552390933036804,-0.3584863543510437
1.425,-0.9224966764450073,-1.7018117904663086,-0.4345543086528778,0.1354093849658966,-0.8444452285766602,-0.40526917576789856
1.45,-0.7040383219718933,-1.410521388053894,-0.583081066608429,0.0696854516863823,-0.7645745873451233,-0.478829026222229
1.475,-0.4876593351364136,-0.994964599609375,-0.7882733941078186,0.06944496929645538,-0.6351403594017029,-0.5314776301383972
1.5,-0.29788264632225037,-0.5094623565673828,-0.9241456389427185,0.05236902832984924,-0.5535027980804443,-0.5712137818336487
1.525,-0.07709649205207825,-0.10898210108280182,-0.8986315131187439,0.039752036333084106,-0.5280400514602661,-0.6147861480712891
1.55,0.16895167529582977,0.1541137397289276,-0.9534338712692261,0.07736919820308685,-0.4431804120540619,-0.6802222728729248
1.575,0.4584922790527344,0.32173916697502136,-1.2791862487792969,0.048994630575180054,-0.31940263509750366,-0.7697255611419678
1.6,0.8438796401023865,0.5695237517356873,-1.4020936489105225,0.0511210560798645,-0.33823782205581665,-0.8326769471168518
1.625,1.253483772277832,0.9001359939575195,-1.2417280673980713,0.16610221564769745,-0.36016157269477844,-0.8654999732971191
1.65,1.4783611297607422,1.1159218549728394,-1.0841245651245117,0.26633167266845703,-0.2444075644016266,-0.8709132075309753
1.675,1.5487843751907349,1.1561965942382812,-0.9526647925376892,0.3383766710758209,-0.1442326158285141,-0.8679173588752747
1.7,1.611092448234558,1.085693359375,-0.7836062908172607,0.38444364070892334,-0.12169244140386581,-0.8936135768890381
1.725,1.7372528314590454,1.0289583206176758,-0.4971306324005127,0.4103263020515442,-0.13039319217205048,-0.9161617159843445
1.75,2.0955488681793213,0.8955841660499573,-0.15803444385528564,0.47085481882095337,-0.08305274695158005,-0.9617959856987
1.775,3.0288305282592773,0.26052677631378174,-0.36037424206733704,0.5240557193756104,0.10938617587089539,-1.0001392364501953
1.8,4.239315986633301,-0.8580739498138428,-1.2153308391571045,0.32769888639450073,0.17219331860542297,-0.7304295301437378
1.825,4.272580623626709,-0.9432522654533386,-0.9183714985847473,0.340610533952713,-0.7276762127876282,0.0001245053281309083
1.85,3.5756382942199707,-0.0892656147480011,0.27288591861724854,0.43099042773246765,-1.562208652496338,0.5151485204696655
1.875,2.801900863647461,0.4558469355106354,0.9749901294708252,0.516353964805603,-1.3397020101547241,0.45600444078445435
1.9,1.9771084785461426,0.5831089615821838,0.5073664784431458,0.49623891711235046,-0.11323269456624985,0.2859328091144562
1.925,1.2390403747558594,0.505070686340332,-0.493573933839798,0.568837583065033,0.9834251403808594,0.1990252286195755
1.95,0.5783988237380981,0.5344476103782654,-0.973006010055542,0.8463391065597534,1.3268458843231201,0.28523069620132446
1.975,0.002640247344970703,0.7324742674827576,-0.788303792476654,1.0810714960098267,1.1113876104354858,0.5049683451652527
2.0,-0.40006065368652344,0.7961472272872925,-0.48914551734924316,0.9827595353126526,0.6627752184867859,0.619901180267334
2.025,-0.6434933543205261,0.7471426725387573,-0.4594748318195343,0.6241772174835205,0.24462756514549255,0.5640925168991089
2.05,-0.7244781851768494,0.7021816968917847,-0.4638432562351227,0.31645312905311584,-0.13143831491470337,0.44944605231285095
2.075,-0.7017180323600769,0.6525887250900269,-0.37209057807922363,0.1826227903366089,-0.33820652961730957,0.3920799493789673
2.1,-0.8155047297477722,0.7079342603683472,-0.19609814882278442,0.1918300986289978,-0.2063952088356018,0.3927992582321167
2.125,-0.9872530102729797,0.8603466749191284,0.008410521782934666,0.22679629921913147,0.04103110730648041,0.34908783435821533
2.15,-1.0077080726623535,1.0642908811569214,0.25460943579673767,0.2575285732746124,0.19084443151950836,0.29742419719696045
2.175,-0.9488746523857117,1.2454746961593628,0.5202552676200867,0.2540120482444763,0.24123558402061462,0.27706071734428406
2.2,-0.976618230342865,1.4252756834030151,0.7809898853302002,0.22515800595283508,0.26096993684768677,0.2718338370323181
2.225,-1.0528059005737305,1.6701515913009644,1.0232614278793335,0.1718263328075409,0.2286076545715332,0.2639845609664917
2.25,-1.1432040929794312,1.8654459714889526,1.157892107963562,0.06620491296052933,0.14939850568771362,0.2691504955291748
2.275,-1.1950173377990723,1.8966931104660034,1.1453783512115479,-0.08082631230354309,0.015599840320646763,0.2590063512325287
2.3,-1.215235710144043,1.807571291923523,0.9998033046722412,-0.20866680145263672,-0.0763985738158226,0.2149858921766281
2.325,-1.2282068729400635,1.8309229612350464,0.8883574604988098,-0.2353247106075287,-0.12403053045272827,0.15173986554145813
2.35,-1.1779930591583252,2.0277459621429443,1.0388240814208984,-0.17039147019386292,-0.18708647787570953,0.08676071465015411
2.375,-0.9555187821388245,2.281323194503784,1.3775957822799683,-0.10407209396362305,-0.2634775638580322,0.01778903231024742
2.4,-0.6008881330490112,2.506970167160034,1.68217933177948,-0.10398656129837036,-0.23984509706497192,-0.05206654593348503
2.425,-0.17999538779258728,2.681917905807495,1.8030568361282349,-0.12644587457180023,-0.10242010653018951,-0.11209943145513535
2.45,0.1928960084915161,2.833122968673706,1.6831340789794922,-0.17813865840435028,0.15171878039836884,-0.13756144046783447
2.475,0.383065402507782,2.9315755367279053,1.4168920516967773,-0.2126118689775467,0.427785187959671,-0.11979279667139053
2.5,0.39189696311950684,3.0298097133636475,1.2353920936584473,-0.18920470774173737,0.5747917294502258,-0.05775673687458038
2.525,0.20751243829727173,3.190911054611206,1.316116452217102,-0.16856876015663147,0.6335060596466064,-0.006197229493409395
2.55,-0.04925656318664551,3.277317762374878,1.6070263385772705,-0.1303333342075348,0.6733447313308716,-0.0006626910762861371
2.575,0.07485026121139526,3.2579867839813232,1.7891883850097656,-0.11637063324451447,0.6961320042610168,-0.038482729345560074
2.6,0.437350332736969,3.444211721420288,1.7831785678863525,-0.13186229765415192,0.9417908191680908,-0.1120811179280281
2.625,0.6490890979766846,3.9356391429901123,1.7120530605316162,-0.09609797596931458,1.4291467666625977,-0.14603674411773682
2.65,0.6687126159667969,4.109564304351807,1.4070041179656982,0.00220678374171257,1.9661554098129272,-0.13473014533519745
2.675,0.5798611640930176,3.6806046962738037,0.7707934975624084,0.03300444781780243,2.5530192852020264,-0.17273195087909698
2.7,0.5647998452186584,3.0925815105438232,0.1289689540863037,-0.03246001899242401,3.1179909706115723,-0.3892134726047516
2.725,0.7333226799964905,2.686910390853882,-0.28187909722328186,-0.12213069200515747,3.5107624530792236,-0.7056192755699158
2.75,0.949901819229126,2.381756544113159,-0.4414520263671875,-0.1997203528881073,3.656604528427124,-0.8840469121932983
2.775,0.9456691741943359,1.9976814985275269,-0.4408256411552429,-0.17881673574447632,3.5955379009246826,-0.8725255727767944
2.8,0.6750739812850952,1.3920611143112183,-0.5382277965545654,-0.1508767455816269,3.4053425788879395,-0.7102052569389343
2.825,0.24209275841712952,0.7426385283470154,-0.8754885792732239,-0.23715151846408844,3.2144832611083984,-0.582926332950592
2.85,-0.16751763224601746,0.3612136244773865,-1.2218470573425293,-0.3470064401626587,3.109856367111206,-0.5503765940666199
2.875,-0.44305509328842163,0.3417872488498688,-1.4730263948440552,-0.36059069633483887,2.996833562850952,-0.532889187335968
2.9,-0.6782698035240173,0.27310454845428467,-1.6114964485168457,-0.36023420095443726,2.8554470539093018,-0.4923478960990906
2.925,-0.8590716123580933,-0.11504467576742172,-1.817953109741211,-0.3804541826248169,2.607210397720337,-0.47049692273139954
2.95,-1.0280663967132568,-0.36692532896995544,-2.0721852779388428,-0.34320610761642456,2.4835753440856934,-0.49287518858909607
2.975,-1.3283233642578125,0.10194765776395798,-1.9918019771575928,-0.1483953446149826,2.6547253131866455,-0.6699110865592957
3.0,-1.845611333847046,0.8005607724189758,-1.5612366199493408,-0.07371088862419128,2.771108627319336,-0.8159802556037903
3.025,-2.3082025051116943,1.013218641281128,-1.1545979976654053,-0.2588604688644409,2.5210304260253906,-0.890301525592804
3.05,-2.2059924602508545,1.1990554332733154,-0.8967505693435669,-0.4597150385379791,1.8974900245666504,-1.0911959409713745
3.075,-1.4994115829467773,1.95096755027771,-0.4067607820034027,-0.5994150638580322,1.264286756515503,-1.3643044233322144
3.1,-0.6198963522911072,2.9193227291107178,0.03143535926938057,-0.7911161780357361,0.5387463569641113,-1.4887847900390625
3.125,0.07125039398670197,3.122980833053589,-0.13362303376197815,-1.1382063627243042,-0.265134334564209,-1.2691563367843628
3.15,0.6058700084686279,2.6031224727630615,-0.5148966312408447,-1.416102647781372,-0.8067490458488464,-1.0417687892913818
3.175,1.0002411603927612,2.2070043087005615,0.1675170511007309,-1.3794524669647217,-1.0793578624725342,-1.0591933727264404
3.2,1.5916433334350586,2.4239721298217773,1.4821817874908447,-1.4018096923828125,-1.834672212600708,-1.248569130897522
3.225,2.6320626735687256,2.0367345809936523,1.7234160900115967,-2.2798848152160645,-3.0151634216308594,-1.1313698291778564
3.25,3.907830238342285,0.10904525965452194,0.9537723064422607,-3.5424368381500244,-3.4429235458374023,-0.8254624605178833
3.275,4.4552531242370605,-1.4811702966690063,0.6165727972984314,-3.9728939533233643,-2.6941771507263184,-0.7862589359283447
3.3,4.116902828216553,-1.0784555673599243,0.3610958456993103,-3.9027976989746094,-1.6881977319717407,-0.48395654559135437
3.325,3.3779025077819824,0.22654929757118225,-0.7943395376205444,-4.469566345214844,-0.989730715751648,0.42404645681381226
3.35,2.60074520111084,0.6040277481079102,-2.5230283737182617,-5.751925468444824,-0.6674560904502869,1.4450138807296753
3.375,2.309030771255493,-0.577696681022644,-3.44579815864563,-6.9262285232543945,-0.6551399827003479,2.171733856201172
3.4,2.7521615028381348,-2.3862884044647217,-2.8941354751586914,-7.265092372894287,-0.8255688548088074,2.0179741382598877
3.425,2.807201862335205,-3.4973206520080566,-1.3686127662658691,-6.662907123565674,-0.9529253840446472,0.9432438015937805
3.45,1.8673954010009766,-2.7412612438201904,-0.23903675377368927,-5.077841281890869,-1.217872977256775,0.010340763255953789
3.475,0.33462098240852356,-0.5218772292137146,-1.1887394189834595,-3.44345760345459,-1.5090678930282593,0.27996525168418884
3.5,-1.699015498161316,1.0156875848770142,-3.760672092437744,-3.3232569694519043,-1.045060396194458,1.4098056554794312
3.525,-3.5947165489196777,-0.030148856341838837,-6.652510166168213,-5.0523200035095215,0.26454049348831177,2.1707639694213867
3.55,-4.135298728942871,-4.083650588989258,-7.735881805419922,-7.572930335998535,1.4816573858261108,2.252943992614746
3.575,-3.3757877349853516,-8.099889755249023,-6.1678290367126465,-9.306848526000977,1.9206475019454956,1.3823119401931763
3.6,-1.7943737506866455,-9.295994758605957,-3.530362606048584,-9.466670036315918,1.4735397100448608,0.9439103007316589
3.625,-0.037703514099121094,-9.399328231811523,-1.5431004762649536,-8.824119567871094,1.1616976261138916,1.1872552633285522
3.65,1.767423152923584,-10.244606971740723,0.4141743779182434,-8.78654670715332,1.462546467781067,0.9418238997459412
3.675,2.7027909755706787,-11.216394424438477,2.326894760131836,-8.819549560546875,0.8421923518180847,0.013262460008263588
3.7,1.8287755250930786,-11.059255599975586,4.257119655609131,-8.398588180541992,-0.6734680533409119,-0.5495180487632751
3.725,0.1672801971435547,-9.348262786865234,5.855372905731201,-7.4511003494262695,-1.165553331375122,-0.7765223383903503
3.75,-0.8567249774932861,-7.244833469390869,6.808310031890869,-5.91105842590332,-0.6907269358634949,-0.5848553776741028
3.775,-0.5091152191162109,-4.4700093269348145,6.7198896408081055,-4.924311637878418,0.7488002777099609,-0.2545914947986603
3.8,0.874995231628418,-2.687511920928955,4.736194610595703,-3.1080822944641113,1.9367353916168213,-0.3650279641151428
3.825,3.18172550201416,-1.2489362955093384,2.2126128673553467,-1.8946508169174194,2.7830698490142822,-0.6637954115867615
3.85,6.059463977813721,0.8814185261726379,0.2311902642250061,-1.6147633790969849,3.161273241043091,-0.8834232687950134
3.875,8.736238479614258,1.3502095937728882,-1.9065672159194946,-1.0162700414657593,3.444828510284424,-1.692992925643921
3.9,9.502363204956055,-0.26691296696662903,-3.9823405742645264,-0.7121407985687256,3.6964070796966553,-2.8530237674713135
3.925,7.436175346374512,-2.3430614471435547,-5.290557384490967,-0.6860154867172241,3.938605546951294,-3.6810696125030518
3.95,3.4872734546661377,-3.7244880199432373,-5.608515739440918,-0.6985459327697754,4.306989669799805,-3.968902587890625
3.975,-0.7174861431121826,-4.39761209487915,-5.2692155838012695,-0.5605674982070923,4.486494541168213,-4.093667030334473
4.0,-4.184006690979004,-4.69856595993042,-3.922372341156006,-0.7884987592697144,4.393867492675781,-4.321435928344727
4.025,-6.139759540557861,-4.15920877456665,-1.7651538848876953,-1.0830047130584717,4.226325035095215,-4.237924098968506
4.05,-7.027081489562988,-3.1565349102020264,0.19341988861560822,-1.123457908630371,3.996868848800659,-4.286595821380615
4.075,-7.3259382247924805,-1.8332479000091553,2.0253305435180664,-1.1730419397354126,3.6716344356536865,-4.222352981567383
4.1,-7.665994644165039,-0.9769976735115051,2.85770320892334,-0.905217170715332,3.6415047645568848,-4.18133544921875
4.125,-8.245455741882324,-0.42489564418792725,2.8954670429229736,-0.6318224668502808,3.584585189819336,-4.21419095993042
4.15,-7.812294006347656,0.4803100526332855,3.0202865600585938,-0.4540973901748657,3.5236048698425293,-4.105058670043945
4.175,-6.367440700531006,1.3240257501602173,3.2556405067443848,-0.5379946231842041,3.3196704387664795,-3.8994150161743164
4.2,-5.097225666046143,1.3466554880142212,3.0795350074768066,-0.6156893968582153,3.2464778423309326,-3.7396600246429443
4.225,-4.730397701263428,1.2301641702651978,2.808452606201172,-0.7313206195831299,3.2402260303497314,-3.6773407459259033
4.25,-4.104344367980957,2.0294127464294434,3.332449197769165,-1.2544875144958496,3.220219612121582,-3.511240243911743
4.275,-2.3921260833740234,2.9491794109344482,3.9948222637176514,-1.485288143157959,3.539583683013916,-3.3262202739715576
4.3,-0.2277311086654663,3.747037649154663,4.8263959884643555,-1.765511155128479,3.752204179763794,-3.1842191219329834
4.325,2.176769256591797,4.125617504119873,5.085818767547607,-1.714827060699463,3.3372976779937744,-2.6330862045288086
4.35,2.825589418411255,3.614150047302246,3.8969948291778564,-1.2579607963562012,2.4053118228912354,-2.402244806289673
4.375,1.6819599866867065,2.6426286697387695,1.1683086156845093,-0.6941197514533997,1.3419444561004639,-2.3680496215820312
4.4,0.02968287467956543,2.3515260219573975,-0.9194719791412354,-0.6073052287101746,1.1289829015731812,-2.656066417694092
4.425,0.07610653340816498,3.0828473567962646,-0.8712473511695862,-0.984340250492096,1.6780250072479248,-2.5418343544006348
4.45,1.8457099199295044,3.3290231227874756,0.1942916065454483,-1.0267784595489502,1.881591558456421,-1.9756196737289429
4.475,2.70823335647583,3.116440773010254,0.9076483845710754,-0.7704346179962158,1.2809932231903076,-1.7771097421646118
4.5,1.8436821699142456,2.7329282760620117,0.8050055503845215,-0.42408305406570435,0.46636468172073364,-1.6078487634658813
4.525,0.73957359790802,2.1935250759124756,0.16089333593845367,-0.1721312701702118,0.0422949381172657,-1.2326894998550415
4.55,0.5469872355461121,2.047210454940796,0.005671513266861439,-0.1382138729095459,0.030984748154878616,-1.0576579570770264
4.575,1.2162398099899292,2.046114683151245,0.40826162695884705,-0.18304067850112915,0.10316172987222672,-0.801382303237915
4.6,1.8287341594696045,2.086520195007324,0.9284271001815796,-0.1801607310771942,0.05952205881476402,-0.5999578833580017
4.625,1.8561519384384155,2.1277122497558594,1.0635457038879395,-0.10516597330570221,-0.14242872595787048,-0.4440228044986725
4.65,1.4762427806854248,2.01660418510437,0.7917517423629761,0.017336413264274597,-0.36161020398139954,-0.28218889236450195
4.675,1.505239725112915,2.0781610012054443,0.8015632033348083,-0.0324612632393837,-0.38956964015960693,-0.08089368045330048
4.7,2.105534076690674,2.3095903396606445,1.1533503532409668,-0.18102003633975983,-0.275005966424942,0.09457464516162872
4.725,2.5351457595825195,2.532151222229004,1.408267617225647,-0.18797555565834045,-0.34532079100608826,0.1742113083600998
4.75,2.6506359577178955,2.481668472290039,1.3329038619995117,-0.0997999981045723,-0.5475337505340576,0.40379878878593445
4.775,2.3821723461151123,2.604463577270508,1.051589846611023,-0.2475406378507614,-0.8227538466453552,0.7183681726455688
4.8,1.8836658000946045,3.179621696472168,0.6865281462669373,-0.5174122452735901,-0.8859695196151733,1.0712112188339233
4.825,1.8298757076263428,3.292325735092163,0.5756581425666809,-0.8644477128982544,-0.472128301858902,1.6141551733016968
4.85,2.1631147861480713,2.653238296508789,1.03999662399292,-1.3113545179367065,-0.044036708772182465,2.041102886199951
4.875,2.0934269428253174,2.184377670288086,1.8520230054855347,-1.8273816108703613,0.07948333024978638,2.165266275405884
4.9,1.5433943271636963,2.5005531311035156,2.540839910507202,-2.228515148162842,-0.061330921947956085,2.2144062519073486
4.925,0.9011441469192505,2.7041213512420654,2.7146542072296143,-2.0542538166046143,-0.3338184654712677,2.2701048851013184
4.95,0.2762562036514282,2.1809775829315186,2.739380121231079,-1.6353673934936523,-0.6809912919998169,2.247859001159668
4.975,-0.42393964529037476,1.2558048963546753,2.957252264022827,-1.3933037519454956,-0.9791349172592163,2.1528749465942383
5.0,-0.8123394846916199,0.25002193450927734,3.161332368850708,-1.1207213401794434,-0.956413984298706,1.9762358665466309
5.025,-0.9790291786193848,-0.04274365305900574,3.381537437438965,-1.1714470386505127,-0.9464036822319031,1.94855535030365
5.05,-1.2361760139465332,0.41780564188957214,3.4032886028289795,-1.2166426181793213,-1.1005048751831055,1.8500810861587524
5.075,-1.9122645854949951,0.9391955733299255,3.3370752334594727,-0.9186326265335083,-1.3558909893035889,1.5770879983901978
5.1,-2.7311410903930664,0.8299816846847534,3.265130043029785,-0.3325510323047638,-1.5473111867904663,1.4766180515289307
5.125,-3.3737330436706543,0.3749168813228607,2.9683802127838135,0.1042945384979248,-1.6905851364135742,1.386056900024414
5.15,-3.9082775115966797,0.11285670101642609,2.418827533721924,0.19289520382881165,-1.8970929384231567,1.3621493577957153
5.175,-4.398695945739746,0.18490959703922272,1.5135687589645386,0.09244692325592041,-2.197725534439087,1.3513315916061401
5.2,-4.648229122161865,0.1924273669719696,0.31679022312164307,0.2013610303401947,-2.422471523284912,1.3927282094955444
5.225,-4.384805202484131,-0.21642233431339264,-0.9467593431472778,0.5743257403373718,-2.4749343395233154,1.4510139226913452
5.25,-3.90848445892334,-0.8417732119560242,-2.0030810832977295,0.9848103523254395,-2.4271481037139893,1.4587856531143188
5.275,-3.2831645011901855,-1.5220767259597778,-2.74485445022583,1.234910249710083,-2.255448818206787,1.4970484972000122
5.3,-2.6231470108032227,-2.0353426933288574,-3.2230851650238037,1.2203799486160278,-2.099064588546753,1.3900870084762573
5.325,-2.364441394805908,-2.121959686279297,-3.5120842456817627,0.9586240649223328,-1.9823482036590576,1.1464751958847046
5.35,-2.61940860748291,-1.777908444404602,-3.7574474811553955,0.5778095722198486,-1.9236445426940918,0.7246220707893372
5.375,-2.2151856422424316,-1.4749308824539185,-3.697711706161499,0.23730705678462982,-1.5479069948196411,0.6487600803375244
5.4,-1.3855762481689453,-1.4065637588500977,-3.0542843341827393,-0.08405400812625885,-1.2842333316802979,0.7055129408836365
5.425,-1.076189637184143,-1.292384147644043,-2.315260171890259,-0.19254039227962494,-1.3119484186172485,0.47137904167175293
5.45,-1.4344052076339722,-0.9697409272193909,-2.1420085430145264,0.07655853033065796,-1.4129940271377563,0.12691184878349304
5.475,-2.1019389629364014,-0.5913974046707153,-2.528646945953369,0.5150017738342285,-1.3404868841171265,-0.01746986247599125
5.5,-2.302198648452759,-0.7393380403518677,-2.7932815551757812,0.7518377304077148,-1.0411872863769531,0.24851033091545105
5.525,-1.9391191005706787,-1.5867128372192383,-2.5556347370147705,0.5545352101325989,-0.8466396927833557,0.5785483717918396
5.55,-1.6756898164749146,-2.506659507751465,-1.9860016107559204,-0.025002658367156982,-0.890320897102356,0.5266038775444031
5.575,-2.113253116607666,-3.115055561065674,-1.6329057216644287,-0.5806894898414612,-0.9624314904212952,0.21731305122375488
5.6,-2.524775981903076,-3.4801855087280273,-1.27699613571167,-1.133073091506958,-0.8660712242126465,0.12590546905994415
5.625,-2.4350943565368652,-3.6792726516723633,-0.6032669544219971,-1.5841541290283203,-0.7237189412117004,0.2264075130224228
5.65,-2.3313961029052734,-3.707489013671875,0.1750020831823349,-1.796844720840454,-0.5918663144111633,0.2750038206577301
5.675,-2.518259048461914,-3.8096706867218018,0.8844406604766846,-1.6846729516983032,-0.4142531752586365,0.1854514181613922
5.7,-3.0456302165985107,-4.054390907287598,1.3683626651763916,-1.3131935596466064,-0.24174052476882935,0.0028706039302051067
5.725,-3.932708263397217,-4.237007141113281,1.4330857992172241,-0.8949777483940125,-0.37371134757995605,-0.34535112977027893
5.75,-4.625110149383545,-4.203029632568359,1.4878453016281128,-0.6542467474937439,-0.6128844022750854,-0.5599073767662048
5.775,-4.984394073486328,-3.9964160919189453,1.7083187103271484,-0.38690540194511414,-0.897036612033844,-0.7158514857292175
5.8,-5.359032154083252,-3.6196603775024414,1.6998258829116821,0.05753085017204285,-1.3007638454437256,-0.974038302898407
5.825,-6.107663631439209,-3.0872721672058105,1.099966049194336,0.6367270350456238,-1.7750970125198364,-1.2897378206253052
5.85,-7.249669075012207,-2.633197069168091,0.2867843210697174,0.9377970695495605,-2.0788965225219727,-1.4197547435760498
5.875,-7.934694290161133,-2.4136898517608643,-0.0030225268565118313,1.118041753768921,-2.3489630222320557,-1.3000949621200562
5.9,-7.739520072937012,-2.2177441120147705,0.0526973120868206,1.456430435180664,-2.7969930171966553,-1.1496585607528687
5.925,-7.804139137268066,-2.4951298236846924,-0.9547481536865234,2.3796138763427734,-3.439149856567383,-0.9674966931343079
5.95,-8.007092475891113,-2.4927966594696045,-2.8961825370788574,3.054124116897583,-4.201657772064209,-1.0009132623672485
5.975,-7.789770603179932,-1.3069766759872437,-4.560424327850342,3.112452983856201,-4.419320106506348,-1.0139086246490479
6.0,-7.760459899902344,0.054997820407152176,-6.402297019958496,3.1432671546936035,-4.356284141540527,-0.5078147649765015
6.025,-7.848202705383301,0.0029109385795891285,-8.526509284973145,2.85276198387146,-4.39731502532959,0.5282323360443115
6.05,-7.724313735961914,-1.0117307901382446,-11.173253059387207,2.162778615951538,-4.772023677825928,1.0601067543029785
6.075,-7.081902027130127,-1.070555329322815,-14.580305099487305,1.8396399021148682,-5.4086079597473145,0.7122945189476013
6.1,-5.6805901527404785,0.5977775454521179,-17.76974105834961,2.1460041999816895,-6.126036167144775,0.1764061003923416
6.125,-3.1811065673828125,3.1774377822875977,-20.910579681396484,2.8354341983795166,-7.052280426025391,0.5109254717826843
6.15,1.2170767784118652,5.6073713302612305,-24.08966064453125,2.9835426807403564,-8.20050048828125,1.699699878692627
6.175,7.730629920959473,7.480541706085205,-25.99884033203125,2.1056699752807617,-9.248212814331055,2.6678175926208496
6.2,15.425446510314941,8.459693908691406,-25.363508224487305,0.5142548680305481,-9.917588233947754,2.709949016571045
6.225,23.39502716064453,8.45238208770752,-21.6870174407959,-1.0207152366638184,-10.34531021118164,1.9431413412094116
6.25,30.027372360229492,8.062823295593262,-14.738981246948242,-1.6035270690917969,-10.66265869140625,0.734531819820404
6.275,33.52619171142578,7.760889530181885,-5.977864742279053,-1.1549303531646729,-10.6029052734375,-0.3018313944339752
6.3,33.60667037963867,7.372190952301025,2.1955103874206543,-0.10566692054271698,-10.004477500915527,-0.5704512596130371
6.325,31.76983070373535,6.4218010902404785,8.873559951782227,0.7569507956504822,-9.349263191223145,0.373342901468277
6.35,29.011703491210938,6.680756092071533,15.39405632019043,0.700425386428833,-9.221760749816895,2.194887161254883
6.375,24.066434860229492,7.9860100746154785,21.54611587524414,0.7961339354515076,-8.89041805267334,2.9154791831970215
6.4,16.868457794189453,7.652582168579102,26.153274536132812,1.352508544921875,-8.486720085144043,2.3665642738342285
6.425,8.691569328308105,4.571577548980713,28.145530700683594,2.541863203048706,-8.13518238067627,1.9741555452346802
6.45,0.6442956924438477,0.6887651681900024,27.451875686645508,3.4053823947906494,-7.812134742736816,2.678380012512207
6.475,-6.784954071044922,-2.885328769683838,24.284406661987305,3.678443193435669,-7.598887920379639,3.2717390060424805
6.5,-12.84803581237793,-6.1821608543396,19.113054275512695,3.4284744262695312,-7.445742607116699,2.9223647117614746
6.525,-16.089757919311523,-9.300671577453613,12.36304759979248,3.11232328414917,-6.669466972351074,1.5381220579147339
6.55,-15.208053588867188,-10.85102653503418,5.402309417724609,2.5720303058624268,-4.876129627227783,0.28962790966033936
6.575,-12.04845142364502,-10.208477020263672,-0.15312086045742035,1.532315969467163,-3.1928470134735107,-0.18816791474819183
6.6,-9.251440048217773,-8.613374710083008,-4.4133477210998535,0.6453827023506165,-2.2212748527526855,-0.12240153551101685
6.625,-7.439044952392578,-6.946079254150391,-7.286369800567627,-0.1480054408311844,-1.3666633367538452,0.41311854124069214
6.65,-6.380813121795654,-6.255011558532715,-7.77367639541626,-0.4480304718017578,0.007593758869916201,0.7870197296142578
6.675,-6.816035270690918,-6.659253120422363,-6.2143120765686035,-0.5420258045196533,0.7772241234779358,1.3375455141067505
6.7,-9.213653564453125,-7.320164203643799,-3.741361618041992,-1.4091757535934448,0.7225638628005981,2.831418514251709
6.725,-11.27043342590332,-7.5702080726623535,0.5814704895019531,-2.0373587608337402,1.529411792755127,4.199104309082031
6.75,-10.84328842163086,-7.270524501800537,6.559646129608154,-1.886278510093689,3.885824680328369,4.078423023223877
6.775,-7.82534122467041,-6.217274188995361,12.151419639587402,-1.6327853202819824,6.224820613861084,2.4258697032928467
6.8,-4.339861869812012,-4.521974086761475,16.572500228881836,-1.8703588247299194,7.184726715087891,-0.06501937657594681
6.825,-0.6838235855102539,-1.623832106590271,20.580799102783203,-3.0575828552246094,7.278693199157715,-1.8088585138320923
6.85,3.805100440979004,1.8742376565933228,23.885047912597656,-3.906418561935425,7.377157688140869,-2.395236015319824
6.875,9.938758850097656,5.776474475860596,25.632404327392578,-4.620702266693115,7.773039817810059,-2.2444870471954346
6.9,17.794918060302734,9.981180191040039,23.952823638916016,-4.559401512145996,8.472274780273438,-1.3132648468017578
6.925,25.35953140258789,12.602273941040039,17.568506240844727,-3.70080828666687,9.417452812194824,-0.9649007320404053
6.95,29.288177490234375,11.924951553344727,8.215500831604004,-3.309551954269409,9.879730224609375,-1.4602969884872437
6.975,28.809423446655273,8.451202392578125,-0.4508414566516876,-3.2796356678009033,9.6940336227417,-1.586597204208374
7.0,25.46731185913086,4.262777328491211,-6.235692501068115,-2.4634828567504883,9.112700462341309,-1.2623761892318726
7.025,20.98965835571289,1.943196177482605,-9.384574890136719,-0.7520427703857422,8.315571784973145,-1.0832234621047974
7.05,17.34809112548828,2.2468085289001465,-10.812857627868652,0.5127506256103516,6.989203929901123,-0.7014544010162354
7.075,15.286426544189453,3.608189821243286,-11.593433380126953,0.32690444588661194,5.511268138885498,0.14903074502944946
7.1,13.821939468383789,4.327302932739258,-12.417192459106445,-0.7318621873855591,4.584595203399658,1.0763053894042969
7.125,12.357953071594238,3.3891632556915283,-13.451956748962402,-1.7821519374847412,4.300354957580566,1.6684938669204712
7.15,10.496427536010742,1.408544659614563,-14.618770599365234,-2.0974271297454834,4.636626720428467,1.6180388927459717
7.175,7.699487686157227,-0.29744043946266174,-15.490926742553711,-1.5341674089431763,5.238608360290527,0.9534521698951721
7.2,4.383141994476318,-1.4339818954467773,-15.682551383972168,-0.8008102178573608,5.6541876792907715,0.013009360060095787
7.225,1.3077640533447266,-2.2403297424316406,-15.194408416748047,-0.5072929859161377,5.705799102783203,-0.6697946786880493
7.25,-1.0991358757019043,-2.7862603664398193,-14.170621871948242,-0.6241512298583984,5.518931865692139,-0.8448045253753662
7.275,-2.4725561141967773,-3.2132532596588135,-13.078639030456543,-0.7210744619369507,5.013407230377197,-0.47153523564338684
7.3,-3.0595173835754395,-3.679967164993286,-12.516745567321777,-0.463725209236145,4.47369909286499,0.28591886162757874
7.325,-3.608060836791992,-4.094862461090088,-12.371830940246582,-0.0034526288509368896,4.280378818511963,0.7642720937728882
7.35,-4.91939640045166,-4.165528774261475,-12.122952461242676,0.24633440375328064,4.392344951629639,0.48958978056907654
7.375,-6.788370609283447,-4.202434062957764,-11.633920669555664,0.2252153903245926,4.629517078399658,0.07595949620008469
7.4,-9.058514595031738,-4.437824726104736,-11.21953296661377,0.1260060966014862,4.836827754974365,-0.21190319955348969
7.425,-11.47337532043457,-4.7546539306640625,-10.199590682983398,-0.02244037389755249,5.074131488800049,-0.4344053268432617
7.45,-13.46109390258789,-4.920953273773193,-8.227926254272461,-0.024063989520072937,5.251615524291992,-0.5315382480621338
7.475,-15.074926376342773,-4.46860933303833,-5.8478288650512695,0.3266898989677429,5.242518424987793,-0.5790461301803589
7.5,-16.34596061706543,-3.537287950515747,-3.521865129470825,1.073940396308899,4.976156234741211,-0.5907647013664246
7.525,-17.043115615844727,-2.655927896499634,-1.3813027143478394,2.0832085609436035,4.38901948928833,-0.6656986474990845
7.55,-17.385520935058594,-1.6379202604293823,0.7981487512588501,3.107628345489502,3.6470839977264404,-1.0002950429916382
7.575,-17.443077087402344,-0.46669378876686096,3.0039901733398438,4.211231231689453,2.8704187870025635,-1.6462749242782593
7.6,-17.381834030151367,0.7282896637916565,4.876467704772949,5.062568664550781,2.1062731742858887,-2.469834089279175
7.625,-16.940744400024414,2.0992984771728516,6.543380260467529,5.213850498199463,1.4831401109695435,-3.375973701477051
7.65,-15.737569808959961,3.9733409881591797,8.222169876098633,4.693690299987793,1.1356351375579834,-4.32114839553833
7.675,-13.504301071166992,6.251739501953125,9.8097505569458,3.813910484313965,1.106912612915039,-5.392116546630859
7.7,-10.35153579711914,8.09016227722168,11.238985061645508,2.8991355895996094,1.3786357641220093,-6.328469753265381
7.725,-6.546271324157715,9.034374237060547,12.678020477294922,2.275977849960327,1.9695674180984497,-6.932304859161377
7.75,-2.250026226043701,9.186872482299805,13.874987602233887,1.8218964338302612,2.496397018432617,-7.282038688659668
7.775,1.8321352005004883,8.405385971069336,14.13280200958252,1.2035447359085083,2.7844550609588623,-7.012694358825684
7.8,4.5946946144104,7.042845726013184,13.671205520629883,0.589008092880249,2.9795637130737305,-6.172648906707764
7.825,5.66811466217041,5.889338493347168,13.054435729980469,0.16142702102661133,3.001258373260498,-5.382415771484375
7.85,6.582457542419434,5.543473243713379,11.877137184143066,-0.4661139249801636,2.7125682830810547,-5.576767921447754
7.875,8.655340194702148,5.603987693786621,9.617892265319824,-1.398524522781372,2.4166321754455566,-6.338588714599609
7.9,11.239001274108887,4.576953411102295,7.224717140197754,-1.7554023265838623,2.3440189361572266,-6.554634094238281
7.925,12.976945877075195,2.865246534347534,5.328124046325684,-1.7787280082702637,2.4165825843811035,-6.639653205871582
7.95,14.44096851348877,0.36700332164764404,3.0041089057922363,-1.7112603187561035,2.9207611083984375,-6.983309745788574
7.975,15.165231704711914,-4.049975395202637,0.6123292446136475,-0.9353337287902832,3.4535670280456543,-6.789840221405029
8.0,14.1311674118042,-8.565414428710938,-0.5922684073448181,0.044971585273742676,3.486631393432617,-5.47806453704834
8.025,11.955472946166992,-10.357064247131348,-1.2483638525009155,-0.038739681243896484,3.2713491916656494,-3.521907091140747
8.05,9.332683563232422,-9.525802612304688,-2.6339492797851562,-0.9147055149078369,3.3078200817108154,-1.6886330842971802
8.075,6.459836483001709,-7.725425720214844,-4.205624580383301,-1.0103541612625122,3.2180960178375244,-0.5850785970687866
8.1,3.011054039001465,-4.883368015289307,-6.317874431610107,-0.28505414724349976,3.1830432415008545,0.13582320511341095
8.125,-0.2974262237548828,-1.4312926530838013,-8.715506553649902,0.7701529264450073,2.7591612339019775,0.7010020017623901
8.15,-1.0227298736572266,-0.2895548343658447,-9.374125480651855,0.3971228301525116,1.0813287496566772,0.9339406490325928
8.175,0.2240161895751953,-1.0763713121414185,-8.98654556274414,-2.185805559158325,-0.06854496896266937,1.519942283630371
8.2,1.926085114479065,-2.7570831775665283,-9.653512954711914,-2.6646504402160645,-0.4305533766746521,2.5256361961364746
8.225,3.703080177307129,-4.640481948852539,-11.568748474121094,-0.3922901749610901,0.00251479703001678,2.9745166301727295
8.25,6.702136993408203,-5.962821006774902,-11.26014518737793,2.67671537399292,0.23702704906463623,2.052452802658081
8.275,10.623374938964844,-6.5972442626953125,-9.189085006713867,4.733628273010254,0.21212445199489594,1.5931260585784912
8.3,15.04859733581543,-6.123585224151611,-6.714903831481934,4.958431720733643,-0.5724846124649048,2.383843183517456
8.325,18.24860191345215,-3.489931344985962,-3.5969674587249756,3.860286235809326,-2.3778483867645264,3.9097278118133545
8.35,19.04551124572754,0.7003384232521057,1.1108450889587402,2.711158514022827,-4.517009258270264,5.348933219909668
8.375,16.967632293701172,4.524032115936279,6.45729923248291,2.2789628505706787,-6.350547790527344,6.2692766189575195
8.4,12.926302909851074,6.900733470916748,10.443092346191406,2.3216443061828613,-7.324300765991211,6.513846397399902
8.425,8.516464233398438,7.757596492767334,12.483894348144531,2.800449848175049,-6.813565731048584,6.309359073638916
8.45,4.415382385253906,7.853985786437988,12.99826431274414,3.2217531204223633,-4.595310688018799,6.29788064956665
8.475,0.4475374221801758,7.902192115783691,12.05317497253418,2.7296087741851807,-1.3759474754333496,6.87277889251709
8.5,-2.8540730476379395,7.883375644683838,11.771429061889648,1.107189655303955,1.3535577058792114,7.555497169494629
8.525,-4.395661354064941,7.525768756866455,14.817136764526367,-0.895209550857544,2.637587785720825,7.736784934997559
8.55,-6.073925018310547,6.771276950836182,15.473746299743652,-2.303539514541626,2.6350347995758057,7.573346138000488
8.575,-8.216277122497559,4.888638019561768,13.49473762512207,-3.1124722957611084,2.166271209716797,7.437390327453613
8.6,-9.707072257995605,2.571906566619873,11.278619766235352,-3.954148769378662,1.801247477531433,7.268996238708496
8.625,-10.130842208862305,0.9245372414588928,9.602350234985352,-4.911290168762207,1.522817611694336,6.6565070152282715
8.65,-9.989401817321777,0.3337160050868988,8.240554809570312,-5.582091331481934,0.8622751235961914,5.334925651550293
8.675,-9.926396369934082,0.4642329812049866,6.801541328430176,-5.456602096557617,-0.3739921450614929,3.6576058864593506
8.7,-10.413705825805664,0.9582275748252869,5.0906829833984375,-4.429649353027344,-1.9970656633377075,2.1700003147125244
8.725,-11.206497192382812,0.8810409307479858,3.1278035640716553,-2.6743059158325195,-3.712125062942505,1.288673758506775
8.75,-11.951287269592285,-0.16118207573890686,0.943932056427002,-0.7907366752624512,-5.203393459320068,1.1182228326797485
8.775,-12.274550437927246,-1.7682396173477173,-1.5156735181808472,0.5023875832557678,-6.182943820953369,1.4617830514907837
8.8,-11.76872730255127,-3.4953231811523438,-4.063353061676025,1.0609885454177856,-6.61453104019165,1.8748834133148193
8.825,-10.138581275939941,-5.066973686218262,-6.00186824798584,1.0346214771270752,-6.551787853240967,2.0170562267303467
8.85,-7.795186996459961,-6.2125701904296875,-6.858497142791748,0.6702585816383362,-6.1923828125,1.7393616437911987
8.875,-5.684455871582031,-6.622933387756348,-7.136209011077881,0.3510754406452179,-5.865519046783447,1.060193657875061
8.9,-4.116243362426758,-6.287409782409668,-7.323066234588623,0.3012881875038147,-5.658770561218262,0.24475020170211792
8.925,-2.9402332305908203,-5.482154846191406,-7.585819721221924,0.6203179359436035,-5.5667195320129395,-0.33764076232910156
8.95,-1.8529772758483887,-4.4201178550720215,-8.00500774383545,1.2504630088806152,-5.663880825042725,-0.4716949164867401
8.975,-0.6303534507751465,-3.13145112991333,-8.510616302490234,1.9109578132629395,-5.8842854499816895,-0.15910327434539795
9.0,0.8186252117156982,-1.5495491027832031,-8.911063194274902,2.4094977378845215,-6.179376602172852,0.42339402437210083
9.025,2.6169328689575195,0.12948505580425262,-8.895173072814941,2.6302711963653564,-6.532514572143555,1.1024264097213745
9.05,5.025172233581543,1.7655439376831055,-8.276887893676758,2.628608465194702,-6.934893608093262,1.6069082021713257
9.075,7.673581123352051,3.288330078125,-6.44824743270874,2.4907538890838623,-7.006339073181152,1.5422170162200928
9.1,9.679933547973633,4.48416805267334,-3.3337366580963135,2.520179033279419,-6.411507606506348,0.9995344281196594
9.125,10.427983283996582,4.878373146057129,-0.004155449569225311,2.689506769180298,-5.190671443939209,0.3415824770927429
9.15,10.056083679199219,4.3438720703125,2.2771780490875244,2.5343856811523438,-3.379664182662964,-0.3093273341655731
9.175,9.524369239807129,3.2613720893859863,3.1722021102905273,2.0274815559387207,-1.5466655492782593,-0.9440077543258667
9.2,9.789048194885254,1.6870837211608887,2.9230613708496094,1.3546271324157715,-0.019747041165828705,-1.6472574472427368
9.225,10.84548568725586,-0.33405715227127075,1.8213727474212646,0.87028968334198,1.4754869937896729,-2.3687286376953125
9.25,11.449789047241211,-2.2258248329162598,-0.022055016830563545,0.9716612100601196,3.244033098220825,-2.9162228107452393
9.275,10.97583293914795,-3.0999820232391357,-2.2902183532714844,1.5231465101242065,4.984657287597656,-3.0429611206054688
9.3,9.633487701416016,-2.8958070278167725,-4.367727279663086,1.9854438304901123,6.284947872161865,-2.716428756713867
9.325,8.198277473449707,-2.1298270225524902,-5.984070777893066,1.994297981262207,6.86680269241333,-2.070577383041382
9.35,6.911404609680176,-1.212669014930725,-7.434502601623535,1.535240650177002,6.932425498962402,-1.1915795803070068
9.375,5.518100738525391,0.0068274494260549545,-8.943609237670898,0.9846104383468628,6.779716968536377,-0.06729696691036224
9.4,3.672760009765625,1.6779478788375854,-10.379678726196289,0.7587972283363342,6.499419212341309,1.2460495233535767
9.425,0.9084763526916504,3.4575114250183105,-11.245226860046387,1.0022704601287842,6.215292930603027,2.558514356613159
9.45,-2.630432605743408,5.007604598999023,-10.666701316833496,1.6112905740737915,6.105250835418701,3.568800926208496
9.475,-6.023259162902832,6.129487991333008,-8.348387718200684,2.394448757171631,5.9582390785217285,4.038237571716309
9.5,-8.516291618347168,6.362506866455078,-4.863404750823975,3.1913795471191406,5.415366172790527,4.002192497253418
9.525,-9.640913009643555,5.20960807800293,-0.8331807255744934,3.8895680904388428,4.526165962219238,3.573702096939087
9.55,-9.319689750671387,3.2584402561187744,2.9171078205108643,4.412800312042236,3.421330451965332,2.72038197517395
9.575,-8.06536865234375,1.4493403434753418,5.684698104858398,4.765522003173828,2.2493104934692383,1.4621878862380981
9.6,-6.485109329223633,-0.26214709877967834,6.991690635681152,4.91827392578125,1.26302170753479,0.09732012450695038
9.625,-5.060526371002197,-2.0148074626922607,6.898204326629639,4.521097183227539,0.8908159136772156,-0.9359914660453796
9.65,-4.003082275390625,-3.188354253768921,6.454458236694336,3.344989776611328,1.368293046951294,-1.274544596672058
9.675,-3.123960494995117,-3.355372190475464,6.61669397354126,1.7954128980636597,2.3138363361358643,-0.9536484479904175
9.7,-2.3949851989746094,-2.6053574085235596,7.158491134643555,0.5148720741271973,3.0412685871124268,-0.39514684677124023
9.725,-2.3454575538635254,-1.2017935514450073,7.556221961975098,-0.176144540309906,3.277123212814331,0.08466091006994247
9.75,-3.1406707763671875,-0.4029683768749237,8.013647079467773,-0.302649587392807,3.3342530727386475,0.7556692361831665
9.775,-3.797996759414673,-1.2298725843429565,9.045635223388672,0.06902611255645752,3.4503464698791504,1.8198020458221436
9.8,-2.9334325790405273,-2.613906145095825,10.551360130310059,0.5015198588371277,3.4566426277160645,2.35620379447937
9.825,-0.37198376655578613,-3.605551242828369,11.856311798095703,0.6644279956817627,2.9800174236297607,1.4855533838272095
9.85,2.342137336730957,-3.9351770877838135,12.44117259979248,0.6207423210144043,1.7562679052352905,-0.9316601753234863
9.875,3.8181793689727783,-3.4946606159210205,11.717878341674805,0.12252640724182129,0.0756278932094574,-3.902709484100342
9.9,4.054765224456787,-2.221115827560425,8.979959487915039,-1.147194266319275,-1.42794668674469,-5.847904682159424
9.925,4.6519012451171875,-0.8939624428749084,4.825587272644043,-2.9947996139526367,-1.5223551988601685,-5.600625038146973
9.95,6.73099422454834,-1.0521063804626465,1.6188876628875732,-4.005021572113037,0.5266127586364746,-3.6004581451416016
9.975,9.940690994262695,-2.398480176925659,0.6634951829910278,-3.579026222229004,3.118074655532837,-1.7006371021270752
10.0,13.490492820739746,-3.0079665184020996,0.5452439188957214,-2.8049018383026123,3.677680730819702,-0.7564229965209961
10.025,15.965005874633789,-1.518270492553711,0.15040597319602966,-2.4320688247680664,1.592883586883545,-0.3306344449520111
10.05,15.884757995605469,2.9266107082366943,-0.05455940589308739,-2.125518560409546,-1.9332491159439087,0.5136885643005371
10.075,13.64395523071289,9.567610740661621,-0.22837504744529724,-1.5294370651245117,-4.995499610900879,2.0468878746032715
10.1,10.033586502075195,15.505982398986816,-1.9965531826019287,-1.0490343570709229,-6.764115333557129,3.3830602169036865
10.125,6.208028793334961,17.920385360717773,-5.184688568115234,-0.7617139220237732,-6.228579521179199,3.901641368865967
10.15,2.325183629989624,16.968019485473633,-6.920442581176758,-1.2289987802505493,-2.7718968391418457,4.062887191772461
10.175,-1.6209204196929932,14.405437469482422,-6.451113700866699,-2.376321315765381,0.769371747970581,3.559015989303589
10.2,-3.768202304840088,12.102930068969727,-4.8246307373046875,-2.823885440826416,1.8050466775894165,1.881127953529358
10.225,-3.96455454826355,10.830774307250977,-3.299009084701538,-1.9989995956420898,0.6189104914665222,0.11494918912649155
10.25,-4.298569679260254,8.591899871826172,-2.2698020935058594,-0.3150784969329834,-1.1093299388885498,0.6081339120864868
10.275,-5.216193199157715,5.455000877380371,-1.3548003435134888,1.261479139328003,-2.051337957382202,2.414745569229126
10.3,-6.155540466308594,3.0952181816101074,-0.5434486269950867,2.2831311225891113,-2.2491252422332764,3.7284066677093506
10.325,-7.0010528564453125,1.4527497291564941,-0.28830060362815857,2.792180299758911,-1.9483133554458618,4.747674465179443
10.35,-7.891513824462891,-0.3068994879722595,-0.6688764095306396,2.366922378540039,-1.271562933921814,5.7192511558532715
10.375,-8.752613067626953,-2.4867823123931885,-0.8742450475692749,0.8969709873199463,-0.6086978316307068,6.4401984214782715
10.4,-9.296004295349121,-4.866368770599365,-0.4841539263725281,-0.6792163848876953,-0.3736414611339569,6.7882256507873535
10.425,-8.829050064086914,-6.91021728515625,-0.26597243547439575,-1.2102676630020142,-0.5547746419906616,7.002574443817139
10.45,-7.527886390686035,-8.688880920410156,-0.5943140387535095,-1.428430199623108,-0.5630177855491638,7.635821342468262
10.475,-5.097862243652344,-11.230191230773926,-0.9465441107749939,-2.271237373352051,-0.7487820386886597,8.742443084716797
10.5,-1.1448755264282227,-13.268794059753418,-0.2892785966396332,-3.4027998447418213,-1.235465407371521,9.207658767700195
10.525,2.5450363159179688,-12.728707313537598,0.5020431280136108,-2.956606388092041,-1.4440680742263794,8.034571647644043
10.55,4.2179179191589355,-10.749272346496582,-0.19750399887561798,-1.4478461742401123,-1.0804779529571533,6.117130756378174
10.575,5.3663411140441895,-9.51015567779541,-0.3317115604877472,-1.7171127796173096,-1.4724419116973877,5.993958473205566
10.6,8.065938949584961,-8.446256637573242,0.6959586143493652,-1.8208270072937012,-1.9592734575271606,6.695745468139648
10.625,10.507596969604492,-6.542905807495117,1.1703094244003296,-0.8830138444900513,-1.7429174184799194,5.39296817779541
10.65,9.998306274414062,-5.757407188415527,-0.28342974185943604,0.23912149667739868,-0.5478278994560242,1.4708861112594604
10.675,7.582530975341797,-6.6435112953186035,-1.1282182931900024,-0.11816394329071045,-0.35161128640174866,-1.3384627103805542
10.7,5.212419509887695,-8.740736961364746,-1.8575711250305176,0.19602644443511963,-0.2983347177505493,-1.8267568349838257
10.725,2.6942806243896484,-11.00086498260498,-3.3671045303344727,0.7433961629867554,-0.6573747396469116,-2.169191360473633
10.75,-0.22735071182250977,-13.1328763961792,-5.33819055557251,1.2995442152023315,-0.6559426784515381,-3.0219902992248535
10.775,-3.692279577255249,-14.754328727722168,-6.89597225189209,1.6217992305755615,0.06619857251644135,-4.241562843322754
10.8,-7.258403778076172,-14.830794334411621,-7.6288886070251465,1.711037516593933,1.224381923675537,-5.137941837310791
10.825,-10.404861450195312,-13.547019004821777,-8.194363594055176,2.1448521614074707,1.8263604640960693,-5.676827907562256
10.85,-13.592650413513184,-11.643068313598633,-9.295832633972168,2.8771398067474365,1.7429733276367188,-6.312098979949951
10.875,-18.221534729003906,-8.587940216064453,-11.054059028625488,3.5295729637145996,1.5195629596710205,-7.3246989250183105
10.9,-24.120899200439453,-2.113694667816162,-12.280651092529297,3.751474380493164,1.7179323434829712,-8.6619234085083
10.925,-28.163286209106445,7.5885910987854,-10.89263916015625,3.6680045127868652,2.625579357147217,-9.454445838928223
10.95,-28.431968688964844,18.76318359375,-5.606621265411377,2.872161388397217,3.9536120891571045,-10.281572341918945
10.975,-22.19461441040039,29.050987243652344,3.0596868991851807,2.2137606143951416,5.386192321777344,-11.080243110656738
11.0,-9.490077018737793,33.0803108215332,11.487624168395996,2.501643657684326,5.723570346832275,-11.208638191223145
11.025,3.064340114593506,28.523698806762695,15.041704177856445,2.9261889457702637,4.1281514167785645,-10.809388160705566
11.05,9.63666820526123,20.69974708557129,12.432312965393066,1.699457049369812,1.9922244548797607,-9.28847885131836
11.075,10.776557922363281,14.488762855529785,7.091111660003662,-0.17534565925598145,1.8097128868103027,-6.207637310028076
11.1,9.52580738067627,9.886099815368652,3.7367680072784424,-0.3471792936325073,3.864267349243164,-3.1558892726898193
11.125,8.680822372436523,5.915318489074707,3.638652801513672,0.8771002292633057,5.877587795257568,-2.0555012226104736
11.15,8.779121398925781,2.6749937534332275,4.199538230895996,1.671391487121582,5.758253574371338,-2.4897289276123047
11.175,8.810693740844727,0.3961339592933655,4.1286540031433105,1.7581709623336792,4.089046001434326,-3.1132893562316895
11.2,8.731678009033203,-1.049668550491333,3.696899890899658,1.64035964012146,2.6758739948272705,-3.489607095718384
11.225,8.558598518371582,-2.118652582168579,3.133598804473877,1.5633339881896973,2.2706551551818848,-3.50827956199646
11.25,8.443089485168457,-3.5977680683135986,3.132056951522827,1.9448392391204834,2.727957010269165,-3.142667055130005
11.275,9.091536521911621,-5.552300453186035,3.135197877883911,2.2798643112182617,2.9192216396331787,-2.9215071201324463
11.3,9.9546537399292,-6.795296669006348,1.8570752143859863,1.5697189569473267,2.332674264907837,-2.9720356464385986
11.325,10.404094696044922,-7.162809371948242,-0.07317858189344406,0.5490342378616333,1.8360204696655273,-2.7380995750427246
11.35,11.060026168823242,-7.8473100662231445,-1.3748700618743896,0.4141259491443634,1.8511241674423218,-2.2142672538757324
11.375,11.750264167785645,-9.391342163085938,-1.733859896659851,0.700329601764679,1.8844465017318726,-1.7157435417175293
11.4,11.251229286193848,-10.506865501403809,-1.619381308555603,0.4630994498729706,1.4594818353652954,-1.0309264659881592
11.425,9.49878978729248,-9.135777473449707,-2.0000898838043213,-0.1421588510274887,0.89593905210495,0.16556242108345032
11.45,7.184814929962158,-5.83025598526001,-2.944336175918579,-0.09039396047592163,0.9029362797737122,1.7598165273666382
11.475,4.872626304626465,-3.170820713043213,-3.4024622440338135,0.8019244074821472,1.294644832611084,3.100705862045288
11.5,3.7345924377441406,-2.442122459411621,-3.267709255218506,1.5270428657531738,1.488126516342163,3.67789626121521
11.525,3.8251683712005615,-2.8158445358276367,-3.495230197906494,1.373420238494873,1.0850685834884644,3.418952465057373
11.55,3.4571871757507324,-2.8043172359466553,-4.249081134796143,0.6834307312965393,0.23696330189704895,2.953183889389038
11.575,2.8429791927337646,-2.208751916885376,-5.250298500061035,0.6383760571479797,0.3071873188018799,2.9613101482391357
11.6,3.353883743286133,-1.5755919218063354,-5.962084770202637,1.5073633193969727,1.561808466911316,3.2604103088378906
11.625,5.129253387451172,-0.8437584042549133,-6.019579887390137,2.449267864227295,2.606546401977539,3.6345183849334717
11.65,7.706967353820801,1.2155085802078247,-5.856064796447754,2.902031660079956,2.433833360671997,3.9468209743499756
11.675,9.683027267456055,6.459136009216309,-5.656403064727783,2.8601107597351074,0.8509896397590637,4.027225017547607
11.7,8.458179473876953,14.210260391235352,-4.640774250030518,2.891690254211426,-1.5445407629013062,4.0024943351745605
11.725,3.1590640544891357,20.586122512817383,-2.577294111251831,3.4416325092315674,-3.018465995788574,4.504997730255127
11.75,-3.573166608810425,23.021047592163086,0.25590819120407104,4.079545021057129,-1.992698073387146,6.042351722717285
11.775,-10.195470809936523,22.128183364868164,3.2088992595672607,3.732048273086548,-0.5563609004020691,7.733224868774414
11.8,-15.916101455688477,17.265947341918945,5.255039691925049,3.152571439743042,-0.5550945401191711,8.147616386413574
11.825,-18.394384384155273,9.589377403259277,5.6244683265686035,2.7638018131256104,-0.8765823841094971,7.277780532836914
11.85,-17.165504455566406,2.528217315673828,4.763643741607666,2.219088554382324,-0.7180162072181702,6.104319095611572
11.875,-14.087443351745605,-2.370528221130371,3.460963010787964,1.64117431640625,-0.5036842823028564,5.06511116027832
11.9,-10.717309951782227,-5.567577838897705,2.111879348754883,1.1498059034347534,-0.4085179567337036,4.2225799560546875
11.925,-7.783164024353027,-7.458312034606934,0.991386353969574,0.5267007350921631,-0.37553027272224426,3.7137904167175293
11.95,-5.690999984741211,-8.238886833190918,0.18898345530033112,-0.13860487937927246,-0.5083510279655457,3.429117202758789
11.975,-4.680505752563477,-8.360162734985352,-0.3351012170314789,-0.4789765477180481,-0.7483147382736206,3.152547836303711
12.0,-4.669837474822998,-8.450608253479004,-0.7397193908691406,-0.44161421060562134,-0.9181310534477234,2.762233018875122
12.025,-5.107897758483887,-8.920284271240234,-1.0725290775299072,-0.30233651399612427,-0.8747309446334839,2.3798110485076904
12.05,-5.850696086883545,-9.551546096801758,-1.4408599138259888,-0.3829973340034485,-0.5935122966766357,2.103637218475342
12.075,-7.113831996917725,-9.992345809936523,-1.7942707538604736,-0.6975337862968445,-0.2985229790210724,1.8315317630767822
12.1,-8.992842674255371,-10.403023719787598,-1.6215577125549316,-1.07631254196167,0.07343576103448868,1.5946701765060425
12.125,-11.124199867248535,-11.402287483215332,-0.5382609963417053,-1.5407812595367432,0.8594118356704712,1.567581057548523
12.15,-13.353604316711426,-13.19651985168457,1.4551671743392944,-2.298959255218506,1.9773226976394653,2.1210999488830566
12.175,-16.73316764831543,-14.83927059173584,4.6619873046875,-3.389500617980957,2.9258575439453125,3.4206717014312744
12.2,-21.43307113647461,-15.262170791625977,10.937543869018555,-4.255352020263672,3.8540751934051514,4.6327619552612305
12.225,-24.43842124938965,-12.254608154296875,22.943220138549805,-4.609005451202393,5.963792324066162,4.6819257736206055
12.25,-19.249929428100586,-2.5603442192077637,39.11081314086914,-5.0536274909973145,10.070027351379395,2.592658281326294
12.275,-1.031637191772461,12.056925773620605,47.2767219543457,-6.799302101135254,14.425358772277832,-1.6434566974639893
12.3,19.67828369140625,21.600765228271484,34.795196533203125,-9.891290664672852,15.933463096618652,-4.155893802642822
12.325,24.305538177490234,20.687522888183594,11.838862419128418,-9.899847030639648,14.840091705322266,-1.5297163724899292
12.35,15.10893440246582,17.79633903503418,-0.5297919511795044,-4.403977394104004,13.071248054504395,1.3192225694656372
12.375,8.80693531036377,17.56901741027832,-0.5531703233718872,-0.9161244034767151,9.691377639770508,0.4807533919811249
12.4,8.88724136352539,15.553509712219238,0.39246585965156555,-2.2385568618774414,6.580357551574707,-0.6539047360420227
12.425,10.723957061767578,11.99904727935791,-0.8660519123077393,-2.909714698791504,5.2945237159729,-1.4097435474395752
12.45,11.562294960021973,9.63635540008545,-2.65214467048645,-2.3761990070343018,4.910019397735596,-1.9477986097335815
12.475,11.233059883117676,8.014426231384277,-4.838613986968994,-3.178537607192993,4.194628715515137,-1.6556806564331055
12.5,10.539382934570312,5.002386093139648,-7.418613433837891,-5.032021522521973,3.332913398742676,-1.0257415771484375
12.525,9.633946418762207,-0.06274858117103577,-9.137616157531738,-6.377891540527344,2.8355495929718018,-0.47666555643081665
12.55,8.026851654052734,-4.828878402709961,-9.223581314086914,-5.916585922241211,2.8860461711883545,-0.02141612023115158
12.575,5.644167900085449,-7.045609951019287,-8.958342552185059,-4.253389358520508,3.1572816371917725,0.05359988287091255
12.6,2.563620090484619,-7.421972274780273,-9.070680618286133,-3.1130571365356445,3.4179534912109375,0.21047595143318176
12.625,-0.29216861724853516,-7.461423397064209,-8.756714820861816,-2.7894299030303955,3.4442296028137207,0.5311452150344849
12.65,-1.9591591358184814,-7.5111470222473145,-7.751987457275391,-2.5554773807525635,3.1953978538513184,0.6491848826408386
12.675,-2.662391424179077,-6.915846824645996,-6.721202373504639,-2.0321691036224365,2.792656421661377,0.3478413224220276
12.7,-3.0674734115600586,-5.837101936340332,-5.936507701873779,-1.8046624660491943,2.440664768218994,0.19854030013084412
12.725,-3.5669634342193604,-5.257785320281982,-5.256843090057373,-2.086305618286133,2.276247978210449,0.4441928565502167
12.75,-4.030641078948975,-4.909167289733887,-4.415910243988037,-2.5189502239227295,2.028109073638916,0.6689677238464355
12.775,-4.546752452850342,-3.7223010063171387,-3.8343265056610107,-3.0886106491088867,1.5307371616363525,0.6986579895019531
12.8,-5.393468379974365,-2.499709367752075,-3.6039791107177734,-4.271364212036133,0.9183502793312073,0.8487126231193542
12.825,-5.1042375564575195,-3.008457660675049,-2.2423014640808105,-6.0242509841918945,0.08984941244125366,1.661017894744873
12.85,-2.7806355953216553,-3.9009499549865723,0.4993981122970581,-6.805933952331543,-1.074178695678711,2.447986602783203
12.875,-0.09076929092407227,-3.301820993423462,3.0703420639038086,-6.007994174957275,-1.996857762336731,2.6609137058258057
12.9,2.132089376449585,-1.7536274194717407,4.8021769523620605,-4.592922687530518,-1.9963024854660034,2.7650623321533203
12.925,4.316935062408447,-0.22246800363063812,5.515265941619873,-3.046553134918213,-1.3949711322784424,2.7507424354553223
12.95,5.916661262512207,0.9575475454330444,5.247302055358887,-1.6523215770721436,-0.525385856628418,2.2650959491729736
12.975,6.427737236022949,1.4517816305160522,3.9979407787323,-0.5076074600219727,0.46725231409072876,1.4807727336883545
13.0,6.0835957527160645,1.4182283878326416,2.3349149227142334,0.16656172275543213,1.314988136291504,0.8036092519760132
13.025,5.311527729034424,0.853919267654419,0.7535955309867859,0.5251781344413757,1.9695258140563965,0.3027573227882385
13.05,4.781618595123291,-0.5335680842399597,-0.4213732182979584,0.6835302114486694,2.5063955783843994,-0.15309207141399384
13.075,5.020623207092285,-1.81281578540802,-1.0575230121612549,0.8394639492034912,2.8222222328186035,-0.5815651416778564
13.1,5.879667282104492,-2.077274799346924,-1.3261139392852783,1.1236300468444824,3.1809849739074707,-0.9907531142234802
13.125,6.346985340118408,-2.1011757850646973,-1.793878436088562,1.4001061916351318,3.9477322101593018,-1.485745906829834
13.15,5.04747200012207,-2.590278148651123,-2.4560768604278564,1.4539577960968018,4.517724514007568,-2.1351318359375
13.175,2.5789897441864014,-3.6550209522247314,-2.8850765228271484,1.2001562118530273,4.549854755401611,-2.4137868881225586
13.2,0.6096532940864563,-4.675090789794922,-3.5588572025299072,1.1728605031967163,4.496304512023926,-2.0653576850891113
13.225,-0.5047430992126465,-4.8719482421875,-4.68446159362793,1.397369146347046,4.288567066192627,-1.394771695137024
13.25,-1.554973840713501,-4.212679862976074,-6.337160587310791,1.7203404903411865,4.045130252838135,-0.7831937074661255
13.275,-3.5821473598480225,-2.541058301925659,-7.269138336181641,1.9656944274902344,3.8456716537475586,-0.3646667003631592
13.3,-6.191411018371582,-0.7063211798667908,-6.6201300621032715,2.2206850051879883,3.7010550498962402,0.21918906271457672
13.325,-8.452998161315918,-0.08794842660427094,-5.433979034423828,2.5828495025634766,3.6559317111968994,0.6345748901367188
13.35,-10.073935508728027,-0.8427349328994751,-4.6697845458984375,2.946187973022461,3.5596628189086914,0.6736171245574951
13.375,-11.088957786560059,-2.0009255409240723,-3.8404767513275146,3.2707114219665527,3.3200771808624268,0.4497487246990204
13.4,-11.915597915649414,-2.9599251747131348,-1.988331913948059,3.728696823120117,3.234177827835083,0.11744336783885956
13.425,-13.075713157653809,-4.824990272521973,1.5510785579681396,4.404666900634766,3.5827269554138184,-0.4107966125011444
13.45,-15.465433120727539,-8.340702056884766,6.2894086837768555,5.550293445587158,4.324819564819336,-1.4188538789749146
13.475,-19.562374114990234,-11.016181945800781,10.526124954223633,7.483994960784912,4.980649948120117,-2.9874942302703857
13.5,-22.735380172729492,-10.537738800048828,13.228357315063477,9.230463027954102,3.9236955642700195,-4.282893180847168
13.525,-23.15789222717285,-7.57172966003418,13.069971084594727,9.330160140991211,0.3658326268196106,-5.252655982971191
13.55,-22.11754035949707,-1.955767035484314,10.101144790649414,7.826825141906738,-2.9203600883483887,-6.588469982147217
13.575,-19.502790451049805,5.4812445640563965,6.324890613555908,5.716329574584961,-4.131073951721191,-7.320038318634033
13.6,-15.459010124206543,12.177599906921387,3.4019620418548584,3.372159242630005,-3.8294193744659424,-7.217307090759277
13.625,-11.516302108764648,16.897050857543945,1.147184133529663,1.6292511224746704,-2.5771310329437256,-6.899577617645264
13.65,-7.8025970458984375,20.495119094848633,-0.1402452290058136,1.6720259189605713,-1.7179009914398193,-6.484458923339844
13.675,-2.8086509704589844,22.95271110534668,0.2328510880470276,2.667314291000366,-2.2647714614868164,-5.909666538238525
13.7,3.295935869216919,22.746782302856445,1.8768666982650757,3.0720179080963135,-3.294062614440918,-5.65811014175415
13.725,8.636453628540039,19.47395896911621,3.5444846153259277,2.5405638217926025,-3.662292003631592,-5.852587699890137
13.75,12.588981628417969,14.80762767791748,4.76986837387085,1.7195484638214111,-3.530146598815918,-5.962305545806885
13.775,15.163553237915039,8.9784574508667,5.3808441162109375,0.9412702322006226,-3.2616403102874756,-5.766172885894775
13.8,16.044973373413086,2.040269613265991,4.881012439727783,0.6403110027313232,-2.449054479598999,-5.334754943847656
13.825,15.920839309692383,-3.9782297611236572,3.4564497470855713,1.2454149723052979,-1.0591912269592285,-4.710270881652832
13.85,15.217191696166992,-7.3264923095703125,1.766721248626709,2.53596830368042,0.3530915081501007,-3.829136610031128
13.875,14.251703262329102,-8.887357711791992,0.18178468942642212,3.2755603790283203,0.7003373503684998,-3.0365233421325684
13.9,13.577800750732422,-11.125127792358398,-1.6025855541229248,2.5198402404785156,-0.04603414237499237,-2.9000229835510254
13.925,12.30429744720459,-13.764299392700195,-2.8383595943450928,1.461175799369812,-1.1832342147827148,-2.782862901687622
13.95,10.199790000915527,-14.717227935791016,-1.9336460828781128,0.9648919701576233,-2.931151866912842,-1.9498810768127441
13.975,8.202713966369629,-14.299971580505371,1.1783251762390137,0.6932635307312012,-4.806671619415283,-0.8014417886734009
14.0,5.986789703369141,-14.995965957641602,5.886082649230957,0.5548911690711975,-5.853931903839111,-0.06725981086492538
14.025,2.6419286727905273,-17.61760902404785,12.73905086517334,0.9407685995101929,-6.0646820068359375,0.5727441906929016
14.05,-1.116405963897705,-19.064329147338867,21.8765869140625,1.1077940464019775,-4.884777545928955,1.9032580852508545
14.075,-2.5128793716430664,-14.833442687988281,32.81129455566406,-0.8416708707809448,-1.9389562606811523,3.4026196002960205
14.1,1.2640371322631836,-3.7224457263946533,42.81947708129883,-4.647791862487793,1.9756035804748535,2.921670436859131
14.125,9.458844184875488,11.30128288269043,46.178733825683594,-7.851644515991211,4.380483627319336,1.3493492603302002
14.15,16.1151065826416,27.75589370727539,41.09935760498047,-8.31141471862793,5.022364139556885,2.934756278991699
14.175,19.84794044494629,43.58343505859375,27.175939559936523,-7.07857084274292,7.49256706237793,5.234015941619873
14.2,21.319965362548828,49.87687683105469,2.4805421829223633,-7.817349433898926,11.629011154174805,3.7855167388916016
14.225,15.574905395507812,39.594478607177734,-23.01538848876953,-9.546947479248047,14.562874794006348,0.8474343419075012
14.25,2.809558868408203,23.502168655395508,-32.60981369018555,-8.870970726013184,14.966346740722656,-1.7389589548110962
14.275,-7.110837936401367,14.703505516052246,-29.181415557861328,-7.331783771514893,11.821614265441895,-2.3750853538513184
14.3,-11.628257751464844,8.616915702819824,-24.53435707092285,-6.195367813110352,7.88086462020874,0.32265138626098633
14.325,-13.243236541748047,0.520976722240448,-19.99385643005371,-5.40920877456665,5.969027042388916,2.2541115283966064
14.35,-12.983088493347168,-5.5835795402526855,-14.662483215332031,-5.206975936889648,5.227027893066406,0.9904367327690125
14.375,-11.807872772216797,-7.604635715484619,-10.474857330322266,-5.1916069984436035,3.960000991821289,-0.7021104097366333
14.4,-10.463677406311035,-8.560201644897461,-8.03786849975586,-4.591314315795898,2.813549518585205,-0.07290833443403244
14.425,-9.600907325744629,-9.77271842956543,-6.131640911102295,-3.676767349243164,2.5671534538269043,1.3084003925323486
14.45,-9.784416198730469,-10.36688232421875,-4.457415580749512,-3.0957541465759277,2.6248114109039307,1.7191427946090698
14.475,-10.555465698242188,-11.023578643798828,-3.038593053817749,-3.0213990211486816,2.4957172870635986,1.645762324333191
14.5,-10.57296371459961,-12.547840118408203,-1.5438544750213623,-3.379223585128784,2.1726150512695312,1.6375988721847534
14.525,-9.618131637573242,-13.992708206176758,0.08597815036773682,-3.966370105743408,1.7328003644943237,1.3940671682357788
14.55,-8.115416526794434,-14.738041877746582,1.4901574850082397,-4.1117095947265625,1.3044646978378296,1.1695457696914673
14.575,-5.679323196411133,-14.614839553833008,2.9240500926971436,-3.814951181411743,1.2011390924453735,1.151025414466858
14.6,-2.6535871028900146,-13.31699275970459,4.508020401000977,-3.515261173248291,1.3190412521362305,1.2021079063415527
14.625,-0.9542316198348999,-11.611279487609863,7.119909763336182,-3.3976194858551025,1.443758487701416,1.1076573133468628
14.65,-0.439974308013916,-9.110613822937012,10.99487590789795,-3.5727224349975586,1.1611363887786865,0.5019374489784241
14.675,0.2114553451538086,-5.420194625854492,11.471077919006348,-3.132148504257202,-0.07444698363542557,0.14053964614868164
14.7,2.025651454925537,-2.253422737121582,6.815319538116455,-1.2866461277008057,-0.6857250928878784,0.9389696717262268
14.725,5.240985870361328,0.09441027045249939,2.1701316833496094,0.5789852738380432,0.3116767406463623,2.175295829772949
14.75,7.837574481964111,2.3746683597564697,-0.08076991885900497,1.3395462036132812,0.9465245604515076,2.596574068069458
14.775,8.246545791625977,4.62652587890625,-1.3906128406524658,1.4350509643554688,0.37333813309669495,1.6173913478851318
14.8,7.159453392028809,6.4432477951049805,-2.108579158782959,1.1492611169815063,-0.18267075717449188,0.2900460362434387
14.825,5.514715194702148,6.890542030334473,-2.2936465740203857,0.9522969722747803,-0.17281773686408997,-0.28624871373176575
14.85,3.8401103019714355,5.58211088180542,-2.1386101245880127,0.7945588827133179,0.17279672622680664,-0.25141605734825134
14.875,2.187925338745117,3.0245540142059326,-1.5770478248596191,0.4821642339229584,0.4411453306674957,-0.17240257561206818
14.9,0.38978153467178345,0.13220977783203125,-0.5674046277999878,0.15529200434684753,0.5372157692909241,-0.23729535937309265
14.925,-1.3364964723587036,-2.6589457988739014,1.0344908237457275,0.007271789014339447,0.677308976650238,-0.19706344604492188
14.95,-2.4133682250976562,-5.685323238372803,3.186354637145996,0.09313641488552094,0.873936116695404,0.1947353184223175
14.975,-2.1042401790618896,-9.370065689086914,5.021795272827148,0.595382571220398,0.9999389052391052,0.988908588886261
15.0,-0.2419114112854004,-13.218695640563965,5.521003246307373,1.4354065656661987,0.9739504456520081,1.806584358215332
15.025,1.8147332668304443,-16.23613929748535,4.576300621032715,2.4260122776031494,0.7229123711585999,1.9488821029663086
15.05,2.1683428287506104,-18.06053924560547,2.964380979537964,3.447638750076294,0.22388549149036407,0.9860527515411377
15.075,0.21956117451190948,-18.960866928100586,0.6348825693130493,4.553796768188477,-0.6454976797103882,-0.7413179278373718
15.1,-3.1276845932006836,-18.476280212402344,-2.997917413711548,5.762023448944092,-1.6797624826431274,-2.479013442993164
15.125,-6.8823981285095215,-15.529361724853516,-7.2736711502075195,6.944563388824463,-2.442028045654297,-3.91558837890625
15.15,-10.332921981811523,-10.45259952545166,-11.595459938049316,8.694499969482422,-2.7003397941589355,-4.677666664123535
15.175,-11.96999454498291,-4.103671550750732,-15.944454193115234,11.033853530883789,-2.976397752761841,-3.99704909324646
15.2,-10.199304580688477,3.641845464706421,-18.358388900756836,12.555298805236816,-3.8055708408355713,-2.506688356399536
15.225,-5.793023586273193,11.69759464263916,-15.647823333740234,12.496750831604004,-4.246730804443359,-1.7119266986846924
15.25,-1.87601637840271,17.083528518676758,-7.658658027648926,11.391339302062988,-3.059020757675171,-1.3019697666168213
15.275,-0.7481882572174072,18.0405216217041,2.0027284622192383,9.837297439575195,-1.3400710821151733,-0.4601859152317047
15.3,-2.0265612602233887,15.090187072753906,8.613654136657715,7.545626163482666,-0.74773108959198,0.37749770283699036
15.325,-4.221109390258789,11.540157318115234,9.955729484558105,4.453345775604248,-1.182879090309143,0.7392996549606323
15.35,-6.214695930480957,10.268903732299805,8.045472145080566,1.3630839586257935,-1.9167002439498901,0.6636277437210083
15.375,-7.573263645172119,10.358797073364258,5.96266508102417,-0.8883298635482788,-2.486050844192505,0.23017293214797974
15.4,-8.251081466674805,9.476791381835938,5.687206745147705,-1.7303242683410645,-2.8873634338378906,-0.5210162401199341
15.425,-7.535290241241455,7.978519439697266,6.960634708404541,-1.1132092475891113,-3.6808297634124756,-1.4777429103851318
15.45,-4.777576446533203,7.708252429962158,8.241720199584961,-0.07264947891235352,-4.8805341720581055,-2.6137585639953613
15.475,-1.4952585697174072,9.741518020629883,9.835291862487793,0.23374271392822266,-5.083905220031738,-3.6035802364349365
15.5,1.9099762439727783,12.657936096191406,11.362544059753418,-1.1408371925354004,-4.529199123382568,-4.316035270690918
15.525,6.492816925048828,12.28014087677002,11.422398567199707,-3.5543417930603027,-4.016298294067383,-5.289027214050293
15.55,9.50924015045166,8.941123008728027,10.399687767028809,-4.149798393249512,-2.2983238697052,-5.78122615814209
15.575,9.447196006774902,6.816365718841553,8.813901901245117,-3.1166160106658936,0.02640288881957531,-5.500061988830566
15.6,9.12690544128418,6.011631011962891,7.191460132598877,-2.9871468544006348,1.1149625778198242,-5.1449174880981445
15.625,9.79023265838623,3.5157971382141113,5.478996276855469,-4.398532867431641,1.3972809314727783,-4.772839546203613
15.65,9.357528686523438,-0.7365439534187317,3.6412272453308105,-5.543271541595459,1.9697473049163818,-4.421931266784668
15.675,6.285202503204346,-4.741749286651611,1.9894319772720337,-4.852396011352539,2.425961971282959,-4.391045570373535
15.7,1.4558825492858887,-8.328971862792969,0.8152618408203125,-3.0278420448303223,1.744944453239441,-3.6897072792053223
15.725,-2.0627243518829346,-10.521268844604492,-0.10238954424858093,-0.9799298644065857,0.02535664103925228,-0.5963175296783447
15.75,-1.261769413948059,-9.603650093078613,-0.7915065884590149,0.19281435012817383,-1.3994930982589722,4.697359085083008
15.775,1.1525895595550537,-7.792713642120361,-0.7461642026901245,-0.12990975379943848,-1.8085157871246338,7.442328929901123
15.8,0.7935663461685181,-7.518599033355713,-1.1649417877197266,1.8367648124694824,-1.707768440246582,4.491794586181641
15.825,-1.530289649963379,-6.383606433868408,-3.335157871246338,6.615900993347168,-1.345038652420044,0.9275736212730408
15.85,-1.9450883865356445,-1.9737540483474731,-3.9057207107543945,10.113758087158203,-2.3111724853515625,0.20648802816867828
15.875,-1.2196696996688843,2.4754035472869873,1.5522387027740479,10.152816772460938,-4.353471279144287,-0.16108964383602142
15.9,-1.0917609930038452,2.643152952194214,6.36907958984375,6.2572245597839355,-3.1585946083068848,-2.250811815261841
15.925,0.48245131969451904,2.218632698059082,5.492887020111084,1.5042181015014648,0.5407260060310364,-2.983304262161255
15.95,3.145195960998535,2.802920341491699,2.632857084274292,-2.600769519805908,3.058250665664673,-1.6550272703170776
15.975,5.422445297241211,2.335862159729004,-1.7332946062088013,-5.8456268310546875,6.055814266204834,-1.2654105424880981
16.0,5.3529767990112305,-0.2444056123495102,-7.306541442871094,-7.857248783111572,9.123161315917969,-2.988715648651123
16.025,-0.3737955093383789,-6.402243137359619,-8.961678504943848,-9.815916061401367,10.188678741455078,-6.088727951049805
16.05,-7.4033308029174805,-11.688579559326172,-0.09046818315982819,-11.866360664367676,7.579751491546631,-6.687763690948486
16.075,-6.480583190917969,-8.711793899536133,8.98898696899414,-9.237796783447266,2.8028061389923096,-2.670900344848633
16.1,-2.078616142272949,-2.72888445854187,9.922852516174316,-3.6079418659210205,-0.0465962216258049,0.9684032201766968
16.125,-1.1423606872558594,0.5307608842849731,9.333345413208008,-0.7014768719673157,-0.38089707493782043,2.0888497829437256
16.15,-0.34857726097106934,0.8398314714431763,8.057652473449707,1.6558690071105957,-0.7884936332702637,3.938021183013916
16.175,1.6322721242904663,0.2297336757183075,5.918656349182129,4.325963973999023,-1.0454933643341064,5.948411464691162
16.2,1.8058733940124512,-1.3244788646697998,2.1817305088043213,7.018392086029053,-1.5180665254592896,5.901242733001709
16.225,2.629059076309204,-1.0857857465744019,-4.277524948120117,10.437248229980469,-2.9230732917785645,5.946702003479004
16.25,2.941831111907959,4.0260186195373535,-5.162861347198486,11.914322853088379,-4.402678489685059,6.150557518005371
16.275,-0.5799956917762756,6.094204425811768,1.397096037864685,9.667688369750977,-4.76243782043457,4.540450572967529
16.3,-3.2577457427978516,4.150638103485107,4.999563694000244,5.754273414611816,-3.247284412384033,1.4418504238128662
16.325,-2.3327908515930176,1.9001301527023315,3.9197778701782227,2.569347620010376,-0.5595266819000244,-1.5402029752731323
16.35,-0.5228499174118042,0.0649423748254776,2.320486545562744,0.37783896923065186,1.1292957067489624,-2.5829787254333496
16.375,-0.12387940287590027,-0.016889560967683792,0.6718435883522034,-2.179412841796875,2.6759836673736572,-1.8755418062210083
16.4,0.13710546493530273,0.9670552015304565,-2.346069812774658,-5.280452728271484,4.183597564697266,-1.5053787231445312
16.425,1.4874093532562256,0.1120690107345581,-8.173337936401367,-9.056459426879883,5.225157260894775,-2.1101138591766357
16.45,2.0699808597564697,-7.873314380645752,-12.551678657531738,-13.537474632263184,6.419408798217773,-3.456475019454956
16.475,-0.6878824234008789,-17.185728073120117,-4.657617568969727,-15.760976791381836,6.2097907066345215,-5.737583160400391
16.5,-4.947005748748779,-12.313865661621094,8.008439064025879,-11.88329792022705,2.963623046875,-6.119672775268555
16.525,-4.39794921875,-1.4972866773605347,9.517321586608887,-4.069830894470215,-0.38485026359558105,-2.4027724266052246
16.55,-0.31310296058654785,3.0223913192749023,8.32675838470459,-0.5823354125022888,-0.7468947172164917,0.6247039437294006
16.575,1.8145925998687744,3.9383726119995117,9.918912887573242,0.9249339699745178,-0.15642359852790833,1.0783917903900146
16.6,1.364288330078125,3.430879592895508,9.986383438110352,4.357109069824219,-0.028319327160716057,1.281643271446228
16.625,0.6281533241271973,0.19129200279712677,7.478730201721191,7.82261848449707,-0.19494269788265228,2.040957450866699
16.65,2.237175941467285,-4.031716823577881,0.9777722358703613,10.920757293701172,-0.663371741771698,4.131791114807129
16.675,5.567197799682617,-2.2281651496887207,-6.782278537750244,12.921643257141113,-1.6406335830688477,7.189690589904785
16.7,6.620359420776367,6.271219730377197,-6.339677810668945,13.188323974609375,-3.7604916095733643,7.9871649742126465
16.725,3.5401580333709717,10.165828704833984,2.235419511795044,10.858614921569824,-4.153263092041016,4.342081546783447
16.75,1.1276371479034424,6.802525043487549,6.158576488494873,6.385913848876953,-1.5218982696533203,-1.0212286710739136
16.775,1.9958934783935547,2.969594955444336,3.6550557613372803,2.9218103885650635,1.218624234199524,-4.952911376953125
16.8,4.068507671356201,1.4302188158035278,1.634989857673645,1.4990222454071045,2.060412883758545,-6.133264064788818
16.825,5.671329975128174,1.805426836013794,0.732316255569458,-0.14614343643188477,3.0694637298583984,-5.656702518463135
16.85,5.522404670715332,2.2873897552490234,-3.436495542526245,-3.815260648727417,5.605906963348389,-4.551097393035889
16.875,2.3092727661132812,0.49152737855911255,-11.492260932922363,-9.06250286102295,8.15085506439209,-2.255679130554199
16.9,-3.740025043487549,-6.661539554595947,-16.862783432006836,-13.752522468566895,9.843738555908203,1.0299166440963745
16.925,-6.988672256469727,-16.03350257873535,-9.493304252624512,-15.828371047973633,9.991386413574219,4.237874984741211
16.95,-2.878305673599243,-15.156136512756348,2.768977403640747,-12.369152069091797,6.844971656799316,5.331931114196777
16.975,1.8186118602752686,-7.662572860717773,5.2393903732299805,-5.265392303466797,2.2763049602508545,4.853039741516113
17.0,4.519383907318115,-1.6779847145080566,3.365708351135254,-0.7982265949249268,0.8223299980163574,4.210195541381836
17.025,5.887535572052002,2.585667848587036,3.3547275066375732,0.8150875568389893,1.3295396566390991,3.0485801696777344
17.05,5.884366989135742,4.9271440505981445,4.298202991485596,2.2408785820007324,2.1038339138031006,1.402160406112671
17.075,4.602761745452881,4.640557289123535,5.423548221588135,3.7656843662261963,3.012566328048706,-0.5597819685935974
17.1,2.474898338317871,1.1996146440505981,5.406460285186768,5.835588455200195,3.8025174140930176,-2.141383647918701
17.125,-1.3323991298675537,-3.313446283340454,1.362410545349121,8.913217544555664,3.7857234477996826,-3.6788744926452637
17.15,-6.449141502380371,-3.0825045108795166,-6.31655216217041,12.406292915344238,2.9578874111175537,-5.166299819946289
17.175,-9.182524681091309,4.629497051239014,-9.978020668029785,14.519915580749512,2.1523258686065674,-6.150606155395508
17.2,-7.2125630378723145,12.09358024597168,-3.181718111038208,14.112520217895508,2.0721023082733154,-5.774585723876953
17.225,-3.3621864318847656,10.937393188476562,6.38014030456543,10.4846773147583,1.5232678651809692,-3.9546682834625244
17.25,-2.129206657409668,6.404310703277588,8.61000919342041,5.245944023132324,1.1268192529678345,-1.6013261079788208
17.275,-3.346737861633301,3.5250327587127686,5.624661445617676,1.399457573890686,1.196946144104004,0.4899909794330597
17.3,-4.829093933105469,0.9075534343719482,2.681914806365967,-0.5901089906692505,1.1276664733886719,1.901644229888916
17.325,-5.718066215515137,-1.5892449617385864,1.1129907369613647,-1.6355921030044556,0.6845825910568237,3.3521640300750732
17.35,-5.901429653167725,-2.8622641563415527,0.25064390897750854,-2.650251865386963,0.24512675404548645,4.672451972961426
17.375,-6.337464332580566,-2.7847211360931396,-1.1706169843673706,-4.463824272155762,0.0021439280826598406,5.801914215087891
17.4,-8.709912300109863,-2.7020699977874756,-3.680518865585327,-7.063183784484863,-0.19356068968772888,7.394846439361572
17.425,-11.389379501342773,-5.754410743713379,-7.245445251464844,-9.265786170959473,-1.0690909624099731,10.155367851257324
17.45,-7.516158103942871,-12.562076568603516,-7.606602191925049,-10.365543365478516,-2.043424367904663,12.393584251403809
17.475,1.4667010307312012,-13.693495750427246,-0.511419415473938,-9.26591682434082,-2.351208209991455,10.033228874206543
17.5,4.459303855895996,-7.389022350311279,4.9984235763549805,-5.108443737030029,-1.5932866334915161,4.2493672370910645
17.525,3.513502359390259,-1.6062817573547363,4.785740375518799,-1.3945392370224,-0.7761867046356201,1.340775728225708
17.55,3.9309561252593994,2.476652145385742,3.427072286605835,0.6811618804931641,-0.2694132924079895,0.994250476360321
17.575,5.2084808349609375,5.778128623962402,3.144695997238159,1.9882323741912842,0.42536672949790955,0.21665099263191223
17.6,6.171816349029541,7.313412666320801,3.812312126159668,2.8748972415924072,1.1715816259384155,-0.9839611649513245
17.625,5.775119781494141,6.224003791809082,3.3373501300811768,3.9558582305908203,2.0953726768493652,-2.435629367828369
17.65,2.2931416034698486,3.945986747741699,0.5322372913360596,5.040020942687988,3.0273067951202393,-4.8145952224731445
17.675,-3.182246685028076,3.816206455230713,-2.9252936840057373,6.037628650665283,4.0955915451049805,-7.295269966125488
17.7,-6.900479316711426,7.186555862426758,-4.262507438659668,6.71628475189209,4.568764686584473,-8.582195281982422
17.725,-7.131027698516846,11.673578262329102,-2.0738871097564697,5.674895286560059,4.6480937004089355,-8.82157039642334
17.75,-4.116364002227783,13.786741256713867,1.2443753480911255,3.642604351043701,4.57493257522583,-7.401721954345703
17.775,-0.8451194167137146,11.887161254882812,2.294489860534668,1.3277686834335327,3.3955299854278564,-4.686657428741455
17.8,-0.7458422780036926,8.636899948120117,1.4970340728759766,-0.782346785068512,2.398423194885254,-2.077796220779419
17.825,-2.9467175006866455,6.188432216644287,0.5427035093307495,-1.1834685802459717,1.8533846139907837,0.11542556434869766
17.85,-5.1999640464782715,3.797276020050049,0.31538331508636475,-0.06326991319656372,1.4579076766967773,1.9179707765579224
17.875,-6.4555253982543945,1.21220064163208,1.0904971361160278,1.0175094604492188,1.441461443901062,2.9018917083740234
17.9,-6.532695293426514,-0.9304192066192627,2.287400484085083,1.028225064277649,1.485121726989746,3.016683578491211
17.925,-5.943053245544434,-1.9460397958755493,3.1651833057403564,0.07459700107574463,1.2852697372436523,2.6292881965637207
17.95,-5.3104424476623535,-2.203500270843506,2.9947242736816406,-0.9546322822570801,0.7211986184120178,2.3422412872314453
17.975,-4.732954978942871,-2.6382570266723633,1.9871959686279297,-1.4473241567611694,0.13843484222888947,2.290020227432251
18.0,-4.075018882751465,-3.542665481567383,1.252134084701538,-1.4609959125518799,-0.12917377054691315,2.300577402114868
18.025,-3.287470817565918,-4.653613090515137,1.1070584058761597,-1.1748610734939575,-0.1692599058151245,2.349428176879883
18.05,-2.3605949878692627,-5.271708011627197,1.1165125370025635,-0.9699349999427795,-0.18294773995876312,2.2187752723693848
18.075,-1.4166984558105469,-5.334640026092529,1.3011282682418823,-1.0589979887008667,-0.27239152789115906,1.9304916858673096
18.1,-0.5457478165626526,-5.569819450378418,1.6480424404144287,-1.1318587064743042,-0.4398212432861328,1.7870404720306396
18.125,0.25489944219589233,-5.9873881340026855,1.8212956190109253,-1.1302231550216675,-0.6624853014945984,1.6999093294143677
18.15,1.0922447443008423,-6.156332492828369,1.7297810316085815,-1.1308000087738037,-0.889708399772644,1.4842116832733154
18.175,1.8792669773101807,-6.190127849578857,1.60860013961792,-1.3246638774871826,-1.2934304475784302,1.284857988357544
18.2,1.5133697986602783,-5.6341423988342285,1.8425325155258179,-1.8091208934783936,-1.9698374271392822,1.0945905447006226
18.225,-0.6204839944839478,-4.455766201019287,1.9524770975112915,-1.78482985496521,-2.2576661109924316,1.242891550064087
18.25,-3.7555999755859375,-4.0187883377075195,1.3079471588134766,-1.0650172233581543,-1.7663288116455078,2.2779438495635986
18.275,-6.964127063751221,-6.263642311096191,-0.07718001306056976,-0.6002602577209473,-0.7624940872192383,4.402194976806641
18.3,-8.084473609924316,-12.32876205444336,-2.2613799571990967,-0.8098561763763428,0.624718964099884,7.800481796264648
18.325,-5.090537071228027,-20.166322708129883,-5.155416011810303,-2.3857855796813965,1.889840006828308,11.32584285736084
18.35,2.3790194988250732,-27.11539649963379,-6.816438674926758,-6.200629711151123,0.9269313216209412,13.772383689880371
18.375,14.569307327270508,-26.384763717651367,-1.5609859228134155,-9.992748260498047,-3.4714572429656982,15.216995239257812
18.4,20.19572639465332,-11.550118446350098,7.538961887359619,-9.463924407958984,-7.643528938293457,14.567726135253906
18.425,13.94256591796875,-1.0344027280807495,8.713142395019531,-4.473587989807129,-6.327015399932861,8.159409523010254
18.45,6.851456642150879,-1.1818755865097046,6.125336647033691,-0.05369758605957031,-4.782071590423584,1.8483664989471436
18.475,3.9576656818389893,-2.2518138885498047,4.722393989562988,1.3600013256072998,-3.3175859451293945,0.15555711090564728
18.5,3.5896599292755127,-3.070629119873047,3.174832582473755,2.3972673416137695,-1.7083336114883423,-0.7748685479164124
18.525,1.5599560737609863,-3.9097416400909424,-0.10612959414720535,3.769355297088623,-1.122981071472168,-2.3610916137695312
18.55,-2.6104049682617188,-2.4532408714294434,-3.4067513942718506,4.4332075119018555,-0.6865760087966919,-3.686014413833618
18.575,-6.533754825592041,0.6473526358604431,-5.646176338195801,4.9307379722595215,-0.35726484656333923,-4.303651332855225
18.6,-7.5217814445495605,3.1230080127716064,-7.3246917724609375,5.701469421386719,0.0539465956389904,-3.9023971557617188
18.625,-6.960078239440918,5.199560165405273,-7.89333963394165,5.804265022277832,0.17348703742027283,-3.9982047080993652
18.65,-5.971780776977539,7.479625701904297,-6.863452434539795,5.466683387756348,0.26696187257766724,-4.172884941101074
18.675,-3.8992998600006104,8.187177658081055,-5.584194660186768,5.606917381286621,0.25527867674827576,-3.2944164276123047
18.7,-2.4609389305114746,7.639308929443359,-4.746893405914307,5.555536270141602,0.2453751415014267,-2.936596393585205
18.725,-1.7625118494033813,7.422874927520752,-4.36627721786499,5.353973865509033,0.3135131299495697,-2.958320140838623
18.75,-1.3562196493148804,7.785768985748291,-3.8680033683776855,5.253304958343506,0.23947784304618835,-2.7368078231811523
18.775,-1.9524372816085815,8.624876022338867,-1.8947898149490356,5.083230495452881,0.44523733854293823,-2.505993366241455
18.8,-1.343169093132019,9.397809982299805,0.45545005798339844,5.433474540710449,-0.0635274350643158,-1.6404637098312378
18.825,1.1764875650405884,8.698907852172852,2.4297444820404053,5.499427795410156,-1.200195550918579,-0.5753464102745056
18.85,1.8219109773635864,6.124072551727295,4.902446746826172,4.583938121795654,-0.9855781197547913,-0.1905415654182434
18.875,0.2679769992828369,3.4012813568115234,6.330475807189941,3.8293356895446777,-0.48446720838546753,-0.2800092399120331
18.9,0.8467015027999878,2.5164785385131836,5.067833423614502,3.9510257244110107,-1.4211252927780151,-0.20992901921272278
18.925,5.19135856628418,3.0069916248321533,3.4192068576812744,3.979588031768799,-2.8648452758789062,-0.0737660601735115
18.95,9.978618621826172,3.067230701446533,3.9786176681518555,3.3051676750183105,-2.6129064559936523,-0.21995791792869568
18.975,12.438364028930664,3.5320706367492676,5.828421115875244,2.6536710262298584,-0.9731766581535339,-0.6717979311943054
19.0,13.53273868560791,6.048524379730225,7.1497602462768555,2.6805615425109863,0.4785831570625305,-1.2725480794906616
19.025,14.461956024169922,7.978015422821045,6.60849142074585,2.5484917163848877,1.5212910175323486,-0.7656058669090271
19.05,12.871538162231445,8.210946083068848,3.750084638595581,2.705793857574463,3.3218369483947754,0.08385149389505386
19.075,7.438944339752197,8.723907470703125,0.9686385989189148,3.568343162536621,5.546286106109619,-0.31308290362358093
19.1,1.2228481769561768,11.017087936401367,1.1685518026351929,4.369410991668701,6.861672878265381,-2.136979103088379
19.125,-1.7092490196228027,13.015487670898438,2.817359447479248,4.207025051116943,6.119184970855713,-3.026089668273926
19.15,-2.332475185394287,13.404716491699219,2.6786978244781494,3.5309109687805176,4.253983497619629,-2.754441261291504
19.175,-3.0374135971069336,12.745637893676758,1.9985480308532715,2.650132179260254,3.290814161300659,-2.159968614578247
19.2,-4.295177459716797,11.183464050292969,1.1603926420211792,1.2879314422607422,2.4217991828918457,-0.9396010637283325
19.225,-5.948531627655029,8.740896224975586,-0.9363099932670593,-0.29388928413391113,1.2086273431777954,0.7678386569023132
19.25,-7.350233554840088,5.8222198486328125,-3.434032917022705,-1.1697547435760498,0.44324615597724915,2.2027010917663574
19.275,-8.180821418762207,2.8810007572174072,-4.8925371170043945,-1.3988879919052124,0.3051786422729492,2.9846808910369873
19.3,-8.411697387695312,-0.022213561460375786,-5.180542945861816,-1.615203619003296,0.35958021879196167,3.346950054168701
19.325,-8.084097862243652,-2.5355350971221924,-4.762646675109863,-1.9385570287704468,0.3959735631942749,3.4036498069763184
19.35,-7.435617923736572,-4.345335960388184,-3.949254274368286,-2.088062047958374,0.4351711869239807,3.2240068912506104
19.375,-6.371993541717529,-5.543190002441406,-3.265565872192383,-2.108510971069336,0.36829039454460144,2.974806070327759
19.4,-5.031843662261963,-6.085906028747559,-2.767364978790283,-2.2663307189941406,0.22575072944164276,2.632148504257202
19.425,-3.789229154586792,-6.023164749145508,-2.1403048038482666,-2.5537633895874023,0.07095500081777573,2.210651159286499
19.45,-2.5968897342681885,-5.9135260581970215,-1.915532112121582,-2.6486973762512207,-0.17143520712852478,1.9638713598251343
19.475,-1.5920790433883667,-5.790387153625488,-1.9046505689620972,-2.738764762878418,-0.3788960874080658,1.7761757373809814
19.5,-0.9339752793312073,-5.4070353507995605,-1.6112027168273926,-2.528653144836426,-0.36212486028671265,1.6068570613861084
19.525,-0.351635217666626,-5.459369659423828,-1.1574122905731201,-1.9334592819213867,-0.15768472850322723,1.7914679050445557
19.55,0.2851558327674866,-5.890590190887451,-0.5280426740646362,-1.6813874244689941,-0.06084530055522919,1.8789077997207642
19.575,0.9640820026397705,-5.87048864364624,0.2263992726802826,-1.767716646194458,-0.1627461165189743,1.5058434009552002
19.6,1.7069393396377563,-5.691030025482178,0.865776777267456,-1.675034761428833,-0.21961693465709686,1.2612056732177734
19.625,2.223210573196411,-5.531692028045654,1.484230637550354,-1.3985052108764648,-0.11067764461040497,1.204397201538086
19.65,2.285515308380127,-5.057092666625977,2.1271111965179443,-1.2506828308105469,-0.10582772642374039,1.0362120866775513
19.675,2.1170241832733154,-4.230432033538818,2.4814114570617676,-1.2212711572647095,-0.31448209285736084,0.7611232995986938
19.7,1.9370774030685425,-3.4659805297851562,2.433039903640747,-1.1238831281661987,-0.47607484459877014,0.6015515923500061
19.725,1.8064717054367065,-3.047886371612549,2.1811161041259766,-0.8685165643692017,-0.42216232419013977,0.611790657043457
19.75,1.6960443258285522,-2.734142780303955,1.9057435989379883,-0.6533740162849426,-0.34008368849754333,0.5702825784683228
19.775,1.686936855316162,-2.2998528480529785,1.5991498231887817,-0.5328798294067383,-0.354589581489563,0.450295627117157
19.8,1.7901605367660522,-1.7882258892059326,1.220673680305481,-0.41536909341812134,-0.3664255142211914,0.3395119607448578
19.825,1.7211973667144775,-1.3959548473358154,0.9874327778816223,-0.33818721771240234,-0.3178764283657074,0.2460772544145584
19.85,1.4171955585479736,-1.1941173076629639,1.0936485528945923,-0.2690543830394745,-0.1824762523174286,0.17513836920261383
19.875,1.1901365518569946,-1.0288760662078857,1.3230897188186646,-0.12424597144126892,-0.022366957738995552,0.1371004730463028
19.9,1.105473279953003,-0.7906444668769836,1.3837034702301025,-0.01591026782989502,0.011653131805360317,0.08073381334543228
19.925,1.1142241954803467,-0.6568191647529602,1.3529961109161377,-0.011316695250570774,-0.07360617071390152,0.045531515032052994
