Time [s],Acc_x [m/s^2],Acc_y [m/s^2],Acc_z [m/s^2],Gyro_x [1/s],Gyro_y [1/s],Gyro_z [1/s]
0.0,-0.0014721739571541548,0.01585960201919079,-0.011217652820050716,0.017203178256750107,-0.014575248584151268,0.0004423683858476579
0.025,-0.011709015816450119,0.026996610686182976,-0.000693947309628129,0.01856500655412674,-0.0159691721200943,0.0010642134584486485
0.05,-0.038696516305208206,0.03905295953154564,0.0221271850168705,0.02021244913339615,-0.016072558239102364,0.0022930274717509747
0.075,-0.05404293164610863,0.03566073998808861,0.047787174582481384,0.018038488924503326,-0.012977996841073036,0.0010687614558264613
0.1,-0.02246786467730999,0.010548590682446957,0.05759946256875992,0.01178958173841238,-0.004035697318613529,-0.0031530088745057583
0.125,-0.02025999128818512,0.00717735243961215,0.05105362832546234,0.009606581181287766,0.0018283493118360639,-0.0031179909128695726
0.15,-0.04159679636359215,0.02163219079375267,0.04124734178185463,0.014336226508021355,-0.001605762168765068,-0.001032281550578773
0.175,-0.039525747299194336,0.03650378808379173,0.026184899732470512,0.01949966698884964,-0.004433670546859503,-0.0010267512407153845
0.2,-0.04366232827305794,0.04641341418027878,0.019411202520132065,0.01992282085120678,-0.0033874153159558773,-0.004372329451143742
0.225,-0.05021987482905388,0.02305888757109642,0.02742021344602108,0.01573190465569496,0.0027068182826042175,-0.003233367810025811
0.25,-0.041183777153491974,0.030979152768850327,0.026648377999663353,0.014825105667114258,0.003170324256643653,-0.0015004111919552088
0.275,-0.029426051303744316,0.0501556359231472,0.004496580921113491,0.021891165524721146,-0.0005688174278475344,0.0024515632539987564
0.3,-0.025215283036231995,0.06120586022734642,0.021300094202160835,0.02914460003376007,-0.0015437169931828976,0.005142570473253727
0.325,-0.02420084923505783,0.039237018674612045,0.05657179281115532,0.030062034726142883,-0.0009733930346556008,0.004156788345426321
0.35,-0.02198612317442894,0.006984710227698088,0.049623485654592514,0.027766156941652298,0.00020648888312280178,0.005286352708935738
0.375,-0.02434377372264862,-0.010511398315429688,0.029066573828458786,0.02662823535501957,0.001911379978992045,0.006427360232919455
0.4,-0.005924493074417114,0.0041723246686160564,0.00941569171845913,0.032084446400403976,0.006358534563332796,0.006894521880894899
0.425,-0.0011725672520697117,0.036844249814748764,0.006437181960791349,0.035150762647390366,0.010578281246125698,0.00633761053904891
0.45,0.0038580726832151413,0.05295562371611595,0.018801860511302948,0.03389374539256096,0.01084317546337843,0.007503368891775608
0.475,0.006098367273807526,0.04343223199248314,0.014575914479792118,0.03153086081147194,0.01442741509526968,0.006525191944092512
0.5,0.0027922296430915594,0.023668287321925163,0.008052689954638481,0.029187820851802826,0.01958806812763214,0.003743874141946435
0.525,-0.009864632040262222,-0.0025253298226743937,-0.001011831103824079,0.027292713522911072,0.0224173441529274,0.001562556833960116
0.55,-0.01612362265586853,0.018261907622218132,0.002477939473465085,0.02761751227080822,0.024413498118519783,0.006953914649784565
0.575,-0.0225774385035038,0.04824637994170189,0.02458195574581623,0.024040579795837402,0.0244457945227623,0.004032014403492212
0.6,-0.029756002128124237,0.04889011010527611,0.03020622581243515,0.02038481831550598,0.027008002623915672,9.854582458501682e-05
0.625,-0.01010544877499342,0.03972720727324486,-0.016551002860069275,0.023020001128315926,0.025694437325000763,0.0042829858139157295
0.65,-0.0050199273973703384,0.019258495420217514,-0.03396972641348839,0.021460898220539093,0.0257550235837698,0.005852447357028723
0.675,-0.028614845126867294,0.014991757459938526,-0.0010877428576350212,0.016149425879120827,0.029754221439361572,0.005164803005754948
0.7,-0.02647569589316845,0.024385448545217514,-0.00638128537684679,0.0077005792409181595,0.030511563643813133,-0.003329866100102663
0.725,-0.022624656558036804,0.03664970025420189,-0.025589672848582268,0.006173464935272932,0.025065088644623756,-0.006083629559725523
0.75,-0.010196174494922161,0.03907870873808861,-0.04356276988983154,0.005369778722524643,0.02676188014447689,-0.003474458819255233
0.775,0.009514853358268738,0.016696926206350327,-0.07061153650283813,0.008356095291674137,0.026462847366929054,0.0011896712239831686
0.8,0.03603919595479965,0.03406619280576706,-0.17774201929569244,0.01812632568180561,0.022496763616800308,0.007522351108491421
0.825,0.09471744298934937,0.11410234868526459,-0.48509255051612854,0.043845999985933304,0.02080111764371395,0.027255279943346977
0.85,0.1038336306810379,0.04779050871729851,-0.9045212268829346,0.10597671568393707,0.10547038167715073,0.10653018951416016
0.875,-0.030824512243270874,-0.40488624572753906,-1.1852461099624634,0.09936483949422836,0.2718500792980194,0.1379486471414566
0.9,-0.19765478372573853,-0.7965049743652344,-1.1492085456848145,0.222419872879982,0.24214380979537964,0.1426181048154831
0.925,-0.35734108090400696,-0.894749641418457,-0.8912356495857239,0.41392070055007935,0.08717573434114456,0.15919707715511322
0.95,-0.40151214599609375,-0.9013223648071289,-0.6917877793312073,0.48611924052238464,0.06870006769895554,0.1368703842163086
0.975,-0.2875322699546814,-1.0683344602584839,-0.5984959006309509,0.3818751871585846,0.16251137852668762,0.05630769953131676
1.0,-0.07685249298810959,-1.1705960035324097,-0.37708544731140137,0.36841869354248047,0.20928338170051575,0.03965892270207405
1.025,0.17086270451545715,-0.9557914137840271,-0.1295110434293747,0.47353264689445496,0.24372915923595428,0.04207096993923187
1.05,0.3868751525878906,-0.46667760610580444,-0.10521019995212555,0.5806970596313477,0.2766927480697632,-0.017722414806485176
1.075,0.4081282913684845,0.015067116357386112,-0.2549189031124115,0.6450700163841248,0.300600528717041,-0.10208010673522949
1.1,0.2508440315723419,0.1296987384557724,-0.4273662567138672,0.6419309377670288,0.31583476066589355,-0.16457116603851318
1.125,-0.025484159588813782,-0.12194538861513138,-0.42866140604019165,0.6756661534309387,0.3027883768081665,-0.12357346713542938
1.15,-0.26109573245048523,-0.33353137969970703,-0.3125564157962799,0.7710050344467163,0.2718985378742218,-0.03403572738170624
1.175,-0.35798558592796326,-0.2984638214111328,-0.08705702424049377,0.8555160760879517,0.2369639128446579,0.012989060021936893
1.2,-0.33321982622146606,-0.03658867999911308,0.15678279101848602,0.8322635889053345,0.24998518824577332,-0.05128444731235504
1.225,-0.18520015478134155,0.26308056712150574,0.20020076632499695,0.6755706071853638,0.36271795630455017,-0.18958769738674164
1.25,0.050717808306217194,0.31116387248039246,0.06315760314464569,0.5991891622543335,0.4333295226097107,-0.27713140845298767
1.275,0.26052772998809814,0.051528941839933395,-0.05260547623038292,0.7209029197692871,0.31220799684524536,-0.26566413044929504
1.3,0.3639180064201355,-0.34842580556869507,0.0666116327047348,1.0437103509902954,-0.012954061850905418,-0.172568678855896
1.325,0.3700452446937561,-0.6516827940940857,0.3032562732696533,1.3232921361923218,-0.3270037770271301,-0.09935048967599869
1.35,0.24727830290794373,-0.7448109984397888,0.4418797492980957,1.454780101776123,-0.5142354965209961,-0.060120195150375366
1.375,0.07641038298606873,-0.5756730437278748,0.4673711955547333,1.5839160680770874,-0.6690657138824463,-0.011386175639927387
1.4,0.0049216002225875854,-0.2388286292552948,0.43166860938072205,1.8535873889923096,-0.869511067867279,0.08893107622861862
1.425,0.06950900703668594,0.07991219311952591,0.3486870229244232,2.1080517768859863,-1.068280816078186,0.19215548038482666
1.45,0.1012469232082367,0.19643688201904297,0.3564121127128601,2.4626593589782715,-1.295776605606079,0.33471664786338806
1.475,0.04154519736766815,0.19271087646484375,0.5527490377426147,2.8456244468688965,-1.5929101705551147,0.45406416058540344
1.5,-0.007227420806884766,0.16344165802001953,0.6748843789100647,3.277374744415283,-1.9615802764892578,0.5604780912399292
1.525,0.17077171802520752,0.17351055145263672,0.5495761632919312,3.749098777770996,-2.2897839546203613,0.7069821953773499
1.55,0.45094558596611023,0.24655917286872864,0.5602689385414124,4.481141090393066,-2.695345401763916,1.031800627708435
1.575,0.6104623079299927,0.2461395561695099,0.7581691741943359,4.788975715637207,-2.9634268283843994,1.1900863647460938
1.6,0.3801054358482361,0.19649222493171692,1.1754080057144165,4.527443885803223,-2.814696788787842,1.0164450407028198
1.625,0.1782020628452301,0.07221129536628723,1.2013295888900757,3.495413064956665,-2.054588556289673,0.7065191864967346
1.65,-0.0476115345954895,0.08649445325136185,0.8642503023147583,2.5678110122680664,-1.3891278505325317,0.4395942986011505
1.675,-0.18426215648651123,0.21140383183956146,0.571145236492157,2.137345552444458,-1.026645541191101,0.3098386526107788
1.7,-0.2559758126735687,0.28222939372062683,0.4021283984184265,1.8424617052078247,-0.7732567191123962,0.21573136746883392
1.725,-0.2858247756958008,0.25829407572746277,0.2668522596359253,1.5532021522521973,-0.5919495820999146,0.18234294652938843
1.75,-0.305807888507843,0.5835580229759216,0.02790963090956211,1.279537320137024,-0.43782302737236023,0.15420454740524292
1.775,-0.2903680205345154,0.8179158568382263,-0.2836792469024658,1.0627954006195068,-0.3523397147655487,0.174342080950737
1.8,-0.45097512006759644,-0.14567182958126068,0.8412401080131531,1.0081301927566528,-0.2640239894390106,0.17053119838237762
1.825,-0.944168746471405,-0.635830819606781,2.0188074111938477,1.0510722398757935,-0.23219294846057892,0.2486129254102707
1.85,-0.6543081402778625,-0.1175374984741211,1.1643375158309937,1.0158531665802002,-0.1778280884027481,0.3701874315738678
1.875,-0.5892114639282227,-0.11104393750429153,0.6476663947105408,0.8598632216453552,-0.059200529009103775,0.2471277415752411
1.9,-0.9364480972290039,-0.30530452728271484,0.7407608032226562,0.7224007844924927,0.05468931049108505,0.13278521597385406
1.925,-0.7288227081298828,0.048387493938207626,0.4112946391105652,0.698255181312561,0.09829051047563553,0.13966159522533417
1.95,-0.3373255133628845,0.07687566429376602,0.22190998494625092,0.5895939469337463,0.11868765950202942,0.05369127541780472
1.975,-0.15632954239845276,0.0574025996029377,-0.010894380509853363,0.6091763973236084,0.12176397442817688,0.1108851507306099
2.0,-0.10912077128887177,0.10173891484737396,-0.19013245403766632,0.44378259778022766,0.2279883176088333,0.10834772139787674
2.025,-0.07958299666643143,0.06824968755245209,-0.17431853711605072,0.3194452226161957,0.3085775375366211,0.058397095650434494
2.05,-0.0451284795999527,0.006740563549101353,-0.14616301655769348,0.21641725301742554,0.3620211184024811,0.0989629328250885
2.075,-0.09869518876075745,-0.08017635345458984,-0.06299079954624176,0.13902975618839264,0.3555033802986145,0.1559240221977234
2.1,-0.19251611828804016,-0.11653900146484375,0.07466324418783188,0.04792596772313118,0.3636132776737213,0.18963949382305145
2.125,-0.25503140687942505,-0.022837648168206215,0.1495930254459381,-0.009724617004394531,0.35671165585517883,0.21076227724552155
2.15,-0.1792755424976349,0.10710810124874115,0.13299736380577087,-0.03791287541389465,0.36506667733192444,0.16871114075183868
2.175,-0.037581928074359894,0.1426839679479599,0.06721057742834091,-0.07395852357149124,0.33095046877861023,0.13640956580638885
2.2,0.06588904559612274,0.12989138066768646,-0.04679504781961441,-0.07615707814693451,0.27477607131004333,0.08309705555438995
2.225,0.07924295216798782,0.13897036015987396,-0.18492941558361053,-0.09294974058866501,0.27618739008903503,5.936552042840049e-06
2.25,-0.0037837624549865723,0.20966146886348724,-0.29661890864372253,-0.06749962270259857,0.2903909385204315,-0.07544125616550446
2.275,-0.11577944457530975,0.31997010111808777,-0.3223678171634674,-0.02349218726158142,0.28490546345710754,-0.10765210539102554
2.3,-0.2017911970615387,0.3437957167625427,-0.29215332865715027,0.008154185488820076,0.24343033134937286,-0.08668764680624008
2.325,-0.17214122414588928,0.3152303397655487,-0.19956785440444946,0.0219111405313015,0.18251891434192657,-0.04471353441476822
2.35,-0.10865708440542221,0.2426118552684784,-0.07083314657211304,0.02260569855570793,0.1008208617568016,0.009539104998111725
2.375,-0.0793248638510704,0.1827535480260849,0.026854917407035828,0.020892975851893425,0.01308264210820198,0.08127179741859436
2.4,-0.10831411927938461,0.20630358159542084,0.08508384227752686,0.045651622116565704,-0.07655536383390427,0.14916227757930756
2.425,-0.18555140495300293,0.23989960551261902,0.11107166111469269,0.07123855501413345,-0.15004503726959229,0.19627545773983002
2.45,-0.21072733402252197,0.3441009223461151,0.16185487806797028,0.06778110563755035,-0.19857653975486755,0.2344261258840561
2.475,-0.17033527791500092,0.5363597273826599,0.24297988414764404,0.06669821590185165,-0.2502496838569641,0.25956884026527405
2.5,-0.11309245228767395,0.7111615538597107,0.27500689029693604,0.07251827418804169,-0.29308852553367615,0.24894453585147858
2.525,-0.0885324776172638,0.7675151228904724,0.23815825581550598,0.09742999076843262,-0.3023330867290497,0.18567028641700745
2.55,-0.08124031126499176,0.7428693175315857,0.23219813406467438,0.09937529265880585,-0.2961639165878296,0.11211006343364716
2.575,-0.09908391535282135,0.5781516432762146,0.3276708424091339,0.08789411932229996,-0.286320298910141,0.02968546934425831
2.6,-0.11901416629552841,0.3259687125682831,0.4195949137210846,0.06703285872936249,-0.27631044387817383,-0.06444922834634781
2.625,-0.07965616881847382,0.22142694890499115,0.3563674986362457,-0.06922237575054169,-0.23442357778549194,-0.15957774221897125
2.65,-0.02308070659637451,0.2882051169872284,0.249300017952919,-0.3184863328933716,-0.22215411067008972,-0.37590187788009644
2.675,0.19759321212768555,0.4581861197948456,-0.05901757627725601,-0.6809585690498352,-0.17431703209877014,-0.5727342963218689
2.7,0.07853780686855316,0.49693962931632996,-0.2917821407318115,-1.1882846355438232,-0.06445522606372833,-0.682373583316803
2.725,-1.03023099899292,0.35403528809547424,0.23437361419200897,-1.6752550601959229,0.005433211103081703,-0.7550871968269348
2.75,-1.0618349313735962,0.3478497564792633,0.21251706779003143,-1.9775538444519043,0.24192874133586884,-0.6071872711181641
2.775,-0.44514161348342896,0.36863893270492554,0.38228070735931396,-2.1485836505889893,0.24178604781627655,-0.3425721824169159
2.8,-0.1759459376335144,0.45397087931632996,0.04249345883727074,-2.2739100456237793,0.18794038891792297,-0.15380318462848663
2.825,-0.3139458894729614,-0.09330463409423828,0.3509458601474762,-2.2126121520996094,0.2520148456096649,-0.1181572824716568
2.85,-0.33808577060699463,-0.7963446974754333,1.052013874053955,-1.992072582244873,0.3021267354488373,-0.24011458456516266
2.875,-0.18537354469299316,-1.0236481428146362,1.4199848175048828,-1.9608449935913086,0.40895023941993713,-0.3486240804195404
2.9,-0.05014100670814514,-0.8584489226341248,1.385329246520996,-2.308534860610962,0.7252582907676697,-0.6012796759605408
2.925,-0.10902076959609985,-0.34140294790267944,0.9375243186950684,-3.1188132762908936,1.2622934579849243,-0.9134126305580139
2.95,-0.13833177089691162,0.2890271842479706,0.33767974376678467,-4.068402290344238,1.992482304573059,-1.2891480922698975
2.975,0.22725555300712585,0.39535900950431824,-0.18550963699817657,-4.540283679962158,2.4348948001861572,-1.659061312675476
3.0,0.5352327823638916,0.15668964385986328,-0.5570745468139648,-4.472455978393555,2.342785120010376,-1.650424838066101
3.025,0.5795552134513855,-0.19754883646965027,-0.730389416217804,-3.9449462890625,1.894694209098816,-1.3585615158081055
3.05,0.4983210563659668,-0.4048480689525604,-0.856145977973938,-3.260033130645752,1.3900165557861328,-1.0157092809677124
3.075,0.4775035083293915,-0.44318482279777527,-1.0057820081710815,-2.684959888458252,0.9960126280784607,-0.772687554359436
3.1,0.498873233795166,-0.45615097880363464,-1.0520869493484497,-2.2185003757476807,0.6483727097511292,-0.5921269059181213
3.125,0.5508582592010498,-0.514741837978363,-1.073036789894104,-1.8607510328292847,0.37629327178001404,-0.45590007305145264
3.15,0.5869457721710205,-0.5404004454612732,-1.1024255752563477,-1.5906987190246582,0.2033306509256363,-0.3167243003845215
3.175,0.5952835083007812,-0.47865578532218933,-1.20193612575531,-1.395409345626831,0.12322884798049927,-0.21957626938819885
3.2,0.5204620361328125,-0.41863057017326355,-1.2528616189956665,-1.2273192405700684,0.055257126688957214,-0.1695338785648346
3.225,0.44640231132507324,-0.35533425211906433,-1.2433245182037354,-1.088602900505066,-0.003180834697559476,-0.13566872477531433
3.25,0.5345251560211182,-0.3633985221385956,-1.3671457767486572,-1.0287041664123535,-0.002323984634131193,-0.12092483043670654
3.275,0.6176052093505859,-0.4740123450756073,-1.5005801916122437,-0.9390890598297119,-0.038333941251039505,-0.08473747968673706
3.3,0.4898450970649719,-0.6095332503318787,-1.4520832300186157,-0.8477033376693726,-0.06177814304828644,-0.0437958799302578
3.325,0.22974339127540588,-0.6598691344261169,-1.3528387546539307,-0.7772095203399658,-0.058816637843847275,-0.014961358159780502
3.35,-0.007000535726547241,-0.625727653503418,-1.366047978401184,-0.7495830655097961,-0.053325675427913666,-0.002094235736876726
3.375,-0.15070348978042603,-0.6090784072875977,-1.3475043773651123,-0.7174079418182373,-0.058194346725940704,-0.02017265185713768
3.4,-0.25324344635009766,-0.6225824356079102,-1.243557333946228,-0.6456730365753174,-0.049690425395965576,0.006936374120414257
3.425,-0.2363528311252594,-0.5541601181030273,-1.136783480644226,-0.5708162784576416,0.0024417925160378218,0.025377631187438965
3.45,-0.12009850144386292,-0.32598018646240234,-0.9573718309402466,-0.43615639209747314,0.02834252081811428,0.05170263350009918
3.475,0.07747159898281097,-0.02724839374423027,-0.7484365701675415,-0.2579207420349121,0.016313405707478523,0.13138270378112793
3.5,0.4054826498031616,0.12341499328613281,-0.619239330291748,-0.20385611057281494,0.027928492054343224,0.13633230328559875
3.525,0.6811153292655945,0.05643751472234726,-0.5393356084823608,-0.15411198139190674,0.04026767238974571,0.09553423523902893
3.55,0.7590963244438171,-0.0966462716460228,-0.47178828716278076,-0.13992884755134583,0.11594454199075699,-0.03435008227825165
3.575,0.7055894136428833,-0.4586438536643982,-0.5200113654136658,-0.2053247094154358,0.2438092827796936,-0.1947154551744461
3.6,0.4772542119026184,-0.7308492064476013,-0.5636681914329529,-0.21157920360565186,0.32563862204551697,-0.2149573415517807
3.625,0.2102370709180832,-0.5723809599876404,-0.4045271575450897,-0.1335005760192871,0.3813683092594147,-0.1320836842060089
3.65,0.19516344368457794,-0.35150620341300964,-0.2609679698944092,-0.1811952292919159,0.486019104719162,-0.15342631936073303
3.675,0.3137663006782532,-0.16066548228263855,-0.11262297630310059,-0.168630450963974,0.5741960406303406,-0.16643363237380981
3.7,0.42202407121658325,-0.02632138505578041,0.06522431969642639,-0.18773601949214935,0.6593179106712341,-0.2062569409608841
3.725,0.4907057285308838,0.04662993177771568,0.15976205468177795,-0.22506530582904816,0.7531703114509583,-0.22005543112754822
3.75,0.3968134820461273,0.07280924171209335,0.22971263527870178,-0.23729100823402405,0.8249951004981995,-0.20702539384365082
3.775,0.224366694688797,-0.05778501182794571,0.2812967896461487,-0.21347585320472717,0.8375497460365295,-0.19291779398918152
3.8,0.07372996211051941,-0.20099446177482605,0.2543835937976837,-0.1542958915233612,0.8090323209762573,-0.18473529815673828
3.825,0.004054553806781769,-0.17854879796504974,0.19114315509796143,-0.0903729647397995,0.7515155076980591,-0.2062646895647049
3.85,-0.05664072930812836,-0.0084152203053236,0.15481004118919373,-0.06693411618471146,0.7930728197097778,-0.2326916754245758
3.875,-0.13779707252979279,0.20497702062129974,0.209645077586174,-0.0527239590883255,0.9290701746940613,-0.26415228843688965
3.9,-0.14189299941062927,0.27539727091789246,0.26045939326286316,-0.0796353667974472,1.005677580833435,-0.3242003321647644
3.925,-0.03867505490779877,0.14673517644405365,0.13630253076553345,-0.08172090351581573,0.9063227772712708,-0.3638114631175995
3.95,0.028086332604289055,-0.08847426623106003,-0.06278355419635773,-0.07962648570537567,0.7530352473258972,-0.36842358112335205
3.975,-0.034210510551929474,-0.2291412204504013,-0.22971254587173462,-0.06631331890821457,0.6963761448860168,-0.3508029580116272
4.0,-0.15288397669792175,-0.2486286163330078,-0.3902261257171631,-0.05905532091856003,0.7072383761405945,-0.33681389689445496
4.025,-0.22276276350021362,-0.1551685482263565,-0.5605295896530151,-0.04812992364168167,0.6550391912460327,-0.33417609333992004
4.05,-0.22261545062065125,-0.08286383002996445,-0.6289997696876526,-0.05515597015619278,0.5271825790405273,-0.34801873564720154
4.075,-0.3063240051269531,-0.08569719642400742,-0.5817731618881226,-0.047455690801143646,0.3712638318538666,-0.33536866307258606
4.1,-0.41641750931739807,-0.10799124836921692,-0.5545986890792847,-0.05225975811481476,0.27823787927627563,-0.3047406077384949
4.125,-0.38754117488861084,-0.03832915425300598,-0.6004902124404907,-0.06722406297922134,0.22542965412139893,-0.25996169447898865
4.15,-0.22989186644554138,0.08289047330617905,-0.5844228267669678,-0.06773357838392258,0.171576127409935,-0.2126328945159912
4.175,-0.049819037318229675,0.19053742289543152,-0.5304162502288818,-0.08683792501688004,0.10349366813898087,-0.17858374118804932
4.2,0.13192559778690338,0.15009592473506927,-0.4646672308444977,-0.12381334602832794,0.049092017114162445,-0.16216596961021423
4.225,0.30803173780441284,0.03219986334443092,-0.3685947358608246,-0.10922930389642715,0.000488548947032541,-0.16283971071243286
4.25,0.43213343620300293,0.0002880263200495392,-0.3017352819442749,-0.08722617477178574,-0.047532569617033005,-0.18650464713573456
4.275,0.5003859996795654,0.016450902447104454,-0.214287668466568,-0.0658235251903534,-0.07011553645133972,-0.218702033162117
4.3,0.4939829409122467,0.06177236884832382,-0.12218347191810608,-0.05087226629257202,-0.06407833099365234,-0.24681024253368378
4.325,0.43191492557525635,0.0691232830286026,-0.08672981709241867,-0.04230606555938721,-0.06643392890691757,-0.25378432869911194
4.35,0.36915212869644165,0.007072465028613806,-0.1433984935283661,-0.03206838667392731,-0.08654549717903137,-0.2389352023601532
4.375,0.2878722548484802,-0.14006516337394714,-0.2042631357908249,-0.01802019774913788,-0.07381778210401535,-0.20929476618766785
4.4,0.23589175939559937,-0.2139711230993271,-0.2851978540420532,0.013184107840061188,-0.057959623634815216,-0.18754473328590393
4.425,0.20914293825626373,-0.07578372210264206,-0.36754482984542847,0.03994416072964668,-0.06775929778814316,-0.18563158810138702
4.45,0.1950288861989975,0.10833071917295456,-0.3742152750492096,0.05096583440899849,-0.08672104775905609,-0.1887422651052475
4.475,0.21495334804058075,0.12096977233886719,-0.29159992933273315,0.03625369444489479,-0.08971049636602402,-0.18242838978767395
4.5,0.2636510133743286,0.028954513370990753,-0.19841882586479187,0.04829063639044762,-0.1063835546374321,-0.1555033028125763
4.525,0.3044016361236572,-0.02674482949078083,-0.20081844925880432,0.07021911442279816,-0.12757131457328796,-0.1228877529501915
4.55,0.34031379222869873,-0.05121992155909538,-0.22459028661251068,0.07286334037780762,-0.1299757957458496,-0.10817746073007584
4.575,0.3850100338459015,-0.037951450794935226,-0.18863460421562195,0.07857468724250793,-0.11460784077644348,-0.11332099884748459
4.6,0.4396502673625946,0.022742290049791336,-0.1689421385526657,0.10437612235546112,-0.09120366722345352,-0.10472797602415085
4.625,0.5744681358337402,0.09748174995183945,-0.2256409376859665,0.13157494366168976,-0.07636374235153198,-0.06393780559301376
4.65,0.8017416000366211,0.11806872487068176,-0.2587084472179413,0.1577874720096588,-0.06495480984449387,0.010030008852481842
4.675,0.9368606805801392,-0.019474932923913002,-0.12081339955329895,0.14304059743881226,0.028359904885292053,0.08825065195560455
4.7,0.9335744380950928,-0.2811554968357086,0.09984906017780304,0.13087262213230133,0.15416614711284637,0.15024828910827637
4.725,0.8838074207305908,-0.5226477384567261,0.21290789544582367,0.1699167788028717,0.20992368459701538,0.20359791815280914
4.75,0.8783705234527588,-0.6461848020553589,0.2153708040714264,0.2862136662006378,0.1757882833480835,0.2582191824913025
4.775,0.9463033676147461,-0.6108435392379761,0.16269001364707947,0.4103582501411438,0.12378355115652084,0.28557088971138
4.8,1.0252524614334106,-0.4123639166355133,0.12826064229011536,0.4921744763851166,0.13250862061977386,0.28124386072158813
4.825,1.055108666419983,-0.20577137172222137,0.0591433160007,0.5101494789123535,0.18671464920043945,0.2666228413581848
4.85,0.9897469282150269,-0.07047170400619507,-0.12657234072685242,0.5156636238098145,0.19329169392585754,0.29633939266204834
4.875,0.7466273307800293,-0.007079090923070908,-0.33572307229042053,0.4795907139778137,0.11926555633544922,0.3561505675315857
4.9,0.33538299798965454,-0.09257887303829193,-0.5353899598121643,0.3587532639503479,-0.00449843006208539,0.39189618825912476
4.925,-0.12697380781173706,-0.3249626159667969,-0.754537045955658,0.24108542501926422,-0.15208029747009277,0.43941396474838257
4.95,-0.6028156280517578,-0.45189669728279114,-1.0070987939834595,0.1523934155702591,-0.2699977159500122,0.5142828226089478
4.975,-1.0031818151474,-0.28461939096450806,-1.3171682357788086,0.09790433943271637,-0.35056501626968384,0.5488796234130859
5.0,-1.1544970273971558,-0.16412076354026794,-1.5603406429290771,0.0636105090379715,-0.4646824598312378,0.5006681680679321
5.025,-1.0352540016174316,-0.4191809296607971,-1.3805395364761353,0.0474117249250412,-0.722899854183197,0.44307518005371094
5.05,-0.9481297135353088,-0.699925422668457,-0.5648533701896667,0.07533867657184601,-0.9942805171012878,0.46326297521591187
5.075,-1.113152027130127,-0.3299255669116974,0.6404479742050171,0.0033408254384994507,-1.0236523151397705,0.5107560753822327
5.1,-1.4554641246795654,1.0202902555465698,1.6244367361068726,-0.47591251134872437,-0.6087539196014404,0.44130775332450867
5.125,-1.6977620124816895,2.5460851192474365,1.8317447900772095,-1.5201365947723389,0.07671967148780823,0.0356866680085659
5.15,-1.4957385063171387,2.759505033493042,1.4022495746612549,-2.27004075050354,0.2984069287776947,-0.44504493474960327
5.175,-1.0048006772994995,1.9156702756881714,0.8918179273605347,-1.903900384902954,-0.17860731482505798,-0.5496983528137207
5.2,-0.6851992011070251,1.0093382596969604,0.6401523947715759,-0.7902923226356506,-0.9188697934150696,-0.35853129625320435
5.225,-0.7276468276977539,0.3403167128562927,0.8658051490783691,0.26226329803466797,-1.529684066772461,-0.08953150361776352
5.25,-0.8729259967803955,-0.060724273324012756,1.2985584735870361,0.816336989402771,-1.836440920829773,-0.018551716580986977
5.275,-1.0406032800674438,-0.22848893702030182,1.458878517150879,0.9141956567764282,-1.796249270439148,-0.12467105686664581
5.3,-1.2174444198608398,-0.26810264587402344,1.3975425958633423,0.7572445273399353,-1.595621943473816,-0.3261430561542511
5.325,-1.310286521911621,-0.26534557342529297,1.3287193775177002,0.48751652240753174,-1.2854163646697998,-0.5037617087364197
5.35,-1.3275319337844849,-0.33490756154060364,1.0872278213500977,0.1672954112291336,-0.8988797068595886,-0.5591071844100952
5.375,-1.2257513999938965,-0.5693769454956055,0.6827623248100281,-0.08092258870601654,-0.5903809666633606,-0.5849778056144714
5.4,-1.129406452178955,-0.8206577301025391,0.43446364998817444,-0.1346665620803833,-0.42249977588653564,-0.540966272354126
5.425,-1.2009844779968262,-0.8417177200317383,0.40648460388183594,-0.03452420234680176,-0.3878655731678009,-0.37279781699180603
5.45,-1.298520803451538,-0.6691808700561523,0.3246796131134033,0.03013153374195099,-0.4136015772819519,-0.2456144243478775
5.475,-1.2765698432922363,-0.537318229675293,0.12284111976623535,0.009471531957387924,-0.505194902420044,-0.19506698846817017
5.5,-1.2204420566558838,-0.5744571685791016,-0.16524717211723328,0.006517106667160988,-0.655096709728241,-0.08148359507322311
5.525,-1.2385801076889038,-0.7040719985961914,-0.5739847421646118,0.0708007961511612,-0.8279798030853271,0.109515480697155
5.55,-1.4000308513641357,-0.7106190323829651,-0.8706563711166382,0.2153032124042511,-1.0500701665878296,0.346630334854126
5.575,-1.652094841003418,-0.44915303587913513,-0.932959794998169,0.3705185055732727,-1.1993812322616577,0.5581297874450684
5.6,-1.847022294998169,-0.04652893543243408,-0.9727165699005127,0.4801933169364929,-1.2204258441925049,0.6819074749946594
5.625,-1.863204836845398,0.20675453543663025,-1.1085562705993652,0.48992252349853516,-1.1872426271438599,0.7074015736579895
5.65,-1.692872405052185,0.061047427356243134,-1.2905094623565674,0.3865530788898468,-1.1801427602767944,0.6436803340911865
5.675,-1.3560905456542969,-0.4604731500148773,-1.4765880107879639,0.2414068579673767,-1.243949294090271,0.5732854008674622
5.7,-0.7973551154136658,-0.8823118209838867,-1.648155689239502,0.13935548067092896,-1.3123050928115845,0.5658259987831116
5.725,-0.23752045631408691,-0.7065515518188477,-1.6304477453231812,0.14887186884880066,-1.3738820552825928,0.636934757232666
5.75,0.03041502833366394,8.294066356029361e-05,-1.3209248781204224,0.24035495519638062,-1.4023455381393433,0.6994920372962952
5.775,0.06422117352485657,0.7128190398216248,-0.9168286323547363,0.33830776810646057,-1.3650416135787964,0.6657265424728394
5.8,0.07488758862018585,0.9657754302024841,-0.5661396384239197,0.3792703151702881,-1.2977120876312256,0.5599951148033142
5.825,0.26770246028900146,0.7547921538352966,-0.24672164022922516,0.27304545044898987,-1.1850701570510864,0.4335400462150574
5.85,0.5742501616477966,0.4521656036376953,0.10155203193426132,0.0514988973736763,-1.0034184455871582,0.36785998940467834
5.875,0.7887125015258789,0.32255271077156067,0.5758394002914429,-0.13270065188407898,-0.762523353099823,0.34254369139671326
5.9,0.9732908010482788,0.3273068070411682,1.1555893421173096,-0.1801670789718628,-0.5364000797271729,0.2968619763851166
5.925,1.1899356842041016,0.3658629059791565,1.651404619216919,-0.08012640476226807,-0.4342193603515625,0.31154078245162964
5.95,1.3809847831726074,0.3779383599758148,1.8855137825012207,0.03266291320323944,-0.48610714077949524,0.38429829478263855
5.975,1.5056637525558472,0.23800192773342133,1.7725646495819092,0.05760994553565979,-0.6248180270195007,0.453981876373291
6.0,1.4747810363769531,0.006687278393656015,1.4450480937957764,0.08739624917507172,-0.7934179902076721,0.5694308280944824
6.025,1.1266586780548096,-0.06881799548864365,1.2083394527435303,0.16195181012153625,-0.8981391787528992,0.7412902116775513
6.05,0.5750504732131958,0.06330781430006027,1.2324585914611816,0.16886991262435913,-0.8226746916770935,0.826740026473999
6.075,0.23788776993751526,0.24478057026863098,1.4307575225830078,0.024394258856773376,-0.6312238574028015,0.6866857409477234
6.1,0.19098597764968872,0.21045783162117004,1.5507416725158691,-0.21625658869743347,-0.47925081849098206,0.3692135512828827
6.125,0.22952869534492493,-0.032385777682065964,1.4452725648880005,-0.3692747950553894,-0.42402732372283936,0.10133666545152664
6.15,0.34115684032440186,-0.1957816481590271,1.1726523637771606,-0.3268405795097351,-0.41791918873786926,-0.00819381047040224
6.175,0.45564472675323486,-0.26967039704322815,0.8505911827087402,-0.16133230924606323,-0.4234621822834015,-0.011972577311098576
6.2,0.38393622636795044,-0.33563894033432007,0.6376658082008362,0.017356375232338905,-0.44625940918922424,0.04670458659529686
6.225,0.24292300641536713,-0.30138295888900757,0.5157300233840942,0.11811132729053497,-0.4489537179470062,0.0808749720454216
6.25,0.24415117502212524,-0.17168518900871277,0.2830929756164551,0.134398952126503,-0.4025976359844208,0.05658544972538948
6.275,0.37155771255493164,-0.06912610679864883,-0.0947306752204895,0.15696057677268982,-0.3711085915565491,0.0215352363884449
6.3,0.5579644441604614,-0.03418443351984024,-0.5603285431861877,0.23869208991527557,-0.4256454110145569,0.10754626989364624
6.325,0.8537888526916504,-0.05390259996056557,-1.0588783025741577,0.38548675179481506,-0.5363513231277466,0.3135344386100769
6.35,1.1712743043899536,-0.10329528898000717,-1.411734938621521,0.5808311700820923,-0.6426862478256226,0.474825918674469
6.375,1.3253185749053955,-0.1269330382347107,-1.4447154998779297,0.7233110666275024,-0.7082338333129883,0.548567533493042
6.4,1.2297569513320923,-0.10313792526721954,-1.1650620698928833,0.685684323310852,-0.6593125462532043,0.5497604608535767
6.425,0.8965587615966797,-0.07155796140432358,-0.6984367370605469,0.48371249437332153,-0.5041584968566895,0.4251384735107422
6.45,0.5149012207984924,-0.07085224986076355,-0.1992550939321518,0.23394256830215454,-0.35015207529067993,0.22011570632457733
6.475,0.184503436088562,-0.038432106375694275,0.09990140050649643,0.032131850719451904,-0.28891658782958984,0.08126881718635559
6.5,-0.046704381704330444,0.10963534563779831,0.12468566000461578,-0.10192500054836273,-0.2787010371685028,-0.013726620003581047
6.525,-0.1789170652627945,0.28717896342277527,0.09772003442049026,-0.15592853724956512,-0.2931523323059082,-0.09475520253181458
6.55,-0.29456889629364014,0.3583535850048065,0.309770792722702,-0.08307604491710663,-0.38338232040405273,-0.07507230341434479
6.575,-0.43467333912849426,0.284516304731369,0.7040631771087646,0.03322773426771164,-0.4808225929737091,0.01998467557132244
6.6,-0.5047736167907715,0.11440657079219818,1.0136996507644653,0.04543550685048103,-0.4587317109107971,0.018842788413167
6.625,-0.4877825379371643,-0.016168592497706413,1.1920437812805176,-0.027564218267798424,-0.34315502643585205,-0.05334564670920372
6.65,-0.5146431922912598,-0.0004243827424943447,1.3162602186203003,-0.08673926442861557,-0.2240442931652069,-0.06773649156093597
6.675,-0.5805773735046387,0.17026327550411224,1.355212688446045,-0.08557508140802383,-0.11543436348438263,0.004618092905730009
6.7,-0.5512275099754333,0.34038540720939636,1.1983625888824463,-0.06106382608413696,0.011869742535054684,0.08102267235517502
6.725,-0.39449551701545715,0.29993531107902527,0.7945757508277893,-0.050660669803619385,0.1250048726797104,0.08202917128801346
6.75,-0.19591183960437775,0.0954580157995224,0.23832322657108307,-0.0717511922121048,0.19973722100257874,0.03902958706021309
6.775,0.039239898324012756,-0.0727853775024414,-0.3084179162979126,-0.10160716623067856,0.2760258913040161,-0.010837491601705551
6.8,0.34028786420822144,-0.1394166797399521,-0.6797481775283813,-0.0733262300491333,0.34747329354286194,-0.05392887443304062
6.825,0.5862233638763428,-0.18726441264152527,-0.7660585045814514,0.01632821373641491,0.3666357100009918,-0.04436204954981804
6.85,0.6818763017654419,-0.2299947291612625,-0.6426783204078674,0.09616704285144806,0.36606985330581665,-0.015828296542167664
6.875,0.5514878034591675,-0.25847333669662476,-0.5752577781677246,0.1546327769756317,0.3734584152698517,-0.053313855081796646
6.9,0.1466209441423416,-0.15841960906982422,-0.6698527932167053,0.1624058485031128,0.38627031445503235,-0.12088515609502792
6.925,-0.3667564392089844,0.19080252945423126,-0.7250712513923645,0.05507231503725052,0.45240268111228943,-0.18867774307727814
6.95,-0.6985777616500854,0.5010737180709839,-0.5832872986793518,-0.12233281135559082,0.5852837562561035,-0.3602694869041443
6.975,-0.721161425113678,0.43150416016578674,-0.26349857449531555,-0.24149669706821442,0.6612967848777771,-0.5940125584602356
7.0,-0.6197287440299988,0.09243675321340561,0.19325944781303406,-0.21777257323265076,0.5895424485206604,-0.7103145718574524
7.025,-0.6037896871566772,-0.09791184216737747,0.8097569942474365,-0.10107479989528656,0.4375881850719452,-0.6786824464797974
7.05,-0.5805752277374268,0.01919555850327015,1.4992434978485107,-0.022516340017318726,0.35040080547332764,-0.6118645071983337
7.075,-0.4352952241897583,0.2392273098230362,2.0408501625061035,-0.04906490445137024,0.3887507915496826,-0.5561548471450806
7.1,-0.1400507092475891,0.3400411903858185,2.339611530303955,-0.1283034086227417,0.520772397518158,-0.5279378890991211
7.125,0.2483416199684143,0.28710177540779114,2.4911859035491943,-0.16988441348075867,0.6467132568359375,-0.5112102031707764
7.15,0.7486558556556702,0.21498116850852966,2.523500442504883,-0.18492598831653595,0.7518388628959656,-0.5131176114082336
7.175,1.382997751235962,0.1677180528640747,2.3713173866271973,-0.216515451669693,0.8921681046485901,-0.5584242343902588
7.2,1.921020746231079,0.016418607905507088,2.0153121948242188,-0.251139760017395,1.0683743953704834,-0.6214654445648193
7.225,1.9789271354675293,-0.21283991634845734,1.4597113132476807,-0.23841199278831482,1.2546969652175903,-0.5853255987167358
7.25,1.6228169202804565,-0.30436596274375916,0.7071722745895386,-0.21309718489646912,1.5170148611068726,-0.5246337652206421
7.275,1.3451783657073975,-0.25047388672828674,-0.11035124957561493,-0.21136987209320068,1.7844449281692505,-0.5886234045028687
7.3,1.3180488348007202,-0.152796670794487,-0.7442362308502197,-0.20682626962661743,1.8301520347595215,-0.6313488483428955
7.325,1.5794014930725098,0.008536400273442268,-1.0601532459259033,-0.16789036989212036,1.6601791381835938,-0.5224745273590088
7.35,1.7476143836975098,0.3128195106983185,-1.190990686416626,-0.045503146946430206,1.4806327819824219,-0.21691370010375977
7.375,1.2670143842697144,0.7058506011962891,-1.3289145231246948,0.19126245379447937,1.4162179231643677,0.09907866269350052
7.4,0.35896891355514526,0.9187325835227966,-1.4787709712982178,0.4289756417274475,1.4448903799057007,0.2196228802204132
7.425,-0.4829746186733246,0.7351330518722534,-1.4954220056533813,0.5899226665496826,1.4494200944900513,0.15973207354545593
7.45,-1.2472270727157593,0.2881811857223511,-1.2312452793121338,0.7287470698356628,1.3060435056686401,0.07585981488227844
7.475,-2.0697553157806396,0.05970464646816254,-0.7423445582389832,0.8927111029624939,1.1364519596099854,0.03301846235990524
7.5,-2.6882967948913574,0.27215081453323364,-0.2898921072483063,0.8443518280982971,1.2124212980270386,-0.1894502192735672
7.525,-2.7499189376831055,0.563615620136261,0.08516272157430649,0.5169474482536316,1.598020076751709,-0.5385720729827881
7.55,-2.3059120178222656,0.51958829164505,0.7638782858848572,0.24587208032608032,2.106935977935791,-0.7473729252815247
7.575,-1.3406097888946533,0.25769513845443726,1.6842031478881836,0.22239303588867188,2.4825737476348877,-0.8635744452476501
7.6,0.1806880235671997,-0.2001437395811081,2.2692387104034424,0.4425712823867798,2.4837634563446045,-0.9348400235176086
7.625,1.3015936613082886,-0.9930885434150696,2.012606143951416,0.6374490261077881,2.258820056915283,-0.8953111171722412
7.65,1.2751994132995605,-1.8235423564910889,0.9380422830581665,0.6196891665458679,2.072169542312622,-0.8049676418304443
7.675,0.46773773431777954,-2.271268129348755,-0.219988152384758,0.5739116668701172,1.9788463115692139,-0.711821973323822
7.7,-0.592853307723999,-2.049150228500366,-0.9970382452011108,0.7180220484733582,2.0069730281829834,-0.6064555644989014
7.725,-1.5739778280258179,-1.1729726791381836,-1.4165626764297485,1.02669095993042,2.0157692432403564,-0.48925861716270447
7.75,-2.209242105484009,-0.33659660816192627,-1.4812647104263306,1.0464329719543457,2.095743417739868,-0.500356137752533
7.775,-2.384990692138672,-0.04053417593240738,-1.282312035560608,0.816265344619751,2.2063968181610107,-0.44370007514953613
7.8,-2.0462918281555176,-0.15357601642608643,-1.2382285594940186,0.5429695248603821,2.269304037094116,-0.29563507437705994
7.825,-1.4543757438659668,-0.2527085244655609,-1.5130237340927124,0.3611193299293518,2.1799967288970947,-0.18462473154067993
7.85,-0.9665517807006836,-0.19689662754535675,-1.6959925889968872,0.3509831428527832,1.8575464487075806,-0.24903541803359985
7.875,-0.6232799291610718,0.09654895216226578,-1.6077712774276733,0.39305442571640015,1.5154991149902344,-0.36569276452064514
7.9,-0.4932687282562256,0.45735254883766174,-1.1708359718322754,0.3796464204788208,1.2623554468154907,-0.4720439314842224
7.925,-0.546802818775177,0.6639164686203003,-0.5426169037818909,0.30344468355178833,1.1039085388183594,-0.4945901334285736
7.95,-0.5425466299057007,0.7599772214889526,-0.1510338932275772,0.17523159086704254,1.0174298286437988,-0.3857416808605194
7.975,-0.3387250006198883,0.783958375453949,-0.19320107996463776,0.07127843797206879,0.9677926898002625,-0.23364907503128052
8.0,-0.0333867147564888,0.6115655303001404,-0.3317526578903198,0.06743647903203964,0.9154014587402344,-0.12018176168203354
8.025,0.0780581682920456,0.23903749883174896,-0.3841608166694641,0.036502204835414886,0.9415296912193298,-0.03776120766997337
8.05,-0.03330804407596588,-0.10534954071044922,-0.3786003589630127,0.02913745306432247,0.9056338667869568,0.004585000220686197
8.075,-0.2362319678068161,-0.21155166625976562,-0.32376807928085327,0.04622984677553177,0.7624753713607788,0.024442054331302643
8.1,-0.37004920840263367,-0.07078935950994492,-0.2778581380844116,0.05705314129590988,0.6381446123123169,0.0899333581328392
8.125,-0.37579941749572754,0.1128358468413353,-0.23508822917938232,0.0638507530093193,0.5979515314102173,0.20773842930793762
8.15,-0.34836485981941223,0.29706090688705444,-0.11760677397251129,0.048902809619903564,0.5129825472831726,0.2840096950531006
8.175,-0.3172817826271057,0.402763307094574,-0.12707091867923737,-0.04401301592588425,0.4026900827884674,0.354073703289032
8.2,-0.32461729645729065,0.3982962965965271,-0.2693480849266052,-0.1424177587032318,0.27816179394721985,0.4720790982246399
8.225,-0.5243208408355713,0.5064839124679565,-0.30677565932273865,-0.22580300271511078,0.1928928643465042,0.6446889638900757
8.25,-0.7870760560035706,0.9613617658615112,-0.15062128007411957,-0.26897895336151123,0.030934303998947144,0.7148847579956055
8.275,-0.7967600226402283,1.2662876844406128,0.2236308604478836,-0.2567374110221863,-0.2532211244106293,0.583160936832428
8.3,-0.6113649606704712,0.7544602751731873,0.5675773620605469,-0.36020737886428833,-0.3460366129875183,0.49027594923973083
8.325,-0.32920217514038086,-0.5005387663841248,0.617240309715271,-0.5425406694412231,-0.2620683014392853,0.5267175436019897
8.35,-0.002960801124572754,-1.7497280836105347,0.36510929465293884,-0.7402039766311646,-0.06734677404165268,0.5996004939079285
8.375,0.3454442322254181,-2.5086114406585693,0.08103317022323608,-0.826943039894104,0.2305169552564621,0.6940962076187134
8.4,0.7248448133468628,-2.773164987564087,0.09804299473762512,-0.7796868085861206,0.5142578482627869,0.757766842842102
8.425,1.1272563934326172,-2.386737585067749,0.37179121375083923,-0.6514220237731934,0.7616276144981384,0.7881414294242859
8.45,1.6893316507339478,-1.2751672267913818,0.7798639535903931,-0.3188292682170868,0.7837483882904053,0.7029611468315125
8.475,2.3134024143218994,0.23303237557411194,1.3987231254577637,-0.03278140723705292,0.690230667591095,0.6045634150505066
8.5,2.518544912338257,1.496566891670227,2.0282981395721436,0.03477269411087036,0.5395740866661072,0.5749114751815796
8.525,1.7966262102127075,1.7585182189941406,2.041872024536133,-0.393064022064209,0.5907866358757019,0.782527506351471
8.55,0.8536253571510315,1.3035297393798828,1.7025130987167358,-0.42176389694213867,0.5111727714538574,0.8705741763114929
8.575,0.2940398156642914,0.7251405715942383,1.46909499168396,-0.3332422077655792,0.5528519749641418,0.8469589948654175
8.6,0.1420499086380005,0.27022266387939453,1.5602595806121826,-0.2791006565093994,0.5931037664413452,0.7834432721138
8.625,0.30287688970565796,-0.016856132075190544,1.8212528228759766,-0.24757152795791626,0.4865306615829468,0.6912215352058411
8.65,0.5139248371124268,-0.1852673590183258,1.858569622039795,-0.26463884115219116,0.42311736941337585,0.7130704522132874
8.675,0.6530485153198242,-0.4947575628757477,1.5555994510650635,-0.2653770446777344,0.4469890892505646,0.8043797612190247
8.7,0.7074209451675415,-0.8814171552658081,1.1667366027832031,-0.31762874126434326,0.501680314540863,0.896582841873169
8.725,0.7768489718437195,-1.0608584880828857,0.9866011142730713,-0.41425949335098267,0.5371400713920593,0.9506633281707764
8.75,0.9325957298278809,-0.7951525449752808,1.0487028360366821,-0.38374024629592896,0.49166086316108704,0.8916693329811096
8.775,1.1256159543991089,-0.29603660106658936,1.1189990043640137,-0.29045599699020386,0.5165533423423767,0.7393515110015869
8.8,1.2909599542617798,0.0803748071193695,1.0770349502563477,-0.31783366203308105,0.5843109488487244,0.5886504650115967
8.825,1.3007515668869019,0.0643206462264061,0.8691914081573486,-0.3573981523513794,0.577560544013977,0.48673126101493835
8.85,1.0845627784729004,-0.18168726563453674,0.8048152923583984,-0.15933017432689667,0.5029948353767395,0.3703984320163727
8.875,0.5592155456542969,-0.042444173246622086,0.9737924933433533,0.2627652585506439,0.5403122305870056,0.13097648322582245
8.9,-0.5224262475967407,0.6718787550926208,0.7845609188079834,0.34994494915008545,0.6235084533691406,-0.011341288685798645
8.925,-2.0191256999969482,1.535459280014038,0.19553211331367493,0.15810935199260712,0.6700403690338135,-0.05056693032383919
8.95,-2.8563790321350098,2.5398449897766113,-0.02463558502495289,0.15996509790420532,0.36460432410240173,-0.3324057161808014
8.975,-2.0694448947906494,2.8949553966522217,0.47709381580352783,0.04669681191444397,-0.02927711419761181,-0.718627393245697
9.0,-0.45938611030578613,2.371276617050171,0.301589697599411,-0.380540132522583,-0.4945135712623596,-0.7808536291122437
9.025,-0.18439149856567383,0.9887484908103943,-0.4578823149204254,-0.6984121203422546,-0.4192376434803009,-0.1506960391998291
9.05,-0.538898229598999,-0.8350925445556641,-0.6188220381736755,-0.8371367454528809,-0.020417669788002968,0.5702704191207886
9.075,-0.37449246644973755,-2.1136438846588135,-0.29695045948028564,-0.7782933712005615,0.2639203667640686,1.0050220489501953
9.1,-0.4001227617263794,-2.17984938621521,-0.8112771511077881,-0.7575678825378418,0.2821592390537262,0.9930187463760376
9.125,-1.3211036920547485,-0.7520380616188049,-1.551343321800232,-0.17399238049983978,-0.19937747716903687,0.2988519072532654
9.15,-2.354322671890259,0.6347663402557373,-1.3164584636688232,0.2880232632160187,-0.43334072828292847,-0.3251977860927582
9.175,-2.7026872634887695,0.9066798686981201,-0.6059687733650208,0.24930359423160553,-0.5542929768562317,-0.4518308937549591
9.2,-3.0722849369049072,0.7349040508270264,-0.22452811896800995,0.027613531798124313,-0.630415141582489,-0.13152942061424255
9.225,-3.3548426628112793,0.2919500172138214,-0.3007207214832306,-0.09598603844642639,-0.6142818331718445,0.14337697625160217
9.25,-2.7900736331939697,-0.49879947304725647,-0.527282178401947,-0.027540989220142365,-0.7848576903343201,0.3429877758026123
9.275,-1.5943106412887573,-0.9645138382911682,-0.7587334513664246,-0.01355549693107605,-0.8996990323066711,0.39140602946281433
9.3,-0.5532237887382507,-0.6358041763305664,-0.933925211429596,0.02935459092259407,-0.8789430260658264,0.146211177110672
9.325,0.015637725591659546,-0.0892200618982315,-0.8456564545631409,0.12587286531925201,-0.8221712708473206,-0.006050485651940107
9.35,0.22281846404075623,0.4112653434276581,-0.3412289023399353,0.2294250726699829,-0.8922126889228821,0.018228629603981972
9.375,0.3005978465080261,0.9545325636863708,0.48124995827674866,0.3846919536590576,-1.0143554210662842,0.09075507521629333
9.4,0.35880035161972046,1.528908610343933,1.0240528583526611,0.33791986107826233,-1.0109537839889526,0.2649816870689392
9.425,0.5245455503463745,1.7359799146652222,1.187377691268921,0.13265694677829742,-1.0092929601669312,0.48411470651626587
9.45,0.9497644901275635,1.3641738891601562,1.1896461248397827,-0.029671430587768555,-1.124723196029663,0.5793668031692505
9.475,1.5521154403686523,0.6425295472145081,1.1402736902236938,-0.03959585726261139,-1.214223027229309,0.5291727781295776
9.5,2.009918689727783,-0.021823743358254433,1.1582303047180176,0.17513605952262878,-1.3620457649230957,0.32168513536453247
9.525,2.120281934738159,-0.5955455899238586,1.239149570465088,0.6507306694984436,-1.4654381275177002,0.08213834464550018
9.55,2.070673704147339,-1.4727933406829834,1.351285457611084,0.7587494850158691,-1.4290088415145874,-0.07905507832765579
9.575,1.7895429134368896,-2.503951072692871,1.1142985820770264,0.553832471370697,-1.242729663848877,-0.1375054270029068
9.6,1.2630550861358643,-3.4181220531463623,0.5697515606880188,0.48435473442077637,-1.1083385944366455,-0.18081596493721008
9.625,0.4666052460670471,-3.7696197032928467,0.02252608723938465,0.49952930212020874,-1.0114836692810059,-0.2384534627199173
9.65,-0.46953094005584717,-3.188276529312134,0.04895820841193199,0.46064484119415283,-0.8326552510261536,-0.2884025275707245
9.675,-0.9054737091064453,-2.294935941696167,0.9361761808395386,0.15443110466003418,-0.3004710376262665,-0.39917418360710144
9.7,-0.2971039116382599,-0.9554604887962341,1.8866709470748901,-0.3789510726928711,0.4719657897949219,-0.5348712205886841
9.725,1.1278910636901855,1.5936384201049805,2.2040414810180664,-0.661137580871582,0.7955840826034546,-0.5566430687904358
9.75,2.6777286529541016,4.80265474319458,1.506325602531433,-0.6376171112060547,0.6921730637550354,-0.17863307893276215
9.775,3.571869373321533,6.399168491363525,0.5124402046203613,-0.16843724250793457,0.30036309361457825,0.33274275064468384
9.8,3.235264539718628,5.510558605194092,0.1426781713962555,0.5896667838096619,0.17132344841957092,0.5201989412307739
9.825,2.1964316368103027,3.8064820766448975,-0.1008632630109787,0.7536674737930298,0.06157562509179115,0.5203689336776733
9.85,1.4074735641479492,2.437009572982788,-0.8821603059768677,0.6279212236404419,-0.07771451026201248,0.4977248013019562
9.875,0.3925505578517914,0.3604239821434021,-1.9904136657714844,0.5170029997825623,-0.346462607383728,0.34426653385162354
9.9,-1.0196399688720703,-2.9071528911590576,-2.2647268772125244,0.08423728495836258,-0.6482301354408264,0.28668078780174255
9.925,-2.3315653800964355,-5.684788703918457,-1.6882227659225464,-0.5489425659179688,-0.4427253007888794,0.2991659641265869
9.95,-3.231267213821411,-6.859292507171631,-1.5942989587783813,-1.0310503244400024,0.29531896114349365,0.3423643112182617
9.975,-3.6528632640838623,-6.4247918128967285,-1.698073148727417,-0.3245636224746704,0.7066775560379028,0.2735231816768646
10.0,-3.0687010288238525,-5.238839626312256,-1.6021482944488525,0.27738335728645325,1.0191948413848877,0.1870983988046646
10.025,-1.483933925628662,-3.4001386165618896,-1.0311025381088257,0.2052079439163208,1.4611536264419556,0.14119403064250946
10.05,0.4632260203361511,0.22662067413330078,-0.26719391345977783,-0.27562010288238525,2.3468754291534424,0.2595561742782593
10.075,1.840083122253418,5.562243938446045,-0.2780672609806061,-1.3565869331359863,3.151104688644409,0.30861204862594604
10.1,2.0547590255737305,9.633872985839844,-0.367933064699173,-1.1495652198791504,2.280043601989746,-0.4905373454093933
10.125,1.0598682165145874,9.350383758544922,0.3419080376625061,-0.8619853258132935,1.291211485862732,-0.3513946831226349
10.15,0.6295534372329712,7.064566135406494,-0.19181205332279205,-1.3158851861953735,1.6467859745025635,0.3635348081588745
10.175,1.1666548252105713,4.853079319000244,-1.2596518993377686,-2.565399646759033,2.179393768310547,0.16324423253536224
10.2,1.7937843799591064,3.0838401317596436,-1.726820945739746,-2.1498124599456787,1.91326105594635,-0.14111143350601196
10.225,2.166403293609619,1.078688621520996,-2.3875069618225098,-0.853090763092041,1.5729337930679321,-0.547728955745697
10.25,1.7484345436096191,-1.0509594678878784,-2.7108659744262695,0.13864916563034058,1.4413795471191406,-1.1212475299835205
10.275,0.4525710344314575,-2.932643175125122,-2.1604068279266357,0.5269526839256287,1.359421968460083,-1.4259822368621826
10.3,-0.9411967992782593,-4.298013687133789,-1.3881912231445312,0.41305166482925415,1.4400817155838013,-1.3555550575256348
10.325,-1.7339214086532593,-5.041455268859863,-0.7419379949569702,0.5161305665969849,1.238066554069519,-1.4234436750411987
10.35,-2.1554856300354004,-5.422005653381348,-0.12810048460960388,0.5473704934120178,0.9911410808563232,-1.5028225183486938
10.375,-2.1489665508270264,-5.500183582305908,0.6780155897140503,0.4781327247619629,0.8382303714752197,-1.4811094999313354
10.4,-1.5035648345947266,-5.134082794189453,1.6710057258605957,0.35980549454689026,0.7193261981010437,-1.2961764335632324
10.425,-0.8112757205963135,-4.367625713348389,2.3934247493743896,0.1316947638988495,0.8174583315849304,-0.807894229888916
10.45,-0.4675256013870239,-3.0954787731170654,2.67851185798645,-0.048334211111068726,0.9126513600349426,-0.21936465799808502
10.475,0.13696008920669556,-1.1514737606048584,2.5614705085754395,-0.09905744343996048,0.8955038189888,0.2732841372489929
10.5,1.4148703813552856,0.7382393479347229,1.7745610475540161,-0.4564988911151886,1.2978904247283936,0.8818232417106628
10.525,2.420039176940918,2.2425193786621094,-0.37425339221954346,-0.9629074335098267,1.4605247974395752,1.62141752243042
10.55,2.3875880241394043,3.925793409347534,-3.014647960662842,-0.6866508722305298,0.6195197701454163,2.0050156116485596
10.575,2.6065878868103027,5.09411096572876,-3.5417063236236572,0.11675214767456055,0.1695309430360794,1.1405577659606934
10.6,1.8360283374786377,5.721935749053955,-3.132700204849243,0.31799760460853577,-0.06545820832252502,0.3567569851875305
10.625,0.6232872009277344,5.497599124908447,-2.1199772357940674,0.2589759826660156,-0.22513934969902039,-0.18867631256580353
10.65,0.24668721854686737,3.523914098739624,-1.0474309921264648,-0.201689213514328,-0.20394985377788544,-0.13143399357795715
10.675,0.47149527072906494,0.7422379851341248,-0.4763064384460449,-0.2505995035171509,-0.5258706212043762,-0.5669116973876953
10.7,-0.0005359351634979248,-1.7708557844161987,-0.1405336558818817,-0.069525808095932,-0.1570599228143692,-0.8323459029197693
10.725,-0.914282500743866,-3.8640401363372803,-0.31069067120552063,-0.47561150789260864,0.5701643228530884,-0.3409042954444885
10.75,-1.864608645439148,-4.588766098022461,-0.7486061453819275,-0.4145306348800659,0.9730035662651062,0.09943954646587372
10.775,-2.4594311714172363,-3.6364083290100098,-0.7673920392990112,0.22605076432228088,1.1651129722595215,0.11417166143655777
10.8,-2.5696847438812256,-2.143089771270752,-0.7190291881561279,0.617845892906189,1.3641154766082764,-0.03642880171537399
10.825,-2.0402328968048096,-1.0709104537963867,-0.6647676825523376,0.5367009043693542,1.0449180603027344,-0.5759803652763367
10.85,-1.2042453289031982,-0.2099810242652893,-0.1680736392736435,0.4815312623977661,0.9165179133415222,-1.0471378564834595
10.875,-0.8521317839622498,0.27899640798568726,0.15916989743709564,0.06208328157663345,1.4484889507293701,-0.44192183017730713
10.9,-0.8654859066009521,0.5274332761764526,0.3522626757621765,-0.3101935088634491,1.8289892673492432,0.4699893593788147
10.925,-0.4979252219200134,1.3001564741134644,0.5317146182060242,-0.09513711929321289,1.4500406980514526,0.45850130915641785
10.95,0.039179787039756775,2.3056228160858154,0.23369711637496948,0.11629657447338104,0.9038512706756592,-0.00039496817043982446
10.975,0.42222943902015686,2.850066900253296,-0.20805881917476654,0.14659301936626434,0.6869974732398987,-0.08237887918949127
11.0,0.6128166317939758,2.8823087215423584,-0.6002283096313477,0.23187819123268127,0.5859772562980652,-0.06508952379226685
11.025,0.76767498254776,2.4507787227630615,-1.1310721635818481,0.3854827880859375,0.36903029680252075,-0.21158623695373535
11.05,0.7720451951026917,1.8183821439743042,-1.7614591121673584,0.5275288820266724,0.019795699045062065,-0.2634183168411255
11.075,0.5514830350875854,1.006132960319519,-2.1618170738220215,0.6889271140098572,-0.451301634311676,-0.22106850147247314
11.1,0.31225940585136414,0.0010766671039164066,-2.0782320499420166,0.8139927387237549,-0.7747673988342285,-0.1728876382112503
11.125,0.2781454920768738,-1.0248621702194214,-1.5287340879440308,0.853908121585846,-0.8269779682159424,-0.29845279455184937
11.15,0.5165611505508423,-2.10486102104187,-0.8761160969734192,0.5870112180709839,-0.5771035552024841,-0.33881255984306335
11.175,0.7853386402130127,-3.3370893001556396,-0.3212527334690094,0.13738057017326355,-0.24964864552021027,-0.12234453856945038
11.2,1.0374114513397217,-3.869663953781128,-0.15861062705516815,-0.011931649409234524,-0.046040602028369904,0.020385924726724625
11.225,1.0796852111816406,-3.7572758197784424,-0.6791602373123169,4.827976226806641e-06,0.17315420508384705,0.13296718895435333
11.25,1.0518572330474854,-3.7472541332244873,-1.623470425605774,-0.07762708514928818,0.5040054321289062,0.3136872351169586
11.275,1.1948425769805908,-3.2592313289642334,-2.724412441253662,-0.10778762400150299,0.643230676651001,0.1708265095949173
11.3,1.1629568338394165,-1.2464464902877808,-3.3794291019439697,0.017356708645820618,0.6502113342285156,-0.26894333958625793
11.325,0.3557744026184082,1.5950802564620972,-3.0253894329071045,0.19076476991176605,1.186448097229004,-0.467603862285614
11.35,-0.29463356733322144,3.5118768215179443,-2.167675733566284,0.3596805930137634,1.7761353254318237,-0.5406808257102966
11.375,-0.6234433650970459,4.9488091468811035,-1.554998517036438,0.4900275468826294,2.011626720428467,-0.8909828066825867
11.4,-1.1527535915374756,6.153091907501221,-0.6962742805480957,0.3269107937812805,1.759416937828064,-0.7860873341560364
11.425,-2.1657614707946777,5.314180850982666,0.6689624786376953,0.38841408491134644,1.496232509613037,-0.2603805959224701
11.45,-3.0950889587402344,2.655630588531494,1.5825107097625732,0.3081931173801422,1.1790614128112793,0.11193264275789261
11.475,-3.258432388305664,0.25958141684532166,2.0957531929016113,-0.12509000301361084,0.9506627917289734,0.3109072744846344
11.5,-2.8381810188293457,-1.0622291564941406,2.4101786613464355,-0.42227768898010254,0.9784761071205139,0.1456064134836197
11.525,-2.268975257873535,-1.9477529525756836,2.4637861251831055,-0.5627267360687256,1.190630316734314,0.24801532924175262
11.55,-1.830993413925171,-2.8704874515533447,2.238839864730835,-0.500232994556427,1.4697662591934204,0.6180164217948914
11.575,-1.6206517219543457,-3.691354990005493,1.7990829944610596,-0.17170360684394836,1.8154795169830322,1.0064994096755981
11.6,-1.1629011631011963,-3.891941785812378,0.8878448605537415,0.25775688886642456,1.8540153503417969,0.9207375049591064
11.625,-0.5502750277519226,-3.0574967861175537,-0.4647788405418396,0.5476333498954773,1.9949555397033691,0.6907389163970947
11.65,-0.5802088379859924,-1.7404937744140625,-1.7410672903060913,0.5197434425354004,2.5490331649780273,0.7094190716743469
11.675,-0.87387615442276,-0.7086048722267151,-2.37654972076416,0.16845816373825073,2.9751946926116943,0.639346718788147
11.7,-0.6943176984786987,0.06723489612340927,-2.1398606300354004,-0.13948076963424683,2.987124443054199,0.4961943030357361
11.725,-0.2137545943260193,1.619423747062683,-1.5766922235488892,-0.06434129923582077,2.9804177284240723,0.27922752499580383
11.75,-0.3322067856788635,4.004931926727295,-1.1159580945968628,0.004600174725055695,3.188032865524292,0.25046902894973755
11.775,-1.1915408372879028,5.40472936630249,-0.46018120646476746,-0.057678401470184326,3.194302797317505,0.4315129220485687
11.8,-1.510186791419983,4.698994159698486,-0.12616749107837677,-0.21721455454826355,2.861003875732422,0.6013201475143433
11.825,-1.2167363166809082,2.77881121635437,-0.2764859199523926,-0.33931446075439453,2.644216537475586,0.5714054107666016
11.85,-0.9939508438110352,0.8494690656661987,-0.2947346270084381,-0.39700424671173096,2.533209800720215,0.46650174260139465
11.875,-0.8617957830429077,-0.7931346893310547,-0.07296019792556763,-0.5924862623214722,2.306077241897583,0.22822850942611694
11.9,-0.7857117652893066,-2.2409827709198,-0.051201820373535156,-0.9525588750839233,1.8171905279159546,-0.1032232865691185
11.925,-0.6699544787406921,-3.2108194828033447,-0.5868046283721924,-1.355320692062378,1.311223030090332,-0.40292343497276306
11.95,-0.6829900741577148,-3.5492866039276123,-1.1785142421722412,-1.4545470476150513,1.23274564743042,-0.3785669207572937
11.975,-0.7288097739219666,-3.3579447269439697,-0.8074221014976501,-0.8640650510787964,1.6313384771347046,0.07143034785985947
12.0,-0.12658843398094177,-3.0251853466033936,0.03840035945177078,0.037305593490600586,2.2640678882598877,0.6341322064399719
12.025,0.8608272671699524,-2.606153726577759,0.10258462280035019,0.9131836891174316,2.4875636100769043,0.9639952182769775
12.05,0.823963463306427,-1.118355631828308,0.03774193674325943,1.0976563692092896,2.142582893371582,0.6715058088302612
12.075,-0.2679968476295471,1.6197632551193237,1.0747047662734985,0.6035990118980408,1.7270116806030273,0.04361805319786072
12.1,-0.6286159753799438,3.448256254196167,1.622039556503296,0.4254566729068756,1.5838619470596313,-0.11395981162786484
12.125,-1.1790374517440796,3.785019636154175,2.1239230632781982,0.9065818190574646,1.1932207345962524,0.3413648009300232
12.15,-1.5491327047348022,3.376512289047241,2.9581398963928223,0.16824322938919067,0.24814622104167938,0.5746467113494873
12.175,-1.5211889743804932,1.6437958478927612,3.8530759811401367,-0.4656507074832916,-1.038228988647461,0.530237078666687
12.2,-1.3731566667556763,-1.027953028678894,3.9009335041046143,-0.36302483081817627,-0.9584276676177979,0.05900092050433159
12.225,-1.4404977560043335,-2.217721700668335,2.9778127670288086,0.05465956777334213,-0.3930293619632721,-0.2681095600128174
12.25,-1.1110174655914307,-1.5700024366378784,1.9310375452041626,0.1823781430721283,0.2031737118959427,-0.1866198033094406
12.275,-0.8309769034385681,0.010318738408386707,1.2254215478897095,0.09531325101852417,0.88313889503479,0.017361905425786972
12.3,-1.476189136505127,1.4852941036224365,0.888087809085846,0.01850561425089836,1.0138832330703735,0.15977980196475983
12.325,-1.9145385026931763,1.818908452987671,0.3808268904685974,-0.3078746795654297,0.22047215700149536,-0.17087087035179138
12.35,-1.5928324460983276,1.0769374370574951,-0.16743424534797668,-0.4097406268119812,-0.2670591175556183,-0.40883713960647583
12.375,-1.302979588508606,0.2661646604537964,-0.5545564293861389,-0.2969282269477844,-0.18001265823841095,-0.416692316532135
12.4,-1.4653246402740479,-0.10384473204612732,-0.7926628589630127,-0.14527413249015808,0.1265994906425476,-0.37189197540283203
12.425,-1.9008044004440308,-0.20683395862579346,-0.9964972734451294,-0.12301962822675705,0.35638242959976196,-0.3828168213367462
12.45,-2.2999422550201416,-0.18201938271522522,-1.3033543825149536,-0.25318771600723267,0.3640795946121216,-0.3869434893131256
12.475,-2.353368043899536,-0.04853647202253342,-1.9009681940078735,-0.45929402112960815,0.3054831326007843,-0.31902003288269043
12.5,-2.2161238193511963,0.15162160992622375,-2.801102876663208,-0.5106614232063293,0.36697548627853394,-0.20988738536834717
12.525,-2.4160962104797363,0.6459328532218933,-3.516578435897827,-0.40770983695983887,0.3924892842769623,-0.10430650413036346
12.55,-2.7392873764038086,1.244423508644104,-3.233518123626709,-0.16119615733623505,0.38792192935943604,-0.015720702707767487
12.575,-2.6185927391052246,1.1128116846084595,-2.04353666305542,0.19705019891262054,0.5684899091720581,0.07963565737009048
12.6,-2.3013553619384766,0.18621143698692322,-0.6246423721313477,0.3007885813713074,0.8172519207000732,0.1528446078300476
12.625,-1.9976282119750977,-1.3605051040649414,0.6225974559783936,0.37317928671836853,1.1594219207763672,0.2798779010772705
12.65,-1.5770403146743774,-3.301725149154663,1.4667973518371582,0.4884774684906006,1.4976521730422974,0.32382604479789734
12.675,-1.1277525424957275,-4.793773174285889,2.0263731479644775,0.3713255524635315,1.505353569984436,0.19067203998565674
12.7,-0.4945865273475647,-5.254392147064209,2.7449166774749756,0.14262796938419342,1.4551646709442139,-0.05950937792658806
12.725,0.5173407793045044,-4.834042549133301,3.289382219314575,0.14723792672157288,1.8143402338027954,-0.3442675769329071
12.75,1.2362966537475586,-2.9766392707824707,2.8040401935577393,-0.23502589762210846,2.3206233978271484,-0.6849834322929382
12.775,0.5999412536621094,0.5078945159912109,1.8215147256851196,-0.781683623790741,3.0045382976531982,-0.5625113844871521
12.8,-1.1971116065979004,4.447997570037842,1.8831489086151123,-0.4938109219074249,4.110034465789795,0.18732425570487976
12.825,-1.832397222518921,6.3219380378723145,1.9395885467529297,0.3053571581840515,3.8617777824401855,0.8419415950775146
12.85,-0.5893858671188354,5.295280933380127,1.3063312768936157,0.7633787989616394,2.451279878616333,0.4144189953804016
12.875,0.4067852199077606,3.66083025932312,0.4841299057006836,-0.21732527017593384,1.4195194244384766,-0.2396145761013031
12.9,0.12206970900297165,2.794295072555542,0.15416309237480164,-0.49100494384765625,1.7383729219436646,-0.25592702627182007
12.925,-0.7315714359283447,2.390719175338745,-0.23803400993347168,0.06937126070261002,2.264240264892578,0.2498704195022583
12.95,-1.6538684368133545,2.0972983837127686,-1.1982015371322632,0.3204837143421173,1.9641398191452026,0.7654398083686829
12.975,-2.385826587677002,1.1384742259979248,-1.4780899286270142,0.540743887424469,1.566686749458313,0.747207760810852
13.0,-2.6550073623657227,-0.7688113451004028,-0.5983577370643616,0.7802718281745911,1.5467143058776855,0.507056474685669
13.025,-2.519139289855957,-3.0930123329162598,0.4725037217140198,0.6485865116119385,1.5932344198226929,0.4117606282234192
13.05,-2.128406524658203,-4.764227867126465,1.3977320194244385,0.24276621639728546,1.5039616823196411,0.28311625123023987
13.075,-0.9702624082565308,-4.898560047149658,2.5416417121887207,-0.2070161998271942,1.4982799291610718,-0.12676580250263214
13.1,0.704677939414978,-3.8046820163726807,2.7414073944091797,-0.5949520468711853,1.4623174667358398,-0.49455830454826355
13.125,2.207545280456543,-1.728417158126831,2.249697685241699,-0.8457866311073303,1.5916544198989868,-0.4947848618030548
13.15,3.2845218181610107,1.0244265794754028,2.295793056488037,-0.8212459087371826,1.7406977415084839,0.16660158336162567
13.175,3.6521859169006348,2.294567108154297,2.507227659225464,-0.14065322279930115,1.5573126077651978,1.345583438873291
13.2,2.342644691467285,1.6464729309082031,1.320239543914795,0.8342412710189819,1.3806220293045044,1.3922935724258423
13.225,0.6977049112319946,0.6185197830200195,-0.29954221844673157,1.254879117012024,2.2807369232177734,-0.2421865314245224
13.25,0.016549572348594666,1.3219670057296753,-0.5026540756225586,0.5993230938911438,2.4884490966796875,-1.5212867259979248
13.275,-0.583572268486023,2.6124894618988037,1.0514551401138306,-0.5325570106506348,1.1708705425262451,-1.1866263151168823
13.3,-1.261834979057312,2.560218572616577,2.4181079864501953,-1.0061284303665161,-0.24098815023899078,-0.15434782207012177
13.325,-1.527376651763916,0.9773815870285034,2.128649950027466,-0.4873148798942566,-0.23514987528324127,0.16724930703639984
13.35,-1.9130918979644775,-0.6914224624633789,1.1953680515289307,0.06976017355918884,0.21976794302463531,0.1321922093629837
13.375,-2.9469172954559326,-0.7840223908424377,0.5661048889160156,-0.1166999414563179,0.03776586800813675,0.3629426062107086
13.4,-3.8430116176605225,0.21381069719791412,0.35120725631713867,-0.5383591651916504,-0.28542420268058777,0.383084237575531
13.425,-3.353637456893921,0.38771989941596985,0.3986198604106903,-0.46887606382369995,-0.14225539565086365,0.021174127236008644
13.45,-1.9193618297576904,-0.9710054993629456,0.4277889132499695,-0.13612934947013855,-0.03467215225100517,-0.18614837527275085
13.475,-0.5470271110534668,-2.7582428455352783,0.4916739761829376,-0.031037189066410065,-0.27930378913879395,-0.12821552157402039
13.5,0.7742785215377808,-4.153028964996338,0.6692731380462646,0.1740926206111908,-0.5681142210960388,-0.24838605523109436
13.525,2.1877989768981934,-5.229203701019287,0.8123272657394409,0.4827749729156494,-0.40437769889831543,-0.564834713935852
13.55,3.221588134765625,-5.8233489990234375,1.0010523796081543,0.44756484031677246,0.35229066014289856,-0.7293291091918945
13.575,3.179370641708374,-4.763596057891846,1.1047589778900146,-0.1309928297996521,1.1477898359298706,-0.28982990980148315
13.6,1.431726336479187,-1.0690972805023193,0.6544862985610962,-0.8284567594528198,2.276705265045166,0.3234504461288452
13.625,-1.344416618347168,5.25071382522583,1.1999099254608154,-0.7939396500587463,3.8090193271636963,0.365913063287735
13.65,-1.7281625270843506,10.287532806396484,3.4329278469085693,0.6021959185600281,4.08306884765625,-0.21789637207984924
13.675,-0.2581145167350769,9.16434097290039,2.6971495151519775,1.1380226612091064,2.2429726123809814,-0.8029443025588989
13.7,0.12384265661239624,4.588766574859619,-0.6538670063018799,0.1642816960811615,0.6227680444717407,-0.42885226011276245
13.725,-0.27318423986434937,1.6149252653121948,-1.7848846912384033,-0.3704862892627716,0.5910478234291077,-0.09387671202421188
13.75,-0.5516993403434753,0.6437348127365112,-0.6706183552742004,-0.007408276200294495,1.330259919166565,-0.5830049514770508
13.775,-1.1222249269485474,0.2043275088071823,0.3049011528491974,0.3653334379196167,1.216530442237854,-0.39946916699409485
13.8,-2.319978952407837,-0.46687039732933044,0.4068728983402252,0.377095103263855,0.5595296025276184,0.061067502945661545
13.825,-2.877779483795166,-1.4840593338012695,0.32822659611701965,0.2653689682483673,0.5598810315132141,-0.004646014422178268
13.85,-1.9610331058502197,-2.7442662715911865,0.5126070976257324,0.30571335554122925,0.8536552786827087,-0.3142564296722412
13.875,-0.8412585258483887,-4.166866779327393,0.6857748627662659,0.2862246036529541,0.6177589297294617,-0.2826930284500122
13.9,-0.5014495253562927,-5.203193187713623,0.7366549372673035,-0.042379941791296005,0.11911850422620773,0.03722737729549408
13.925,0.29837048053741455,-5.041608810424805,0.5060588121414185,-0.5291393995285034,0.0021719010546803474,0.18223395943641663
13.95,2.1433842182159424,-3.9120752811431885,-0.48524171113967896,-0.8412084579467773,0.23899221420288086,-0.022325381636619568
13.975,4.058485507965088,-1.8921067714691162,-2.081216812133789,-0.8422172665596008,0.5376197695732117,-0.39542868733406067
14.0,6.007915496826172,1.0019465684890747,-2.958672046661377,-0.4293462634086609,0.7793340086936951,-0.1732727736234665
14.025,7.166450023651123,1.564871072769165,-2.007143020629883,0.9482351541519165,0.5786514282226562,-0.10952381044626236
14.05,5.091437816619873,0.25876450538635254,-1.1095703840255737,1.6060121059417725,-0.27071043848991394,-0.2031165212392807
14.075,1.709160327911377,-0.4425181448459625,-1.6760019063949585,1.0269571542739868,0.7264363169670105,-1.4917470216751099
14.1,0.5593858361244202,0.4424828886985779,-2.379469156265259,0.31056153774261475,2.0709142684936523,-2.8804640769958496
14.125,1.5627472400665283,2.5865981578826904,-2.0075457096099854,-0.36463791131973267,1.1024293899536133,-1.9248290061950684
14.15,2.3571062088012695,4.338729381561279,-0.7634537816047668,-0.7182152271270752,-0.7063820362091064,0.16411268711090088
14.175,1.611454963684082,4.9111008644104,0.2526566982269287,-0.6329067945480347,-1.7916573286056519,1.166347622871399
14.2,0.16667136549949646,4.626301288604736,0.7110235691070557,-0.4119408428668976,-1.5334947109222412,0.8103171586990356
14.225,-1.1212961673736572,4.40248441696167,1.344774842262268,-0.4009431004524231,-0.5516674518585205,0.08601993322372437
14.25,-2.0278682708740234,4.654283046722412,2.207993507385254,-0.7257155776023865,-0.4519507586956024,0.08602434396743774
14.275,-2.764950752258301,4.833523273468018,2.356837511062622,-1.17476487159729,-1.3231828212738037,1.1584348678588867
14.3,-3.260415554046631,4.29923677444458,1.546613097190857,-1.3234007358551025,-1.7552613019943237,2.1091949939727783
14.325,-3.520543098449707,2.913414478302002,0.5174294114112854,-1.119248390197754,-1.6733450889587402,2.292738676071167
14.35,-3.8756327629089355,0.6126067042350769,-0.29068055748939514,-0.6840165853500366,-1.7904126644134521,2.2458508014678955
14.375,-2.930034637451172,-2.5431976318359375,-0.5442041754722595,-0.055236876010894775,-1.5979559421539307,1.612399935722351
14.4,-0.5358682870864868,-5.636732578277588,0.17738549411296844,0.4514385461807251,-1.1823077201843262,0.7137712836265564
14.425,0.057623788714408875,-8.345389366149902,0.6555559039115906,0.8483333587646484,-1.0505870580673218,0.07697272300720215
14.45,-1.3051133155822754,-9.690181732177734,0.28479161858558655,0.8449565768241882,-0.7573386430740356,0.0483635812997818
14.475,-1.703344464302063,-9.920727729797363,0.028403813019394875,0.7759624719619751,-0.3903157114982605,-0.058591730892658234
14.5,-0.07856880873441696,-10.354300498962402,0.21805472671985626,0.6419106721878052,-0.019173018634319305,-0.8123552203178406
14.525,3.029386281967163,-9.580678939819336,1.140804409980774,0.17156556248664856,0.4465677738189697,-1.3008217811584473
14.55,4.972129821777344,-6.157751560211182,2.131441831588745,-0.3912498950958252,1.120984673500061,-0.908229410648346
14.575,4.595775604248047,-2.3078765869140625,2.2449281215667725,-0.8752197623252869,1.6800620555877686,-0.3212890326976776
14.6,3.363624334335327,2.104281425476074,1.7210521697998047,-1.193343997001648,1.7664287090301514,-0.03707300126552582
14.625,1.761989712715149,8.434762954711914,0.41093987226486206,-1.4527387619018555,1.31570565700531,1.5315649509429932
14.65,1.540649175643921,11.747791290283203,-2.3297524452209473,-1.1686465740203857,0.9734625816345215,1.6986644268035889
14.675,3.1695120334625244,10.051742553710938,-4.780588150024414,-1.0115643739700317,0.9481436014175415,0.15860643982887268
14.7,3.7569775581359863,6.723169803619385,-4.884998321533203,-1.0355186462402344,0.8700011372566223,-0.02076389640569687
14.725,2.361915111541748,4.041574954986572,-3.3799233436584473,-0.8171755075454712,0.7181421518325806,0.10576371848583221
14.75,0.9814330339431763,2.6900928020477295,-1.8125567436218262,-0.637551486492157,0.5552767515182495,-0.19866561889648438
14.775,0.9617242813110352,1.807442545890808,-1.1017115116119385,-0.4066658616065979,0.5287360548973083,-0.7137290835380554
14.8,1.059631109237671,0.5043715834617615,-1.2277169227600098,-0.08897744119167328,0.42256221175193787,-0.6701338291168213
14.825,0.8253729343414307,-0.7639874815940857,-1.4695943593978882,0.24633309245109558,0.1410917192697525,-0.2734171450138092
14.85,0.8814820051193237,-1.353514552116394,-1.4959648847579956,0.49889904260635376,-0.1440293788909912,0.015472793020308018
14.875,0.9338340163230896,-1.3995178937911987,-1.4824261665344238,0.571251630783081,-0.16686388850212097,0.14478962123394012
14.9,0.5170429944992065,-1.3391207456588745,-1.3248624801635742,0.44088396430015564,0.12262275815010071,-0.005565337836742401
14.925,-0.2200186848640442,-1.0373362302780151,-0.8665843605995178,0.2268947958946228,0.3853738605976105,-0.34147846698760986
14.95,-1.1523348093032837,-0.05513007193803787,-0.3420989513397217,0.04633955657482147,0.4803917109966278,-0.7322514057159424
14.975,-2.171781539916992,1.4854867458343506,-0.11781886219978333,-0.05300748348236084,0.5625852346420288,-1.0903807878494263
15.0,-2.4101688861846924,2.593169689178467,-0.006968354806303978,0.016185224056243896,0.7043898701667786,-1.4418307542800903
15.025,-1.784970760345459,2.4215686321258545,0.3206811845302582,0.21639147400856018,0.7417688369750977,-1.6793537139892578
15.05,-1.3651854991912842,1.3940876722335815,0.7595629096031189,0.3726087808609009,0.5728022456169128,-1.4693468809127808
15.075,-1.2941880226135254,0.21884816884994507,1.1046297550201416,0.47800734639167786,0.40947839617729187,-0.9882293939590454
15.1,-1.2882499694824219,-0.8406410217285156,1.2216448783874512,0.6039420366287231,0.4306985139846802,-0.6033845543861389
15.125,-1.252110481262207,-1.7359789609909058,1.1097772121429443,0.7298851013183594,0.6271886825561523,-0.4027708172798157
15.15,-1.0775244235992432,-2.4782984256744385,0.9427410960197449,0.806530237197876,0.9101518392562866,-0.2724956274032593
15.175,-0.5481590628623962,-3.186535596847534,0.6547197699546814,0.8013677597045898,1.2049680948257446,-0.22772623598575592
15.2,0.16687220335006714,-3.926168203353882,-0.18286363780498505,0.6557038426399231,1.345494270324707,-0.2274509221315384
15.225,0.16093027591705322,-4.168059349060059,-1.6633192300796509,0.39745384454727173,1.187615990638733,0.03433435782790184
15.25,-0.5992356538772583,-3.1905462741851807,-3.101396322250366,0.19608399271965027,0.9920520782470703,0.42669954895973206
15.275,-0.8647814989089966,-0.7640047669410706,-3.839961528778076,0.12778080999851227,1.0417561531066895,0.5470011830329895
15.3,-0.34552907943725586,2.6986730098724365,-3.6831791400909424,0.09661737084388733,1.1162173748016357,0.4728736877441406
15.325,0.7357316017150879,5.590881824493408,-2.3962268829345703,0.065707266330719,1.0374782085418701,0.3022681176662445
15.35,1.835740089416504,5.61053991317749,0.019163809716701508,0.16271086037158966,0.5943674445152283,0.21429304778575897
15.375,1.461417317390442,2.9366588592529297,1.8848947286605835,0.2959522604942322,-0.1284305453300476,0.5372326374053955
15.4,0.6020845174789429,0.1666889786720276,1.8250322341918945,0.19873155653476715,-0.15275762975215912,0.6701548099517822
15.425,0.838550865650177,-1.523604154586792,1.3448712825775146,-0.08717814087867737,0.4050106704235077,0.44714075326919556
15.45,1.4373526573181152,-2.2248237133026123,1.453456997871399,-0.35847094655036926,0.9088670611381531,0.27362769842147827
15.475,1.9219075441360474,-1.9625918865203857,1.706968069076538,-0.283535897731781,1.276551365852356,0.3203546702861786
15.5,1.990707278251648,-1.076756238937378,1.6214507818222046,0.29508596658706665,1.3441654443740845,0.6291324496269226
15.525,1.541703701019287,-0.2190464586019516,1.244702696800232,0.8125423789024353,1.336491584777832,0.6915045380592346
15.55,0.9122047424316406,0.42472079396247864,1.0441874265670776,0.8186076879501343,1.436201572418213,0.44943544268608093
15.575,0.5470192432403564,0.7598228454589844,1.2923084497451782,0.5146942734718323,1.5813912153244019,0.07733374834060669
15.6,0.6286332011222839,0.5701389312744141,1.5735599994659424,0.1421550065279007,1.6505674123764038,-0.25094956159591675
15.625,0.6555366516113281,0.054933611303567886,1.2645684480667114,-0.028673939406871796,1.5390571355819702,-0.17430102825164795
15.65,0.07695648074150085,-0.35818666219711304,0.5012708902359009,0.0714133232831955,1.410675287246704,0.15449735522270203
15.675,-0.6515089273452759,-0.4267873764038086,-0.13141778111457825,0.08798501640558243,1.509231686592102,0.19436459243297577
15.7,-0.7625118494033813,-0.28775981068611145,-0.3446851670742035,-0.1467917561531067,1.6524332761764526,-0.08645734935998917
15.725,-0.4535232186317444,-0.2154531627893448,-0.11885836720466614,-0.26157641410827637,1.5407179594039917,-0.1584755778312683
15.75,-0.06966053694486618,-0.30022332072257996,0.34806275367736816,-0.26829883456230164,1.2900609970092773,-0.12676404416561127
15.775,0.34683191776275635,-0.24100583791732788,0.7965419292449951,-0.25157806277275085,1.072614312171936,-0.08887135237455368
15.8,0.6680909395217896,-0.041603025048971176,1.0176317691802979,-0.202505961060524,0.9347936511039734,-0.02960718795657158
15.825,0.729644775390625,0.03529173135757446,0.95649653673172,-0.16089355945587158,0.8090685606002808,-0.004404749721288681
15.85,0.5677605867385864,-0.003205249086022377,0.8111464381217957,-0.1315164417028427,0.650924026966095,0.022502752020955086
15.875,0.3411155045032501,-0.012911760248243809,0.7115707397460938,-0.13738928735256195,0.5713314414024353,0.015932846814393997
15.9,0.18130448460578918,0.01802637428045273,0.5884905457496643,-0.19367270171642303,0.6555284857749939,-0.0999903529882431
15.925,0.10736960917711258,0.040534984320402145,0.38422679901123047,-0.22827070951461792,0.7606410980224609,-0.25671133399009705
15.95,0.07660909742116928,0.01474571879953146,0.13148841261863708,-0.21052518486976624,0.7961364388465881,-0.33845555782318115
15.975,0.09300073981285095,0.002973560243844986,-0.05158431828022003,-0.1716853827238083,0.7894057035446167,-0.3579176068305969
16.0,0.22308915853500366,0.017257696017622948,-0.17339815199375153,-0.1898382306098938,0.7581076622009277,-0.39557215571403503
16.025,0.43680357933044434,-0.03185269981622696,-0.28292545676231384,-0.2495453655719757,0.6440066695213318,-0.3958170711994171
16.05,0.5931370258331299,-0.19769187271595,-0.38359421491622925,-0.2778409719467163,0.45750078558921814,-0.2854178547859192
16.075,0.5246933698654175,-0.48135751485824585,-0.4055330455303192,-0.26770615577697754,0.29220572113990784,-0.13417361676692963
16.1,0.2914658784866333,-0.696281373500824,-0.2976721227169037,-0.248917818069458,0.22060424089431763,-0.03668771684169769
16.125,0.14669638872146606,-0.5817479491233826,-0.19014212489128113,-0.2713983952999115,0.2856212258338928,-0.05317118391394615
16.15,0.16138480603694916,-0.15023039281368256,-0.18386326730251312,-0.3206811249256134,0.4195990562438965,-0.14039340615272522
16.175,0.31835436820983887,0.27263161540031433,-0.27339044213294983,-0.36174970865249634,0.498047411441803,-0.22638994455337524
16.2,0.548179566860199,0.44359779357910156,-0.33885565400123596,-0.3323949873447418,0.40306878089904785,-0.23288869857788086
16.225,0.6305323839187622,0.4265422821044922,-0.19841253757476807,-0.21033678948879242,0.1800280064344406,-0.11652915924787521
16.25,0.5006467700004578,0.4083242416381836,-0.01895996369421482,-0.11628589034080505,0.023808598518371582,0.014478707686066628
16.275,0.28682857751846313,0.43234825134277344,-0.016241740435361862,-0.1016765832901001,-0.0178669523447752,0.07892200350761414
16.3,0.08292576670646667,0.40258023142814636,-0.10395298153162003,-0.11010420322418213,-0.043448179960250854,0.1035195142030716
16.325,-0.07559885084629059,0.3170575797557831,-0.08151867240667343,-0.10165413469076157,-0.10822590440511703,0.09054002910852432
16.35,-0.10964399576187134,0.25293442606925964,0.049123238772153854,-0.09678052365779877,-0.1533580720424652,0.01827135495841503
16.375,0.012977749109268188,0.23377035558223724,0.19200704991817474,-0.10482829809188843,-0.14488916099071503,-0.08740293234586716
16.4,0.18401257693767548,0.20406532287597656,0.3289659023284912,-0.11678747087717056,-0.10431214421987534,-0.15378320217132568
16.425,0.3300973176956177,0.1945219188928604,0.4156079888343811,-0.11217215657234192,-0.06945113092660904,-0.14419828355312347
16.45,0.42020663619041443,0.2099161297082901,0.40647444128990173,-0.07834942638874054,-0.08115586638450623,-0.0942370817065239
16.475,0.4303187131881714,0.16291333734989166,0.27344173192977905,-0.025477826595306396,-0.11948441714048386,-0.046932805329561234
16.5,0.3610539436340332,-0.009599663317203522,0.06574425846338272,0.014450746588408947,-0.15776069462299347,-0.016305861994624138
16.525,0.26128602027893066,-0.21009919047355652,-0.10011009871959686,0.036794934421777725,-0.1746484935283661,0.0024486344773322344
16.55,0.2457391917705536,-0.2898730933666229,-0.16622644662857056,0.04035051167011261,-0.1472313404083252,-0.014144591055810452
16.575,0.30128800868988037,-0.21990486979484558,-0.13856051862239838,0.04697437584400177,-0.08775343745946884,-0.05602564662694931
16.6,0.3701348602771759,-0.028084734454751015,-0.059455111622810364,0.06077855825424194,-0.009663890115916729,-0.0809784084558487
16.625,0.4789679944515228,0.18416978418827057,0.04540093615651131,0.03982872515916824,0.10603568702936172,-0.10650749504566193
16.65,0.5832558274269104,0.32906627655029297,0.1990642249584198,0.003800787031650543,0.20246656239032745,-0.1372540444135666
16.675,0.6508713364601135,0.4180316925048828,0.3426752984523773,-0.007346313446760178,0.2530730664730072,-0.1592993289232254
16.7,0.693122386932373,0.49474242329597473,0.4244782626628876,0.03609907254576683,0.23990152776241302,-0.1530187577009201
16.725,0.6623101830482483,0.5432004928588867,0.4831211268901825,0.1097957119345665,0.18807226419448853,-0.1125563532114029
16.75,0.6055096983909607,0.5394172668457031,0.5400426983833313,0.17387953400611877,0.13702930510044098,-0.07407449930906296
16.775,0.5510745644569397,0.46571922302246094,0.6026581525802612,0.1817459762096405,0.12932415306568146,-0.07192613929510117
16.8,0.5677832365036011,0.3735027611255646,0.652569055557251,0.13973385095596313,0.17776350677013397,-0.09702154248952866
16.825,0.7135335206985474,0.29778197407722473,0.7062456011772156,0.08920320868492126,0.24546779692173004,-0.13447725772857666
16.85,0.860252857208252,0.19443993270397186,0.7995636463165283,0.07209119945764542,0.30907654762268066,-0.1376444399356842
16.875,0.915647029876709,0.0578194335103035,0.9000716209411621,0.09277781844139099,0.3691098093986511,-0.10734381526708603
16.9,0.9424788355827332,-0.09209052473306656,0.8249024152755737,0.11807172745466232,0.41552722454071045,-0.07436171174049377
16.925,0.8863658905029297,-0.2542332708835602,0.6055595874786377,0.15814770758152008,0.40753644704818726,-0.022858818992972374
16.95,0.7685160636901855,-0.3670147955417633,0.4421694576740265,0.2131028175354004,0.35234972834587097,0.04826309159398079
16.975,0.6872406005859375,-0.40299978852272034,0.3268263638019562,0.24488352239131927,0.32393425703048706,0.08502469211816788
17.0,0.618348240852356,-0.45628446340560913,0.1710064709186554,0.2175292670726776,0.3724570870399475,0.07453664392232895
17.025,0.5801780819892883,-0.5740107297897339,0.0035114034544676542,0.17531754076480865,0.41598454117774963,0.06293585151433945
17.05,0.6219577193260193,-0.6222943663597107,-0.20631220936775208,0.16784386336803436,0.3654046058654785,0.06906376034021378
17.075,0.5571935772895813,-0.458976686000824,-0.4800146520137787,0.18887609243392944,0.3168528974056244,0.09636907279491425
17.1,0.23600812256336212,-0.1935863345861435,-0.7542628645896912,0.1821466088294983,0.4646613597869873,0.15643052756786346
17.125,-0.013838738203048706,0.008895854465663433,-0.7540077567100525,0.18003402650356293,0.6655275225639343,0.21985118091106415
17.15,0.16631242632865906,0.3665866553783417,-0.4755716919898987,0.28084853291511536,0.5483737587928772,0.22121404111385345
17.175,0.3784705400466919,0.6701516509056091,-0.39689725637435913,0.3197329640388489,0.40756621956825256,0.1833694577217102
17.2,0.11539790034294128,0.7058867812156677,-0.5096139907836914,0.28372007608413696,0.2974761724472046,0.15575961768627167
17.225,-0.47223445773124695,0.39680761098861694,-0.525400698184967,0.3612019419670105,0.16287106275558472,0.08414428681135178
17.25,-1.1650047302246094,-0.17944341897964478,-0.44351181387901306,0.3438391089439392,0.14340731501579285,-0.024917559698224068
17.275,-1.7933380603790283,-0.6254969239234924,-0.3077594041824341,0.14621448516845703,0.31028053164482117,-0.1167638748884201
17.3,-2.0425870418548584,-0.5850268006324768,-0.03603675588965416,-0.05915886536240578,0.4947730004787445,-0.16061744093894958
17.325,-1.7750002145767212,-0.11265762895345688,0.36255311965942383,-0.1656631976366043,0.5806577205657959,-0.15690261125564575
17.35,-1.1808139085769653,0.4127167761325836,0.6670423746109009,-0.2075299769639969,0.5242214798927307,-0.15118053555488586
17.375,-0.7812260389328003,0.6388930678367615,0.7770566344261169,-0.18199679255485535,0.40391579270362854,-0.10695111006498337
17.4,-0.8522524833679199,0.3752831816673279,0.7955109477043152,-0.14034022390842438,0.26359590888023376,-0.04271451011300087
17.425,-1.1008615493774414,-0.1944427788257599,0.7522649765014648,-0.14658425748348236,0.21683961153030396,0.04241118207573891
17.45,-1.1728507280349731,-0.6619024276733398,0.6465111374855042,-0.16819822788238525,0.2537379264831543,0.08759653568267822
17.475,-0.9449273347854614,-0.833714485168457,0.5356749892234802,-0.18848203122615814,0.3459870219230652,0.10843650996685028
17.5,-0.5137478113174438,-0.8193559050559998,0.37008339166641235,-0.22212553024291992,0.5039526224136353,0.11411820352077484
17.525,0.05649268627166748,-0.6950950026512146,0.01610293984413147,-0.22329455614089966,0.5957598090171814,0.10365476459264755
17.55,0.41062813997268677,-0.4329366385936737,-0.5360081195831299,-0.12739026546478271,0.6305928826332092,0.1710646003484726
17.575,0.1478133499622345,-0.08532048016786575,-1.0364729166030884,0.06749648600816727,0.6655300855636597,0.3057151138782501
17.6,-0.6317023038864136,0.32212820649147034,-1.1246858835220337,0.30971860885620117,0.6588731408119202,0.37788060307502747
17.625,-1.4508057832717896,0.7464740872383118,-0.8750259876251221,0.40603792667388916,0.6513016223907471,0.33039337396621704
17.65,-1.8832170963287354,1.0225589275360107,-0.5791271924972534,0.2838754653930664,0.682441771030426,0.17806383967399597
17.675,-1.7914055585861206,0.993516743183136,-0.39737841486930847,0.06393556296825409,0.6594151258468628,0.0010405199136584997
17.7,-1.3924959897994995,0.71049964427948,-0.3195398151874542,-0.11380497366189957,0.5991573929786682,-0.08967088907957077
17.725,-0.9123103618621826,0.4461459219455719,-0.2687980532646179,-0.16883383691310883,0.4841459095478058,-0.1088118925690651
17.75,-0.4708431661128998,0.4042453169822693,-0.21307407319545746,-0.0922902300953865,0.3388771116733551,-0.11553297191858292
17.775,-0.12257393449544907,0.5471343398094177,-0.1833268105983734,0.029355602338910103,0.18509599566459656,-0.155507430434227
17.8,0.05315405875444412,0.7347277998924255,-0.12263434380292892,0.15549859404563904,0.0037984063383191824,-0.21066641807556152
17.825,0.08211620151996613,0.8947953581809998,-0.03684205561876297,0.2277417778968811,-0.14023716747760773,-0.217481791973114
17.85,0.045077040791511536,0.9536427855491638,0.03065629117190838,0.19924777746200562,-0.20624996721744537,-0.21314972639083862
17.875,-0.015795409679412842,0.8753690123558044,0.13980357348918915,0.12042694538831711,-0.20627082884311676,-0.21213608980178833
17.9,-0.0807078406214714,0.6783704161643982,0.3087826669216156,0.04774691164493561,-0.20190079510211945,-0.2474977672100067
17.925,-0.09102651476860046,0.4623250663280487,0.38392290472984314,-0.010434754192829132,-0.15774954855442047,-0.2951265275478363
17.95,0.012225314974784851,0.2154226303100586,0.36355218291282654,-0.03186756372451782,-0.13498952984809875,-0.34266501665115356
17.975,0.15949836373329163,-0.06679341942071915,0.31867462396621704,-0.02462098002433777,-0.18428415060043335,-0.3571311831474304
18.0,0.2682948708534241,-0.3957309126853943,0.3201083242893219,0.032929614186286926,-0.2966449558734894,-0.33669623732566833
18.025,0.21160005033016205,-0.720272958278656,0.358161062002182,0.07776884734630585,-0.3815353214740753,-0.2814595699310303
18.05,0.07948500663042068,-0.9627990126609802,0.2706911265850067,0.05036654323339462,-0.3967548608779907,-0.21450763940811157
18.075,0.038131192326545715,-1.0439881086349487,0.03257230669260025,0.03202347457408905,-0.3724384307861328,-0.13423050940036774
18.1,0.06311240792274475,-0.9510697722434998,-0.17604832351207733,0.02476777881383896,-0.32204538583755493,-0.06883049756288528
18.125,0.07011882960796356,-0.7449693083763123,-0.2449464350938797,0.03136788308620453,-0.30025720596313477,-0.034084469079971313
18.15,0.13014976680278778,-0.5206488966941833,-0.28248926997184753,0.06438037753105164,-0.3464633822441101,-0.009977037087082863
18.175,0.26249852776527405,-0.4465627372264862,-0.42904889583587646,0.048682376742362976,-0.43929463624954224,0.014717897400259972
18.2,0.3378088176250458,-0.7034167647361755,-0.571860134601593,-0.0574134923517704,-0.5303419232368469,0.0330294594168663
18.225,0.27906325459480286,-1.1230419874191284,-0.48801156878471375,-0.11309371143579483,-0.6238679885864258,0.08319499343633652
18.25,0.27025049924850464,-1.3792723417282104,-0.29772651195526123,-0.08560390770435333,-0.5932294130325317,0.1597391963005066
18.275,0.40308624505996704,-1.4746540784835815,-0.3333992063999176,-0.12768064439296722,-0.41518333554267883,0.22426176071166992
18.3,0.583031415939331,-1.5459870100021362,-0.4281115233898163,-0.17019546031951904,-0.351061075925827,0.2862498164176941
18.325,0.6090353727340698,-1.6077555418014526,-0.22353246808052063,-0.1175464317202568,-0.49663111567497253,0.3473648428916931
18.35,0.35889336466789246,-1.3740156888961792,0.24755506217479706,-0.031223297119140625,-0.6655001044273376,0.4335251450538635
18.375,0.07415971159934998,-0.5910405516624451,0.5282788276672363,-0.03997974097728729,-0.6141647696495056,0.550389289855957
18.4,-0.033500030636787415,0.3982381522655487,0.43499141931533813,-0.19089822471141815,-0.4168680012226105,0.6039829254150391
18.425,-0.06427830457687378,1.1361550092697144,0.294249027967453,-0.3402891457080841,-0.36120280623435974,0.6170183420181274
18.45,-0.22458375990390778,1.3514260053634644,0.407094269990921,-0.35004347562789917,-0.4589458405971527,0.6084614992141724
18.475,-0.5291073322296143,1.1141222715377808,0.4611128270626068,-0.3567330837249756,-0.4733699858188629,0.5308218002319336
18.5,-0.7164899110794067,0.8038052320480347,0.3719041347503662,-0.3752826452255249,-0.34137120842933655,0.40900135040283203
18.525,-0.5915359258651733,0.7204522490501404,0.3460206091403961,-0.3693643808364868,-0.18580465018749237,0.3396289646625519
18.55,-0.35016047954559326,0.7933692336082458,0.3785748779773712,-0.33626848459243774,-0.06708615273237228,0.3385108411312103
18.575,-0.21048910915851593,0.8537787795066833,0.39013877511024475,-0.197557270526886,-0.12029620260000229,0.3718907833099365
18.6,-0.21092522144317627,0.8378457427024841,0.39322710037231445,0.11588195711374283,-0.2564166784286499,0.38788482546806335
18.625,-0.11551892757415771,0.8256730437278748,0.4348903000354767,0.33017244935035706,-0.3013738691806793,0.2900114953517914
18.65,0.09945344924926758,0.7018241286277771,0.4555177390575409,0.206771120429039,-0.058793287724256516,0.11944495141506195
18.675,0.3544469475746155,0.5080156326293945,0.49190041422843933,0.03359931334853172,0.16702598333358765,-0.04632898420095444
18.7,0.527737021446228,0.40125179290771484,0.4651503264904022,-0.006875038146972656,0.16970741748809814,-0.15565767884254456
18.725,0.4759577512741089,0.3145427703857422,0.272802472114563,-0.05957314744591713,0.1953074187040329,-0.17025311291217804
18.75,0.3095951974391937,0.30825233459472656,-0.05114362761378288,-0.1459295004606247,0.37870293855667114,-0.1669600009918213
18.775,0.1331937313079834,0.48377320170402527,-0.20641405880451202,-0.08582057058811188,0.462316632270813,-0.1486929953098297
18.8,-0.04924653843045235,0.7219495177268982,-0.14234907925128937,0.03563607856631279,0.27273374795913696,-0.1575988084077835
18.825,-0.23075121641159058,0.7640447020530701,0.023128539323806763,0.1282937079668045,0.05675279349088669,-0.2016054093837738
18.85,-0.4391138255596161,0.524904191493988,0.21574783325195312,0.057790905237197876,0.05390641465783119,-0.2530353367328644
18.875,-0.5520411133766174,0.33238500356674194,0.36799922585487366,-0.05635448545217514,0.08785741031169891,-0.24817749857902527
18.9,-0.517472505569458,0.47438520193099976,0.40930309891700745,-0.08959616720676422,0.04972859472036362,-0.19973446428775787
18.925,-0.3187596797943115,0.7470044493675232,0.3027941882610321,-0.1873340904712677,0.04052825644612312,-0.18028363585472107
18.95,0.04751443862915039,0.7204770445823669,0.080412358045578,-0.3456181585788727,0.06362006813287735,-0.18928709626197815
18.975,0.410273015499115,0.26632118225097656,-0.06782019138336182,-0.348673939704895,-0.021633101627230644,-0.2103877067565918
19.0,0.541141927242279,-0.2722157835960388,-0.04276472330093384,-0.2030843198299408,-0.1736377477645874,-0.23013423383235931
19.025,0.40358036756515503,-0.5493020415306091,0.0623159222304821,-0.08400547504425049,-0.16710035502910614,-0.2551650404930115
19.05,0.2787899971008301,-0.3545817732810974,0.1682044267654419,-0.03262918442487717,-0.052046261727809906,-0.290973961353302
19.075,0.2785457968711853,0.18471145629882812,0.29547572135925293,-0.031360968947410583,0.03013136237859726,-0.32052579522132874
19.1,0.26122358441352844,0.5650939345359802,0.4548552632331848,-0.0989527553319931,0.10190032422542572,-0.3137059807777405
19.125,0.2711402177810669,0.5467347502708435,0.5742604732513428,-0.19248485565185547,0.14879728853702545,-0.3054776191711426
19.15,0.34101706743240356,0.4479637145996094,0.5850505828857422,-0.18496334552764893,0.17193129658699036,-0.2811884880065918
19.175,0.4452396333217621,0.4719696044921875,0.4784403443336487,-0.06333844363689423,0.17855213582515717,-0.2959001064300537
19.2,0.518945038318634,0.49663639068603516,0.4212639331817627,0.0691704973578453,0.17058300971984863,-0.3871224820613861
19.225,0.6009628176689148,0.43015098571777344,0.36545953154563904,0.12528622150421143,0.2242097556591034,-0.49459075927734375
19.25,0.6039469242095947,0.31833648681640625,0.3073178827762604,0.07121014595031738,0.36726993322372437,-0.5665794014930725
19.275,0.5030356645584106,0.2153043895959854,0.2976001501083374,-0.02163270115852356,0.5396668314933777,-0.609390377998352
19.3,0.3949369788169861,0.13118554651737213,0.3199350833892822,-0.07794080674648285,0.6691064834594727,-0.6405211687088013
19.325,0.28955912590026855,0.06429006159305573,0.29630428552627563,-0.06852671504020691,0.6810470223426819,-0.6571963429450989
19.35,0.11202002316713333,-0.07994459569454193,0.1341862827539444,-0.029017165303230286,0.593005895614624,-0.6583422422409058
19.375,-0.13419315218925476,-0.2647247016429901,-0.06594806909561157,-0.022775858640670776,0.46514248847961426,-0.6476995348930359
19.4,-0.30555790662765503,-0.4094390869140625,-0.20156510174274445,-0.023066803812980652,0.2902955412864685,-0.6318787932395935
19.425,-0.3877061903476715,-0.5108470320701599,-0.26992571353912354,-0.05028855800628662,0.16323170065879822,-0.6176106929779053
19.45,-0.35045096278190613,-0.6185159087181091,-0.30101317167282104,-0.025768473744392395,0.06883089989423752,-0.5832461714744568
19.475,-0.2602471709251404,-0.7257851958274841,-0.20936055481433868,0.028775617480278015,-0.024915309622883797,-0.5405054688453674
19.5,-0.2006428986787796,-0.8087024092674255,-0.09902597963809967,0.029059067368507385,-0.04242479428648949,-0.48013588786125183
19.525,-0.12304120510816574,-0.7631320357322693,-0.002535077976062894,0.0485234409570694,-0.028216306120157242,-0.3843752443790436
19.55,0.034546226263046265,-0.5350961089134216,0.0861319750547409,0.12867975234985352,-0.011554515920579433,-0.28727996349334717
19.575,0.19888508319854736,-0.2841129004955292,0.112968310713768,0.18073830008506775,-0.0064324201084673405,-0.2352030873298645
19.6,0.2884894013404846,-0.12439820170402527,0.12793698906898499,0.15353001654148102,-0.011988668702542782,-0.19081023335456848
19.625,0.282699853181839,-0.12201020121574402,0.13439145684242249,0.08570962399244308,-0.03232484310865402,-0.15181970596313477
19.65,0.14938132464885712,-0.22329041361808777,0.12122772634029388,0.04835360497236252,-0.04957923665642738,-0.10502681881189346
19.675,0.012406500056385994,-0.4455699622631073,-0.014989818446338177,0.00879383459687233,-0.022649068385362625,-0.05402199178934097
19.7,-0.10739346593618393,-0.661531388759613,-0.29504984617233276,-0.001616764348000288,-0.008399585261940956,0.018567409366369247
19.725,-0.13424736261367798,-0.6307467818260193,-0.5343813300132751,0.037172406911849976,-0.05973462760448456,0.0973820686340332
19.75,-0.12090304493904114,-0.3328237533569336,-0.4860038161277771,0.09539619088172913,-0.10875680297613144,0.15236100554466248
19.775,-0.08193609118461609,0.07640931755304337,-0.32537564635276794,0.09502223134040833,-0.08153597265481949,0.13365069031715393
19.8,0.014020886272192001,0.3478946387767792,-0.17855031788349152,0.0774807333946228,-0.06519525498151779,0.09769997745752335
19.825,0.1756289303302765,0.3405561149120331,-0.0760856494307518,-9.65707004070282e-05,-0.01218185480684042,0.08552984893321991
19.85,0.4030018448829651,0.15032291412353516,-0.0505862757563591,-0.09245257079601288,0.03170908987522125,0.05465732142329216
19.875,0.5486941337585449,-0.06767269223928452,-0.09329787641763687,-0.10816136002540588,0.048887692391872406,0.014401071704924107
19.9,0.4573327898979187,-0.15282151103019714,-0.1306561678647995,-0.05315316095948219,0.03317885100841522,0.0041640643030405045
19.925,0.22929172217845917,-0.047978390008211136,-0.19752100110054016,-0.001240929588675499,-0.0008500092662870884,-0.019499409943819046
