Time [s],Acc_x [m/s^2],Acc_y [m/s^2],Acc_z [m/s^2],Gyro_x [1/s],Gyro_y [1/s],Gyro_z [1/s]
0.0,-0.0156683512032032,0.15518666803836823,-0.03841819241642952,-0.017325788736343384,0.020278481766581535,0.0011996523244306445
0.05,0.020723111927509308,0.16507436335086823,0.00453603733330965,-0.0116429403424263,0.020967265591025352,-0.0015560658648610115
0.1,-0.016628272831439972,0.15892793238162994,0.03033927083015442,-0.014392741955816746,0.020227329805493355,-0.002619798295199871
0.15,-0.009031558409333229,0.1377267986536026,0.04623386636376381,-0.01815679296851158,0.011687960475683212,-0.004284531809389591
0.2,0.03425539284944534,0.15277482569217682,-0.05181483179330826,-0.022306282073259354,0.005176186561584473,-0.004900684114545584
0.25,0.04172796010971069,0.1360807567834854,-0.03685459867119789,-0.015579305589199066,0.005425309296697378,-0.0018609024118632078
0.3,0.03717164695262909,0.1303701400756836,0.09563454985618591,-0.015521742403507233,0.01823611743748188,0.003917689900845289
0.35,-0.02830526977777481,0.08889197558164597,0.1742926687002182,-0.03179175779223442,0.025211313739418983,0.006826768163591623
0.4,-0.021918848156929016,0.08898735046386719,0.0821998119354248,-0.040180571377277374,0.018699252977967262,0.005724853370338678
0.45,0.01439114660024643,0.13543321192264557,-0.03467782586812973,-0.03694428503513336,0.005101113114506006,0.0010319899301975965
0.5,0.009494505822658539,0.19254402816295624,-0.10011715441942215,-0.01780036650598049,0.014370718970894814,-0.0004026302485726774
0.55,-0.021353038027882576,0.1809845268726349,-0.0648912712931633,0.010639267973601818,0.023422900587320328,0.0019672017078846693
0.6,-0.038130611181259155,0.1126861721277237,0.009297342970967293,0.02275232970714569,0.020218320190906525,0.0009594605653546751
0.65,-0.009909180924296379,0.14073564112186432,-0.047618307173252106,0.020503252744674683,0.011085312813520432,-0.000819083652459085
0.7,-0.03138754516839981,0.16003991663455963,0.0038418136537075043,0.017793696373701096,0.010183081962168217,-0.0011810208670794964
0.75,-0.03325389325618744,0.10542012751102448,0.05982807278633118,0.015427842736244202,0.01122873742133379,0.0017409046413376927
0.8,-0.014965524896979332,0.11742021143436432,-0.022300919517874718,0.01020051073282957,0.00536359054967761,0.002067757537588477
0.85,0.00550385657697916,0.13914872705936432,0.012528638355433941,0.01506553404033184,-0.010875722393393517,-0.0036069774068892
0.9,-0.005407136864960194,0.15083982050418854,0.03382469341158867,0.019610071554780006,-0.014263486489653587,-0.0047103650867938995
0.95,-0.000367509201169014,0.11820793896913528,0.04623980447649956,0.020720895379781723,-0.010868724435567856,-0.00552026741206646
1.0,-0.0032891742885112762,0.09855843335390091,0.10427248477935791,0.018220216035842896,-0.009454669430851936,-0.004180763848125935
1.05,0.001528620719909668,0.09911347180604935,0.09601765125989914,0.01264396496117115,-0.001588433631695807,-0.00039300249773077667
1.1,0.0013074143789708614,0.1068725734949112,0.011234520934522152,0.012743773870170116,0.009410041384398937,0.00159314030315727
1.15,0.009867610409855843,0.13185693323612213,-0.0176367349922657,0.009993206709623337,0.01095173042267561,0.0031070951372385025
1.2,-0.024553727358579636,0.16676999628543854,-0.030923139303922653,0.007120553404092789,0.012286189943552017,0.0032067508436739445
1.25,0.006611802615225315,0.16922475397586823,-0.025474613532423973,0.0068280817940831184,0.010427994653582573,0.0013047654647380114
1.3,-0.013060075230896473,0.18609429895877838,0.02251436747610569,0.006968345958739519,0.011081867851316929,0.0007465324597433209
1.35,-0.04334302991628647,0.1482877880334854,0.007710443343967199,0.006464543752372265,0.016141677275300026,-0.0004121108795516193
1.4,-0.05272514000535011,0.1047363430261612,0.028823019936680794,0.004990294575691223,0.01284207496792078,-0.001312235021032393
1.45,-0.03344324603676796,0.12190057337284088,0.034809768199920654,0.00283812265843153,0.010395724326372147,-0.0023368755355477333
1.5,-0.002130037173628807,0.12082577496767044,0.059966474771499634,0.004168803803622723,0.0030254179146140814,-0.003442262066528201
1.55,0.020044682547450066,0.13139058649539948,0.04852117598056793,0.010016453452408314,-0.0006656569894403219,-0.0041697463020682335
1.6,-0.031917668879032135,0.12106896936893463,0.05591707304120064,0.012864110060036182,0.002601924119517207,-0.0030490753706544638
1.65,-0.03872035816311836,0.12853911519050598,-0.043589480221271515,0.010869280435144901,-0.004510845988988876,-0.0047986782155931
1.7,0.1471882462501526,0.09818746149539948,-0.1722780019044876,0.03632199391722679,-0.019852668046951294,-0.008687716908752918
1.75,-0.0012093931436538696,0.0347595140337944,0.13530012965202332,0.0954209640622139,0.007637795526534319,0.00420598778873682
1.8,-0.17683635652065277,0.09864427149295807,0.19958403706550598,0.09471200406551361,0.03494499996304512,-0.0014289235696196556
1.85,-0.1226893961429596,0.2845678925514221,-0.1664281040430069,0.02923012338578701,-0.03155460208654404,-0.028429510071873665
1.9,0.22249242663383484,0.42224130034446716,-0.5639458894729614,-0.031717345118522644,-0.14443448185920715,-0.05920472741127014
1.95,0.33594271540641785,0.21692754328250885,-0.18981590867042542,0.010805249214172363,-0.13442464172840118,-0.04530731216073036
2.0,-0.056282222270965576,-0.03691773861646652,0.575432538986206,0.06234676390886307,-0.02353568747639656,-0.01873532123863697
2.05,-0.25706395506858826,-0.022690825164318085,0.7936636209487915,0.034506168216466904,-0.03409228101372719,-0.03595510497689247
2.1,0.05174356698989868,0.09850309044122696,0.32248204946517944,0.00036362186074256897,-0.12417657673358917,-0.06571333110332489
2.15,0.2599885165691376,0.10651778429746628,-0.06324975937604904,0.013431230559945107,-0.1494171917438507,-0.06481114774942398
2.2,0.2337408810853958,0.1493978649377823,-0.20015229284763336,0.05238279327750206,-0.07705996185541153,-0.04417229816317558
2.25,0.07403156161308289,0.17154981195926666,-0.042435772716999054,0.07471912354230881,-0.0027130180969834328,-0.02393064834177494
2.3,-0.007305048406124115,0.11356925964355469,0.1296803206205368,0.07629655301570892,-0.0034147354308515787,-0.03151174634695053
2.35,0.09719669818878174,0.11673163622617722,0.17625583708286285,0.06809407472610474,-0.04405996575951576,-0.05081770569086075
2.4,0.03505947068333626,0.1708545684814453,0.07958095520734787,0.04187030717730522,-0.0371721014380455,-0.05475394055247307
2.45,-0.007201500236988068,0.21532252430915833,-0.06881703436374664,-0.0029588937759399414,-0.04187917336821556,-0.06688077002763748
2.5,0.3140656054019928,0.25431060791015625,-0.11411496251821518,-0.005555208772420883,-0.08483262360095978,-0.07886797189712524
2.55,0.35657769441604614,0.17805956304073334,-0.03288661688566208,0.029441513121128082,-0.053977299481630325,-0.05789825692772865
2.6,0.0811067745089531,0.1683645248413086,0.1409812867641449,0.03834173083305359,0.017175402492284775,-0.03569253906607628
2.65,-0.07544796168804169,0.21306517720222473,0.11490563303232193,0.01640479266643524,0.030551308766007423,-0.03982789069414139
2.7,-0.033856164664030075,0.18865205347537994,0.13932235538959503,-0.006767850369215012,-0.001980989705771208,-0.0555938184261322
2.75,-0.033695753663778305,0.237369567155838,-0.0261849258095026,-0.0502161905169487,-0.02537616342306137,-0.06471583992242813
2.8,0.013532623648643494,0.3507910370826721,-0.3507930636405945,-0.1051512286067009,-0.06327161937952042,-0.07845720648765564
2.85,0.14805884659290314,0.3468037247657776,-0.566322922706604,-0.12785974144935608,-0.10482743382453918,-0.08896142989397049
2.9,0.3195355236530304,0.3333588242530823,-0.5006722807884216,-0.12117276340723038,-0.0943346917629242,-0.08447934687137604
2.95,0.3576814830303192,0.31702807545661926,-0.3377704620361328,-0.09439480304718018,-0.060966309159994125,-0.061896536499261856
3.0,0.21561135351657867,0.2783232033252716,-0.1823805272579193,-0.057581137865781784,-0.028079761192202568,-0.03504776954650879
3.05,0.02466411143541336,0.20816998183727264,-0.12341111153364182,-0.0030876845121383667,-0.04155687242746353,-0.011155247688293457
3.1,-0.19807425141334534,0.28876689076423645,0.11683575063943863,0.027928251773118973,-0.07556213438510895,-0.008298479951918125
3.15,-0.31550630927085876,0.37473583221435547,0.741132915019989,-0.010791992768645287,-0.0676230639219284,-0.037302229553461075
3.2,-0.2248668670654297,0.3194635808467865,2.0966806411743164,-0.19947916269302368,0.0902176946401596,-0.06194270774722099
3.25,-0.8008383512496948,-0.14535249769687653,2.1613638401031494,-0.4989442527294159,0.37591826915740967,-0.05137845128774643
3.3,-1.4411516189575195,0.17850421369075775,-0.7092682719230652,-0.6061550378799438,0.20435501635074615,-0.15411248803138733
3.35,0.11123919486999512,-0.4269922375679016,-2.621729850769043,-0.4837382137775421,-0.6610642671585083,-0.3119588792324066
3.4,2.4728927612304688,-1.1001228094100952,-0.4443301260471344,-0.3394535481929779,-1.142512321472168,-0.1735125631093979
3.45,1.198241114616394,-1.2923614978790283,-0.1293005347251892,-0.17077578604221344,-0.372042179107666,0.145035982131958
3.5,0.25189733505249023,-0.24765470623970032,-2.828111171722412,0.21548497676849365,-0.2324475795030594,0.2831798195838928
3.55,-0.12786421179771423,0.2546482980251312,-0.6344364881515503,0.48466426134109497,-0.44389259815216064,0.24290794134140015
3.6,0.8069397211074829,-0.1504213809967041,1.5758848190307617,0.5552657842636108,-0.8126057982444763,0.17460928857326508
3.65,0.2237638235092163,-0.3665240705013275,2.924144983291626,0.5466589331626892,-0.671962320804596,0.14283950626850128
3.7,-0.6303551197052002,-0.05388553813099861,1.4007320404052734,0.4462094306945801,-0.14363569021224976,0.289377361536026
3.75,0.41866445541381836,0.04877853021025658,-0.3261255621910095,0.4076188802719116,-0.10117998719215393,0.3168794512748718
3.8,0.9220156669616699,0.7612581253051758,0.18863441050052643,0.42863404750823975,-0.06599806249141693,0.3859443962574005
3.85,0.5125946998596191,0.42331212759017944,0.7403610944747925,0.15951043367385864,0.13928423821926117,0.32950684428215027
3.9,-0.013807550072669983,0.1756448745727539,0.2517755627632141,0.021596327424049377,0.28612831234931946,0.2723332345485687
3.95,0.05815348029136658,0.3081169128417969,0.33738192915916443,0.04653491824865341,0.14409087598323822,0.23327766358852386
4.0,0.13108709454536438,0.37151142954826355,0.38769131898880005,0.026986457407474518,0.02371170185506344,0.19287362694740295
4.05,0.31045350432395935,0.2800588309764862,0.36213254928588867,0.013091087341308594,0.0831560492515564,0.16781173646450043
4.1,0.2732107639312744,0.30177491903305054,0.541926383972168,0.007664613425731659,0.15800967812538147,0.16421672701835632
4.15,0.2007598876953125,0.2568340003490448,0.41171208024024963,0.0005440190434455872,0.11169937252998352,0.1462441235780716
4.2,0.36287403106689453,0.29581162333488464,0.33410683274269104,-0.004777185618877411,0.10600806027650833,0.14531312882900238
4.25,0.4724426865577698,0.35197827219963074,0.22170136868953705,-0.04063031077384949,0.13150615990161896,0.12255915999412537
4.3,0.49845337867736816,0.34331318736076355,0.27961868047714233,-0.07018992304801941,0.12260302156209946,0.10039914399385452
4.35,0.5271023511886597,0.320125550031662,0.16474361717700958,-0.10101854801177979,0.09609271585941315,0.0734480768442154
4.4,0.6447576284408569,0.3832817077636719,-0.1284908801317215,-0.08742742985486984,0.11443445086479187,0.08253045380115509
4.45,0.4764235317707062,0.3786783814430237,-0.43567314743995667,-0.07667529582977295,0.20959380269050598,0.08343135565519333
4.5,0.28303003311157227,0.43622592091560364,0.12312117218971252,-0.06138685345649719,0.1982344686985016,0.018225794658064842
4.55,0.36763811111450195,0.4529065787792206,0.6042247414588928,-0.006951902061700821,-0.06707625091075897,-0.03304299712181091
4.6,0.49565795063972473,0.22412291169166565,0.7483815550804138,0.029237767681479454,-0.25136032700538635,-0.02788364700973034
4.65,0.16443543136119843,0.1478528380393982,0.5917201042175293,0.049550581723451614,-0.1139259785413742,-0.05152999982237816
4.7,-0.12873366475105286,0.35270214080810547,0.559594452381134,0.047326818108558655,-0.05491337180137634,-0.14341241121292114
4.75,0.281008243560791,0.44063571095466614,-0.023034095764160156,0.04502297192811966,-0.18556790053844452,-0.18946000933647156
4.8,0.752545177936554,0.505279541015625,-0.41914600133895874,0.08151672780513763,-0.30134227871894836,-0.1894172728061676
4.85,1.0115140676498413,0.5034751892089844,-0.3045136332511902,0.07577002048492432,-0.2976952791213989,-0.2080642431974411
4.9,0.6793166399002075,0.31478309631347656,-0.2934384346008301,0.04289453476667404,-0.2692936360836029,-0.20365259051322937
4.95,0.0031486302614212036,0.2803812623023987,-0.30357488989830017,0.02615489810705185,-0.3010932207107544,-0.22321127355098724
5.0,-0.013704418204724789,0.33426859974861145,-0.0004485951503738761,0.02007649838924408,-0.40947389602661133,-0.2954765260219574
5.05,0.41345030069351196,0.3262586295604706,0.17321710288524628,0.048784367740154266,-0.3633232116699219,-0.22475260496139526
5.1,0.7022595405578613,0.21505063772201538,0.2999943196773529,0.04842714965343475,-0.29733791947364807,-0.17568586766719818
5.15,0.21821677684783936,0.14860056340694427,0.03367915377020836,0.011317864060401917,-0.07878262549638748,-0.14162364602088928
5.2,-0.14930222928524017,0.13379864394664764,-0.14215858280658722,0.03430629149079323,0.016813205555081367,-0.09940382838249207
5.25,-0.1550993025302887,0.31824496388435364,0.23644720017910004,0.08865721523761749,-0.07405240088701248,-0.05204533785581589
5.3,0.06098929047584534,0.19719120860099792,0.6171042919158936,0.03316432982683182,-0.09097575396299362,-0.05898341163992882
5.35,-0.008174002170562744,0.14595790207386017,0.6677676439285278,-0.023502983152866364,-0.0798293724656105,-0.06893017888069153
5.4,0.10795043408870697,0.11507602035999298,0.5034353137016296,-0.012937717139720917,-0.060366541147232056,-0.06306549161672592
5.45,0.131124809384346,0.19214820861816406,0.21612143516540527,0.017268046736717224,-0.0008123785373754799,-0.013237837702035904
5.5,0.21946191787719727,0.19506357610225677,0.2067686766386032,0.01090302225202322,0.04495609551668167,0.0025387597270309925
5.55,0.21887093782424927,0.172756165266037,0.2680317461490631,0.005807952024042606,0.13274654746055603,0.02742922306060791
5.6,0.14021191000938416,0.2690276801586151,0.33858248591423035,0.0007594525814056396,0.21175861358642578,0.053828559815883636
5.65,0.029240146279335022,0.24455738067626953,0.3177090585231781,-0.026454702019691467,0.18871290981769562,0.0436418317258358
5.7,0.23368853330612183,0.2055635303258896,0.16175106167793274,-0.032651618123054504,0.11525768041610718,0.019848281517624855
5.75,0.4151415228843689,0.25573059916496277,0.13812865316867828,-0.004153002984821796,0.09964850544929504,0.03405184671282768
5.8,0.37744224071502686,0.26807400584220886,0.14816251397132874,-0.0038268864154815674,0.12919290363788605,0.04142497107386589
5.85,0.2690126299858093,0.2832489013671875,0.08865498751401901,-0.01361312810331583,0.12697316706180573,0.03574925661087036
5.9,0.24864694476127625,0.28801441192626953,0.058301880955696106,-0.002899440936744213,0.08866903930902481,0.03272571787238121
5.95,0.32634487748146057,0.28641605377197266,0.08785031735897064,0.004054052755236626,0.050153348594903946,0.026667481288313866
6.0,0.28000110387802124,0.28999805450439453,0.028879785910248756,-0.015485318377614021,0.042965907603502274,0.015125482343137264
6.05,0.24611347913742065,0.293212890625,0.022207343950867653,-0.015213080681860447,0.05812922120094299,0.015020765364170074
6.1,0.18421387672424316,0.2406606674194336,0.11464525759220123,-0.018688909709453583,0.06886900961399078,0.01490726973861456
6.15,0.15212494134902954,0.22143268585205078,0.18890880048274994,-0.029898345470428467,0.025608180090785027,-0.0019638279918581247
6.2,0.20914962887763977,0.25715065002441406,0.1456288993358612,-0.030574128031730652,-0.029372572898864746,-0.01736854761838913
6.25,0.2690269649028778,0.26273536682128906,0.12578792870044708,-0.01811162754893303,-0.026237620040774345,-0.016096509993076324
6.3,0.17558902502059937,0.19747161865234375,0.15636442601680756,-0.009784109890460968,0.0045057241804897785,-0.011774104088544846
6.35,0.07822292298078537,0.22476959228515625,0.2963167726993561,0.005300475750118494,-0.007048649713397026,-0.016150442883372307
6.4,0.07570261508226395,0.23476886749267578,0.21935363113880157,0.006661717314273119,-0.02538135275244713,-0.020659487694501877
6.45,0.14872519671916962,0.22971534729003906,0.0978136658668518,0.005585367791354656,-0.017586911097168922,-0.02162807062268257
6.5,0.08887751400470734,0.21843720972537994,0.03263731300830841,0.0008280174806714058,0.012520726770162582,-0.016968777403235435
6.55,0.08856892585754395,0.24420835077762604,0.0024741136003285646,0.0024803830310702324,0.02408265322446823,-0.012704046443104744
6.6,0.03944328427314758,0.20552924275398254,0.03636948764324188,0.004044017288833857,0.03046438656747341,-0.003241956001147628
6.65,0.03595229610800743,0.2088480144739151,0.10519880056381226,0.006424489431083202,0.04534159600734711,-0.00214177742600441
6.7,0.03671606630086899,0.20298005640506744,0.09230706840753555,0.010691721923649311,0.06491368263959885,0.003829349298030138
6.75,0.119241863489151,0.2291441112756729,0.007744402624666691,0.01632319949567318,0.054187092930078506,0.0028946578968316317
6.8,0.19448381662368774,0.27666378021240234,0.012193538248538971,0.025414075702428818,0.03986214101314545,0.0052275569178164005
6.85,0.09855019301176071,0.3104228973388672,0.13135221600532532,0.0278511643409729,0.04391030594706535,0.008558659814298153
6.9,-0.031863607466220856,0.27154064178466797,0.2271907478570938,0.015916265547275543,0.04759969934821129,-0.0029814501758664846
6.95,-0.024282630532979965,0.2531318962574005,0.12755036354064941,0.013164165429770947,0.022632723674178123,-0.015167386271059513
7.0,0.03730252385139465,0.24503041803836823,0.07548969984054565,0.01599075272679329,-0.011820557527244091,-0.020335808396339417
7.05,0.09801966696977615,0.20511245727539062,0.17139308154582977,0.017082862555980682,0.01555134542286396,-0.014887603931128979
7.1,-0.01528005301952362,0.2109861522912979,0.24438807368278503,0.013602999970316887,0.07436199486255646,-0.00955952424556017
7.15,-0.054097481071949005,0.25219157338142395,0.046978119760751724,0.014686325564980507,0.07560422271490097,-0.013844103552401066
7.2,-0.022483058273792267,0.2739906907081604,-0.16580480337142944,0.005825121887028217,0.048848122358322144,-0.023284412920475006
7.25,-0.010221771895885468,0.25572875142097473,-0.07666574418544769,0.0052283648401498795,0.026848265901207924,-0.02294835075736046
7.3,-0.013467513024806976,0.21161748468875885,0.14083445072174072,0.00675860233604908,0.010079904459416866,-0.022759145125746727
7.35,-0.020107388496398926,0.2120676189661026,0.15887045860290527,0.004240247420966625,0.037494465708732605,-0.020630335435271263
7.4,0.04059906676411629,0.22773554921150208,0.019659820944070816,0.004393700510263443,0.08288987725973129,-0.01147979125380516
7.45,0.11731971055269241,0.193330779671669,-0.023460574448108673,0.0065344651229679585,0.12604321539402008,-0.0023141037672758102
7.5,0.049690913408994675,0.14369012415409088,-0.11575201898813248,0.0019466336816549301,0.1388917714357376,0.0008570812060497701
7.55,-0.07912783324718475,0.2912941575050354,-0.1687716543674469,-0.004134527873247862,0.11533376574516296,0.0034940403420478106
7.6,-0.15555547177791595,0.23296838998794556,-0.12741969525814056,-0.004697139374911785,0.0665736198425293,-0.0031511392444372177
7.65,-0.14545169472694397,0.22561173141002655,0.058521613478660583,0.0011406531557440758,-0.019512617960572243,-0.014955664984881878
7.7,-0.051717646420001984,0.1966553032398224,0.0807972103357315,0.010974729433655739,-0.07039209455251694,-0.02230651304125786
7.75,-0.07258060574531555,0.20352843403816223,0.054932937026023865,0.016661740839481354,-0.07467508316040039,-0.018747951835393906
7.8,-0.08628824353218079,0.1863393932580948,0.019092964008450508,0.015022264793515205,-0.08113954216241837,-0.017588647082448006
7.85,-0.039173610508441925,0.1987324059009552,0.010209488682448864,0.013489066623151302,-0.08470426499843597,-0.014951728284358978
7.9,-0.0070679932832717896,0.217075377702713,0.07773587107658386,0.02178214117884636,-0.08287955820560455,-0.008441459387540817
7.95,0.011197477579116821,0.19994927942752838,0.08998794853687286,0.026787206530570984,-0.06556530296802521,-0.002633111085742712
8.0,-0.010085470974445343,0.23039916157722473,0.08780518174171448,0.029627323150634766,-0.034130774438381195,0.006295883096754551
8.05,-0.013558000326156616,0.2621488869190216,0.024642588570713997,0.030338766053318977,-0.013275072909891605,0.010942887514829636
8.1,0.019287850707769394,0.2533445656299591,-0.030834205448627472,0.026554908603429794,-0.018925828859210014,0.011631743051111698
8.15,0.033318933099508286,0.2339191734790802,0.009568803943693638,0.02483249641954899,-0.020877355709671974,0.013543813489377499
8.2,0.059828706085681915,0.24637988209724426,-0.050530362874269485,0.02976389415562153,-0.028582099825143814,0.01855458877980709
8.25,0.1477697342634201,0.26989081501960754,-0.05811675265431404,0.03778098523616791,-0.05044685676693916,0.022633902728557587
8.3,0.0826232060790062,0.2857723534107208,-0.027513602748513222,0.03551989048719406,-0.06310921907424927,0.02788420580327511
8.35,0.006438968703150749,0.2722654640674591,-0.025310806930065155,0.028181491419672966,-0.0734115019440651,0.02416909672319889
8.4,0.038995351642370224,0.309360533952713,0.05297921970486641,0.018971677869558334,-0.08235718309879303,0.013519526459276676
8.45,0.06808782368898392,0.3260631859302521,0.012708804570138454,0.008960205130279064,-0.07580117881298065,0.01084759458899498
8.5,0.06888256967067719,0.2629843056201935,0.06335588544607162,-0.0015189815312623978,-0.06899650394916534,0.0070438263937830925
8.55,0.001131102442741394,0.2726002037525177,0.07521136105060577,-0.0095478231087327,-0.0444716177880764,0.0062447949312627316
8.6,-0.006886690855026245,0.293150931596756,0.0548352412879467,-0.00988183356821537,-0.03089633397758007,0.0064569516107439995
8.65,0.011019960045814514,0.25380900502204895,0.09160887449979782,-0.011016495525836945,-0.031533218920230865,0.002935308963060379
8.7,0.027832401916384697,0.23308850824832916,0.08621443808078766,-0.010069694370031357,-0.017805099487304688,0.004907925613224506
8.75,0.009923398494720459,0.2527981102466583,0.1159946396946907,-0.006884614005684853,0.0001530071021988988,0.008391805924475193
8.8,-0.002032589167356491,0.2604198753833771,0.08755909651517868,-0.004920382983982563,0.01787913590669632,0.0075338673777878284
8.85,0.016588598489761353,0.29401877522468567,-0.001234571565873921,-0.004660349804908037,0.027002975344657898,0.007995330728590488
8.9,0.025605296716094017,0.2986126244068146,-0.07906961441040039,-0.008549689315259457,0.01916717179119587,0.00274042715318501
8.95,0.12444207072257996,0.2870207130908966,-0.07096129655838013,-0.015915647149086,0.007265103980898857,-0.002160133793950081
9.0,0.07708309590816498,0.2730150520801544,-0.04266859591007233,-0.025318818166851997,0.017462171614170074,0.001442760694772005
9.05,0.020950108766555786,0.2436399757862091,-0.0025784363970160484,-0.03146151825785637,0.019875535741448402,-0.003027396509423852
9.1,-0.0346488282084465,0.19498828053474426,0.08893583714962006,-0.030957095324993134,0.036575742065906525,0.0017437005881220102
9.15,-0.018061568960547447,0.24196818470954895,0.052093204110860825,-0.02178221009671688,0.030659234151244164,0.0013498080661520362
9.2,0.03258780762553215,0.23406030237674713,0.13075211644172668,-0.01470806635916233,0.03305342048406601,-0.001164314104244113
9.25,-0.010110974311828613,0.2155141979455948,0.1301293969154358,-0.011205451563000679,0.06277777254581451,0.0039008876774460077
9.3,-0.007223508320748806,0.26080039143562317,0.004640208091586828,-0.0038076844066381454,0.057271428406238556,0.0015379820251837373
9.35,0.008918026462197304,0.2912779152393341,-0.02849198691546917,0.002780709881335497,0.043854210525751114,-0.00020155071979388595
9.4,-0.024353448301553726,0.26894858479499817,-0.022886136546730995,0.0048867929726839066,0.028601733967661858,0.0023029183503240347
9.45,-0.0662822350859642,0.23031523823738098,-0.0028502519708126783,-0.005976988933980465,-0.002527886303141713,-0.007843618281185627
9.5,-0.06286768615245819,0.17188644409179688,0.16458699107170105,-0.008753110654652119,0.006693879142403603,-0.009685738012194633
9.55,0.12331119179725647,0.2070627212524414,0.22468046844005585,0.008240554481744766,0.04849355295300484,-0.0010328888893127441
9.6,0.04524678736925125,0.26902294158935547,0.15930183231830597,0.016640860587358475,0.1112554743885994,0.01290648989379406
9.65,-0.2648215591907501,0.27724748849868774,-0.11572267860174179,0.00040626898407936096,0.12864147126674652,-0.003480677492916584
9.7,-0.1287691444158554,0.28946027159690857,-0.35290828347206116,0.005915643647313118,0.06822680681943893,-0.014504834078252316
9.75,0.13330073654651642,0.29360583424568176,-0.15318286418914795,0.01624726504087448,-0.006422391161322594,-0.006232262123376131
9.8,0.01958387717604637,0.20750238001346588,0.11007940769195557,-0.007398529443889856,-0.010041379369795322,-0.01537232007831335
9.85,-0.11231036484241486,0.21612074971199036,0.0796210765838623,-0.012513697147369385,0.020174216479063034,-0.020916515961289406
9.9,-0.11929994821548462,0.29482367634773254,0.011037798598408699,-0.010411335155367851,0.016658145934343338,-0.019243748858571053
9.95,0.01139727234840393,0.2786541283130646,-0.08289351314306259,-0.027459412813186646,-0.019213929772377014,-0.0297093503177166
10.0,0.090200275182724,0.25644782185554504,-0.12346897274255753,-0.027397142723202705,-0.03648651763796806,-0.033034466207027435
10.05,0.03153694421052933,0.2333698719739914,-0.13291847705841064,-0.01659204438328743,-0.017904216423630714,-0.02184608019888401
10.1,-0.00947678554803133,0.2629242241382599,-0.034132394939661026,-0.004886173643171787,-0.0026758667081594467,-0.012882208451628685
10.15,-0.01268499344587326,0.24610045552253723,0.01724502444267273,-0.004205834586173296,-0.00013399960880633444,-0.0043731736950576305
10.2,-0.052296318113803864,0.20380499958992004,0.020736651495099068,-0.004578352905809879,-0.008886733092367649,-0.0055324421264231205
10.25,0.020182225853204727,0.23181918263435364,-0.08866029977798462,0.009005019441246986,-0.023738939315080643,-0.002346800174564123
10.3,0.11180736869573593,0.26739028096199036,-0.10200995206832886,0.03282219171524048,-0.031052811071276665,0.011519433930516243
10.35,-0.031962573528289795,0.25916388630867004,0.10746695101261139,0.039437923580408096,-0.01947949454188347,0.02409984916448593
10.4,-0.23442061245441437,0.21426966786384583,0.22960729897022247,0.021799301728606224,-0.007152716629207134,0.019382555037736893
10.45,-0.19458577036857605,0.2682857811450958,0.20665991306304932,0.012119939550757408,-0.02194160968065262,0.0076239402405917645
10.5,0.0005038827657699585,0.23829461634159088,0.23321908712387085,0.01609252765774727,-0.026187129318714142,0.004978618584573269
10.55,0.022439852356910706,0.17315290868282318,0.3244228959083557,0.020786289125680923,0.00949079543352127,0.009296692907810211
10.6,-0.09272107481956482,0.17013932764530182,0.13650944828987122,0.02571682073175907,0.05648939311504364,0.014007200486958027
10.65,-0.021613560616970062,0.2353105992078781,-0.10274478793144226,0.0344296470284462,0.055886462330818176,0.00961389672011137
10.7,0.004559934139251709,0.28357699513435364,-0.13285811245441437,0.029059868305921555,0.033810265362262726,0.00949594285339117
10.75,-0.008292369544506073,0.24885563552379608,-0.07468536496162415,0.02228289283812046,-0.009735887870192528,0.005339125636965036
10.8,-0.011372365988790989,0.24093249440193176,0.005141922738403082,0.023434335365891457,-0.04077724739909172,0.001203518477268517
10.85,0.10212276130914688,0.22655965387821198,0.08826331049203873,0.03248674422502518,-0.01532712485641241,0.011481566354632378
10.9,0.15093472599983215,0.2373342514038086,0.12745845317840576,0.042132023721933365,0.041604820638895035,0.027275845408439636
10.95,-0.04111446440219879,0.26931002736091614,0.02186662144958973,0.04221505671739578,0.05916536971926689,0.028552867472171783
11.0,-0.13666433095932007,0.3287811875343323,-0.18000273406505585,0.037189848721027374,0.005891097709536552,0.011138835921883583
11.05,0.05784416198730469,0.3619089424610138,-0.17699621617794037,0.029100513085722923,-0.055162299424409866,-0.00562965776771307
11.1,0.1454349160194397,0.29972460865974426,0.006443302147090435,0.00660252571105957,-0.07464733719825745,-0.014097433537244797
11.15,0.01701486110687256,0.27179911732673645,0.020547134801745415,-0.017871016636490822,-0.06075239181518555,-0.020892012864351273
11.2,-0.09267576038837433,0.2554531693458557,-0.07053551077842712,-0.015071799978613853,-0.05731229856610298,-0.019074900075793266
11.25,-0.037339381873607635,0.29048922657966614,0.025390027090907097,-0.004408814013004303,-0.069727323949337,-0.009503962472081184
11.3,-0.002059370279312134,0.22870542109012604,0.22390645742416382,-0.012259690091013908,-0.048349782824516296,-0.003174097742885351
11.35,-0.10365791618824005,0.14672470092773438,0.33688056468963623,-0.014588451012969017,-0.013874636963009834,-0.0016898945905268192
11.4,0.021566346287727356,0.1717367023229599,0.2844327986240387,0.004659262485802174,0.005191630218178034,0.00129705632571131
11.45,0.19815604388713837,0.25405025482177734,0.21389645338058472,0.02463824301958084,0.05700354278087616,0.014797483570873737
11.5,0.04215116798877716,0.305881530046463,0.0642278641462326,0.024761809036135674,0.11480791866779327,0.02586088515818119
11.55,-0.1308491975069046,0.3634081482887268,-0.25067222118377686,0.014284205622971058,0.08190515637397766,0.012784792110323906
11.6,0.01552516222000122,0.362063467502594,-0.35880064964294434,0.005378163419663906,-0.013925326056778431,-0.0061251381412148476
11.65,0.1740511655807495,0.2617969512939453,0.055885471403598785,-0.0068376800045371056,-0.051186252385377884,-0.007900546304881573
11.7,0.05700385570526123,0.178525909781456,0.29403823614120483,-0.02081877924501896,-0.0020955181680619717,-0.006519495043903589
11.75,-0.03248598054051399,0.2711954414844513,0.04167444258928299,-0.009774127043783665,0.0415564589202404,-0.0006828485056757927
11.8,-0.06556038558483124,0.31214720010757446,-0.16789080202579498,-0.005474818404763937,0.019137294963002205,-0.0017255706479772925
11.85,0.014128996059298515,0.2674312889575958,-0.029368676245212555,-0.013660725206136703,-0.02631889469921589,-0.009233549237251282
11.9,0.04611174389719963,0.2314939647912979,0.13300463557243347,-0.02081247605383396,-0.028772607445716858,-0.010298427194356918
11.95,-0.03669406473636627,0.23596860468387604,0.14818748831748962,-0.016732309013605118,-0.0025064251385629177,-0.006375701632350683
12.0,-0.03283509984612465,0.2646694481372833,0.04479070007801056,-0.0051577128469944,-0.0034856460988521576,-0.004079864360392094
12.05,-0.008350308053195477,0.27593424916267395,-0.03699146583676338,-0.0026498823426663876,-0.004414616618305445,-0.00173975492361933
12.1,0.02255479246377945,0.30930712819099426,0.010637016966938972,-0.006532905623316765,0.0026158089749515057,-0.00016304815653711557
12.15,0.05788883566856384,0.28138068318367004,-0.006805544253438711,-0.009742737747728825,-0.0012953744735568762,-0.0014184463070705533
12.2,-0.004750789143145084,0.2541952431201935,0.03500009700655937,-0.013302132487297058,-0.006093898788094521,-0.003818145953118801
12.25,-0.027876388281583786,0.2278747707605362,0.11007557809352875,-0.015455232933163643,-0.004256864544004202,-0.005008229985833168
12.3,-0.06457659602165222,0.22140027582645416,0.18222609162330627,-0.014374470338225365,0.007718606386333704,-0.006946027744561434
12.35,-0.06591738760471344,0.22032931447029114,0.11112508922815323,-0.014602163806557655,0.014169173315167427,-0.010909334756433964
12.4,0.010746225714683533,0.26140692830085754,-0.12989218533039093,-0.02384355291724205,0.005306862760335207,-0.018307315185666084
12.45,0.09906676411628723,0.3408356308937073,-0.3761596083641052,-0.04113847762346268,-0.0254992488771677,-0.02367902733385563
12.5,0.12282054126262665,0.30057528614997864,-0.2314765900373459,-0.04325356334447861,-0.05482584238052368,-0.014691651798784733
12.55,0.011503003537654877,0.18679237365722656,0.09922461211681366,-0.03952240198850632,-0.07240807265043259,-0.0069977534003555775
12.6,0.016519621014595032,0.12481877952814102,0.36198100447654724,-0.02576574496924877,-0.04571451619267464,-0.001294682384468615
12.65,-0.026521846652030945,0.13390730321407318,0.38543638586997986,-0.0034496719017624855,0.01506904885172844,0.01599808596074581
12.7,-0.14100515842437744,0.21057799458503723,0.1742735654115677,0.007110293488949537,0.03898036107420921,0.01613960787653923
12.75,-0.12063230574131012,0.23664383590221405,-0.07001149654388428,0.011605963110923767,0.03207123279571533,0.008969496935606003
12.8,-0.00879660528153181,0.26137831807136536,0.008711837232112885,0.018751073628664017,0.013562160544097424,0.017690634354948997
12.85,0.09390893578529358,0.1870393604040146,0.19318848848342896,0.015960661694407463,0.020214367657899857,0.017457200214266777
12.9,0.07491134107112885,0.16552066802978516,0.09321875125169754,0.02710184082388878,0.06150767579674721,0.019085440784692764
12.95,-0.08643543720245361,0.2720032334327698,-0.19696485996246338,0.03342354670166969,0.0744369700551033,0.016891686245799065
13.0,-0.026927128434181213,0.367561399936676,-0.3822994828224182,0.020009005442261696,0.02381882444024086,0.00527096027508378
13.05,0.0971207469701767,0.3570299446582794,-0.11123044788837433,0.00048358505591750145,-0.014011789113283157,0.006026379764080048
13.1,-0.0008481591939926147,0.17405319213867188,0.20087391138076782,-0.01637348346412182,-0.012232503853738308,0.007802458945661783
13.15,0.026633813977241516,0.07914826273918152,0.3831780254840851,0.011320332996547222,0.01818353496491909,0.013982717879116535
13.2,-0.10654722154140472,0.13252542912960052,0.49279677867889404,0.039319902658462524,0.09108446538448334,0.03574042022228241
13.25,-0.27354303002357483,0.1702146828174591,0.08645172417163849,0.04070105403661728,0.07551885396242142,0.020101143047213554
13.3,-0.15828071534633636,0.3118496537208557,-0.27102720737457275,0.04281903803348541,0.003705638227984309,-0.0025588269345462322
13.35,0.11431442201137543,0.2948961555957794,-0.21613731980323792,0.03887981176376343,-0.037926435470581055,0.0005609100335277617
13.4,0.1722763180732727,0.23809625208377838,-0.024511290714144707,0.029437193647027016,-0.041778452694416046,-0.0018422342836856842
13.45,-0.01486623752862215,0.25829699635505676,0.013757656328380108,0.022689547389745712,0.014330541715025902,-0.0004891054122708738
13.5,-0.12901367247104645,0.3076534867286682,-0.08288019150495529,0.027216274291276932,0.01508735679090023,0.00535077229142189
13.55,-0.06207047775387764,0.3047819435596466,-0.04064377769827843,0.027027856558561325,-0.015582775697112083,0.005284256301820278
13.6,-0.0025133201852440834,0.2676582634449005,0.00832710973918438,0.01657780446112156,-0.012136303819715977,0.00455132219940424
13.65,-0.045449305325746536,0.27183154225349426,0.021387621760368347,0.013781767338514328,0.002215221058577299,0.007346841972321272
13.7,-0.03861091285943985,0.2855120003223419,-0.002206656150519848,0.01484343595802784,-0.012815606780350208,0.0014292682753875852
13.75,0.02215287834405899,0.2931499779224396,-0.03097662143409252,0.014239390380680561,-0.03312214836478233,-0.0035101629327982664
13.8,0.0654008686542511,0.3002682030200958,0.0049578240141272545,0.005053866188973188,-0.03011438064277172,-0.007762175519019365
13.85,0.0621940903365612,0.2844677269458771,0.005083438940346241,-0.005900500807911158,-0.0076597160659730434,-0.009019274264574051
13.9,0.006561489310115576,0.2728624641895294,0.01877763867378235,-0.007745199836790562,-0.0015605486696586013,-0.008561533875763416
13.95,-0.04472237080335617,0.2657776176929474,-0.011279154568910599,-0.017456011846661568,-0.019149279221892357,-0.013555454090237617
14.0,-0.046607330441474915,0.21705535054206848,0.055689677596092224,-0.024516282603144646,-0.023981973528862,-0.01398536842316389
14.05,-0.06133517622947693,0.20757009088993073,0.2353687882423401,-0.023876406252384186,-0.006770430598407984,-0.008425338193774223
14.1,-0.022616617381572723,0.1893005520105362,0.20359686017036438,-0.014551382511854172,0.015546812675893307,-0.005583020858466625
14.15,0.07766015827655792,0.23168469965457916,0.11448904126882553,0.0040114568546414375,0.05377023667097092,0.005471640266478062
14.2,0.005655858665704727,0.241367369890213,0.06980946660041809,0.0069013601168990135,0.08633994311094284,0.012637057341635227
14.25,-0.07034162431955338,0.23145775496959686,-0.07103552669286728,-0.0011934398207813501,0.07464374601840973,0.004087562207132578
14.3,-0.0425894632935524,0.2520771622657776,-0.16306465864181519,-0.004294333979487419,0.032552655786275864,-0.006583343725651503
14.35,0.08243052661418915,0.29297831654548645,-0.07026192545890808,-0.009379510767757893,-0.0007440699264407158,-0.011790758930146694
14.4,0.029197268187999725,0.24932482838630676,0.048633888363838196,-0.018748141825199127,0.005327741149812937,-0.013123610056936741
14.45,-0.11495424807071686,0.22029688954353333,0.07542501389980316,-0.018233725801110268,0.007212286349385977,-0.015244814567267895
14.5,-0.0881413146853447,0.2445698082447052,0.025884542614221573,-0.011626631021499634,-0.015277642756700516,-0.019710123538970947
14.55,0.009382674470543861,0.27248862385749817,-0.008601363748311996,-0.017167937010526657,-0.028454432263970375,-0.02243039570748806
14.6,-0.0234812144190073,0.24162963032722473,-0.01792026124894619,-0.024465465918183327,-0.023190123960375786,-0.021750837564468384
14.65,-0.06943899393081665,0.2614040672779083,0.028518876060843468,-0.02468731254339218,-0.02218390814960003,-0.020062565803527832
14.7,0.009550007060170174,0.29546263813972473,-0.01076013594865799,-0.030058210715651512,-0.02910083532333374,-0.022924842312932014
14.75,0.00845325831323862,0.2816047966480255,-0.007945850491523743,-0.037583496421575546,-0.0242187287658453,-0.02252854034304619
14.8,-0.04661598056554794,0.23313431441783905,-0.04448435455560684,-0.03721757233142853,-0.029340354725718498,-0.02265292778611183
14.85,-0.06003591790795326,0.23153023421764374,-0.040802258998155594,-0.03751229867339134,-0.0764758512377739,-0.035467423498630524
14.9,0.058492615818977356,0.3066454231739044,-0.011359304189682007,-0.032579924911260605,-0.14185738563537598,-0.042302437126636505
14.95,0.12541231513023376,0.23581506311893463,0.07749819755554199,-0.026293709874153137,-0.17804773151874542,-0.03530550003051758
15.0,0.10310152173042297,0.09171292185783386,0.29245543479919434,-0.020382659509778023,-0.1514643132686615,-0.02919340319931507
15.05,0.021833136677742004,0.10933015495538712,0.33916565775871277,7.262546569108963e-05,-0.08172188699245453,-0.019880663603544235
15.1,0.05714522302150726,0.22039510309696198,0.13866207003593445,0.012595717795193195,-0.058819565922021866,-0.02929162234067917
15.15,0.04970785602927208,0.33095744252204895,-0.12225550413131714,-0.0017443951219320297,-0.06571687757968903,-0.036234449595212936
15.2,0.055289626121520996,0.37727460265159607,-0.3804474472999573,-0.024455616250634193,-0.10870765894651413,-0.03539308160543442
15.25,0.003135174512863159,0.25918108224868774,-0.3950912654399872,-0.04880722612142563,-0.15311647951602936,-0.03206130117177963
15.3,0.15533447265625,0.20363716781139374,-0.3022495210170746,-0.06502540409564972,-0.14358122646808624,-0.03440091758966446
15.35,0.37551581859588623,0.2028827667236328,-0.12350012362003326,-0.06300222873687744,-0.1044219508767128,-0.01539528090506792
15.4,0.1832977831363678,0.14795300364494324,0.27005520462989807,-0.05890173465013504,-0.03984328731894493,0.014959309250116348
15.45,-0.20914386212825775,0.11400316655635834,0.5185249447822571,-0.052774034440517426,0.03057444468140602,0.030266690999269485
15.5,-0.25455474853515625,0.17673875391483307,0.3353022336959839,-0.0520179383456707,0.03970088064670563,0.024342786520719528
15.55,0.0821504145860672,0.1771678924560547,0.09381182491779327,-0.05581658333539963,0.01664680987596512,0.011750295758247375
15.6,0.27155324816703796,0.14019201695919037,0.015492517501115799,-0.04308916628360748,0.027460938319563866,0.023109976202249527
15.65,0.21311751008033752,0.12492941319942474,0.08609439432621002,-0.02740814909338951,0.0590079128742218,0.03591303527355194
15.7,0.06524384021759033,0.1644611358642578,0.08713812381029129,-0.01703757420182228,0.04844853654503822,0.028071938082575798
15.75,0.03429291769862175,0.12022113800048828,0.14261484146118164,-0.012426077388226986,0.011340918019413948,0.023008089512586594
15.8,0.16532373428344727,0.1747865527868271,0.18720470368862152,-0.012433633208274841,-0.007382604759186506,0.01762278564274311
15.85,0.18082544207572937,0.2309408187866211,0.0695803314447403,-0.013857565820217133,0.010388004593551159,0.008946120738983154
15.9,0.09764396399259567,0.19767478108406067,-0.04737308248877525,-0.012727372348308563,0.01723194494843483,0.00331572862342
15.95,0.022396918386220932,0.19617846608161926,-0.0060692355036735535,-0.016372429206967354,-0.006519747897982597,-0.001765313558280468
16.0,0.0336734913289547,0.1727895885705948,0.03503243997693062,-0.026432950049638748,-0.022754603996872902,-0.006597680505365133
16.05,0.02608145773410797,0.15665915608406067,-0.1390615552663803,-0.03389054536819458,-0.04102692753076553,-0.01784552074968815
16.1,0.041774362325668335,0.19640831649303436,-0.2185511589050293,-0.033837709575891495,-0.07620949298143387,-0.024365050718188286
16.15,-0.0058296602219343185,0.20389750599861145,-0.06629092991352081,-0.036663416773080826,-0.11715178936719894,-0.024327348917722702
16.2,-0.11837136745452881,0.1168832927942276,0.12411656230688095,-0.025074008852243423,-0.15465852618217468,-0.025370124727487564
16.25,-0.11798802018165588,0.09125519543886185,0.1373356431722641,0.01057987380772829,-0.16693313419818878,-0.030588297173380852
16.3,0.1039588451385498,0.14989279210567474,0.1989739090204239,0.051503486931324005,-0.14551791548728943,-0.02230493351817131
16.35,0.06943674385547638,0.12784287333488464,0.3831329643726349,0.05099060386419296,-0.09589517116546631,0.001023914897814393
16.4,-0.11772537231445312,0.04346844181418419,0.5018209218978882,0.03633494675159454,-0.03232186287641525,0.016932446509599686
16.45,-0.07424092292785645,0.08552549034357071,0.4145311713218689,0.04027213528752327,0.05680656433105469,0.03854622691869736
16.5,0.014591865241527557,0.19141103327274323,0.07727760076522827,0.04016779363155365,0.13498622179031372,0.050673436373472214
16.55,0.08372674882411957,0.2856770157814026,-0.3635765016078949,0.027099812403321266,0.14587996900081635,0.042413294315338135
16.6,0.16164743900299072,0.27588754892349243,-0.48605504631996155,0.0061200810596346855,0.09347052872180939,0.03325444832444191
16.65,0.16614454984664917,0.2395954579114914,-0.27440816164016724,-0.016476159915328026,0.044497422873973846,0.02889510616660118
16.7,0.10423368215560913,0.2036934196949005,-0.06315995752811432,-0.03484202176332474,0.00807342678308487,0.01271042600274086
16.75,0.12842708826065063,0.18183517456054688,-0.005982993170619011,-0.0417812243103981,-0.017631225287914276,-0.0017044716514647007
16.8,0.0751793310046196,0.19217969477176666,0.0722494125366211,-0.04569438844919205,-0.030351214110851288,-0.00568750174716115
16.85,-0.03395845741033554,0.1616363525390625,0.2196148782968521,-0.053568288683891296,-0.045596521347761154,-0.013359411619603634
16.9,-0.015474043786525726,0.08362101018428802,0.2485828846693039,-0.04841766878962517,-0.025357915088534355,-0.013026455417275429
16.95,0.02758052945137024,0.11034965515136719,0.12256594002246857,-0.024729859083890915,0.010913949459791183,-0.0020494763739407063
17.0,0.019774191081523895,0.1452016979455948,-0.02501365914940834,-0.017356665804982185,0.018695637583732605,-0.0029659189749509096
17.05,0.031555790454149246,0.15559865534305573,-0.09000334143638611,-0.025311371311545372,0.005830204114317894,-0.009420977905392647
17.1,0.035120077431201935,0.15176869928836823,0.0022102331276983023,-0.031097624450922012,-0.00020599360868800431,-0.008673255331814289
17.15,0.04195931926369667,0.15224839746952057,0.032744038850069046,-0.034776024520397186,-0.0025703650899231434,-0.012165726162493229
17.2,-0.021095789968967438,0.18179132044315338,-0.04147591441869736,-0.04519382119178772,-0.008255482651293278,-0.024027271196246147
17.25,0.0010776259005069733,0.17809678614139557,-0.06727579981088638,-0.06030692160129547,-0.04766685143113136,-0.0379716232419014
17.3,0.07490997761487961,0.1283884197473526,-0.02557922527194023,-0.06659593433141708,-0.11401206254959106,-0.047279760241508484
17.35,0.16716419160366058,0.1265563815832138,0.10686618089675903,-0.05183262750506401,-0.12115035206079483,-0.03815358132123947
17.4,0.0454648919403553,0.11249923706054688,0.14234454929828644,-0.03510884940624237,-0.05439154803752899,-0.024199917912483215
17.45,-0.03278838098049164,0.13060857355594635,0.01794673688709736,-0.022205527871847153,-0.03709043934941292,-0.025053640827536583
17.5,-0.07339116930961609,0.14176560938358307,0.009178467094898224,-0.01865716651082039,-0.0686202272772789,-0.027154162526130676
17.55,-0.07437852770090103,0.11772729456424713,0.03917546570301056,-0.023501770570874214,-0.1011323407292366,-0.026221593841910362
17.6,0.0632028877735138,0.10538674145936966,0.03749209642410278,-0.028322506695985794,-0.10443471372127533,-0.028106356039643288
17.65,0.08915241062641144,0.11478519439697266,0.05099744349718094,-0.02664964087307453,-0.08471296727657318,-0.026028519496321678
17.7,0.09569738805294037,0.07630061358213425,0.10033784806728363,-0.022395096719264984,-0.06566814333200455,-0.021371670067310333
17.75,0.0694318413734436,0.08198641985654831,0.09854652732610703,-0.01692560873925686,-0.03270067274570465,-0.01579347439110279
17.8,0.005983501672744751,0.10692310333251953,0.12679386138916016,-0.011230031959712505,-0.0047010197304189205,-0.011741764843463898
17.85,-0.014121394604444504,0.13162899017333984,0.13213850557804108,-0.005279985256493092,0.0007363833719864488,-0.009675832465291023
17.9,-0.006837497465312481,0.12639428675174713,0.0307133998721838,-0.001732770586386323,0.004854049999266863,-0.0074179694056510925
17.95,0.02123807929456234,0.11821557581424713,0.005844864062964916,-0.0033595541026443243,0.011308477260172367,-0.007542768027633429
18.0,0.051929160952568054,0.10634613782167435,0.007338366936892271,-0.0055035315454006195,-0.0010347191710025072,-0.007296868599951267
18.05,0.06798756122589111,0.0840444564819336,-0.01826336979866028,0.0008854952175170183,-0.003351061837747693,-0.005622080992907286
18.1,0.026463109999895096,0.10018159449100494,-0.010032891295850277,0.004410383757203817,0.00764690013602376,-0.007637467235326767
18.15,0.043626464903354645,0.1357412487268448,-0.010184181854128838,0.00235186074860394,0.0017341870116069913,-0.008424179628491402
18.2,0.015723466873168945,0.100770004093647,0.027549510821700096,-0.00048086652532219887,-0.011388489045202732,-0.007169959135353565
18.25,-0.009880658239126205,0.09233570098876953,0.10597079992294312,0.006066659465432167,-0.012415410950779915,-0.003071372164413333
18.3,-0.026741277426481247,0.11750031262636185,0.1350761502981186,0.009735684841871262,0.011833960190415382,0.000933673873078078
18.35,-0.015257790684700012,0.09567452222108841,0.0844632014632225,0.015000386163592339,0.02896280400454998,0.004926246590912342
18.4,0.075783371925354,0.12496186047792435,-0.010089268907904625,0.026801303029060364,0.016500800848007202,0.00753437215462327
18.45,0.12060804665088654,0.12494183331727982,-0.06399504840373993,0.032762277871370316,0.010049533098936081,0.010397613979876041
18.5,0.04161122813820839,0.10788441449403763,0.004880297463387251,0.03146013990044594,0.01158817857503891,0.0075000436045229435
18.55,-0.008436350151896477,0.11100292950868607,0.0551227331161499,0.03605825453996658,-0.008404341526329517,-0.0006143815699033439
18.6,-0.045921407639980316,0.1299924999475479,0.008533741347491741,0.03803548216819763,-0.05209231376647949,-0.005954399239271879
18.65,0.0364779569208622,0.1625986248254776,-0.04422418400645256,0.03558141365647316,-0.07996965199708939,-0.013580636121332645
18.7,0.11398238688707352,0.14009761810302734,-0.03150190785527229,0.035746101289987564,-0.08205298334360123,-0.008447638712823391
18.75,0.0321766622364521,0.0761871263384819,0.11624573916196823,0.04208649694919586,-0.07629533857107162,0.002246369607746601
18.8,-0.151731938123703,0.06760501861572266,0.24669256806373596,0.051338206976652145,-0.025257455185055733,0.001970371464267373
18.85,-0.1242688000202179,0.10634996742010117,0.07300294935703278,0.05730387568473816,0.01978066936135292,0.012249046005308628
18.9,-0.046846337616443634,0.18868260085582733,-0.06419150531291962,0.05654953420162201,0.028362104669213295,0.018862158060073853
18.95,-0.025571921840310097,0.17299939692020416,-0.028407126665115356,0.044925935566425323,0.05369667708873749,0.02721451222896576
19.0,-0.004491453990340233,0.17312242090702057,0.020628876984119415,0.038166746497154236,0.07581847906112671,0.038787614554166794
19.05,0.026124127209186554,0.1755056530237198,0.029024383053183556,0.030647926032543182,0.09782769531011581,0.037072088569402695
19.1,0.07408230006694794,0.1434354931116104,-0.005004561971873045,0.025694338604807854,0.10865778475999832,0.03252983093261719
19.15,0.12143004685640335,0.13273431360721588,-0.04921707510948181,0.026879016309976578,0.10846393555402756,0.03628082945942879
19.2,0.0781296044588089,0.15929509699344635,-0.028721867129206657,0.031756505370140076,0.10888330638408661,0.039758503437042236
19.25,-0.057034920901060104,0.1602621227502823,0.042267099022865295,0.037123601883649826,0.12359137088060379,0.04179701581597328
19.3,-0.10894274711608887,0.16109277307987213,0.13312648236751556,0.045002058148384094,0.12376483529806137,0.04399000480771065
19.35,-0.1329895704984665,0.17228318750858307,0.10954385250806808,0.05377766117453575,0.11743739992380142,0.04199054464697838
19.4,-0.09399910271167755,0.1824484020471573,0.023789057508111,0.06051374971866608,0.12545117735862732,0.039686672389507294
19.45,-0.08148273825645447,0.22604374587535858,-0.046864211559295654,0.06305044144392014,0.13612832129001617,0.04018033295869827
19.5,-0.10531866550445557,0.23027043044567108,-0.0017771524144336581,0.05684080347418785,0.11911843717098236,0.03480690345168114
19.55,-0.14688368141651154,0.24175551533699036,0.07205893099308014,0.04809762164950371,0.08527876436710358,0.02676042914390564
19.6,-0.14050064980983734,0.2265673130750656,-0.06582452356815338,0.03624971583485603,0.07565860450267792,0.020283160731196404
19.65,-0.07038823515176773,0.2565823197364807,-0.3070147931575775,0.02475142851471901,0.06659269332885742,0.012669036164879799
19.7,-0.00029581785202026367,0.30558401346206665,-0.30603235960006714,0.012556910514831543,0.051547206938266754,0.01345581654459238
19.75,-0.09878397732973099,0.19551663100719452,-0.08255056291818619,-0.0029755141586065292,0.043437857180833817,0.024807484820485115
19.8,-0.15229684114456177,0.1486072838306427,0.062363240867853165,-0.002628506161272526,0.037949685007333755,0.02140713855624199
19.85,-0.06041910871863365,0.19193366169929504,0.04798228666186333,0.006834405940026045,0.04976009204983711,0.02116655372083187
19.9,-0.08543127775192261,0.21711258590221405,-0.010852196253836155,0.006558873690664768,0.06523596495389938,0.02587900310754776
19.95,-0.07048408687114716,0.23267558217048645,-0.004402766469866037,0.001509874127805233,0.051020547747612,0.018210407346487045
20.0,-0.03605653718113899,0.18060113489627838,0.00820727739483118,0.002453471999615431,0.029885854572057724,0.012870067730545998
20.05,-0.01690734550356865,0.18772605061531067,0.027926644310355186,0.007374519947916269,0.02354361116886139,0.009822879917919636
20.1,-0.002627857029438019,0.23420050740242004,0.0062075527384877205,0.0023074019700288773,0.028882421553134918,0.006304014474153519
20.15,-0.010573675855994225,0.22454646229743958,-0.052162446081638336,-0.0038055682089179754,0.03144117072224617,0.004728897009044886
20.2,-0.06416410952806473,0.23336033523082733,-0.056331880390644073,-0.0069918157532811165,0.03110988438129425,0.0030537662096321583
20.25,-0.13039763271808624,0.22630982100963593,-0.0591408871114254,-0.011160003952682018,0.0276541318744421,0.0037657131906598806
20.3,-0.1275252401828766,0.2018480747938156,0.008178816176950932,-0.010873572900891304,0.019371429458260536,0.005035745911300182
20.35,-0.09264559298753738,0.19033244252204895,0.05586213245987892,-0.008727235719561577,0.02022464945912361,0.006072234362363815
20.4,-0.040779296308755875,0.2027168571949005,0.034116487950086594,-0.0068831793032586575,0.026312503963708878,0.006315959617495537
20.45,-0.024540912359952927,0.19709017872810364,-0.004623836372047663,-0.005286152474582195,0.03794938325881958,0.008890016004443169
20.5,-0.05833868682384491,0.2057829201221466,-0.010869253426790237,-0.003191855503246188,0.042253151535987854,0.007933735847473145
20.55,-0.06870502233505249,0.18651200830936432,0.034830477088689804,-0.003920213785022497,0.03009048104286194,0.005281738005578518
20.6,-0.019113827496767044,0.19121363759040833,0.0674048438668251,-0.0013458245666697621,0.019572081044316292,0.005111395381391048
20.65,-0.008532056584954262,0.18881133198738098,0.05243634805083275,0.0012894736137241125,0.027381576597690582,0.008181428536772728
20.7,-0.0049146325327456,0.1943207085132599,0.006015169434249401,0.0011531177442520857,0.04202498123049736,0.008529676124453545
20.75,-0.006152068730443716,0.19512751698493958,-0.008889790624380112,0.003135058796033263,0.062431108206510544,0.00930076651275158
20.8,-2.7445144951343536e-05,0.17755986750125885,-0.010098014958202839,0.004049068316817284,0.08340393006801605,0.012087615206837654
20.85,0.005813385359942913,0.21634486317634583,-0.0043757762759923935,-0.0005125012248754501,0.10028313100337982,0.014266224578022957
20.9,-0.0472729466855526,0.23460297286510468,-0.10801556706428528,-0.010343647561967373,0.10355427861213684,0.010679918341338634
20.95,-0.05681119114160538,0.2738695740699768,-0.2424931526184082,-0.018011903390288353,0.06899949908256531,0.0014353151200339198
21.0,-0.01019623875617981,0.24725252389907837,-0.2448762059211731,-0.02737412415444851,0.004679185803979635,-0.005970290396362543
21.05,-0.0023425407707691193,0.176273375749588,-0.09186343103647232,-0.03500723838806152,-0.03403154015541077,-0.008913196623325348
21.1,-0.0730956643819809,0.19048979878425598,0.10850878059864044,-0.03086090087890625,-0.024444187059998512,-0.008299432694911957
21.15,-0.053305961191654205,0.199464812874794,0.1675313115119934,-0.02810712158679962,-0.013037027791142464,-0.011128252372145653
21.2,0.00939963012933731,0.1858692169189453,0.10122659057378769,-0.034035034477710724,-0.034266214817762375,-0.01893072947859764
21.25,0.07195153832435608,0.18911553919315338,0.098237045109272,-0.042239077389240265,-0.04011845961213112,-0.026993246749043465
21.3,0.011124251410365105,0.19076445698738098,0.05680866912007332,-0.04705631732940674,0.002044778084382415,-0.028960544615983963
21.35,-0.01370698120445013,0.20534422993659973,-0.03887639194726944,-0.04194286838173866,0.025736205279827118,-0.030489426106214523
21.4,-0.08451257646083832,0.21382717788219452,-0.02929428592324257,-0.04860474914312363,0.013023748062551022,-0.028471417725086212
21.45,-0.052140019834041595,0.1748800426721573,0.04179360345005989,-0.05473368242383003,-0.01798594370484352,-0.03152868151664734
21.5,0.050629615783691406,0.15262222290039062,0.08289855718612671,-0.050083745270967484,-0.04654320701956749,-0.037796519696712494
21.55,0.044114645570516586,0.1337728500366211,0.06302525103092194,-0.04568535462021828,-0.04209976643323898,-0.038393158465623856
21.6,-0.07504542171955109,0.1399870067834854,0.06004004552960396,-0.03656350448727608,-0.029580511152744293,-0.03651558607816696
21.65,-0.12329083681106567,0.1645508110523224,0.04204931855201721,-0.022330215200781822,-0.041799142956733704,-0.03609764948487282
21.7,-0.04060135781764984,0.1317777782678604,0.0728691816329956,-0.014638408087193966,-0.07263609766960144,-0.03038930706679821
21.75,0.01678689941763878,0.10104084759950638,0.08208053559064865,-0.014091923832893372,-0.07683152705430984,-0.02043112926185131
21.8,-0.02054649032652378,0.09737302362918854,0.0550750270485878,-0.004685204476118088,-0.042140983045101166,-0.011506946757435799
21.85,-0.08512063324451447,0.132267028093338,-0.06013572961091995,0.008627761155366898,-0.010723220184445381,-0.0065325587056577206
21.9,-0.006848637014627457,0.14211848378181458,-0.08576738089323044,0.016657400876283646,-0.0025679212994873524,0.002587157068774104
21.95,0.012963253073394299,0.12733842432498932,0.012705222703516483,0.013099996373057365,0.003558721160516143,0.011605348438024521
22.0,0.014631984755396843,0.13678552210330963,0.04309694841504097,0.008055930957198143,0.01660338044166565,0.009970564395189285
22.05,0.008439447730779648,0.1372537761926651,0.04626140370965004,0.014302548952400684,0.032152071595191956,0.013935199938714504
22.1,0.010185613296926022,0.15158750116825104,0.029996229335665703,0.025348367169499397,0.02434716932475567,0.016048423945903778
22.15,-0.006852578371763229,0.20052529871463776,0.11257932335138321,0.028528770431876183,0.013002018444240093,0.015112794935703278
22.2,-0.043652139604091644,0.16179180145263672,0.1894349604845047,0.03447268158197403,0.03524032607674599,0.02082037925720215
22.25,-0.06782089918851852,0.11664201319217682,0.10064790397882462,0.04807009920477867,0.06526250392198563,0.02364323101937771
22.3,0.02091602236032486,0.18386366963386536,-0.1583799570798874,0.06302064657211304,0.06285243481397629,0.01887943036854267
22.35,0.06712112575769424,0.22552494704723358,-0.1727433204650879,0.06223059818148613,0.04377128183841705,0.01590552181005478
22.4,0.017402447760105133,0.20731261372566223,0.020918935537338257,0.04866260662674904,0.02362918294966221,0.007826133631169796
22.45,0.012432502582669258,0.18626119196414948,0.06114721670746803,0.0537208616733551,0.016707289963960648,0.004299119580537081
22.5,-0.06992504000663757,0.2063017189502716,-0.0016670806799083948,0.062210261821746826,0.03427596390247345,0.00738807488232851
22.55,-0.024786515161395073,0.227631613612175,-0.0644635558128357,0.06205959618091583,0.06134926527738571,0.01191058848053217
22.6,0.03180651366710663,0.2102508842945099,-0.06353235989809036,0.06179641932249069,0.09691231697797775,0.021168533712625504
22.65,-0.0424339696764946,0.2244587242603302,-0.01741139218211174,0.05941220372915268,0.1221223771572113,0.027027515694499016
22.7,-0.05451974272727966,0.24320414662361145,0.0093166409060359,0.05324295535683632,0.10228807479143143,0.014077938161790371
22.75,-0.025135990232229233,0.22533325850963593,-0.11328109353780746,0.03633573651313782,0.07048465311527252,-0.00036694094887934625
22.8,0.03214041888713837,0.24401764571666718,-0.18793663382530212,0.031355120241642,0.0552448034286499,-0.006511556915938854
22.85,0.03160853311419487,0.22102263569831848,-0.06001967936754227,0.034842196851968765,0.052287507802248,-0.0026215133257210255
22.9,-0.07962509244680405,0.16649819910526276,0.061988554894924164,0.022068984806537628,0.05607713758945465,-0.0001774457487044856
22.95,-0.12504009902477264,0.16980649530887604,0.06252845376729965,0.015525147318840027,0.05831076577305794,-0.0007639980176463723
23.0,-0.12583696842193604,0.2137346863746643,-0.13220012187957764,0.019894201308488846,0.061086174100637436,0.0012581839691847563
23.05,-0.09793528914451599,0.26260286569595337,-0.25412309169769287,0.019495580345392227,0.05373508110642433,0.0004002198111265898
23.1,-0.02037244662642479,0.23785309493541718,-0.10466821491718292,0.004743210971355438,0.03293244168162346,0.003592526074498892
23.15,-0.06439525634050369,0.12737083435058594,0.17897184193134308,-0.008929163217544556,0.013648349791765213,0.004501001909375191
23.2,-0.06326846778392792,0.13258172571659088,0.06591878086328506,0.0017406581901013851,0.013064988888800144,-0.0060588764026761055
23.25,-0.003943100571632385,0.28244882822036743,-0.23031316697597504,0.017700035125017166,0.024370558559894562,-0.004805912729352713
23.3,-0.011831067502498627,0.3069983124732971,-0.2527850568294525,0.002299380488693714,-0.0002687032101675868,-0.006363703869283199
23.35,-0.04876459389925003,0.19409087300300598,0.014691924676299095,-0.014380816370248795,-0.043202806264162064,-0.012329074554145336
23.4,-0.08088813722133636,0.15356063842773438,0.19624802470207214,-0.01627855747938156,-0.0555427186191082,-0.015132664702832699
23.45,-0.06568995118141174,0.1449422985315323,0.12831619381904602,-0.01163110975176096,-0.04649510234594345,-0.018538670614361763
23.5,-0.004019515588879585,0.16391374170780182,0.025890618562698364,0.0002121850848197937,-0.030428370460867882,-0.01649230159819126
23.55,-0.028130872175097466,0.19586089253425598,0.06469982862472534,0.008714239113032818,-0.006759741809219122,-0.0039303055964410305
23.6,-0.13246390223503113,0.1673898845911026,0.09835533797740936,0.011056771501898766,0.008978226222097874,0.003008450148627162
23.65,-0.10338330268859863,0.2034769356250763,0.09270007908344269,0.02025708556175232,0.02843823842704296,0.010629989206790924
23.7,-0.005538875237107277,0.26197245717048645,0.018281837925314903,0.028367437422275543,0.05165966600179672,0.019953127950429916
23.75,0.027119075879454613,0.2686443626880646,-0.04531768336892128,0.02667306549847126,0.06375489383935928,0.027127426117658615
23.8,-0.0036774929612874985,0.2403450310230255,-0.04155338928103447,0.020704563707113266,0.05936911329627037,0.027297234162688255
23.85,-0.016972530633211136,0.2630205452442169,-0.010586664080619812,0.012932313606142998,0.048349928110837936,0.02093628980219364
23.9,-0.015502050518989563,0.2459564507007599,0.02561761997640133,0.006426086649298668,0.04112497344613075,0.016961820423603058
23.95,0.007281141355633736,0.19576361775398254,0.023820910602808,0.004454971291124821,0.043588656932115555,0.013518372550606728
24.0,0.004329386632889509,0.2407112419605255,0.006649712100625038,0.005902509670704603,0.057590603828430176,0.010068095289170742
24.05,-0.059172771871089935,0.28243544697761536,-0.05993856117129326,0.0045357318595051765,0.06511574983596802,0.011332250200212002
24.1,-0.06373566389083862,0.2642841935157776,-0.10861218720674515,9.863520972430706e-05,0.04473772272467613,0.006009151227772236
24.15,-0.04868048056960106,0.24714377522468567,-0.0024130498059093952,-0.0033950607758015394,0.021860890090465546,-0.0018406215822324157
24.2,-0.026360001415014267,0.21658805012702942,0.03267529979348183,-0.0020765953231602907,0.02380172163248062,-0.0014484998537227511
24.25,-0.00970454141497612,0.2494087517261505,0.02744464948773384,0.0031672853510826826,0.040824782103300095,0.0026269229128956795
24.3,-0.09330558776855469,0.28762632608413696,-0.12257879972457886,0.0006836520624347031,0.025671079754829407,0.0020955896470695734
24.35,-0.11985215544700623,0.2560749650001526,-0.20973144471645355,-0.010080777108669281,-0.033011097460985184,-0.010322957299649715
24.4,0.014993260614573956,0.20436862111091614,0.011342312209308147,-0.013973354361951351,-0.05714506283402443,-0.013194184750318527
24.45,0.024275027215480804,0.215333953499794,0.15441694855690002,-0.0136524997651577,-0.029629288241267204,-0.00532218161970377
24.5,-0.0964372307062149,0.2123728096485138,0.06377729773521423,-0.015239031985402107,-0.02198631875216961,-0.0069428556598722935
24.55,-0.09366508573293686,0.2509203553199768,-0.08225324004888535,-0.013911270536482334,-0.0448673851788044,-0.011957429349422455
24.6,0.039072465151548386,0.237275168299675,-0.14634345471858978,-0.023403853178024292,-0.06212116405367851,-0.014647274278104305
24.65,0.04961119964718819,0.18134786188602448,0.016775764524936676,-0.031934529542922974,-0.05816187709569931,-0.014112300239503384
24.7,-0.04606958478689194,0.15942096710205078,0.20699207484722137,-0.028204206377267838,-0.031608954071998596,-0.008897718042135239
24.75,-0.07416031509637833,0.1352243423461914,0.18346333503723145,-0.021215569227933884,-0.014744969084858894,-0.007374968379735947
24.8,-0.03612469509243965,0.17170526087284088,0.11269917339086533,-0.011550920084118843,0.010385020636022091,-0.00590298930183053
24.85,-0.10806689411401749,0.23895172774791718,-0.061338454484939575,-0.011433275416493416,0.03230481222271919,-0.0036742533557116985
24.9,-0.03718356043100357,0.2936440110206604,-0.2667907774448395,-0.01883314736187458,0.012595981359481812,-0.008944026194512844
24.95,0.13318662345409393,0.26652052998542786,-0.11807607859373093,-0.017575593665242195,0.006077534053474665,0.007265500724315643
25.0,0.04145759344100952,0.12394998222589493,0.3255477845668793,-0.011181511916220188,0.03607840836048126,0.027767878025770187
25.05,-0.04868875443935394,0.08069702982902527,0.4181234538555145,0.00564909353852272,0.08764076232910156,0.026440128684043884
25.1,-0.10025654733181,0.24258998036384583,0.0253917183727026,0.017949704080820084,0.12028983980417252,0.020170800387859344
25.15,0.010152444243431091,0.31151682138442993,-0.27361515164375305,0.004368631634861231,0.06331565231084824,0.004258624278008938
25.2,0.08863949775695801,0.19454100728034973,-0.06684560328722,-0.016536224633455276,-0.0003782125422731042,-0.007990039885044098
25.25,0.07148101180791855,0.09179303795099258,0.21305282413959503,-0.013403053395450115,0.01176413707435131,-0.010272279381752014
25.3,0.0001913011074066162,0.13642501831054688,0.2053404599428177,0.008460759185254574,0.07377234101295471,-0.004606786649674177
25.35,-0.10258239507675171,0.2010231465101242,-0.0465635322034359,0.01609562337398529,0.08693794906139374,-0.00572230527177453
25.4,-0.19134438037872314,0.20510585606098175,-0.2667486369609833,0.006912998389452696,0.051451630890369415,-0.01277999673038721
25.45,-0.06835711002349854,0.1927071064710617,-0.1559101939201355,0.010013578459620476,0.026583826169371605,-0.008150100708007812
25.5,0.01121164858341217,0.195194274187088,0.05298455432057381,0.011933362111449242,0.019291598349809647,-0.0027752460446208715
25.55,-0.07432094216346741,0.20223239064216614,0.12875103950500488,0.013147789053618908,0.011739100329577923,-0.008590755984187126
25.6,-0.07065050303936005,0.2049761265516281,-0.02367853745818138,0.029551547020673752,-0.00205211085267365,-0.007005753461271524
25.65,-0.0063596367835998535,0.1635437309741974,-0.08604121953248978,0.03206092119216919,-0.03829928860068321,-0.007757898885756731
25.7,0.006697461009025574,0.14636707305908203,0.09763648360967636,0.022376829758286476,-0.05719735845923424,-0.013507286086678505
25.75,0.022678107023239136,0.16155336797237396,0.23522180318832397,0.02229136973619461,-0.01960713043808937,-0.009127684868872166
25.8,-0.036717623472213745,0.20048144459724426,0.10508338361978531,0.031186845153570175,0.027628272771835327,-0.007101097144186497
25.85,-0.030755579471588135,0.2370768040418625,-0.11106619983911514,0.033435288816690445,0.024394093081355095,-0.010524175129830837
25.9,0.007205590605735779,0.26344019174575806,-0.27293631434440613,0.019260533154010773,-0.015683988109230995,-0.013954621739685535
25.95,0.00731445848941803,0.2480955719947815,-0.28846320509910583,-0.003793402574956417,-0.05821999907493591,-0.020187273621559143
26.0,-0.03831631690263748,0.2210426777601242,-0.18481217324733734,-0.024582548066973686,-0.0764697939157486,-0.020862096920609474
26.05,0.015185631811618805,0.19979384541511536,0.00928485207259655,-0.03492496535181999,-0.08906548470258713,-0.02263331040740013
26.1,0.06135830283164978,0.16447067260742188,0.15340502560138702,-0.036596253514289856,-0.08879069238901138,-0.024828888475894928
26.15,0.014584779739379883,0.16875648498535156,0.12118920683860779,-0.032264985144138336,-0.06348496675491333,-0.02147148922085762
26.2,0.006476998329162598,0.19760705530643463,0.10727037489414215,-0.02185664512217045,-0.04140381142497063,-0.015227574855089188
26.25,-0.05509534105658531,0.2185526043176651,0.13602569699287415,-0.015003198757767677,-0.027196556329727173,-0.009874068200588226
26.3,-0.05700073763728142,0.21023274958133698,0.15727362036705017,-0.007661003619432449,-0.018828656524419785,-0.008292490616440773
26.35,-0.03577933833003044,0.1842203289270401,0.11107677966356277,-0.0006537656299769878,-0.0031955339945852757,-0.0054700723849236965
26.4,-0.0032651592046022415,0.15888215601444244,0.0493985190987587,0.006324153393507004,0.006982580292969942,-0.001699443906545639
26.45,0.03317313641309738,0.1820526272058487,-0.047762706875801086,0.008762972429394722,0.015329648740589619,0.004501395858824253
26.5,-0.0007405988872051239,0.21999172866344452,-0.08970817923545837,0.010902049019932747,0.02042321115732193,0.010364057496190071
26.55,0.012659123167395592,0.20772269368171692,-0.04822133108973503,0.009839558973908424,0.012213625945150852,0.01096583716571331
26.6,0.09376256167888641,0.21583083271980286,-0.05351974070072174,0.0013988325372338295,-0.012874582782387733,0.00904837716370821
26.65,0.1434205174446106,0.2077322006225586,0.11222563683986664,0.001070669386535883,-0.02129586972296238,0.015557580627501011
26.7,0.057494014501571655,0.10669992119073868,0.3352838456630707,0.00807090662419796,0.0049768490716814995,0.01750788278877735
26.75,0.03679083287715912,0.06496522575616837,0.24846087396144867,0.017157401889562607,0.05582041293382645,0.010155020281672478
26.8,0.010923090390861034,0.12276364862918854,0.011158987879753113,0.027295377105474472,0.12170358747243881,0.010348284617066383
26.85,-0.09325290471315384,0.23621468245983124,-0.10421096533536911,0.030150745064020157,0.1434105634689331,0.012719176709651947
26.9,-0.11380013823509216,0.27018266916275024,-0.12451326102018356,0.027388939633965492,0.10683530569076538,0.008533698506653309
26.95,-0.1328747570514679,0.25512510538101196,-0.18937161564826965,0.02203425206243992,0.08057627826929092,0.008724705316126347
27.0,-0.14425250887870789,0.2493801862001419,-0.3243912160396576,0.009509680792689323,0.048627592623233795,0.0073480186983942986
27.05,-0.12110678851604462,0.24142274260520935,-0.43399778008461,-0.013798966072499752,-0.013393253087997437,0.0014712727861478925
27.1,0.04235801845788956,0.17280009388923645,-0.1980523318052292,-0.019813697785139084,-0.08079679310321808,0.005392891820520163
27.15,0.001036033034324646,0.11073873937129974,0.34562984108924866,-0.007703408598899841,-0.07578545808792114,0.019082343205809593
27.2,-0.16982543468475342,0.14429281651973724,0.565022349357605,0.0017097648233175278,0.0066249314695596695,0.027333153411746025
27.25,-0.1646611988544464,0.17090225219726562,0.2577531635761261,0.004323236644268036,0.041976381093263626,0.023167317733168602
27.3,0.013656127266585827,0.2090339958667755,0.007350757718086243,0.01012900285422802,0.0008598664426244795,0.017436597496271133
27.35,0.05893895402550697,0.16974449157714844,0.052241403609514236,0.008717574179172516,-0.00508471392095089,0.016268189996480942
27.4,0.03684781491756439,0.14329051971435547,0.09517170488834381,0.008026746101677418,0.03724469989538193,0.017074327915906906
27.45,-0.0009366199374198914,0.18047811090946198,0.02054355852305889,0.016438525170087814,0.05374501273036003,0.018047472462058067
27.5,-0.029964402318000793,0.1665964275598526,-0.016137532889842987,0.015715409070253372,0.030156303197145462,0.008805511519312859
27.55,-0.019480222836136818,0.19086936116218567,0.0016050967387855053,0.012615667656064034,0.02697271667420864,0.003914173226803541
27.6,-0.039697423577308655,0.22878459095954895,-0.0015496695414185524,0.01174828503280878,0.02342800609767437,0.0007043004734441638
27.65,-0.03642430528998375,0.2870178520679474,-0.09479506313800812,0.017876578494906425,-0.016681093722581863,-0.011071491986513138
27.7,-0.004175256937742233,0.28696635365486145,0.06888867169618607,0.0262737013399601,-0.040547601878643036,-0.004668445326387882
27.75,-0.017709001898765564,0.060371361672878265,0.4915724992752075,0.01628880947828293,0.025231700390577316,0.013465093448758125
27.8,0.01877570152282715,0.07631107419729233,0.4805559515953064,0.029388567432761192,0.15098752081394196,0.0161766204982996
27.85,-0.01175248809158802,0.28788378834724426,-0.007246400695294142,0.051899321377277374,0.21332857012748718,0.014130880124866962
27.9,-0.17269687354564667,0.36770734190940857,-0.4790149927139282,0.011469315737485886,0.13367798924446106,-0.008084192872047424
27.95,-0.17914709448814392,0.3288470506668091,-0.6201103329658508,-0.02719300240278244,-0.032793693244457245,-0.03369993343949318
28.0,0.0007676482200622559,0.26227957010269165,-0.269704133272171,-0.03283645212650299,-0.16120606660842896,-0.041798122227191925
28.05,0.0373995266854763,0.2239523082971573,0.09758701920509338,-0.04708295315504074,-0.17839893698692322,-0.04407716169953346
28.1,0.0027449876070022583,0.1693134307861328,0.104725182056427,-0.057572413235902786,-0.1522425264120102,-0.041403237730264664
28.15,0.013517970219254494,0.1794614940881729,0.052644118666648865,-0.04006178677082062,-0.13567186892032623,-0.026606664061546326
28.2,-0.02153540775179863,0.17359542846679688,0.12508250772953033,-0.02417188137769699,-0.09505579620599747,-0.008105449378490448
28.25,-0.08151257038116455,0.14231683313846588,0.03296557441353798,-0.022338680922985077,-0.034361831843853,0.0046506766229867935
28.3,-0.007603653706610203,0.2083587944507599,-0.025190377607941628,-0.005202568136155605,-0.024250192567706108,0.012851170264184475
28.35,0.03562481701374054,0.2089843899011612,0.18173928558826447,0.002330359071493149,-0.030975576490163803,0.02134276181459427
28.4,-0.0880802795290947,0.14345932006835938,0.3005870580673218,-0.0050595104694366455,0.0023892668541520834,0.02512168511748314
28.45,-0.06267015635967255,0.1554241180419922,0.19789889454841614,0.0012671127915382385,0.033359259366989136,0.023734640330076218
28.5,0.0032374709844589233,0.2366047203540802,0.06656971573829651,0.010999016463756561,0.039197422564029694,0.023414961993694305
28.55,0.019206322729587555,0.22672179341316223,0.04100697487592697,0.00653608376160264,0.039138175547122955,0.019618282094597816
28.6,0.02088376134634018,0.20504000782966614,-0.021463533863425255,-0.004739917814731598,0.050870101898908615,0.014393375255167484
28.65,0.022696182131767273,0.24466614425182343,-0.20836421847343445,-0.021269403398036957,0.03627559170126915,0.000773789593949914
28.7,0.06290678679943085,0.275917112827301,-0.3632715046405792,-0.04474679380655289,-0.019793197512626648,-0.015616004355251789
28.75,0.12702253460884094,0.25391966104507446,-0.31611475348472595,-0.06939292699098587,-0.0733036920428276,-0.01947120763361454
28.8,0.08474108576774597,0.2042866051197052,-0.15856412053108215,-0.07866834104061127,-0.08712475746870041,-0.00907758716493845
28.85,-0.08847923576831818,0.2099771797657013,0.021310685202479362,-0.08159083127975464,-0.06497541069984436,0.0006365763256326318
28.9,-0.14535248279571533,0.20976166427135468,0.04269156605005264,-0.10358230769634247,-0.04002299904823303,-0.0051999930292367935
28.95,0.00023286417126655579,0.22172455489635468,-0.08418229222297668,-0.14356431365013123,-0.009136083535850048,-0.011502155102789402
29.0,0.07468684017658234,0.17105107009410858,-0.35456323623657227,-0.20381441712379456,0.04432623088359833,-0.013072224333882332
29.05,0.16883017122745514,0.13039879500865936,-0.5140064358711243,-0.24347198009490967,0.060920894145965576,-0.007908745668828487
29.1,0.31790080666542053,0.15044689178466797,-0.23809874057769775,-0.25511154532432556,0.06059322878718376,-0.004288650583475828
29.15,0.2699700891971588,-0.03855995461344719,0.13971158862113953,-0.2707381844520569,0.10689728707075119,-0.01720815896987915
29.2,-0.09393355250358582,-0.04245283827185631,0.329995721578598,-0.277300626039505,0.1522994339466095,-0.03141423687338829
29.25,-0.20442770421504974,-0.034420013427734375,0.18842464685440063,-0.27629226446151733,0.11066395789384842,-0.059214890003204346
29.3,0.152360737323761,-0.11741450428962708,-0.004029282368719578,-0.25699159502983093,0.05323158949613571,-0.0670427456498146
29.35,0.21129783987998962,-0.10174848139286041,-0.1784668117761612,-0.24627166986465454,0.05485215038061142,-0.06007913500070572
29.4,0.1640133410692215,-0.11056709289550781,-0.35203224420547485,-0.21675461530685425,0.04980304464697838,-0.07580903172492981
29.45,0.33758920431137085,-0.11385825276374817,-0.16453887522220612,-0.15063512325286865,-0.0591031089425087,-0.07280797511339188
29.5,0.17134976387023926,-0.10186583548784256,0.39645421504974365,-0.13725827634334564,-0.19177120923995972,-0.06471756100654602
29.55,-0.06956703960895538,-0.18606001138687134,0.5537678003311157,-0.1448621302843094,-0.23207561671733856,-0.10668748617172241
29.6,0.05871397256851196,-0.16266828775405884,0.4619719684123993,-0.11181722581386566,-0.2512334883213043,-0.14456772804260254
29.65,-0.03397180140018463,-0.14060787856578827,0.31531819701194763,-0.1267794519662857,-0.26602140069007874,-0.15532062947750092
29.7,-0.14412856101989746,-0.22130395472049713,-0.0727093294262886,-0.13036532700061798,-0.25973907113075256,-0.16255992650985718
29.75,-0.0622866116464138,-0.14055825769901276,0.06433610618114471,-0.07701224088668823,-0.24694663286209106,-0.14021866023540497
29.8,-0.029321104288101196,-0.10122781246900558,0.44187742471694946,-0.060912784188985825,-0.2292325496673584,-0.11199921369552612
29.85,-0.20485584437847137,-0.18134595453739166,0.16456018388271332,-0.05206044763326645,-0.16884739696979523,-0.09302344173192978
29.9,-0.26421988010406494,-0.163785919547081,-0.07266578078269958,-0.016984375193715096,-0.14734463393688202,-0.06890975683927536
29.95,-0.1500110626220703,-0.1694193035364151,0.1003396287560463,-0.004962792620062828,-0.17153838276863098,-0.036750391125679016
30.0,-0.0632554218173027,-0.23441603779792786,0.1423456370830536,-0.0015898840501904488,-0.1713860034942627,-0.014768936671316624
30.05,0.015537142753601074,-0.2220659703016281,0.1135261058807373,0.010354310274124146,-0.1442151814699173,-0.0008144399616867304
30.1,0.1539968103170395,-0.167300283908844,0.2543022632598877,0.014427948743104935,-0.1251538097858429,0.01119793951511383
30.15,0.18548935651779175,-0.1255083680152893,0.29777175188064575,0.0107407346367836,-0.10777605324983597,0.023294689133763313
30.2,0.24819986522197723,-0.1528664231300354,0.1619536578655243,0.012796503491699696,-0.06483188271522522,0.03164833411574364
30.25,0.2597120702266693,-0.1764422059059143,0.1373644918203354,0.013802950270473957,-0.028391771018505096,0.0351514108479023
30.3,0.22322885692119598,-0.12875467538833618,0.19695891439914703,0.01452278345823288,-0.01649191416800022,0.03237707167863846
30.35,0.2855106592178345,-0.14173799753189087,0.14848686754703522,0.013029910624027252,-0.0015562407206743956,0.02621064893901348
30.4,0.31320953369140625,-0.16202455759048462,0.09517329931259155,0.009514624252915382,0.018763815984129906,0.019691413268446922
30.45,0.22435131669044495,-0.17684082686901093,0.08165144920349121,0.00822705589234829,0.035575538873672485,0.016201378777623177
30.5,0.19039461016654968,-0.21638494729995728,0.0802682638168335,0.009663274511694908,0.05075352266430855,0.012593045830726624
30.55,0.18284031748771667,-0.17527298629283905,0.08442417532205582,0.010154331102967262,0.061852216720581055,0.00796802993863821
30.6,0.1719139814376831,-0.1277485191822052,0.05725546181201935,0.00841299444437027,0.06442996114492416,0.006625054869800806
30.65,0.1255546510219574,-0.10554126650094986,0.07114888727664948,0.011309938505291939,0.0790763646364212,0.007638175040483475
30.7,0.03613876551389694,-0.12275603413581848,0.08509688824415207,0.012814591638743877,0.09082664549350739,0.006669036112725735
30.75,0.05486302822828293,-0.14611150324344635,0.004386053420603275,0.009685217402875423,0.07974155247211456,0.003947900142520666
30.8,0.11240239441394806,-0.13275626301765442,-0.030340194702148438,0.012739498168230057,0.06214030459523201,0.0024279351346194744
30.85,0.12067963182926178,-0.10375789552927017,0.09384752064943314,0.018192008137702942,0.05225418135523796,0.0034362454898655415
30.9,0.01569073647260666,-0.14657118916511536,0.1298832893371582,0.012744681909680367,0.05060811713337898,0.0003538632590789348
30.95,0.04449833929538727,-0.1621551811695099,0.10536231845617294,0.011472580023109913,0.04354396089911461,-0.009843900799751282
31.0,0.00623384490609169,-0.1138944923877716,0.1237974762916565,0.006059780716896057,0.03003663197159767,-0.017288025468587875
31.05,-0.07965357601642609,-0.09223558008670807,0.15549258887767792,-0.01011818926781416,0.01711900159716606,-0.02750597521662712
31.1,-0.04654368758201599,-0.06376364082098007,0.23603840172290802,-0.028339486569166183,-0.002190923783928156,-0.038812264800071716
31.15,-0.11027553677558899,-0.10356523841619492,0.1876469999551773,-0.0565871000289917,-0.00868698488920927,-0.046402256935834885
31.2,0.006449349224567413,-0.2076110988855362,-0.13318082690238953,-0.0692867860198021,0.007500839419662952,-0.05729607865214348
31.25,0.22861072421073914,-0.2558269500732422,-0.40767702460289,-0.04302987828850746,0.031073104590177536,-0.05390269681811333
31.3,0.38210761547088623,-0.222599059343338,-0.32459723949432373,0.010254698805510998,0.04106619581580162,-0.02926027588546276
31.35,0.2313818633556366,-0.1808033287525177,-0.07396282255649567,0.055292464792728424,0.06588996201753616,-0.0008665234781801701
31.4,-0.018059663474559784,-0.14041712880134583,0.17590025067329407,0.0672011598944664,0.09387307614088058,0.011482302099466324
31.45,0.02028818428516388,-0.14960768818855286,0.17273472249507904,0.06351553648710251,0.09999692440032959,0.00613780552521348
31.5,0.0900425910949707,-0.1788511574268341,0.052189141511917114,0.059766024351119995,0.11085354536771774,0.0029052793979644775
31.55,0.13559022545814514,-0.13702109456062317,0.026729270815849304,0.05989190936088562,0.11676094681024551,0.005156629718840122
31.6,0.0823247954249382,-0.11852839589118958,0.056063488125801086,0.05947897210717201,0.1442752629518509,0.003410347504541278
31.65,-0.003233695402741432,-0.09669782221317291,0.03596042841672897,0.046657953411340714,0.15077291429042816,-0.007198127452284098
31.7,-0.010023530572652817,-0.10904885828495026,0.031262196600437164,0.02724211849272251,0.14449240267276764,-0.01848505064845085
31.75,0.010405904613435268,-0.13013364374637604,0.007077280431985855,0.00966649316251278,0.15786878764629364,-0.0292790699750185
31.8,0.09017524868249893,-0.1624756008386612,-0.06775912642478943,-0.003825460560619831,0.1620873063802719,-0.0349089577794075
31.85,0.025053851306438446,-0.1682891845703125,-0.21129116415977478,-0.0006167776882648468,0.181884303689003,-0.030220309272408485
31.9,-0.11388698220252991,-0.13791655004024506,-0.2568639814853668,0.009319847449660301,0.17793889343738556,-0.03128358721733093
31.95,-0.15341845154762268,-0.1429881900548935,-0.10474690049886703,0.0077666025608778,0.13622751832008362,-0.03746912255883217
32.0,-0.262340784072876,-0.13508032262325287,0.006485369522124529,-0.013179941102862358,0.1051812544465065,-0.05112704634666443
32.05,-0.22240698337554932,-0.1597127765417099,-0.06757340580224991,-0.042429521679878235,0.0674932673573494,-0.0634632334113121
32.1,-0.10641677677631378,-0.1477193683385849,-0.19444908201694489,-0.035234544426202774,0.06749650835990906,-0.05670586973428726
32.15,-0.00795687735080719,-0.1299457550048828,-0.20724473893642426,-0.010452774353325367,0.0756831020116806,-0.038472726941108704
32.2,-0.04307611286640167,-0.16064737737178802,-0.20521530508995056,0.012432271614670753,0.08564184606075287,-0.01616421341896057
32.25,-0.09940103441476822,-0.13991928100585938,-0.07322009652853012,0.03740330785512924,0.0979665070772171,-0.004596618935465813
32.3,-0.06068916618824005,-0.13226033747196198,0.04816794767975807,0.03810805082321167,0.0757269412279129,0.003767610527575016
32.35,-0.11722869426012039,-0.15087223052978516,0.007978567853569984,0.031198427081108093,0.07567930221557617,0.005758700892329216
32.4,-0.14232371747493744,-0.13475896418094635,0.08351846784353256,0.02549302577972412,0.09756927192211151,0.004630527459084988
32.45,-0.08766701817512512,-0.09467126429080963,0.07977929711341858,0.009413499385118484,0.10428141802549362,0.0006188768893480301
32.5,-0.15378478169441223,-0.09399604052305222,-0.10216232389211655,-0.014592555351555347,0.10469944775104523,-0.012008563615381718
32.55,-0.14056847989559174,-0.07015131413936615,-0.06579508632421494,-0.037227630615234375,0.09305760264396667,-0.022679990157485008
32.6,-0.019114580005407333,-0.09019375592470169,0.0005124732851982117,-0.057465098798274994,0.08104878664016724,-0.03146281838417053
32.65,-0.026332862675189972,-0.12128829956054688,-0.11282043904066086,-0.06958413124084473,0.08884143084287643,-0.03270575776696205
32.7,-0.04091544449329376,-0.16241930425167084,-0.20572879910469055,-0.07130666077136993,0.0937393456697464,-0.03456730768084526
32.75,0.0016318336129188538,-0.2065124660730362,-0.1443626880645752,-0.06782502681016922,0.05703244358301163,-0.029592052102088928
32.8,0.04616076499223709,-0.2257843315601349,-0.07505106180906296,-0.028716985136270523,0.006889617536216974,-0.03324860334396362
32.85,-0.0254531130194664,-0.22129252552986145,0.003177257487550378,0.011248504742980003,0.03328762575984001,-0.020685676485300064
32.9,-0.1059703603386879,-0.21107104420661926,0.10240589827299118,0.024166105315089226,0.08588621765375137,0.008641674183309078
32.95,-0.05521990731358528,-0.19183257222175598,0.03346501663327217,0.03598914295434952,0.086185023188591,0.004051028285175562
33.0,-0.037642702460289,-0.1674184799194336,-0.1201951652765274,0.03559223562479019,0.07684347033500671,1.4905878742865752e-05
33.05,-0.011971436440944672,-0.18256282806396484,-0.1431194394826889,0.04102017730474472,0.051097091287374496,-0.002570970682427287
33.1,0.02335299924015999,-0.17878152430057526,-0.09996332228183746,0.04844634234905243,0.024643439799547195,-0.0035568163730204105
33.15,-0.029236290603876114,-0.1282339245080948,-0.024944420903921127,0.05054670572280884,0.01749577187001705,-0.0034142653457820415
33.2,-0.1110229343175888,-0.09965134412050247,0.03345038369297981,0.041475050151348114,0.022865036502480507,-0.006426195148378611
33.25,-0.13321712613105774,-0.13871097564697266,0.005281638354063034,0.024721212685108185,0.021973280236124992,-0.013124101795256138
33.3,-0.1500224471092224,-0.16695499420166016,-0.049431804567575455,0.008267821744084358,0.01742950826883316,-0.016427217051386833
33.35,-0.09103764593601227,-0.12219906598329544,0.003943959716707468,0.003448070026934147,0.01911315694451332,-0.01255330815911293
33.4,-0.051445670425891876,-0.05660344287753105,0.07434181869029999,0.005502759478986263,0.03475157916545868,-0.006080443039536476
33.45,-0.0794374868273735,-0.09714795649051666,0.08792490512132645,-0.0010285276221111417,0.03857569023966789,-0.001840586424805224
33.5,-0.04736907407641411,-0.14356137812137604,0.04511236771941185,-0.006683762185275555,0.03371281921863556,-0.0036999729927629232
33.55,-0.05854354053735733,-0.15279580652713776,0.025262054055929184,-0.009068197570741177,0.026349365711212158,-0.005393747240304947
33.6,-0.0635351836681366,-0.14524652063846588,0.08251888304948807,-0.008032429032027721,0.01633964478969574,-0.005406571086496115
33.65,-0.03235601261258125,-0.14135076105594635,0.08362139016389847,-0.005532735493034124,0.01190436165779829,-0.0031459617894142866
33.7,-0.045179806649684906,-0.1548605114221573,0.04562891647219658,-0.0018615338485687971,0.014822499826550484,-0.0005771695869043469
33.75,-0.045684054493904114,-0.1435423046350479,0.013564757071435452,-0.0015516949351876974,0.020990386605262756,-0.0010179117089137435
33.8,-0.00914902426302433,-0.13615991175174713,-0.007050687447190285,-0.004299468360841274,0.021299002692103386,0.0012638563057407737
33.85,-0.005456255748867989,-0.1443624645471573,0.009761852212250233,0.00043730996549129486,0.020605335012078285,0.0033907308243215084
33.9,-0.00876505859196186,-0.12416650354862213,0.027338752523064613,0.001919712871313095,0.014200538396835327,0.0031063349451869726
33.95,-0.03556856885552406,-0.12795163691043854,0.00628999387845397,-0.0030378950759768486,0.008317024447023869,0.0016983132809400558
34.0,-0.022402731701731682,-0.14814282953739166,-0.003505503060296178,-0.006541070062667131,0.010566150769591331,5.086653254693374e-05
34.05,0.004179761745035648,-0.16934777796268463,-0.02689691260457039,-0.009096195921301842,0.015585994347929955,-0.00010515214671613649
34.1,-0.009190511889755726,-0.1654806286096573,-0.04012127220630646,-0.012513186782598495,0.019559195265173912,-0.0017151773208752275
34.15,-0.006247053854167461,-0.14812280237674713,-0.03140466287732124,-0.017817553132772446,0.014329398050904274,-0.002289467491209507
34.2,-0.008187328465282917,-0.1463766247034073,-0.008304822258651257,-0.019068006426095963,0.009032015688717365,-0.0011879939120262861
34.25,0.04085589200258255,-0.1727304756641388,0.05087694153189659,-0.018271014094352722,0.006759654264897108,-0.000712650828063488
34.3,0.02004610002040863,-0.15416815876960754,0.07242655009031296,-0.020360862836241722,0.015953395515680313,-0.002236519707366824
34.35,-0.022281743586063385,-0.10872747004032135,0.05753794312477112,-0.027885472401976585,0.02598108910024166,-0.005945565644651651
34.4,0.029960446059703827,-0.15755464136600494,0.023442255333065987,-0.04061637818813324,0.026386160403490067,-0.008697234094142914
34.45,-0.015240528620779514,-0.13103295862674713,-0.009591948240995407,-0.04524883255362511,0.043112218379974365,-0.009503724053502083
34.5,-0.008308809250593185,-0.12479497492313385,-0.017210422083735466,-0.04264508932828903,0.04950495436787605,-0.010186045430600643
34.55,0.0346367210149765,-0.18785861134529114,0.016972197219729424,-0.040299199521541595,0.04300934448838234,-0.007743103429675102
34.6,-0.0319327674806118,-0.1696472316980362,0.023923223838210106,-0.03638630360364914,0.05802387744188309,-0.006410527508705854
34.65,-0.02927572652697563,-0.18401052057743073,-0.0008364939130842686,-0.037552718073129654,0.06029575318098068,-0.0071898275054991245
34.7,0.00589414918795228,-0.19408896565437317,-0.014152748510241508,-0.0405443012714386,0.0565878190100193,-0.007875161245465279
34.75,-0.01073099672794342,-0.1913013756275177,-0.029882097616791725,-0.04147237539291382,0.06796378642320633,-0.008325718343257904
34.8,0.001011660322546959,-0.20750334858894348,-0.039302051067352295,-0.04328976571559906,0.06701180338859558,-0.007566515821963549
34.85,0.0278392992913723,-0.2295713722705841,-0.049480922520160675,-0.04063977301120758,0.05790957808494568,-0.005727150943130255
34.9,-0.015929963439702988,-0.23144246637821198,-0.06731310486793518,-0.034903354942798615,0.06177579239010811,-0.0017838190542533994
34.95,-0.019074438139796257,-0.2074279934167862,-0.07217595726251602,-0.02890271320939064,0.05656389892101288,-9.728581790113822e-05
35.0,0.03318232670426369,-0.2361326515674591,-0.05307726562023163,-0.022206958383321762,0.0396592915058136,0.0006091079558245838
35.05,0.008772888220846653,-0.22612956166267395,-0.011154593899846077,-0.011018838733434677,0.036810703575611115,0.004718937445431948
35.1,-0.015017254278063774,-0.2054453194141388,-0.01970715820789337,-0.004605344031006098,0.03319834917783737,0.004129481036216021
35.15,-0.07509300857782364,-0.21590234339237213,-0.08051379024982452,-0.014419803395867348,0.018501773476600647,-0.00016859669995028526
35.2,-0.04351699352264404,-0.20822812616825104,-0.07743262499570847,-0.029168250039219856,-0.008967563509941101,-0.005402798298746347
35.25,0.06442993134260178,-0.23570731282234192,-0.05527608096599579,-0.03900550305843353,-0.027581924572587013,-0.01045397762209177
35.3,0.008657794445753098,-0.2262449562549591,-0.07276318222284317,-0.041175179183483124,-0.02109975554049015,-0.005199943669140339
35.35,-0.03986474499106407,-0.22798922657966614,-0.02196471020579338,-0.036996882408857346,-0.023922013118863106,-0.00095091707771644
35.4,-0.03426998853683472,-0.25901225209236145,0.08340572565793991,-0.03752128779888153,-0.039743419736623764,0.0005268251989036798
35.45,-0.059812985360622406,-0.2701740562915802,0.1700648069381714,-0.0460260808467865,-0.03560910001397133,0.0016642146511003375
35.5,-0.05021745711565018,-0.27752116322517395,0.2001752257347107,-0.05686001479625702,-0.015065459534525871,0.001105259987525642
35.55,-0.012297071516513824,-0.2607870399951935,0.09923412650823593,-0.06163870543241501,0.006289164535701275,0.0025441525503993034
35.6,0.03252023458480835,-0.23791983723640442,0.03544428572058678,-0.0538487434387207,0.02208254672586918,0.00561888050287962
35.65,0.06376948952674866,-0.24859432876110077,0.06283580511808395,-0.04041135311126709,0.01916349306702614,0.01067997608333826
35.7,0.027821028605103493,-0.25716593861579895,-0.02971465326845646,-0.027912139892578125,0.0072461338713765144,0.013289359398186207
35.75,0.015265610069036484,-0.2526254951953888,-0.06644777953624725,-0.021139206364750862,-0.023249268531799316,0.013926693238317966
35.8,0.0075099654495716095,-0.2644682228565216,0.042307496070861816,-0.017581382766366005,-0.05197150632739067,0.01444019190967083
35.85,-0.04087162762880325,-0.2828226387500763,0.06782615929841995,-0.017180243507027626,-0.05614655092358589,0.011733843013644218
35.9,0.005059685558080673,-0.2761373817920685,0.06425487250089645,-0.024140898138284683,-0.05946878716349602,0.009678441099822521
35.95,0.06614888459444046,-0.30282023549079895,-0.02595452405512333,-0.03235241770744324,-0.06490916013717651,0.008605308830738068
36.0,0.07076014578342438,-0.27505019307136536,-0.09265577793121338,-0.02929270826280117,-0.07820587605237961,0.010378772392868996
36.05,0.07854381948709488,-0.24803736805915833,-0.06418684124946594,-0.019942406564950943,-0.09309559315443039,0.01353448536247015
36.1,0.05526062101125717,-0.2604265511035919,-0.026091277599334717,-0.015880992636084557,-0.09883474558591843,0.016861002892255783
36.15,0.0010634250938892365,-0.2281370460987091,0.03592109680175781,-0.018612470477819443,-0.10045625269412994,0.016230635344982147
36.2,0.01598859578371048,-0.2251139134168625,0.0753311961889267,-0.029999379068613052,-0.1093255802989006,0.011925323866307735
36.25,0.038389258086681366,-0.23675636947155,0.10247081518173218,-0.042382027953863144,-0.11971741169691086,0.00981247890740633
36.3,0.02519967034459114,-0.2592058479785919,0.08040580153465271,-0.04664020985364914,-0.1157175675034523,0.0076042949222028255
36.35,0.08063763380050659,-0.2736425995826721,0.08307065069675446,-0.052020519971847534,-0.1066504493355751,0.0018432295182719827
36.4,0.10763049870729446,-0.2725239396095276,0.10501715540885925,-0.05848211050033569,-0.08916833996772766,-0.0012814895017072558
36.45,0.11786824464797974,-0.2670899033546448,0.1993653029203415,-0.08179426193237305,-0.0757613480091095,-0.0049009909853339195
36.5,0.1089591532945633,-0.22383315861225128,0.2869943380355835,-0.11784197390079498,-0.05686955526471138,-0.016163691878318787
36.55,0.09947343915700912,-0.23304086923599243,0.19320183992385864,-0.13287204504013062,-0.006983781233429909,-0.02283848263323307
36.6,0.09268917143344879,-0.3170194923877716,0.05700408294796944,-0.132816344499588,0.03511415794491768,-0.03242618590593338
36.65,0.10510647296905518,-0.34695345163345337,0.13956068456172943,-0.12819170951843262,0.04879722744226456,-0.04252174124121666
36.7,0.11644768714904785,-0.3560972809791565,0.28393083810806274,-0.13474994897842407,0.06448182463645935,-0.050773024559020996
36.75,0.08804220706224442,-0.3961392343044281,0.3084051012992859,-0.16194793581962585,0.10910483449697495,-0.0724366307258606
36.8,0.0953419879078865,-0.4517260491847992,0.24753476679325104,-0.18234506249427795,0.1466134637594223,-0.08666545152664185
36.85,0.06405042111873627,-0.4719725549221039,0.20821359753608704,-0.1830986738204956,0.18436826765537262,-0.0885053500533104
36.9,0.1506531983613968,-0.5291911363601685,0.2080525904893875,-0.16283418238162994,0.19914516806602478,-0.0736285001039505
36.95,0.1482793539762497,-0.565061628818512,0.030336273834109306,-0.11575815081596375,0.20814797282218933,-0.04036080837249756
37.0,0.020583324134349823,-0.5158262848854065,-0.16599738597869873,-0.05107394978404045,0.24957242608070374,-0.014728158712387085
37.05,0.0029285773634910583,-0.47199633717536926,-0.21713899075984955,0.02778312750160694,0.25454017519950867,0.0032192987855523825
37.1,-0.03174351900815964,-0.4384012520313263,-0.2387600839138031,0.07787829637527466,0.2249874472618103,0.007032506633549929
37.15,-0.054000116884708405,-0.43052390217781067,-0.2526762783527374,0.09257137775421143,0.17729002237319946,0.0016915774904191494
37.2,0.010754846036434174,-0.4274311363697052,-0.23887479305267334,0.10270862281322479,0.11911549419164658,-0.0019372281385585666
37.25,-0.00038420408964157104,-0.4012632668018341,-0.1625666469335556,0.10179398953914642,0.08540081232786179,-0.009335950016975403
37.3,-0.09425343573093414,-0.37947943806648254,-0.06611473113298416,0.09863726794719696,0.0697769820690155,-0.013694385066628456
37.35,-0.14277184009552002,-0.35863399505615234,-0.058225516229867935,0.08969517797231674,0.053372822701931,-0.01398707926273346
37.4,-0.12531955540180206,-0.3618946075439453,-0.05677640065550804,0.0732353925704956,0.03661307692527771,-0.01311152521520853
37.45,-0.13513000309467316,-0.3654508888721466,0.01753365248441696,0.06132782995700836,0.02563307248055935,-0.013206729665398598
37.5,-0.14298957586288452,-0.35706427693367004,0.09391042590141296,0.04333774372935295,0.01363017875701189,-0.016084099188447
37.55,-0.11937721073627472,-0.3823280930519104,0.0011483551934361458,0.020641397684812546,0.004040385130792856,-0.017414318397641182
37.6,-0.05725884437561035,-0.3473415672779083,-0.06842964142560959,0.010618736036121845,0.009141680784523487,-0.019098974764347076
37.65,0.0045958939008414745,-0.3158445656299591,-0.013729888945817947,0.004801117815077305,0.007048261351883411,-0.014761517755687237
37.7,-0.05029495432972908,-0.3600330650806427,0.04913857579231262,0.0026162168942391872,0.01307460106909275,-0.010926393792033195
37.75,-0.05437076836824417,-0.39413362741470337,0.07050520181655884,-0.001884204801172018,0.022016920149326324,-0.01293849851936102
37.8,-0.01896996982395649,-0.3785143494606018,0.017609013244509697,-0.0057280343025922775,0.019532768055796623,-0.010175180621445179
37.85,-0.009298373945057392,-0.3470306694507599,0.010611009784042835,0.001990851014852524,0.023756003007292747,-0.007681229151785374
37.9,-0.0031333984807133675,-0.3644600212574005,0.031185541301965714,0.006795601453632116,0.022041698917746544,-0.004860444460064173
37.95,-0.041677817702293396,-0.3972521424293518,0.04838614538311958,0.007992196828126907,0.025170687586069107,-0.004033800680190325
38.0,-0.044168613851070404,-0.41435056924819946,0.06860636174678802,0.006481628865003586,0.029896177351474762,-0.007715827319771051
38.05,-0.009760746732354164,-0.3797913193702698,0.017461271956562996,0.002391769317910075,0.027978407219052315,-0.009626278653740883
38.1,0.030003126710653305,-0.3643055260181427,-0.03192741051316261,-0.0012891171500086784,0.024176886305212975,-0.009854880161583424
38.15,0.005868910811841488,-0.3805142045021057,-0.02186632715165615,0.0007308665663003922,0.023406820371747017,-0.005741417873650789
38.2,-0.023164119571447372,-0.35923102498054504,-0.015461467206478119,0.010425585322082043,0.02869376540184021,-0.001861176802776754
38.25,-0.013540336862206459,-0.3506212532520294,0.011028398759663105,0.01406701747328043,0.026612909510731697,-0.00045073419460095465
38.3,-0.016867700964212418,-0.3520832359790802,0.014257269911468029,0.017791755497455597,0.03190592676401138,-0.000523574068211019
38.35,-0.00011139782145619392,-0.38141733407974243,0.010559704154729843,0.02363380789756775,0.03362150117754936,0.0007378168520517647
38.4,-0.012741081416606903,-0.3718900978565216,0.031828299164772034,0.02843908965587616,0.03179406747221947,0.00350739574059844
38.45,-0.054528530687093735,-0.4005890488624573,0.08421507477760315,0.025435350835323334,0.024280138313770294,0.004188972059637308
38.5,-0.06328076124191284,-0.4101791977882385,0.10441182553768158,0.009437968954443932,0.005729414988309145,0.0024940918665379286
38.55,-0.006951663643121719,-0.413790762424469,0.05289939418435097,-0.008972533978521824,-0.008996914140880108,0.0005375134642235935
38.6,0.01117933914065361,-0.4343748688697815,-0.007048673462122679,-0.019008846953511238,-0.00534128537401557,0.0027391493786126375
38.65,-0.005526473745703697,-0.3911295533180237,-0.01262653712183237,-0.02569172903895378,0.02031075954437256,0.003627822734415531
38.7,0.03284812346100807,-0.359190970659256,-0.03036484122276306,-0.032616131007671356,0.0417434424161911,0.0030511310324072838
38.75,0.013676684349775314,-0.30523303151130676,-0.12282908707857132,-0.029746223241090775,0.050526801496744156,0.008797740563750267
38.8,-0.06340739876031876,-0.2994232475757599,-0.0644054114818573,-0.025091463699936867,0.05632542818784714,0.011071491055190563
38.85,-0.007844839245080948,-0.365360289812088,0.10172659903764725,-0.0262944083660841,0.050191350281238556,0.007498051039874554
38.9,0.0180247463285923,-0.379432737827301,0.12844790518283844,-0.03617861121892929,0.04045342653989792,0.008103904314339161
38.95,-0.03789958357810974,-0.36276915669441223,0.010085402056574821,-0.05006863549351692,0.03618994355201721,0.00540501531213522
39.0,0.02584022469818592,-0.42667490243911743,-0.08360891789197922,-0.049544595181941986,0.0239702258259058,0.0025507486425340176
39.05,0.03358013927936554,-0.4371090531349182,-0.05771809443831444,-0.03175190091133118,0.018695643171668053,0.00707561569288373
39.1,0.0010561756789684296,-0.41949278116226196,0.06396316736936569,-0.017169078812003136,0.020795637741684914,0.010256209410727024
39.15,0.00683245062828064,-0.42406946420669556,0.13961690664291382,-0.018926387652754784,0.019538365304470062,0.007830975577235222
39.2,0.01119190827012062,-0.4046393036842346,0.11603983491659164,-0.02867908403277397,0.01712006889283657,0.003670384641736746
39.25,0.0412573367357254,-0.4287310242652893,0.11537162959575653,-0.03373027592897415,0.02508065663278103,0.0006574556464329362
39.3,0.07690703868865967,-0.4519587457180023,0.08934087306261063,-0.030996352434158325,0.03563140332698822,6.778736860724166e-05
39.35,0.09043462574481964,-0.4386025071144104,0.0331982746720314,-0.026395469903945923,0.04152017459273338,0.002125936560332775
39.4,0.0184048879891634,-0.42703157663345337,-0.00563102075830102,-0.026226552203297615,0.0441056489944458,0.003793847979977727
39.45,0.011968761682510376,-0.427070677280426,-0.006437480915337801,-0.026731304824352264,0.05055934190750122,0.0044541493989527225
39.5,-0.004069339483976364,-0.44390207529067993,-0.00553963053971529,-0.030711237341165543,0.061529066413640976,0.008839879184961319
39.55,-0.0770828127861023,-0.4456034004688263,-0.09997155517339706,-0.032030731439590454,0.07034657895565033,0.013202925212681293
39.6,-0.09893269091844559,-0.4553737938404083,-0.10931365191936493,-0.011693911626935005,0.06137899309396744,0.022301489487290382
39.65,0.004612032324075699,-0.5040350556373596,0.09154380112886429,0.02697688899934292,0.025061311200261116,0.03504683077335358
39.7,0.01593869924545288,-0.489447683095932,0.3295326232910156,0.06844411045312881,-0.022845782339572906,0.034209176898002625
39.75,-0.10190748423337936,-0.49791058897972107,0.28278395533561707,0.0965692549943924,-0.0847192108631134,0.020078495144844055
39.8,0.005959458649158478,-0.4938841462135315,0.08760466426610947,0.10915158689022064,-0.1327914446592331,0.00031593150924891233
39.85,0.11693698912858963,-0.4427796006202698,-0.1217903271317482,0.13594935834407806,-0.14254119992256165,-0.011194688268005848
39.9,0.1751100718975067,-0.41261106729507446,-0.30375614762306213,0.17348086833953857,-0.14295299351215363,-0.0028126356191933155
39.95,0.22676637768745422,-0.33151915669441223,-0.1868629902601242,0.19907420873641968,-0.14881514012813568,0.024055765941739082
40.0,0.15805482864379883,-0.2976246178150177,-0.08717066049575806,0.23690974712371826,-0.15651556849479675,0.05885365605354309
40.05,0.197981595993042,-0.28487399220466614,-0.07039108127355576,0.28973275423049927,-0.16779327392578125,0.08281412720680237
40.1,0.19180364906787872,-0.25791841745376587,0.022836143150925636,0.31995242834091187,-0.16179251670837402,0.09602448344230652
40.15,0.11988149583339691,-0.2090330570936203,0.07193288207054138,0.3329451084136963,-0.1460864096879959,0.09726519882678986
40.2,0.09115549176931381,-0.17629624903202057,-0.05528312921524048,0.3107053339481354,-0.15683089196681976,0.08415570855140686
40.25,0.20165038108825684,-0.1422434002161026,-0.17349299788475037,0.2945334315299988,-0.1952001005411148,0.07747238129377365
40.3,0.2887101173400879,-0.08596231043338776,-0.20119993388652802,0.29718905687332153,-0.1829194277524948,0.08868919312953949
40.35,0.05126471072435379,-0.08998201787471771,-0.2994643449783325,0.29632511734962463,-0.13275429606437683,0.10575154423713684
40.4,-0.26639530062675476,-0.07662959396839142,-0.27173730731010437,0.31660979986190796,-0.10143227130174637,0.10360714793205261
40.45,-0.14710304141044617,-0.18225766718387604,0.09754236042499542,0.3201599717140198,-0.12884816527366638,0.09602916240692139
40.5,0.0023244470357894897,-0.1842518299818039,0.36648961901664734,0.3013571500778198,-0.16099703311920166,0.11435963958501816
40.55,0.010519176721572876,-0.04549126327037811,0.4205613136291504,0.30629682540893555,-0.15450598299503326,0.1279006004333496
40.6,-0.0628114640712738,-0.01464278157800436,0.7510058283805847,0.3258087635040283,-0.09000827372074127,0.12121516466140747
40.65,-0.07850456237792969,-0.030970662832260132,0.9927980899810791,0.29358547925949097,0.018180405721068382,0.08841539919376373
40.7,0.08423098921775818,-0.04260261729359627,0.7169679999351501,0.2148839831352234,0.0519883818924427,0.047769829630851746
40.75,0.14021684229373932,0.03680608794093132,0.09716792404651642,0.16090163588523865,0.06302522867918015,0.01790112443268299
40.8,0.28936755657196045,0.1307077556848526,-0.36894872784614563,0.13821160793304443,0.06251724064350128,0.0057742903009057045
40.85,0.14686089754104614,0.20146086812019348,-0.1104186624288559,0.11690791696310043,0.03097757324576378,0.006951895076781511
40.9,-0.0018894299864768982,0.16976451873779297,0.14495092630386353,0.07812513411045074,-0.07780676335096359,-0.01678994856774807
40.95,0.12646424770355225,0.0858907625079155,0.048189565539360046,0.049768321216106415,-0.16913679242134094,-0.03573242574930191
41.0,0.24340306222438812,0.0871276706457138,-0.011800202541053295,0.058606360107660294,-0.1251038908958435,-0.03351496532559395
41.05,0.2756534516811371,0.12359809130430222,-0.03112149052321911,0.06163603067398071,-0.045797597616910934,-0.028609540313482285
41.1,0.1322796642780304,0.11391830444335938,-0.004587575327605009,0.04696786403656006,-0.006516939960420132,-0.02252703718841076
41.15,0.020915327593684196,0.11591530591249466,0.06710628420114517,0.03424952179193497,-0.030500490218400955,-0.018171947449445724
41.2,0.06267577409744263,0.11657333374023438,0.09633997827768326,0.03608456999063492,-0.053971923887729645,-0.015281248837709427
41.25,0.11256659030914307,0.0792989730834961,-0.04121987521648407,0.03776011988520622,-0.02081368677318096,-0.009042578749358654
41.3,0.08624082058668137,0.09793855249881744,-0.055997490882873535,0.04057810455560684,0.005684298928827047,0.00036172085674479604
41.35,0.03375609219074249,0.13009166717529297,0.08841739594936371,0.0412207655608654,-0.025954967364668846,0.009141530841588974
41.4,-0.007020287215709686,0.07024191319942474,0.22063958644866943,0.024753618985414505,-0.057159360498189926,0.0060781147330999374
41.45,-0.008850209414958954,0.061467159539461136,0.22026927769184113,0.013887313194572926,-0.03371662646532059,-0.0003619672206696123
41.5,0.09233511984348297,0.06575202196836472,0.04925749450922012,0.014121448621153831,-0.0029256814159452915,0.004250522702932358
41.55,0.0854812040925026,0.06061553210020065,0.053008805960416794,0.008856324478983879,0.003588523715734482,0.012129555456340313
41.6,0.032950520515441895,0.06510542333126068,0.1751779019832611,0.010712850838899612,0.01745953969657421,0.015095996670424938
41.65,0.08964651077985764,0.10326193273067474,0.19708475470542908,0.011688347905874252,0.01766386814415455,0.01342861633747816
41.7,0.11619747430086136,0.16689585149288177,0.14618054032325745,-0.00666948314756155,0.0030640033073723316,0.011661635711789131
41.75,0.12651565670967102,0.14882469177246094,0.03113037906587124,-0.021753158420324326,0.0006828464684076607,0.009924884885549545
41.8,0.11944542825222015,0.12566280364990234,-0.041001614183187485,-0.01651177369058132,-0.0003169564879499376,0.005921277683228254
41.85,0.115165576338768,0.1283245086669922,0.034825097769498825,0.002100380603224039,0.005298915319144726,0.005883935838937759
41.9,0.11289507895708084,0.1582345813512802,0.242354616522789,0.0055968924425542355,0.017008988186717033,0.003856392577290535
41.95,0.07796241343021393,0.13727852702140808,0.35115912556648254,-0.00935700349509716,0.01440380234271288,-0.003287190804257989
42.0,0.04684718698263168,0.08081052452325821,0.23402617871761322,-0.013887272216379642,0.008714579977095127,-0.010500813834369183
42.05,0.009776201099157333,0.11351586133241653,0.07445698976516724,-0.01034504733979702,0.026225624606013298,-0.009320000186562538
42.1,0.008180311881005764,0.13071347773075104,0.03575247898697853,-0.013623558916151524,0.036165639758110046,-0.005135337822139263
42.15,0.0484318882226944,0.10161972045898438,0.07524941116571426,-0.012007150799036026,0.018509281799197197,-0.003944310359656811
42.2,0.05310063436627388,0.10970497131347656,0.13160963356494904,0.0018436346435919404,0.006134415976703167,0.00010115688928635791
42.25,-0.003034651279449463,0.09486103057861328,0.12551836669445038,0.011851532384753227,0.007174374535679817,-0.0018299277871847153
42.3,-0.03355880081653595,0.09268951416015625,0.10889308154582977,0.010373098775744438,0.0043368032202124596,-0.010643395595252514
42.35,-0.02911275625228882,0.12895585596561432,0.04752561077475548,0.008772814646363258,-0.010454858653247356,-0.009970234706997871
42.4,0.02031695283949375,0.10364056378602982,0.025314057245850563,0.00899295974522829,-0.024793878197669983,-0.006936772260814905
42.45,0.024088818579912186,0.06307792663574219,0.08897455781698227,0.009939804673194885,-0.012653011828660965,-0.004123635124415159
42.5,-0.025205781683325768,0.06937886029481888,0.06312913447618484,0.014295434579253197,-0.00037458876613527536,-0.0026846816763281822
42.55,-0.05354714021086693,0.08930874615907669,0.02321413904428482,0.015366801992058754,-0.0014270636020228267,-0.005654299631714821
42.6,-0.006507487967610359,0.10628415644168854,0.01910863257944584,0.016202814877033234,0.0021757252980023623,-0.00139724335167557
42.65,0.11706367135047913,0.1279001235961914,0.013203496113419533,0.014784138649702072,-0.0001825127546908334,0.0059117660857737064
42.7,0.08924929797649384,0.12651443481445312,0.011658234521746635,0.007633322384208441,0.0004661919083446264,0.005182654596865177
42.75,0.004161805845797062,0.11780072748661041,0.0071194963529706,0.006014300510287285,0.004280080087482929,-0.0008677715668454766
42.8,0.036923848092556,0.11751653254032135,-0.003918181173503399,0.004086742177605629,0.002576863393187523,-0.0002481912961229682
42.85,0.04930616170167923,0.11077500879764557,-0.053866609930992126,-0.0009523334447294474,-0.005795470904558897,0.0013622716069221497
42.9,0.04226728901267052,0.12836839258670807,-0.11736568808555603,-0.0032735082786530256,-0.020259354263544083,-0.0009552041883580387
42.95,0.004680904559791088,0.12965203821659088,-0.014021044597029686,-0.010944249108433723,-0.020970318466424942,-0.0004011164710391313
43.0,-0.0278046615421772,0.08643817901611328,0.13168670237064362,-0.01632184162735939,-0.02514980174601078,-0.0020201439037919044
43.05,-0.0026250146329402924,0.06091785058379173,0.12527231872081757,-0.009986251592636108,-0.024396367371082306,-0.0028447709046304226
43.1,0.025184351950883865,0.08866500109434128,0.12931501865386963,-0.00228092260658741,-0.007339949253946543,-0.0004964291001670063
43.15,0.0017876699566841125,0.10289955884218216,0.10781942307949066,0.0003104768693447113,-0.0006250732694752514,-0.002351879607886076
43.2,-0.02740345150232315,0.11569024622440338,0.039155155420303345,0.0025694326031953096,-0.004175207111984491,-0.005182451568543911
43.25,0.012982468120753765,0.11813928186893463,0.026053082197904587,0.004233893938362598,-0.0007547865388914943,-0.0016738757258281112
43.3,0.041322652250528336,0.13343144953250885,-0.06821456551551819,0.0033064731396734715,-0.003869369626045227,-0.0014827167615294456
43.35,0.005421217530965805,0.154758483171463,-0.1010693684220314,-0.002525570336729288,-0.007215018849819899,-0.005054796580225229
43.4,-0.014056507498025894,0.10444071143865585,-0.051248498260974884,-0.008630501106381416,0.012223036028444767,0.0003118205349892378
43.45,0.05451898276805878,0.0955505520105362,-0.041744206100702286,-0.008838619105517864,0.03388343006372452,0.0102727971971035
43.5,0.07556621730327606,0.07179069519042969,-0.012039249762892723,-0.010718457400798798,0.039092738181352615,0.013305612839758396
43.55,-0.011997842229902744,0.03702641278505325,-0.009815467521548271,-0.004242591094225645,0.029599381610751152,0.010087201371788979
43.6,-0.1131458729505539,0.0558939091861248,0.05830540508031845,0.004872160032391548,0.018599117174744606,0.00822061114013195
43.65,-0.05023695528507233,0.0902404710650444,0.23709644377231598,0.005366941913962364,-0.0015513848047703505,0.005293336696922779
43.7,0.0398140624165535,0.12319086492061615,0.24011000990867615,0.0027009639889001846,-0.006994933821260929,0.002676983829587698
43.75,-0.014759209007024765,0.12842465937137604,0.09085839241743088,0.005453446879982948,0.022761749103665352,0.00044956200872547925
43.8,0.012801161035895348,0.1362791210412979,0.025679606944322586,0.004549045581370592,0.03488621488213539,-0.0005469443276524544
43.85,0.01035410724580288,0.08701324462890625,0.05684297904372215,-0.001113379024900496,0.023901505395770073,-0.0005127423792146146
43.9,-0.012869806960225105,0.09337902814149857,0.023116538301110268,0.0065743587911129,0.03003721870481968,-0.003102097427472472
43.95,0.051138985902071,0.16739369928836823,-0.056296613067388535,0.011633528396487236,0.019786784425377846,-0.003851463785395026
44.0,0.007360834628343582,0.0706176906824112,-0.11598699539899826,-0.005063455551862717,-0.009615899063646793,-0.008457571268081665
44.05,-0.07666255533695221,0.02987576648592949,0.008516158908605576,-0.009174643084406853,0.007422077469527721,-0.008572138845920563
44.1,0.0018075633561238647,0.09809400141239166,0.002316719852387905,0.002494322368875146,0.018446028232574463,-0.0017984671285375953
44.15,0.1523238718509674,0.1557188183069229,-0.08897559344768524,0.0005162602756172419,-0.016852207481861115,-0.006071970332413912
44.2,0.05379249155521393,0.10652351379394531,0.07958091795444489,-0.016481205821037292,-0.018336215987801552,-0.01233538705855608
44.25,-0.0962873101234436,0.022951114922761917,0.23316234350204468,-0.013492502272129059,0.025118084624409676,-0.007573951035737991
44.3,0.01006881520152092,0.08105087280273438,0.07155395299196243,0.005226070061326027,0.02747594378888607,-0.006102521438151598
44.35,0.08111102133989334,0.16925431787967682,-0.07734853029251099,0.0014783632941544056,-0.012563950382173061,-0.011835251934826374
44.4,-0.03468126803636551,0.15322495996952057,-0.005499747581779957,-0.020708950236439705,-0.011700932867825031,-0.013110391795635223
44.45,-0.08651340007781982,0.08083153516054153,0.07620950788259506,-0.02032095193862915,0.0104023776948452,-0.006771730724722147
44.5,-0.009084075689315796,0.09393692761659622,0.08082720637321472,0.0011734772706404328,0.014460205100476742,-0.0007684946176595986
44.55,0.06027181074023247,0.09856320917606354,-0.042191728949546814,0.0040712133049964905,0.013034496456384659,0.0017287571681663394
44.6,0.02926662191748619,0.0863962322473526,-0.10180257260799408,-0.0038454774767160416,0.013447634875774384,-0.0004371310933493078
44.65,-0.012791866436600685,0.11169054359197617,-0.03342513367533684,-0.00962034985423088,-0.009395831264555454,-0.007919169031083584
44.7,-0.047376297414302826,0.10054780542850494,0.013406489044427872,-0.01615229621529579,-0.042886797338724136,-0.013069202192127705
44.75,-0.04027121514081955,0.08244801312685013,0.048517290502786636,-0.018060527741909027,-0.04156920686364174,-0.011362901888787746
44.8,-0.02228880301117897,0.07219982892274857,0.03826675936579704,-0.013986567966639996,-0.01967570185661316,-0.005704786162823439
44.85,-0.0015008514747023582,0.06571484357118607,-0.003116332460194826,-0.009146340191364288,-0.0025922604836523533,0.002260606735944748
44.9,-0.0018248595297336578,0.05335617437958717,0.023140225559473038,-0.008502590470016003,0.0017917269142344594,0.009715849533677101
44.95,-0.07684154808521271,0.03493976965546608,0.08975839614868164,-0.012008256278932095,0.004081508610397577,0.01174450945109129
45.0,-0.07014083117246628,0.03999615088105202,0.060934100300073624,-0.011666501872241497,0.0035765033680945635,0.011831963434815407
45.05,-0.009746233001351357,0.061544425785541534,-0.0046408511698246,-0.008062638342380524,0.0019034877186641097,0.013074858114123344
45.1,0.048380784690380096,0.08865642547607422,0.015744803473353386,-0.006461608223617077,0.01793874241411686,0.014909196645021439
45.15,0.06680017709732056,0.08861254900693893,0.06367537379264832,-0.0034949248656630516,0.03463215380907059,0.01974749192595482
45.2,0.03128997981548309,0.09956837445497513,0.05540300905704498,-0.0028371354565024376,0.026112182065844536,0.017772451043128967
45.25,0.01980467140674591,0.1167907789349556,0.026411347091197968,-0.005113645456731319,0.008469135500490665,0.009955725632607937
45.3,0.029074564576148987,0.09749509394168854,-0.046942733228206635,-0.00783831998705864,-0.005945323035120964,0.004507409408688545
45.35,0.040262140333652496,0.13538171350955963,-0.014208673499524593,-0.010548301041126251,-0.03245847672224045,-0.000811609614174813
45.4,0.027141908183693886,0.10233498364686966,0.06465911120176315,-0.013597723096609116,-0.04616231843829155,-0.0027967074420303106
45.45,-0.002987850457429886,0.07454395294189453,0.05043064057826996,-0.010648716241121292,-0.026784371584653854,-0.00408035796135664
45.5,0.036712635308504105,0.11766530573368073,-0.03580620884895325,-0.003342430340126157,-0.01381689216941595,-0.004578512627631426
45.55,0.045905210077762604,0.10951711982488632,-0.1255473494529724,-0.009037979878485203,-0.02863740175962448,-0.006633741315454245
45.6,-0.01399315893650055,0.08549024909734726,-0.11791598796844482,-0.018449001014232635,-0.046169400215148926,-0.009281682781875134
45.65,0.0005087396129965782,0.09902192652225494,-0.01252722181379795,-0.018552949652075768,-0.041363708674907684,-0.006698057986795902
45.7,0.007396383211016655,0.105011947453022,0.05630464106798172,-0.0162021666765213,-0.035559311509132385,0.0006620961939916015
45.75,-0.020712800323963165,0.05318928509950638,0.02059968374669552,-0.018437722697854042,-0.04359851032495499,0.002232310129329562
45.8,-0.0014537497190758586,0.021723749116063118,0.0041572717018425465,-0.01883634552359581,-0.04599982127547264,0.0008851907914504409
45.85,0.06390421837568283,0.03194236010313034,0.043613776564598083,-0.015804842114448547,-0.04046633839607239,0.0024767976719886065
45.9,0.03458031639456749,0.05474662780761719,0.032841458916664124,-0.014033114537596703,-0.023750923573970795,0.005557931959629059
45.95,-0.006673736497759819,0.07692528516054153,0.0013206430012360215,-0.012338012456893921,-0.011016326025128365,0.006898113526403904
46.0,0.03156553581357002,0.07677268981933594,0.012729092501103878,-0.010181929916143417,-0.007771022617816925,0.009405072778463364
46.05,0.05855899304151535,0.06746292114257812,0.01591360569000244,-0.008303318172693253,-0.005550617352128029,0.009921147488057613
46.1,0.010796139016747475,0.05494309216737747,0.0011721322080120444,-0.00853978656232357,-0.0030563618056476116,0.007878595031797886
46.15,-0.0018312549218535423,0.06454182416200638,0.02222476713359356,-0.011122673749923706,-0.001955009065568447,0.005669477861374617
