Time [s],Acc_x [m/s^2],Acc_y [m/s^2],Acc_z [m/s^2],Gyro_x [1/s],Gyro_y [1/s],Gyro_z [1/s]
0.0,0.001101478934288025,0.20162777602672577,-0.08851473033428192,0.009557334706187248,0.01966061256825924,0.0006508415681309998
0.05,-0.0061165038496255875,0.19999220967292786,-0.05178525298833847,0.010713092982769012,0.014296360313892365,-0.0016301069408655167
0.1,0.010510633699595928,0.18551351130008698,0.0015047763008624315,0.011543679982423782,0.014222264289855957,-0.007797699887305498
0.15,0.028378820046782494,0.16972161829471588,-0.013589798472821712,0.004152829293161631,0.02178717590868473,-0.012137583456933498
0.2,0.02552955225110054,0.1768970638513565,0.009697367437183857,-0.007061434909701347,0.014690842479467392,-0.01307007484138012
0.25,0.004635240416973829,0.20373442769050598,0.0189956221729517,-0.014478839933872223,0.023722851648926735,-0.013049335218966007
0.3,-0.027947373688220978,0.17261794209480286,-0.06183122098445892,-0.02661619894206524,0.03343403339385986,-0.011870205402374268
0.35,0.020292995497584343,0.09024906903505325,-0.019438914954662323,-0.031619563698768616,0.021918954327702522,-0.010955242440104485
0.4,0.049667079001665115,0.09103585034608841,-0.01660388521850109,-0.02672906592488289,0.026279283687472343,-0.006710524670779705
0.45,-0.02592298574745655,0.11606123298406601,-0.07521512359380722,-0.025063227862119675,0.03043677844107151,-0.0013935264432802796
0.5,-0.050835590809583664,0.1585083156824112,-0.01973762921988964,-0.014772467315196991,0.024183208122849464,0.0016736011020839214
0.55,0.01106744073331356,0.1373004913330078,0.06868277490139008,-0.005304330959916115,0.01735987886786461,0.004165222402662039
0.6,0.008545802906155586,0.11711980402469635,0.019481824710965157,-0.002279869047924876,0.026682574301958084,0.006530022714287043
0.65,0.007790287025272846,0.15612603724002838,-0.02176080085337162,-0.0005466819275170565,0.0340888611972332,0.0067328112199902534
0.7,0.008404605090618134,0.1716175228357315,-0.07095222175121307,-0.008198928087949753,0.02411695010960102,0.009760435670614243
0.75,0.008257508277893066,0.13825513422489166,-0.061433661729097366,-0.016590541228652,0.01164388470351696,0.011789783835411072
0.8,0.042898405343294144,0.12032605707645416,-0.05265398323535919,-0.01327335461974144,0.012170188128948212,0.011045980267226696
0.85,0.0433034785091877,0.14568807184696198,-0.07157806307077408,-0.009639336727559566,0.0055139739997684956,0.011109698563814163
0.9,-0.04437365010380745,0.168582946062088,-0.06010708585381508,-0.00012609828263521194,-0.003700945759192109,0.011744665913283825
0.95,-0.06819525361061096,0.15882399678230286,-0.028291359543800354,0.018673373386263847,-0.014315147884190083,0.01108179148286581
1.0,-0.029646536335349083,0.14002801477909088,-0.0042554475367069244,0.03874384984374046,-0.014889699406921864,0.010952789336442947
1.05,-1.1436641216278076e-06,0.13832761347293854,-0.03414478525519371,0.046754270792007446,-0.007141676731407642,0.009565961547195911
1.1,-0.014019628055393696,0.16194631159305573,0.03365936502814293,0.04355749860405922,-0.023078251630067825,0.008380421437323093
1.15,-0.019961200654506683,0.13287067413330078,0.11189720034599304,0.04275552183389664,-0.024631284177303314,0.008926546201109886
1.2,0.015339231118559837,0.09633351117372513,0.04259967431426048,0.03625451773405075,-0.0035499362275004387,0.007978362031280994
1.25,0.049187880009412766,0.13322925567626953,0.04473225027322769,0.028858158737421036,-0.0002385144034633413,0.00879538431763649
1.3,-0.013596932403743267,0.1555776745080948,0.03998430073261261,0.026573538780212402,0.0012038354761898518,0.013242604210972786
1.35,-0.029684673994779587,0.14596273005008698,-0.014288094826042652,0.0234635341912508,0.009520898573100567,0.016270050778985023
1.4,-0.0038912189193069935,0.14446355402469635,0.014739793725311756,0.02556629106402397,0.011708641424775124,0.01705261319875717
1.45,-0.001402578316628933,0.15669633448123932,0.02727213315665722,0.02828191965818405,0.009874262847006321,0.01885254867374897
1.5,0.0036916788667440414,0.2025642693042755,0.028605539351701736,0.032531723380088806,0.007424082141369581,0.018188783898949623
1.55,-0.007474656216800213,0.18671227991580963,0.020547451451420784,0.04039920121431351,0.008146372623741627,0.015491466969251633
1.6,-0.012052370235323906,0.19084075093269348,0.007495224475860596,0.040783707052469254,0.001920008915476501,0.0113521171733737
1.65,-0.040700763463974,0.37632375955581665,0.10136998444795609,0.02424895390868187,-0.01507519744336605,0.01114683598279953
1.7,-0.10408525168895721,0.33225351572036743,-0.1337105929851532,-0.00121280737221241,-0.010060429573059082,0.013312517665326595
1.75,0.01760917901992798,0.055667951703071594,-0.7429162263870239,0.020968865603208542,0.06603740155696869,0.005933550652116537
1.8,0.3146700859069824,0.18428997695446014,-0.6850420832633972,0.07249166071414948,0.06019359827041626,-0.014461745508015156
1.85,0.2571539878845215,0.2779998481273651,0.2535370886325836,0.10486981272697449,-0.1961931586265564,-0.05747042968869209
1.9,0.007806122303009033,0.3924778699874878,1.76987886428833,0.097793810069561,-0.44153857231140137,-0.11449373513460159
1.95,0.05871737003326416,-0.03080575168132782,1.6523300409317017,-0.04787430912256241,-0.24837236106395721,-0.12759308516979218
2.0,0.028645623475313187,-0.048175834119319916,0.1197628602385521,-0.19555526971817017,0.17671389877796173,-0.09011230617761612
2.05,-0.04189762473106384,0.09359081834554672,-0.7845401763916016,-0.2471419870853424,0.21239551901817322,-0.08244898170232773
2.1,0.06961685419082642,0.1881505250930786,-1.0815140008926392,-0.16687245666980743,0.07010019570589066,-0.0638129785656929
2.15,0.012840241193771362,0.2634049355983734,-0.7746948599815369,-0.014146879315376282,-0.05649760738015175,-0.05032672733068466
2.2,-0.004196348134428263,0.041398052126169205,0.0030239943880587816,0.067592553794384,-0.23741403222084045,-0.05302015319466591
2.25,0.044437527656555176,-0.06930356472730637,0.4703221321105957,0.12245671451091766,-0.2377621978521347,-0.04342608526349068
2.3,0.10186528414487839,-0.06034473702311516,0.25723451375961304,0.13416680693626404,-0.08456119149923325,-0.009616844356060028
2.35,0.13543683290481567,0.04363154619932175,-0.02928362600505352,0.07871205359697342,-0.011684907600283623,0.031974487006664276
2.4,0.02355961501598358,0.2947874665260315,-0.30451247096061707,0.05295713245868683,-0.05341042950749397,0.058573219925165176
2.45,-0.08077194541692734,0.5222111940383911,-0.24617940187454224,0.10654538869857788,-0.16032055020332336,0.0373651385307312
2.5,0.04179612547159195,0.5347567200660706,0.019415786489844322,0.1163233071565628,-0.23639102280139923,-0.02039927802979946
2.55,0.16334933042526245,0.41718679666519165,-0.011807497590780258,0.05716820806264877,-0.21502697467803955,-0.05978786572813988
2.6,0.23467209935188293,0.2759247124195099,-0.19303327798843384,0.06315996497869492,-0.16405616700649261,-0.0757833868265152
2.65,0.2756235897541046,0.19832614064216614,-0.23168425261974335,0.15277577936649323,-0.16527070105075836,-0.06807292252779007
2.7,0.2223716378211975,0.3093605041503906,0.13603360950946808,0.20307497680187225,-0.23872604966163635,-0.07791447639465332
2.75,0.21550697088241577,0.3560275435447693,0.6145599484443665,0.15230943262577057,-0.3404434621334076,-0.14206381142139435
2.8,0.15737827122211456,0.44095611572265625,0.5992066264152527,0.15127089619636536,-0.2531995475292206,-0.18962307274341583
2.85,0.09334783256053925,0.44040587544441223,0.07706242054700851,0.19953204691410065,-0.1274643987417221,-0.22113244235515594
2.9,0.12513795495033264,0.4355993866920471,-0.14339150488376617,0.2028571367263794,-0.17645876109600067,-0.2703678011894226
2.95,0.16304714977741241,0.4790344834327698,-0.12935325503349304,0.20293153822422028,-0.24934184551239014,-0.307809054851532
3.0,0.04990196228027344,0.4234676957130432,-0.20297953486442566,0.207519993185997,-0.3014207184314728,-0.32738184928894043
3.05,-0.10729201138019562,0.17480187118053436,-0.27124619483947754,0.24618494510650635,-0.3328263759613037,-0.34521207213401794
3.1,-0.329490602016449,-0.09676644951105118,-0.05768937990069389,0.3557940721511841,-0.32863616943359375,-0.34084728360176086
3.15,-0.4123868942260742,-0.4256439805030823,0.35263487696647644,0.39328533411026,-0.36226847767829895,-0.31875544786453247
3.2,-0.48967787623405457,-0.5693445801734924,0.6292251348495483,0.32624030113220215,-0.34543290734291077,-0.23869682848453522
3.25,-0.744949221611023,-0.6025152802467346,0.46448129415512085,0.22389507293701172,-0.2499743103981018,-0.09012815356254578
3.3,-0.8794803619384766,-0.54571533203125,0.10527567565441132,0.14119377732276917,-0.15922720730304718,0.029007254168391228
3.35,-0.8301353454589844,-0.11487757414579391,-0.6304334402084351,0.11694219708442688,-0.10373782366514206,0.11021745204925537
3.4,-0.9176854491233826,0.33098623156547546,-0.9786226749420166,0.18321430683135986,-0.17001168429851532,0.15723977982997894
3.45,-0.9151687026023865,0.031292062252759933,-0.11382465809583664,0.22844335436820984,-0.30059385299682617,0.12597526609897614
3.5,-1.030745267868042,-0.582858145236969,1.26819908618927,0.054670531302690506,-0.3145044147968292,0.11080913245677948
3.55,-1.212723970413208,-0.9576360583305359,1.654614806175232,-0.2564082145690918,-0.10066653788089752,0.1590735763311386
3.6,-1.0787887573242188,-0.6585226655006409,0.9821673035621643,-0.43634456396102905,0.264932245016098,0.292226642370224
3.65,-0.35926225781440735,0.19738489389419556,0.01771451160311699,-0.5095950961112976,0.5086895823478699,0.3434145748615265
3.7,0.32390812039375305,0.45977699756622314,-0.9001749753952026,-0.5460404753684998,0.47304877638816833,0.30353471636772156
3.75,0.3051612973213196,0.23881353437900543,-1.4735279083251953,-0.4679565727710724,0.29327094554901123,0.28360870480537415
3.8,0.2742890417575836,0.2274685651063919,-0.7751546502113342,-0.3250150680541992,0.05901632830500603,0.29256200790405273
3.85,0.053354084491729736,0.37945082783699036,0.22420985996723175,-0.13768213987350464,-0.11903172731399536,0.33528932929039
3.9,-0.012940704822540283,0.3387565314769745,0.5405963063240051,0.020680084824562073,-0.13347573578357697,0.3581428825855255
3.95,0.11718074232339859,0.4270077347755432,-0.08420401066541672,0.10512739419937134,0.016260886564850807,0.33732524514198303
4.0,0.26503103971481323,0.6270762085914612,-0.5427343249320984,0.1772109866142273,0.0889187678694725,0.290912389755249
4.05,0.37456122040748596,0.6436014771461487,-0.30932942032814026,0.276022732257843,0.05381140857934952,0.2548995316028595
4.1,0.46614283323287964,0.33260154724121094,-0.008466079831123352,0.3069052994251251,0.004303458146750927,0.21607691049575806
4.15,0.39015743136405945,0.17000482976436615,-0.10153722018003464,0.2342420220375061,-0.06631212681531906,0.15907689929008484
4.2,0.2816743850708008,0.22415925562381744,-0.1458863615989685,0.15901228785514832,-0.17638365924358368,0.0772433653473854
4.25,0.2935364544391632,0.09036057442426682,0.46352890133857727,0.07633235305547714,-0.29068270325660706,-0.00981319509446621
4.3,0.2918481230735779,-0.25221556425094604,1.4096959829330444,-0.13195283710956573,-0.3900536596775055,-0.08952680230140686
4.35,0.2213701605796814,-0.43519333004951477,2.1204774379730225,-0.43707919120788574,-0.3020181953907013,-0.12452755123376846
4.4,0.0031203031539916992,-0.21084901690483093,1.8452223539352417,-0.7692559957504272,-0.08924531936645508,-0.12491239607334137
4.45,-0.07303199172019958,0.25818631052970886,0.6133894920349121,-0.9470299482345581,0.042630068957805634,-0.16402968764305115
4.5,0.34701070189476013,0.9751588106155396,-0.1808660477399826,-0.8927161693572998,0.04656179994344711,-0.24372103810310364
4.55,1.0355194807052612,1.7389671802520752,-0.8960098028182983,-0.825801432132721,0.022983664646744728,-0.34425875544548035
4.6,1.2698954343795776,1.3155757188796997,-1.2795323133468628,-0.8245117664337158,-0.2425360083580017,-0.4368981420993805
4.65,1.1150643825531006,0.02455040253698826,-0.7249404191970825,-0.8016928434371948,-0.5662842392921448,-0.3890749216079712
4.7,0.9104864597320557,-0.3989974558353424,0.029016708955168724,-0.7314879894256592,-0.49474266171455383,-0.29503393173217773
4.75,1.176943063735962,-0.01963244006037712,-0.1551557183265686,-0.6180403232574463,-0.4232156574726105,-0.26228833198547363
4.8,1.335916519165039,0.6842507719993591,-0.2795071303844452,-0.4840546250343323,-0.4732465147972107,-0.30469435453414917
4.85,0.7522705793380737,1.1955022811889648,0.07955701649188995,-0.34989964962005615,-0.6562118530273438,-0.30653658509254456
4.9,-0.24436518549919128,0.7008257508277893,0.5469151735305786,-0.1782301366329193,-0.6723519563674927,-0.21123500168323517
4.95,-0.9697034358978271,-0.0497722290456295,0.5569108128547668,0.026607580482959747,-0.45565882325172424,-0.17532134056091309
5.0,-0.6170233488082886,0.1216774508357048,0.216838076710701,0.06390603631734848,-0.263631671667099,-0.3083454370498657
5.05,-0.253154456615448,0.06739620119333267,-0.03256063163280487,0.040319159626960754,-0.26910316944122314,-0.42564669251441956
5.1,-0.34263625741004944,-0.16462227702140808,-0.19344690442085266,0.08677978813648224,-0.23983097076416016,-0.38882479071617126
5.15,-0.6136851906776428,-0.1462182253599167,-0.3919028043746948,0.14399607479572296,-0.1442813277244568,-0.3527343273162842
5.2,-0.6132060885429382,-0.37011998891830444,-0.4550820291042328,0.15714052319526672,-0.12210936099290848,-0.40276607871055603
5.25,-0.4841327965259552,-0.3387746512889862,0.01284764613956213,0.16686606407165527,-0.08699202537536621,-0.4016507565975189
5.3,-0.6873617172241211,-0.19247719645500183,0.12631401419639587,0.12633401155471802,-0.027838699519634247,-0.35861730575561523
5.35,-0.7743933200836182,-0.15679924190044403,-0.2385191172361374,0.051732271909713745,0.002054329961538315,-0.2846827507019043
5.4,-0.8648239374160767,0.3876420855522156,-0.28438666462898254,0.0053187087178230286,0.022147994488477707,-0.22121988236904144
5.45,-0.3212869465351105,0.07275300472974777,-0.1839628964662552,0.0111614391207695,0.08971963822841644,-0.24374516308307648
5.5,-0.2751120924949646,0.161868155002594,-0.2733747959136963,0.04137294739484787,0.0453873835504055,-0.2117144763469696
5.55,-0.16086572408676147,-0.1168985366821289,0.0446360781788826,0.013443462550640106,0.0020545441657304764,-0.23095980286598206
5.6,-0.005616933107376099,-0.18513396382331848,0.15553265810012817,0.04870365932583809,0.04163876920938492,-0.15630318224430084
5.65,0.14303840696811676,-0.07385256886482239,0.10630403459072113,0.11130134016275406,0.11515173316001892,-0.06042326241731644
5.7,0.19581300020217896,-0.0804004967212677,0.06305654346942902,0.08597060292959213,0.11383884400129318,-0.005535672884434462
5.75,0.10274951159954071,0.14137840270996094,0.09282540529966354,0.03145664557814598,0.09527485817670822,0.03324533998966217
5.8,0.04425860196352005,0.23306943476200104,0.13355779647827148,-0.02007785625755787,0.12268660217523575,0.051898665726184845
5.85,-0.04204918444156647,0.44492536783218384,0.06898384541273117,-0.055602364242076874,0.13858731091022491,0.0411318875849247
5.9,-0.10308966040611267,0.5618553757667542,0.25298872590065,-0.06907665729522705,0.15984313189983368,-0.025272853672504425
5.95,-0.0049430131912231445,0.3408536911010742,0.24722453951835632,-0.104424849152565,0.18537865579128265,-0.10490702092647552
6.0,0.12472404539585114,0.2826061546802521,0.02375658228993416,-0.13532762229442596,0.15580491721630096,-0.1579100340604782
6.05,0.13567763566970825,0.2639427185058594,0.15408387780189514,-0.12431508302688599,0.14313457906246185,-0.19773127138614655
6.1,0.1614454686641693,0.14179514348506927,0.22515514492988586,-0.10702599585056305,0.19968847930431366,-0.21142269670963287
6.15,0.2181529402732849,0.12133882194757462,0.18483567237854004,-0.08817320317029953,0.24357040226459503,-0.20063018798828125
6.2,0.20334318280220032,0.08390425145626068,0.06363697350025177,-0.10088478028774261,0.1993733048439026,-0.1905830353498459
6.25,0.22830982506275177,0.13710978627204895,-0.3339863121509552,-0.061148304492235184,0.1372586041688919,-0.177479550242424
6.3,0.19298268854618073,0.20645524561405182,-0.03992905095219612,0.057694368064403534,0.18845467269420624,-0.1772596836090088
6.35,0.10040584951639175,0.12916280329227448,-0.08664916455745697,0.10933175683021545,0.22968575358390808,-0.16114559769630432
6.4,0.1562923640012741,0.07631780207157135,-0.23624223470687866,0.12029239535331726,0.18747852742671967,-0.12524890899658203
6.45,0.195037841796875,-0.0746622234582901,-0.10184090584516525,0.13504187762737274,0.14406612515449524,-0.07970777899026871
6.5,0.2611987590789795,-0.261324942111969,0.019058832898736,0.19610130786895752,0.19792795181274414,0.018895450979471207
6.55,0.17105385661125183,-0.010489498265087605,0.18574023246765137,0.29770129919052124,0.24965962767601013,0.14777284860610962
6.6,-0.021932020783424377,0.010218603536486626,0.20959433913230896,0.42275720834732056,0.2208651602268219,0.21250700950622559
6.65,0.05447739362716675,-0.12339026480913162,0.5208249092102051,0.4785746932029724,0.21838121116161346,0.25133153796195984
6.7,0.134769469499588,-0.18759256601333618,0.2528315484523773,0.5032318234443665,0.3487992584705353,0.31920909881591797
6.75,0.019919611513614655,0.08898352831602097,0.1021452248096466,0.4910893738269806,0.4327271282672882,0.37228402495384216
6.8,-0.13109055161476135,0.2171468734741211,0.42814865708351135,0.41493088006973267,0.41215232014656067,0.39526060223579407
6.85,-0.15376707911491394,0.2026348114013672,0.5052158832550049,0.35320886969566345,0.47439101338386536,0.38794875144958496
6.9,-0.04010249674320221,0.12843415141105652,0.505705714225769,0.32339948415756226,0.6216148734092712,0.3875846862792969
6.95,0.15954622626304626,-0.13756278157234192,0.015130635350942612,0.24606546759605408,0.7511318325996399,0.3933596909046173
7.0,0.41888028383255005,-0.16358275711536407,-1.0358808040618896,0.15851649641990662,0.6794857978820801,0.43258801102638245
7.05,0.24079221487045288,0.2913294732570648,-0.7606160640716553,0.1819753795862198,0.510361909866333,0.5237619280815125
7.1,0.1569109559059143,0.31454652547836304,0.6494935154914856,0.07471781969070435,0.4937748312950134,0.575645387172699
7.15,-0.03868216276168823,0.39598748087882996,0.9480287432670593,-0.07747209072113037,0.6307525038719177,0.5811538696289062
7.2,-0.3190547823905945,0.4689178466796875,0.8389858603477478,-0.18946558237075806,0.735755443572998,0.5210488438606262
7.25,-0.1081072986125946,0.5357704162597656,0.8125494718551636,-0.33252382278442383,0.7488775253295898,0.49843356013298035
7.3,-0.04709174111485481,0.3156490623950958,-0.05193145200610161,-0.4320848286151886,0.8136639595031738,0.5183765888214111
7.35,-0.5318281650543213,0.18126027286052704,-1.0884768962860107,-0.37733757495880127,0.8541364073753357,0.4696023762226105
7.4,-0.9839090704917908,0.16927079856395721,-1.7895400524139404,-0.21051333844661713,0.6762959361076355,0.3373619616031647
7.45,-1.160637617111206,0.3679106533527374,-1.4132003784179688,0.0034937337040901184,0.37720823287963867,0.12364612519741058
7.5,-0.6172760725021362,0.418405681848526,-0.27037352323532104,0.1559704840183258,0.040358852595090866,-0.03797686845064163
7.55,0.03665187954902649,0.28944969177246094,0.3695920407772064,0.2171652615070343,-0.040652211755514145,-0.1457388997077942
7.6,-0.03971390426158905,0.12167933583259583,-0.07886839658021927,0.20904940366744995,0.03161737322807312,-0.17766711115837097
7.65,-0.4306202828884125,0.18052878975868225,-0.928761899471283,0.19405268132686615,-0.07152704149484634,-0.1708480715751648
7.7,-0.15947653353214264,0.2344103902578354,-0.568143367767334,0.20796845853328705,-0.26806941628456116,-0.16546526551246643
7.75,0.08241865038871765,0.14696598052978516,0.11225565522909164,0.22828331589698792,-0.2842217981815338,-0.1425454318523407
7.8,0.01884002983570099,0.07563206553459167,0.4041326642036438,0.22403694689273834,-0.2258254736661911,-0.1140301525592804
7.85,-0.12295231223106384,0.1811208724975586,0.3394690155982971,0.16554991900920868,-0.26042357087135315,-0.059493668377399445
7.9,-0.3115941286087036,0.20225626230239868,-0.03883828595280647,0.1066240519285202,-0.31520500779151917,-0.02971118874847889
7.95,-0.2814386487007141,0.29452234506607056,-0.1363484412431717,0.10862515866756439,-0.2852458655834198,-0.0325668528676033
8.0,-0.22010760009288788,0.3319712281227112,-0.10734610259532928,0.13109448552131653,-0.21999451518058777,-0.0416472926735878
8.05,-0.2056310474872589,0.29395967721939087,-0.10474663972854614,0.15696309506893158,-0.2266140878200531,-0.0525074377655983
8.1,-0.20490843057632446,0.255317747592926,-0.014948162250220776,0.17898911237716675,-0.2795756459236145,-0.06386587768793106
8.15,-0.09889696538448334,0.1596985012292862,0.1120242029428482,0.18151748180389404,-0.29669809341430664,-0.08912596851587296
8.2,-0.009708821773529053,0.038052547723054886,0.150931715965271,0.16192199289798737,-0.26291364431381226,-0.09667747467756271
8.25,-0.009202104061841965,-0.005843169055879116,0.07328689843416214,0.14309367537498474,-0.2500849962234497,-0.06714921444654465
8.3,0.08984252065420151,0.04821202903985977,0.23892611265182495,0.10732799768447876,-0.2825266718864441,-0.03683698922395706
8.35,0.022857625037431717,0.02930258773267269,0.10974369198083878,0.058032162487506866,-0.2947899103164673,-0.0037669544108211994
8.4,-0.05868414044380188,0.11141778528690338,0.022313036024570465,0.0184783935546875,-0.31151083111763,0.0015498950378969312
8.45,-0.1337229311466217,0.26720908284187317,0.007327190134674311,-0.021151147782802582,-0.35611671209335327,-0.008622138760983944
8.5,-0.16044089198112488,0.2819118797779083,0.009897195734083652,-0.035433005541563034,-0.37624868750572205,-0.04499262198805809
8.55,-0.09402363002300262,0.2519369423389435,0.1876739263534546,-0.03611680120229721,-0.3823262155056,-0.08275178074836731
8.6,0.008133143186569214,0.1779651641845703,0.13753044605255127,-0.048199236392974854,-0.34495264291763306,-0.10386686772108078
8.65,0.011254191398620605,0.2157592922449112,0.10141244530677795,-0.039033789187669754,-0.3091215193271637,-0.1339053511619568
8.7,0.07106642425060272,0.11155984550714493,0.3478453457355499,-0.05370347574353218,-0.2944914698600769,-0.12595504522323608
8.75,0.04467391222715378,0.13128376007080078,0.19195763766765594,-0.1107415184378624,-0.25148525834083557,-0.09900778532028198
8.8,0.1417294293642044,0.1128358468413353,0.38317859172821045,-0.15611693263053894,-0.21195533871650696,-0.07536087185144424
8.85,0.03154188394546509,-0.06478220969438553,0.5750359296798706,-0.2467782199382782,-0.13713021576404572,-0.05094205215573311
8.9,-0.015425801277160645,-0.14445404708385468,0.4056569039821625,-0.2874489426612854,-0.03350932523608208,-0.027370650321245193
8.95,-0.02332194149494171,-0.06914714723825455,0.33041897416114807,-0.2680756747722626,0.024369260296225548,0.010797474533319473
9.0,-0.025726549327373505,-0.15253739058971405,0.2750515043735504,-0.2350877821445465,0.06356079876422882,0.032443225383758545
9.05,0.0487973615527153,0.08089158684015274,0.22936893999576569,-0.12286864221096039,0.08900387585163116,0.07374852895736694
9.1,-0.011094849556684494,0.2081184685230255,0.08232120424509048,-0.04362593591213226,0.07603026181459427,0.09074363112449646
9.15,-0.015535324811935425,0.20310121774673462,-0.24685895442962646,0.035187412053346634,0.09123428910970688,0.1083967536687851
9.2,-0.026444755494594574,0.32193952798843384,-0.17195390164852142,0.1400194764137268,0.14405448734760284,0.12026327848434448
9.25,-0.1341230422258377,0.3141050934791565,-0.1684572547674179,0.1884233057498932,0.18489740788936615,0.11566342413425446
9.3,-0.08108450472354889,0.3564978241920471,-0.13984662294387817,0.2089807242155075,0.1807079017162323,0.084615059196949
9.35,-0.0812196433544159,0.19690509140491486,0.8383048176765442,0.26688945293426514,0.2588255703449249,0.10987279564142227
9.4,-0.2261675000190735,-0.22920720279216766,1.6763850450515747,0.32612913846969604,0.5437504649162292,0.18010808527469635
9.45,-0.29884475469589233,-0.4897318482398987,0.17113837599754333,0.20533694326877594,0.6759317517280579,0.1111522912979126
9.5,-0.6829559803009033,-0.17914848029613495,-1.4635356664657593,0.013755298219621181,0.35015809535980225,-0.03756432607769966
9.55,-0.007613956928253174,0.817188560962677,-1.6570380926132202,0.10644233971834183,0.07251047343015671,-0.044267501682043076
9.6,0.1870308518409729,0.3721190094947815,-0.5299221873283386,0.1536616086959839,0.04632294923067093,0.02887255884706974
9.65,-0.08528005331754684,-0.014672279357910156,0.06669969856739044,0.013268728740513325,-0.076729416847229,-0.02325327880680561
9.7,-0.022563844919204712,-0.06943994015455246,0.4922499656677246,-0.0655393898487091,-0.2994634211063385,-0.09818566590547562
9.75,-0.12598064541816711,0.24146844446659088,0.27408334612846375,-0.044338155537843704,-0.2560169994831085,-0.09055814892053604
9.8,-0.2171192467212677,0.330904096364975,-0.3132614195346832,-0.03224160894751549,-0.10602641850709915,-0.0804608166217804
9.85,-0.10520313680171967,0.2292070984840393,-0.22166641056537628,-0.07250915467739105,-0.08569596707820892,-0.0866396352648735
9.9,-0.004677096381783485,0.16097737848758698,0.0627674087882042,-0.11770430207252502,-0.09801334142684937,-0.0950673446059227
9.95,-0.13456138968467712,0.15702155232429504,0.052043616771698,-0.17781618237495422,-0.12564045190811157,-0.10371991991996765
10.0,-0.1423913687467575,0.27163606882095337,-0.05293373018503189,-0.2240224927663803,-0.1954231560230255,-0.13833975791931152
10.05,-0.09040911495685577,0.20552736520767212,-0.177507683634758,-0.2622807025909424,-0.24120919406414032,-0.1784326434135437
10.1,0.015123385936021805,0.08579351007938385,-0.07516241073608398,-0.2894199788570404,-0.2703583240509033,-0.20152826607227325
10.15,0.0969153344631195,0.1014556884765625,0.08266738057136536,-0.3128677308559418,-0.2961975932121277,-0.192969411611557
10.2,0.10332534462213516,0.2454223781824112,0.030240878462791443,-0.32945874333381653,-0.2258138358592987,-0.19416289031505585
10.25,0.06892073899507523,0.32392027974128723,0.0010043071815744042,-0.3464144766330719,-0.09382980316877365,-0.1985441893339157
10.3,0.09062974154949188,0.2094268947839737,0.0056647565215826035,-0.3418659567832947,-0.0699482411146164,-0.23072779178619385
10.35,0.01895897090435028,0.170865997672081,0.3727402687072754,-0.3264620900154114,-0.06652513146400452,-0.30232805013656616
10.4,0.056896328926086426,-0.06551844626665115,0.5862994194030762,-0.3398822546005249,-0.061073753982782364,-0.3345714509487152
10.45,0.17825299501419067,-0.10307412594556808,0.21986369788646698,-0.29648634791374207,-0.06393485516309738,-0.28663334250450134
10.5,0.18467795848846436,0.01882077567279339,-0.305286705493927,-0.2464693784713745,-0.08836115896701813,-0.1817176789045334
10.55,0.24923017621040344,0.2306700199842453,-0.4404451251029968,-0.17048579454421997,-0.06339713931083679,-0.09674401581287384
10.6,0.12093071639537811,0.16984179615974426,-0.2110782265663147,-0.1376272737979889,-0.05640677735209465,-0.04780535027384758
10.65,0.0010434314608573914,-0.014130606316030025,0.12950876355171204,-0.04162032529711723,-0.02169155143201351,-0.01631193608045578
10.7,-0.018806248903274536,-0.07412248849868774,0.5587397813796997,0.10730241239070892,0.012154141440987587,0.008814902976155281
10.75,-0.1345069408416748,-0.021853487938642502,0.5456828474998474,0.1795196831226349,-0.031461525708436966,0.07071340829133987
10.8,-0.31513822078704834,-0.022202422842383385,-0.4253076910972595,0.08274225890636444,-0.23480375111103058,0.2053452581167221
10.85,0.4797818064689636,0.6490623354911804,-1.5935872793197632,0.3009198009967804,-0.13393327593803406,0.3161957561969757
10.9,0.37494441866874695,0.7796193957328796,-1.0052045583724976,0.4002504348754883,-0.07585278153419495,0.10384205728769302
10.95,0.1133260428905487,0.328887939453125,0.16091637313365936,0.21204738318920135,-0.05882946774363518,0.04830925166606903
11.0,-0.2936188578605652,0.47765833139419556,0.3858778178691864,-0.0967242494225502,-0.08469396084547043,-0.0744437649846077
11.05,-0.20217075943946838,0.48811057209968567,0.4424072504043579,-0.4197566509246826,-0.23060177266597748,-0.17647692561149597
11.1,-0.11268880218267441,0.2349720001220703,0.35993221402168274,-0.6787431240081787,-0.2731834053993225,-0.2994076907634735
11.15,-0.04226360470056534,-0.18079474568367004,0.1749567687511444,-0.8088592290878296,-0.24288469552993774,-0.3852146565914154
11.2,0.12143068015575409,-0.47799116373062134,-0.02405775710940361,-0.7050125002861023,-0.21025584638118744,-0.35452041029930115
11.25,0.18085160851478577,-0.605558454990387,-0.052833348512649536,-0.3704316020011902,-0.14413654804229736,-0.20522363483905792
11.3,0.11351531744003296,-0.32479578256607056,0.32825687527656555,0.03407266363501549,-0.03577195480465889,-0.02493138611316681
11.35,0.028101801872253418,0.1492491364479065,-0.4456261098384857,0.07320168614387512,-0.1687498837709427,0.20273852348327637
11.4,0.6884596943855286,0.2062274068593979,-1.5213028192520142,0.04927815496921539,-0.17971809208393097,0.4388751685619354
11.45,0.6684973835945129,0.6078282594680786,-1.5716792345046997,0.34285610914230347,-0.0384155809879303,0.33755144476890564
11.5,-0.050830379128456116,0.4732694923877716,0.396426260471344,0.32893815636634827,0.10670635104179382,0.28065845370292664
11.55,-0.6986103057861328,0.1650085300207138,1.0327390432357788,0.21660254895687103,0.2691289782524109,0.2601766288280487
11.6,-0.2224961519241333,-0.006462092977017164,0.17142994701862335,0.14314644038677216,0.2285860776901245,0.15542730689048767
11.65,0.15883314609527588,0.013126428239047527,-0.7277830839157104,0.0987979918718338,0.01921732723712921,0.07280990481376648
11.7,0.282944917678833,0.3058968186378479,-0.7513079643249512,0.13488519191741943,0.017416849732398987,0.07917174696922302
11.75,-0.028179392218589783,0.253573477268219,-0.13082173466682434,0.14141012728214264,0.041184812784194946,0.09927739948034286
11.8,-0.14681649208068848,0.16407492756843567,0.013580389320850372,0.09919282793998718,-0.01092162448912859,0.06007424369454384
11.85,-0.1365099847316742,0.23845581710338593,-0.06206957623362541,0.12486496567726135,-0.07042311877012253,0.0050603654235601425
11.9,0.054832570254802704,0.2864876091480255,-0.12213817983865738,0.17693838477134705,-0.07093130797147751,-0.001692155608907342
11.95,0.12427705526351929,0.27295783162117004,-0.08299687504768372,0.2021280974149704,-0.049023326486349106,0.006149583496153355
12.0,0.0430777370929718,0.25522521138191223,0.03958592936396599,0.21922600269317627,-0.02732720784842968,0.02606368437409401
12.05,-0.00485730916261673,0.19471551477909088,0.14049430191516876,0.2077908217906952,-0.02393202856183052,0.03468668833374977
12.1,0.0013093799352645874,0.16239452362060547,0.1960878074169159,0.17964299023151398,0.005147877614945173,0.02723231166601181
12.15,-0.051343657076358795,0.16776752471923828,0.17316003143787384,0.1625669300556183,0.02401602268218994,0.02746466174721718
12.2,-0.002681788057088852,0.1666393280029297,0.09615951031446457,0.13691160082817078,0.04261377453804016,0.02442103810608387
12.25,0.042992331087589264,0.15509893000125885,-0.0954977422952652,0.08279512822628021,0.061284326016902924,0.03225487098097801
12.3,0.0625244677066803,0.3606911301612854,-0.41174355149269104,-0.008979866281151772,0.08576669543981552,0.04857994616031647
12.35,0.08717893064022064,0.35872751474380493,-0.4502602815628052,-0.07212714105844498,0.1594315618276596,0.07299177348613739
12.4,-0.016635239124298096,0.10519121587276459,0.29839199781417847,-0.06142468750476837,0.20214229822158813,0.049794476479291916
12.45,-0.14161676168441772,-0.3090287148952484,0.769709050655365,0.026085417717695236,0.20909765362739563,0.04986483231186867
12.5,-0.13670627772808075,-0.2713833749294281,0.632457435131073,0.13031035661697388,0.19515927135944366,0.029257874935865402
12.55,-0.014412548393011093,0.007695190608501434,0.10169404745101929,0.20252469182014465,0.08563283830881119,-0.0014230940723791718
12.6,0.19023540616035461,0.4329177141189575,-0.7048369646072388,0.2737182378768921,0.026330716907978058,0.007635954767465591
12.65,0.24882611632347107,0.4257040321826935,-0.09332031011581421,0.21729105710983276,0.06637341529130936,0.03518019616603851
12.7,-0.09514191001653671,0.22428418695926666,0.3159283697605133,0.05125656723976135,0.10734602063894272,0.03680983930826187
12.75,-0.338582843542099,0.18610095977783203,0.4596254825592041,-0.08221545070409775,0.05377695709466934,0.010483190417289734
12.8,-0.3000633716583252,0.407965749502182,-0.04368482902646065,-0.181472048163414,0.08906560391187668,-0.02706776186823845
12.85,-0.0501093715429306,0.512116551399231,-0.4427279233932495,-0.23637421429157257,0.19706688821315765,-0.06758524477481842
12.9,0.05498828738927841,0.25081828236579895,6.408441549865529e-05,-0.30128246545791626,0.2262420803308487,-0.07098875939846039
12.95,-0.07941104471683502,-0.11995416134595871,0.49027878046035767,-0.35460200905799866,0.22067779302597046,-0.08797481656074524
13.0,-0.14332827925682068,-0.36312875151634216,0.6882433295249939,-0.24779430031776428,0.26994726061820984,-0.09138771146535873
13.05,-0.049155957996845245,-0.309364378452301,0.2681291997432709,-0.11593065410852432,0.21372361481189728,-0.11072974652051926
13.1,-0.10398253798484802,-0.20556919276714325,-0.9885989427566528,-0.15460322797298431,-0.11554252356290817,-0.06906101107597351
13.15,0.4637666344642639,0.4775325655937195,-1.6486659049987793,0.03828631713986397,-0.20595881342887878,0.027826307341456413
13.2,0.5094516277313232,0.5647736191749573,-0.24031542241573334,0.14364618062973022,-0.11746571958065033,0.01570146530866623
13.25,0.09049557149410248,0.0990743413567543,0.30259767174720764,-0.06987721472978592,-0.10018570721149445,0.05099968612194061
13.3,-0.17201834917068481,0.15594390034675598,0.053925469517707825,-0.2083946019411087,-0.2045871764421463,0.026090973988175392
13.35,-0.2161296308040619,0.37169748544692993,-0.12408071011304855,-0.2659652531147003,-0.3207993805408478,0.010178091004490852
13.4,-0.05890129506587982,0.292335569858551,-0.35817936062812805,-0.20234325528144836,-0.22911444306373596,-0.02657853066921234
13.45,-0.010133504867553711,0.15769389271736145,-0.20824989676475525,-0.1489541232585907,-0.16159838438034058,-0.02469240128993988
13.5,-0.0749463140964508,-0.0347881093621254,-0.18192808330059052,-0.0663224384188652,-0.15478257834911346,-0.021970830857753754
13.55,0.060705430805683136,0.06747724115848541,-0.14766062796115875,0.020883038640022278,-0.1442708969116211,0.009807226248085499
13.6,0.0890149474143982,0.10348035395145416,-0.06053701788187027,0.12693122029304504,-0.08214015513658524,0.03073972463607788
13.65,0.06558828800916672,0.12553884088993073,-0.06996534019708633,0.18076299130916595,-0.03368092700839043,0.05017838999629021
13.7,-0.028208643198013306,0.34784796833992004,0.1712101250886917,0.15740156173706055,-0.03626338392496109,0.05349011719226837
13.75,-0.18616211414337158,0.5487452149391174,0.31516677141189575,0.04438512399792671,-0.017546560615301132,0.01583866775035858
13.8,0.061907559633255005,0.6875410676002502,0.20609906315803528,-0.15618786215782166,0.05606435239315033,-0.09347625076770782
13.85,0.0788922905921936,0.409056693315506,0.09466391056776047,-0.3633683919906616,0.13477039337158203,-0.23699742555618286
13.9,-0.03476642072200775,0.28094005584716797,0.4346795082092285,-0.5696051120758057,0.029156172648072243,-0.26688462495803833
13.95,-0.10578177869319916,-0.049281153827905655,0.40109917521476746,-0.594004213809967,-2.5994311727117747e-05,-0.2747378349304199
14.0,0.1953897327184677,-0.24436098337173462,0.04815052077174187,-0.43857139348983765,0.03141999989748001,-0.22879159450531006
14.05,0.3222678303718567,-0.09722616523504257,-0.23410190641880035,-0.29948651790618896,-0.047114063054323196,-0.14933401346206665
14.1,0.23173949122428894,-0.37991711497306824,-1.16787588596344,-0.24451428651809692,-0.2074885368347168,0.010063247755169868
14.15,0.6761811971664429,-0.1158122792840004,-1.0663492679595947,0.08493014425039291,-0.06807493418455124,0.08390908688306808
14.2,0.22439604997634888,0.04044342786073685,-0.2589566707611084,0.2776808738708496,0.07393141835927963,0.13425368070602417
14.25,-0.07818260788917542,-0.01118565071374178,0.12411201000213623,0.269317090511322,0.09759032726287842,0.20105066895484924
14.3,-0.15850625932216644,0.2385111302137375,-0.0574674978852272,0.2851208746433258,0.06105933338403702,0.1868850588798523
14.35,-0.12961935997009277,0.3722906708717346,-0.1378583014011383,0.29672256112098694,-0.022874267771840096,0.16952770948410034
14.4,-0.023455888032913208,0.33348947763442993,-0.1716860979795456,0.3125878870487213,0.0033274469897150993,0.13246192038059235
14.45,-0.079228475689888,0.19496826827526093,-0.14286363124847412,0.29573768377304077,-0.010307216085493565,0.09851706027984619
14.5,-0.007405423559248447,0.20911410450935364,-0.0014195683179423213,0.25956860184669495,-0.07800482958555222,0.07319100201129913
14.55,-0.0066838935017585754,0.27654460072517395,0.1090196892619133,0.23325806856155396,-0.0966217890381813,0.05461398884654045
14.6,-0.07199762761592865,0.3116007149219513,0.10803094506263733,0.2021128535270691,-0.09837339073419571,0.04104214161634445
14.65,-0.017992200329899788,0.33610251545906067,0.014350326731801033,0.16216328740119934,-0.11994034051895142,0.036394599825143814
14.7,0.0737106055021286,0.2739563286304474,-0.08195599168539047,0.16122588515281677,-0.11403775215148926,0.04381293058395386
14.75,0.05977553874254227,0.2153797298669815,0.03225236386060715,0.17564955353736877,-0.07091943919658661,0.05356890708208084
14.8,0.023750701919198036,0.12967588007450104,-0.05168372392654419,0.1750456541776657,-0.06688002496957779,0.04607928544282913
14.85,0.1720856875181198,0.2144976258277893,-0.47037941217422485,0.12065295875072479,-0.1448790580034256,0.03557533398270607
14.9,0.26516568660736084,0.5022650957107544,-0.6290717720985413,0.12072215229272842,-0.24155326187610626,0.054363902658224106
14.95,0.04882660135626793,0.16626645624637604,-0.09029298275709152,0.12561216950416565,-0.33047717809677124,0.01906687393784523
15.0,-0.13035747408866882,-0.43995195627212524,0.04964470863342285,0.06361586600542068,-0.43643784523010254,-0.06424762308597565
15.05,-0.07935431599617004,-0.27809908986091614,0.05658602714538574,-0.07014097273349762,-0.5186640620231628,-0.0846887081861496
15.1,-0.12046290189027786,0.01120666041970253,-0.22207966446876526,-0.1443631649017334,-0.549618661403656,-0.02554459124803543
15.15,-0.02455230802297592,0.27519896626472473,-0.04755084961652756,-0.18083524703979492,-0.4537978768348694,0.01093932893127203
15.2,-0.12941695749759674,0.015370375476777554,0.08608785271644592,-0.15633149445056915,-0.3698120415210724,0.022175075486302376
15.25,-0.11926013231277466,-0.19585615396499634,0.38164448738098145,-0.09477663040161133,-0.36994820833206177,0.02006215788424015
15.3,-0.21811766922473907,0.011550866067409515,0.6287714242935181,0.0422670841217041,-0.3803113102912903,0.07047250121831894
15.35,-0.32119035720825195,0.27375125885009766,0.7400798201560974,0.27811199426651,-0.38280001282691956,0.18101567029953003
15.4,-0.3073555529117584,0.18862630426883698,0.5437459349632263,0.41160762310028076,-0.28127655386924744,0.2128312736749649
15.45,0.016897737979888916,0.31214234232902527,0.5003125071525574,0.3961541950702667,-0.10964512825012207,0.21295778453350067
15.5,-0.07798850536346436,0.19979378581047058,0.6361792087554932,0.369703471660614,0.028066597878932953,0.22382119297981262
15.55,-0.222416490316391,0.17140480875968933,0.7202487587928772,0.3243657052516937,0.10900741070508957,0.20609472692012787
15.6,-0.15899449586868286,0.16318796575069427,0.5076875686645508,0.2697729468345642,0.16115650534629822,0.16826587915420532
15.65,-0.013195663690567017,0.1457662433385849,0.3478286564350128,0.1848134696483612,0.21525581181049347,0.11121982336044312
15.7,-0.026334136724472046,0.011900873854756355,0.34899693727493286,0.13373035192489624,0.24467362463474274,0.09566684812307358
15.75,-0.02041633427143097,-0.01720907911658287,0.2869584560394287,0.09141877293586731,0.273307204246521,0.0966915637254715
15.8,0.05758289247751236,0.217990905046463,0.008871453814208508,0.03521004319190979,0.2702621817588806,0.10156948119401932
15.85,0.2081853598356247,0.14197829365730286,-0.343796044588089,0.003383602946996689,0.23842206597328186,0.10590337216854095
15.9,0.18290477991104126,0.1320371925830841,-0.3863772451877594,0.02930157259106636,0.22678887844085693,0.12806293368339539
15.95,0.17060089111328125,0.24119287729263306,-0.429535448551178,0.04254566505551338,0.18556170165538788,0.14109209179878235
16.0,0.1315070539712906,0.20359808206558228,-0.41424432396888733,0.053308792412281036,0.06504775583744049,0.13974814116954803
16.05,0.1819608360528946,0.3324480652809143,-0.4332651197910309,0.07469844818115234,-0.0356299951672554,0.13162600994110107
16.1,0.006546139717102051,0.5214091539382935,-0.3483427166938782,0.09849509596824646,-0.11338196694850922,0.10232802480459213
16.15,-0.007690317928791046,0.3454304337501526,-0.15153788030147552,0.1409849226474762,-0.20457424223423004,0.07247896492481232
16.2,-0.1193171963095665,0.2308092564344406,-0.003331362036988139,0.15302661061286926,-0.2456042319536209,0.03726060688495636
16.25,-0.17033013701438904,0.145938903093338,-0.02508527971804142,0.1192893460392952,-0.26462385058403015,-0.006952190771698952
16.3,-0.14604473114013672,0.3368721306324005,0.20478416979312897,0.06880725175142288,-0.27843162417411804,-0.03312963992357254
16.35,-0.21913836896419525,0.0010299587156623602,0.32684922218322754,0.06180884689092636,-0.26348522305488586,-0.028074413537979126
16.4,-0.2697960138320923,-0.2550068497657776,0.587250828742981,0.04915575310587883,-0.2274264097213745,-0.0186277125030756
16.45,-0.13064269721508026,0.01157661247998476,0.5750214457511902,0.0021477495320141315,-0.16742989420890808,-0.014021489769220352
16.5,-0.09015288949012756,0.21542072296142578,0.3611566126346588,-0.08107033371925354,-0.09419629722833633,-0.036627478897571564
16.55,0.06471329927444458,0.25760364532470703,0.3029351234436035,-0.15845811367034912,0.012756029143929482,-0.04000365734100342
16.6,0.0415600910782814,0.14802931249141693,0.23055438697338104,-0.16699057817459106,0.12204048782587051,-0.017558513209223747
16.65,0.07565437257289886,0.21047021448612213,0.07795543223619461,-0.17299410700798035,0.14608833193778992,-0.01904882676899433
16.7,0.09343061596155167,0.2291756123304367,-0.24732419848442078,-0.1408018320798874,0.13320398330688477,-0.029858414083719254
16.75,0.10466893017292023,0.29816538095474243,-0.43069836497306824,-0.09074275195598602,0.12367083132266998,-0.031073885038495064
16.8,0.11476932466030121,0.27202898263931274,-0.4433748126029968,-0.030734676867723465,0.05942784249782562,-0.038086287677288055
16.85,0.14802932739257812,0.2457285374403,-0.37951967120170593,0.04588564112782478,-0.0349835641682148,-0.03259172663092613
16.9,0.07785158604383469,0.2422047108411789,-0.20707684755325317,0.10170752555131912,-0.11151649057865143,-0.03305370733141899
16.95,0.06929594278335571,0.1905403435230255,-0.10886046290397644,0.12029525637626648,-0.16369396448135376,-0.05089728906750679
17.0,0.031897395849227905,0.1395883709192276,0.02783164009451866,0.11818086355924606,-0.19349390268325806,-0.05031917244195938
17.05,0.04047931730747223,0.04666517674922943,0.169642835855484,0.11440728604793549,-0.19898779690265656,-0.023200709372758865
17.1,-0.07632147520780563,0.0035695857368409634,0.2675181031227112,0.08466243743896484,-0.19598202407360077,-0.00976504385471344
17.15,-0.08099235594272614,0.07033824920654297,0.16111834347248077,0.02997853234410286,-0.16670949757099152,-0.013204195536673069
17.2,-0.06812696903944016,0.05538845807313919,0.05931304395198822,-0.039239201694726944,-0.13942508399486542,-0.02147604152560234
17.25,0.013641547411680222,0.04961586743593216,0.002362137893214822,-0.07371082156896591,-0.1277005970478058,-0.010491302236914635
17.3,-0.015384852886199951,0.15264226496219635,-0.01636262610554695,-0.06551780551671982,-0.14868661761283875,0.009608197025954723
17.35,-0.08671046793460846,0.1837473213672638,-0.10767137259244919,-0.053438834846019745,-0.19757269322872162,0.0016628908924758434
17.4,-0.036001648753881454,0.1906767338514328,-0.04993505775928497,-0.028345759958028793,-0.24265192449092865,-0.012015425600111485
17.45,-0.08311733603477478,0.21362975239753723,0.044007740914821625,0.008647487498819828,-0.2698947787284851,-0.007611126638948917
17.5,-0.10998290032148361,0.13158227503299713,0.12492889165878296,0.04511544853448868,-0.2837523818016052,0.005524651147425175
17.55,-0.11388939619064331,0.051743511110544205,0.17568399012088776,0.060322098433971405,-0.2678084075450897,0.01080354768782854
17.6,-0.009557515382766724,0.08397386968135834,0.2713130712509155,0.06372347474098206,-0.2500823736190796,0.012573957443237305
17.65,-0.1285019814968109,0.12090206891298294,0.20879514515399933,0.057041265070438385,-0.22832374274730682,0.026094410568475723
17.7,-0.17006230354309082,0.18940547108650208,0.24348464608192444,0.045432962477207184,-0.19008943438529968,0.04046047851443291
17.75,-0.12203378975391388,0.12456322461366653,0.23241691291332245,0.034354932606220245,-0.13105282187461853,0.04720453545451164
17.8,-0.041423119604587555,0.0957632064819336,0.2308509796857834,0.021053282544016838,-0.08396609127521515,0.0444619245827198
17.85,0.027479998767375946,0.18639087677001953,0.2090882509946823,0.004888886585831642,-0.059883322566747665,0.043858904391527176
17.9,-0.14456461369991302,0.24309447407722473,0.12041164934635162,-0.008765023201704025,-0.044556885957717896,0.04436562955379486
17.95,-0.16640067100524902,0.24758055806159973,0.10924945771694183,-0.016133826225996017,-0.009116308763623238,0.026733489707112312
18.0,-0.13807053864002228,0.1908903419971466,0.1443275660276413,-0.020401734858751297,0.02837020345032215,0.01009942963719368
18.05,-0.136733740568161,0.2078094780445099,0.17037566006183624,-0.021487411111593246,0.049656763672828674,-0.004350890405476093
18.1,-0.10139770805835724,0.20699694752693176,0.06398534774780273,-0.02745852991938591,0.0793992355465889,-0.009565210901200771
18.15,-0.011176258325576782,0.2688913643360138,0.02936772257089615,-0.03399418666958809,0.1012740209698677,-0.03049655631184578
18.2,0.08425480872392654,0.24645712971687317,-0.06569091230630875,-0.03523651510477066,0.09575595706701279,-0.050978582352399826
18.25,0.10871657729148865,0.22059348225593567,-0.17104312777519226,-0.03811300918459892,0.08410412073135376,-0.05989648774266243
18.3,0.2598310112953186,0.4848680794239044,-0.07969670742750168,-0.029648035764694214,0.04177418723702431,-0.06850574910640717
18.35,0.29491427540779114,0.26092150807380676,-0.3546527028083801,-0.03401530906558037,-0.025207508355379105,-0.12631186842918396
18.4,0.35136187076568604,0.21714499592781067,-0.30861011147499084,-0.08005540072917938,-0.125501349568367,-0.20241056382656097
18.45,0.1862524449825287,0.1809988170862198,-0.15957307815551758,-0.12056312710046768,-0.251638263463974,-0.25360026955604553
18.5,0.014627043157815933,0.2592792809009552,-0.11312996596097946,-0.17436601221561432,-0.37233129143714905,-0.3156411647796631
18.55,-0.039883896708488464,0.19913485646247864,-0.03741515800356865,-0.20948410034179688,-0.4356253445148468,-0.3788330554962158
18.6,0.056999288499355316,0.012869835831224918,-0.052357785403728485,-0.24276632070541382,-0.439362496137619,-0.4068611264228821
18.65,0.06770405173301697,0.04983998090028763,-0.05848736688494682,-0.25477784872055054,-0.4296600818634033,-0.4022068977355957
18.7,-0.0905710905790329,-0.15611650049686432,0.1125299483537674,-0.23835131525993347,-0.4175511300563812,-0.3766801059246063
18.75,-0.25498101115226746,-0.3798113465309143,0.19846989214420319,-0.23879759013652802,-0.3854600191116333,-0.33647698163986206
18.8,-0.09392163157463074,-0.07756330072879791,0.20993342995643616,-0.2819690406322479,-0.31994548439979553,-0.2754312753677368
18.85,0.015516312792897224,0.09502030909061432,0.01608625426888466,-0.28010648488998413,-0.25798261165618896,-0.18027280271053314
18.9,0.01965915970504284,0.1453094631433487,-0.05250034108757973,-0.20478574931621552,-0.1787787228822708,-0.0932076945900917
18.95,0.07114584743976593,0.24509909749031067,-0.0026367835234850645,-0.11610214412212372,-0.05511194467544556,-0.003883734345436096
19.0,-0.029867447912693024,0.19738104939460754,0.05520283430814743,-0.030806872993707657,0.05280516669154167,0.09058615565299988
19.05,-0.0702754333615303,0.1524048000574112,0.10672420263290405,0.04149853438138962,0.1641175001859665,0.17370866239070892
19.1,-0.07538720220327377,0.05066395178437233,0.10819406807422638,0.10486937314271927,0.25810831785202026,0.23463590443134308
19.15,-0.12680160999298096,0.16654492914676666,0.15643326938152313,0.1421138346195221,0.3001398742198944,0.264088898897171
19.2,-0.06480789184570312,0.21628858149051666,0.18582388758659363,0.15373775362968445,0.32190462946891785,0.2654832601547241
19.25,-0.027301229536533356,0.26291754841804504,0.13055643439292908,0.14947521686553955,0.354939728975296,0.24537038803100586
19.3,0.03556089848279953,0.2390585094690323,0.04882792383432388,0.13728471100330353,0.3959675133228302,0.2189863622188568
19.35,0.049257926642894745,0.3053903877735138,0.07010170072317123,0.09886308759450912,0.40936776995658875,0.17557266354560852
19.4,0.05502055212855339,0.2273121178150177,-0.047659602016210556,0.06003633886575699,0.41648349165916443,0.13302144408226013
19.45,0.04909549653530121,0.24767211079597473,-0.07889247685670853,0.02415218949317932,0.41296693682670593,0.09261982887983322
19.5,0.08829008042812347,0.2283831089735031,-0.17283526062965393,-0.011562040075659752,0.39943838119506836,0.05447439104318619
19.55,0.07202332466840744,0.1864796131849289,-0.31441405415534973,-0.05676179379224777,0.374948114156723,0.022744864225387573
19.6,0.14266301691532135,0.4853106141090393,-0.2820580005645752,-0.1011735126376152,0.3445115387439728,-0.0005762636428698897
19.65,0.051356781274080276,0.5103598237037659,-0.1327202171087265,-0.02338029071688652,0.3312627971172333,-0.005642262753099203
19.7,-0.004668854176998138,0.3921414017677307,-0.08917401731014252,0.14321304857730865,0.3413098156452179,-0.00398064311593771
19.75,0.0850357860326767,0.07664300501346588,-0.18180951476097107,0.2310580313205719,0.3196636438369751,-0.028382079675793648
19.8,0.20735976099967957,0.09360026568174362,-0.04435909911990166,0.24699126183986664,0.2722695469856262,-0.014192872680723667
19.85,0.022928867489099503,0.1531686931848526,-0.057432956993579865,0.25221097469329834,0.265582799911499,0.030872410163283348
19.9,-0.10818760842084885,0.24271109700202942,0.04811343923211098,0.24008333683013916,0.24951209127902985,0.03883860632777214
19.95,-0.10500787198543549,0.15499307215213776,0.05756235867738724,0.22700199484825134,0.2686128318309784,0.006502008531242609
20.0,-0.02148083783686161,0.015089991502463818,0.011965451762080193,0.20609243214130402,0.2704693078994751,-0.014470645226538181
20.05,0.06698603183031082,-0.07776453346014023,0.056679919362068176,0.16778546571731567,0.26609066128730774,-0.011782990768551826
20.1,0.010748011991381645,0.0046176849864423275,0.05778677761554718,0.12304039299488068,0.24970701336860657,0.004128936678171158
20.15,-0.030535966157913208,0.2294636070728302,0.02778812311589718,0.09790116548538208,0.2410743087530136,0.018182067200541496
20.2,-0.06613298505544662,0.24395088851451874,-0.03797338157892227,0.10911782085895538,0.24169094860553741,0.027163473889231682
20.25,-0.022877397015690804,0.10969926416873932,-8.226856880355626e-05,0.12612983584403992,0.2345370054244995,0.010241115465760231
20.3,-0.005763184279203415,0.09092523157596588,-0.0418386347591877,0.14407700300216675,0.21213872730731964,-0.002835312392562628
20.35,0.035719484090805054,0.17040729522705078,0.050161734223365784,0.15156136453151703,0.1819656789302826,0.009438002482056618
20.4,-0.06824523955583572,0.2702207863330841,0.0663577988743782,0.16750481724739075,0.14404267072677612,0.01031233835965395
20.45,-0.12607347965240479,0.23254112899303436,0.042127832770347595,0.1721808761358261,0.13804183900356293,-0.0012030788930132985
20.5,-0.08650416880846024,0.2163114845752716,0.16718460619449615,0.1665448546409607,0.13374537229537964,-0.015506592579185963
20.55,-0.12376074492931366,0.2002267986536026,0.2275286465883255,0.15257108211517334,0.14894108474254608,-0.021115290001034737
20.6,-0.09953483939170837,0.10827351361513138,0.18476083874702454,0.12104513496160507,0.154171884059906,-0.03432315215468407
20.65,-0.08070863783359528,0.09242630004882812,0.19281227886676788,0.090284064412117,0.1504143327474594,-0.035436201840639114
20.7,-0.15684232115745544,0.15554428100585938,0.28494319319725037,0.07888063788414001,0.154522106051445,-0.030702482908964157
20.75,-0.12469181418418884,0.01404570322483778,0.2744278609752655,0.09316720068454742,0.18017826974391937,-0.026520339772105217
20.8,-0.08392205834388733,-0.09139825403690338,0.17925851047039032,0.10603594779968262,0.21880316734313965,-0.015111468732357025
20.85,-0.009604416787624359,-0.04806520417332649,0.1407843381166458,0.11277323961257935,0.2518712878227234,0.019591964781284332
20.9,0.07688531279563904,-0.043843287974596024,0.06527921557426453,0.1028965562582016,0.28040528297424316,0.06539546698331833
20.95,-0.01312401331961155,-0.12012960016727448,-0.006342614535242319,0.10175192356109619,0.2877945005893707,0.11098527163267136
21.0,-0.10786129534244537,-0.1926603466272354,0.01262538880109787,0.1056617945432663,0.2569109797477722,0.15906192362308502
21.05,-0.16413390636444092,-0.13280965387821198,0.21888191998004913,0.0836116224527359,0.2253199964761734,0.1997990608215332
21.1,-0.05657006800174713,-0.24200348556041718,0.1489102840423584,0.02372080087661743,0.17552854120731354,0.23497489094734192
21.15,-0.24073068797588348,-0.06351658701896667,-0.14622382819652557,-0.11807635426521301,-0.0020576317328959703,0.21083569526672363
21.2,0.08353348821401596,-0.01484108716249466,-0.023656902834773064,-0.2980595827102661,-0.28009411692619324,0.20463789999485016
21.25,-0.395663321018219,0.14093691110610962,-0.1048748716711998,-0.3718246817588806,-0.3041558563709259,0.2736247777938843
21.3,-0.7410526275634766,0.3445827066898346,-0.4253861606121063,-0.4419083595275879,-0.32868364453315735,0.19200031459331512
21.35,-0.6738114953041077,0.37628382444381714,-0.6491764187812805,-0.4347403049468994,-0.4472186267375946,0.07058289647102356
21.4,-0.4353281259536743,0.3316441774368286,-0.3985210955142975,-0.38975316286087036,-0.5810369253158569,-0.1230120062828064
21.45,0.08293196558952332,0.1395893394947052,-0.17231811583042145,-0.30253028869628906,-0.5805718302726746,-0.22472915053367615
21.5,0.523202121257782,0.23925398290157318,-0.037065278738737106,-0.19365566968917847,-0.4327704906463623,-0.18109749257564545
21.55,0.7157787680625916,0.3366508185863495,-0.08388940989971161,-0.10875492542982101,-0.291621595621109,-0.05992123484611511
21.6,0.6378194093704224,0.39297008514404297,-0.09067291766405106,-0.08136381208896637,-0.2543566823005676,0.0505613349378109
21.65,0.4872133135795593,0.3826923370361328,-0.016922883689403534,-0.07075020670890808,-0.25235113501548767,0.13020388782024384
21.7,0.24515366554260254,0.4847240746021271,-0.042722489684820175,-0.06961721181869507,-0.2745620608329773,0.17197921872138977
21.75,-0.11213245242834091,0.6379051804542542,0.08871906250715256,-0.07879795134067535,-0.3164791166782379,0.15287236869335175
21.8,-0.3917081356048584,0.7213831543922424,0.2270098477602005,-0.0525193065404892,-0.29443949460983276,0.09062936156988144
21.85,-0.36633017659187317,0.6427813172340393,0.3204222023487091,0.013187216594815254,-0.1849682629108429,-0.003121456364169717
21.9,-0.027298539876937866,0.3365802764892578,0.2932569086551666,0.060990720987319946,-0.04550401121377945,-0.09635023027658463
21.95,0.1503477692604065,0.17022225260734558,0.31983092427253723,0.10631750524044037,0.031785860657691956,-0.13109137117862701
22.0,0.08662821352481842,0.03470512479543686,0.3499252200126648,0.12391010671854019,0.028859183192253113,-0.11799108982086182
22.05,0.1098233312368393,0.12633512914180756,0.28279414772987366,0.08446156978607178,-0.002243698574602604,-0.09944885969161987
22.1,0.034973181784152985,0.3106412887573242,0.1946672946214676,0.032092608511447906,-0.028793008998036385,-0.08429204672574997
22.15,-0.05199005454778671,0.3133726119995117,0.24978922307491302,-0.003387909382581711,-0.005209008697420359,-0.06515848636627197
22.2,-0.2895454168319702,0.12551118433475494,0.2761020362377167,-0.02725449949502945,0.06333643198013306,-0.0593065544962883
22.25,-0.13444183766841888,0.09198284149169922,0.20746010541915894,-0.10054804384708405,0.13248229026794434,-0.09785198420286179
22.3,0.0815020352602005,0.1803293228149414,0.021921861916780472,-0.1451285481452942,0.2257213592529297,-0.11911313235759735
22.35,0.25085926055908203,0.04970645159482956,-0.09673231095075607,-0.10793733596801758,0.27485644817352295,-0.07707060128450394
22.4,-0.020223770290613174,0.08409692347049713,-0.08338984847068787,-0.06775476038455963,0.24636991322040558,-0.01844496838748455
22.45,-0.0888884961605072,0.2352180927991867,-0.14270225167274475,-0.06134513393044472,0.23691338300704956,-0.0013403462944552302
22.5,0.10656510293483734,0.3787308633327484,-0.39846163988113403,-0.09096049517393112,0.19601456820964813,-0.021511614322662354
22.55,0.29935312271118164,0.2239837944507599,-0.2958037555217743,-0.0943574458360672,0.2052832692861557,-0.04111560061573982
22.6,0.006474554538726807,0.2355966866016388,0.03084600158035755,-0.12127397954463959,0.19599758088588715,-0.023222241550683975
22.65,-0.492674320936203,0.090791717171669,0.44386786222457886,-0.2806151211261749,0.059023428708314896,-0.10280827432870865
22.7,-0.32076942920684814,0.03406045213341713,0.6396318078041077,-0.41605061292648315,0.024224506691098213,-0.19959145784378052
22.75,-0.04859832674264908,0.05257033929228783,0.15745463967323303,-0.371595174074173,0.17192181944847107,-0.19969652593135834
22.8,0.14673733711242676,0.08022791147232056,-0.7334247827529907,-0.2940526604652405,0.2124279886484146,-0.17562240362167358
22.85,0.46307170391082764,-0.030452709645032883,-0.708006739616394,-0.1178380697965622,0.1809842586517334,-0.09463775157928467
22.9,0.2686441242694855,-0.08018779009580612,-0.43196359276771545,0.14164644479751587,0.181282177567482,0.010578872635960579
22.95,-0.0729333683848381,0.10097505152225494,0.08754999935626984,0.2798939645290375,0.1406339406967163,0.06905533373355865
23.0,-0.10257527232170105,0.2695761024951935,0.22435511648654938,0.33345454931259155,0.14580978453159332,0.06023247912526131
23.05,0.059519343078136444,0.3433580696582794,0.02018669806420803,0.3836356997489929,0.2780386209487915,0.02363681048154831
23.1,-0.16783107817173004,0.3748474419116974,0.31730085611343384,0.4945548474788666,0.40179935097694397,0.0665733590722084
23.15,-0.5025405883789062,0.19855116307735443,1.0291767120361328,0.42283737659454346,0.5137203335762024,0.06678976863622665
23.2,-0.25408750772476196,-0.33727845549583435,0.7744295597076416,0.24673180282115936,0.6196581721305847,0.03986446559429169
23.25,0.008382022380828857,0.19243046641349792,0.5814492106437683,0.0030687814578413963,0.6460326313972473,0.01965082809329033
23.3,-0.30273687839508057,0.6020423173904419,-0.03878573328256607,-0.3255014419555664,0.5729935765266418,-0.05405614897608757
23.35,-0.4240350127220154,0.8558531999588013,0.17199715971946716,-0.6335840821266174,0.37363123893737793,-0.20314349234104156
23.4,-0.5074535608291626,0.8884440660476685,0.22763773798942566,-0.8790982961654663,0.232524573802948,-0.3594847321510315
23.45,-0.4208070635795593,0.70203697681427,-0.46783024072647095,-1.0053966045379639,0.08737185597419739,-0.5140926837921143
23.5,-0.23873011767864227,0.37788689136505127,-0.5268346667289734,-1.0519397258758545,-0.1912921518087387,-0.6246291399002075
23.55,-0.17749394476413727,0.32157427072525024,-0.2924579083919525,-0.9795766472816467,-0.33747345209121704,-0.6319488883018494
23.6,0.13308817148208618,0.35874468088150024,-0.4744601845741272,-0.7650961875915527,-0.3845958113670349,-0.5887592434883118
23.65,0.12997794151306152,0.1347523182630539,-0.5198274850845337,-0.5610057711601257,-0.3030441105365753,-0.6170380115509033
23.7,0.5710433125495911,-0.28734591603279114,-0.494907408952713,-0.21292349696159363,-0.25289034843444824,-0.6247842907905579
23.75,0.40549468994140625,-0.14883333444595337,0.07132599502801895,0.061156392097473145,-0.06539405882358551,-0.5898461937904358
23.8,0.4176423251628876,-0.25384053587913513,0.1813543438911438,0.1385515332221985,0.09066550433635712,-0.5053887963294983
23.85,0.22560083866119385,-0.14947324991226196,0.19893048703670502,0.08160024881362915,0.07965745776891708,-0.39817890524864197
23.9,0.08775071799755096,-0.15577031672000885,-0.16374631226062775,-0.040498048067092896,0.045311592519283295,-0.32423681020736694
23.95,0.2296193391084671,-0.3138875961303711,-0.489128977060318,-0.10527973622083664,0.026834120973944664,-0.26226484775543213
24.0,0.36176836490631104,-0.06273845583200455,-0.014942430891096592,-0.13018132746219635,0.028503740206360817,-0.20132815837860107
24.05,0.17255130410194397,0.09813687950372696,0.23791107535362244,-0.08184704184532166,0.10638628900051117,-0.16155047714710236
24.1,0.0872500091791153,0.42306995391845703,0.5750581622123718,-0.07763271778821945,0.19553135335445404,-0.10471075028181076
24.15,-0.06376545131206512,0.08310992270708084,-0.5612943172454834,-0.2239685207605362,0.13085751235485077,-0.13126935064792633
24.2,0.1408488154411316,-0.23914995789527893,-1.3739044666290283,-0.29241710901260376,-0.10727636516094208,-0.07609649002552032
24.25,0.48433807492256165,0.2554616630077362,0.158098042011261,0.0247410386800766,-0.09022212028503418,-0.1109299585223198
24.3,0.0912337452173233,0.3200940787792206,0.42557695508003235,0.21849998831748962,0.17726603150367737,-0.04242827743291855
24.35,-0.15457263588905334,-0.15906232595443726,-0.6656336188316345,0.09132285416126251,0.0029530839528888464,-0.02757701277732849
24.4,0.25858497619628906,-0.07870005071163177,-0.5322250127792358,0.034414440393447876,-0.2305816113948822,-0.027219858020544052
24.45,0.2761119604110718,0.05642028898000717,0.1822214126586914,0.12823641300201416,-0.13467705249786377,0.003171720076352358
24.5,0.03508308529853821,0.16867640614509583,-0.1722106635570526,0.1910158097743988,-0.028359297662973404,0.03675241395831108
24.55,-0.07485666871070862,0.35631468892097473,-0.07604989409446716,0.12210539728403091,-0.10687761008739471,0.0089936638250947
24.6,-0.058808282017707825,0.36615467071533203,0.23220188915729523,0.04931451380252838,-0.1783888190984726,-0.01795787923038006
24.65,0.08293472975492477,0.1282939910888672,0.08955119550228119,0.020245732739567757,-0.15612415969371796,-0.05067878216505051
24.7,0.25666749477386475,-0.07369901984930038,-0.11888844519853592,0.025070615112781525,-0.1148887425661087,-0.06004868075251579
24.75,0.3334420621395111,-0.2866545021533966,-0.21284334361553192,-0.039776213467121124,-0.13768966495990753,0.018920350819826126
24.8,0.029341451823711395,0.0247802771627903,-0.021839911118149757,-0.044979244470596313,-0.19021593034267426,0.17448881268501282
24.85,0.10374027490615845,-0.14018353819847107,0.6506554484367371,0.21438248455524445,0.13438722491264343,0.24170073866844177
24.9,0.07704603672027588,-0.8429557681083679,0.37331509590148926,0.743823766708374,0.45704999566078186,0.30991673469543457
24.95,0.3738154470920563,-0.5364227890968323,-0.6161602735519409,0.935806930065155,0.326926589012146,0.423211932182312
25.0,0.6709977984428406,-0.17661377787590027,-1.1540428400039673,0.8355886340141296,-0.062387146055698395,0.7213872075080872
25.05,0.7999289631843567,0.07412324100732803,0.7653679847717285,0.9045509696006775,0.0639258548617363,0.7947992086410522
25.1,-0.28936588764190674,0.7449597716331482,1.4341481924057007,0.7391764521598816,0.35855627059936523,0.8102862238883972
25.15,-0.8598626255989075,1.059479832649231,0.9026395082473755,0.4952309727668762,0.40130043029785156,0.6685925126075745
25.2,-1.1000711917877197,0.9941761493682861,0.15341193974018097,0.037932947278022766,0.026936540380120277,0.41755592823028564
25.25,-0.3619559407234192,1.1012451648712158,-0.9944412112236023,-0.0009594187140464783,-0.09447582066059113,0.2271566241979599
25.3,-0.07759660482406616,0.7358484864234924,-0.056680046021938324,0.05174105241894722,0.05925006419420242,0.05218537151813507
25.35,0.03014398366212845,0.19127561151981354,0.19990479946136475,-0.08107022941112518,0.040789149701595306,-0.036385003477334976
25.4,-0.056302011013031006,0.07296562939882278,0.03111710585653782,-0.12740181386470795,-0.19967405498027802,-0.06907032430171967
25.45,-0.045117929577827454,-0.10130979120731354,0.006878409069031477,-0.15198469161987305,-0.35222792625427246,-0.05109534040093422
25.5,0.27933385968208313,0.23896697163581848,-0.28563424944877625,0.015359745360910892,-0.24356217682361603,0.0010495706228539348
25.55,0.03643699735403061,0.1781778633594513,-0.13841763138771057,0.18302975594997406,-0.12310685217380524,0.054127037525177
25.6,0.035995084792375565,0.08206654340028763,-0.03284667804837227,0.2522198557853699,-0.10144710540771484,0.09342976659536362
25.65,0.09376922249794006,-0.04529858008027077,-0.07929631322622299,0.2684689462184906,-0.10731910169124603,0.10448900610208511
25.7,-0.1058105081319809,-0.06034564599394798,0.0007108443533070385,0.26036736369132996,-0.09444764256477356,0.15567447245121002
25.75,0.02309461310505867,0.3660726845264435,0.09071704000234604,0.19918139278888702,-0.10815668106079102,0.1903609186410904
25.8,0.06267488747835159,0.6506291031837463,0.12115626037120819,0.13683663308620453,-0.1293734312057495,0.13935799896717072
25.85,-0.11038534343242645,0.20145706832408905,-0.04283006116747856,0.0777224749326706,-0.1072237640619278,0.057063668966293335
25.9,-0.0821862518787384,0.0015973948175087571,0.18917414546012878,0.0165349580347538,-0.10163912177085876,0.016255473718047142
25.95,-0.13111397624015808,-0.09107591956853867,0.26059573888778687,0.019944308325648308,-0.1463104486465454,0.031446706503629684
26.0,-0.1328212022781372,-0.04402066394686699,0.229313462972641,0.04563062638044357,-0.2092030793428421,0.05853826925158501
26.05,-0.20567546784877777,0.09166717529296875,0.2764832079410553,0.10606568306684494,-0.2110491693019867,0.0670255795121193
26.1,-0.2062486857175827,0.1757078319787979,0.20450888574123383,0.17602702975273132,-0.17800234258174896,0.08475630730390549
26.15,-0.04014826565980911,0.2157745510339737,0.2165706902742386,0.18851211667060852,-0.1444222331047058,0.08246109634637833
26.2,0.023097947239875793,0.10715770721435547,0.1511632204055786,0.18153107166290283,-0.09600067883729935,0.08039987087249756
26.25,-0.11512018740177155,0.2339315563440323,0.33463773131370544,0.1547691971063614,-0.09167667478322983,0.10158391296863556
26.3,-0.2327880859375,0.2509661018848419,0.3866816759109497,0.11633341759443283,-0.07233809679746628,0.09114423394203186
26.35,-0.07640820741653442,0.30892181396484375,0.40236586332321167,0.04565317928791046,-0.023747775703668594,0.05085919797420502
26.4,-0.19829648733139038,0.29485610127449036,0.31845057010650635,-0.02052863873541355,0.008655582554638386,0.01456101331859827
26.45,-0.16541318595409393,0.28832149505615234,0.3656943142414093,-0.09924009442329407,0.050332844257354736,-0.02896270900964737
26.5,-0.02528221905231476,0.26671603322029114,0.18110822141170502,-0.13113315403461456,0.10785843431949615,-0.06801764667034149
26.55,0.015229672193527222,0.20962049067020416,0.0789109468460083,-0.16120195388793945,0.09512289613485336,-0.08673806488513947
26.6,0.15519976615905762,0.09853553026914597,0.06795547902584076,-0.15141968429088593,0.06188070401549339,-0.0945671945810318
26.65,0.13303731381893158,-0.0718250498175621,0.045899804681539536,-0.09799624979496002,0.011914139613509178,-0.07526853680610657
26.7,0.0271671861410141,-0.2433958500623703,0.1569441854953766,-0.05705536901950836,-0.043216556310653687,-0.01698385179042816
26.75,-0.03592510521411896,-0.32265573740005493,0.3198404014110565,-0.022770320996642113,-0.05539640411734581,0.08204647153615952
26.8,-0.11036060750484467,-0.04473594203591347,0.44635218381881714,-0.015757054090499878,-0.012542765587568283,0.17431104183197021
26.85,-0.2177734076976776,0.37614065408706665,0.3484601080417633,-0.006086580455303192,0.08459192514419556,0.21727769076824188
26.9,-0.11868146061897278,0.9324074983596802,0.22101476788520813,0.04743249714374542,0.23393990099430084,0.18459707498550415
26.95,-0.2527990937232971,0.5762720704078674,-0.024763574823737144,0.10446201264858246,0.3200749158859253,0.10744668543338776
27.0,0.0956970676779747,0.11316206306219101,-0.19061695039272308,0.11960051208734512,0.3580107092857361,0.031759217381477356
27.05,0.17609010636806488,0.10522367060184479,-0.20224244892597198,0.18860240280628204,0.2837141752243042,0.02647428959608078
27.1,0.21030643582344055,0.5164175629615784,-0.08120254427194595,0.2738468050956726,0.0782703310251236,0.037519317120313644
27.15,-0.16714009642601013,0.5842886567115784,-0.13772328197956085,0.30240505933761597,-0.04057068005204201,0.006852457299828529
27.2,-0.21783055365085602,0.24202828109264374,0.08612826466560364,0.31067752838134766,-0.02545001357793808,-0.03972182050347328
27.25,0.005507573485374451,0.08396242558956146,0.21987231075763702,0.33286967873573303,0.10140412300825119,-0.06616060435771942
27.3,0.06284619122743607,-0.12258438020944595,0.13881564140319824,0.28757473826408386,0.10646222531795502,-0.06124783307313919
27.35,-0.03839920461177826,-0.1646147221326828,0.308666467666626,0.2227930873632431,0.04911704733967781,-0.034751005470752716
27.4,-0.07397619634866714,-0.1275968849658966,0.2840791642665863,0.1621030569076538,0.09761567413806915,0.004237672314047813
27.45,-0.1170121431350708,-0.02965737134218216,0.16126707196235657,0.0745529904961586,0.14245867729187012,0.02880847081542015
27.5,-0.035726141184568405,0.0030536630656570196,0.06489923596382141,-0.0018721334636211395,0.16708746552467346,0.057368673384189606
27.55,-0.2132989764213562,0.19944101572036743,-0.1371273547410965,-0.04815361648797989,0.18837442994117737,0.08715367317199707
27.6,-0.16146880388259888,0.23688800632953644,-0.29265516996383667,-0.11841852217912674,0.1676350086927414,0.08937423676252365
27.65,0.018088266253471375,0.1963234543800354,-0.26410695910453796,-0.15132702887058258,0.12876509130001068,0.06235572695732117
27.7,-0.0693313330411911,0.4187641739845276,0.18844954669475555,-0.18414446711540222,0.010205291211605072,0.03676314651966095
27.75,-0.5976083874702454,-0.5115729570388794,1.0672248601913452,-0.243757426738739,-0.23210252821445465,-0.014009774662554264
27.8,-0.017879188060760498,0.25734126567840576,1.6852556467056274,-0.47129011154174805,-0.265584796667099,-0.07029958814382553
27.85,0.009848415851593018,0.4087495803833008,0.49434733390808105,-0.8081678152084351,-0.13745896518230438,-0.07802461087703705
27.9,0.3386636972427368,0.7066222429275513,-0.7735193967819214,-1.072783350944519,-0.16723881661891937,-0.10387366265058517
27.95,0.06732416152954102,-0.4255322813987732,-1.3361417055130005,-1.0072189569473267,-0.007516371551901102,-0.06887838244438171
28.0,0.04677021503448486,-0.23706135153770447,-1.90677809715271,-0.6424764394760132,0.21219927072525024,0.06669750809669495
28.05,-0.12309354543685913,-0.11396487802267075,-1.6688538789749146,-0.3460093140602112,0.051767148077487946,0.10806132853031158
28.1,0.2382630705833435,-0.006387640256434679,-1.0061967372894287,-0.04033932089805603,-0.17540155351161957,0.15046416223049164
28.15,0.09769722074270248,0.2523660957813263,-0.24796822667121887,0.23829184472560883,-0.23616106808185577,0.2112150639295578
28.2,-0.0992819219827652,0.4506579041481018,0.12496116757392883,0.44384321570396423,-0.27564480900764465,0.2393387258052826
28.25,-0.03903363645076752,0.4780588448047638,0.4672156572341919,0.5342913866043091,-0.30634555220603943,0.220256045460701
28.3,0.01290866732597351,0.4826936721801758,0.6782690286636353,0.5878009796142578,-0.28969407081604004,0.20431746542453766
28.35,-0.15192067623138428,0.612696647644043,0.7059301733970642,0.5745092034339905,-0.21707506477832794,0.172174870967865
28.4,-0.2903994917869568,0.36709022521972656,0.5602004528045654,0.48095688223838806,-0.12200269848108292,0.12771430611610413
28.45,-0.13610132038593292,0.3185758590698242,0.49310028553009033,0.3641986846923828,-0.03892824053764343,0.057385530322790146
28.5,-0.05541519820690155,0.2611818313598633,0.335775226354599,0.21402853727340698,0.03176138177514076,-0.00032240472501143813
28.55,0.05543427914381027,0.09184931218624115,0.1771165281534195,0.05768275633454323,0.03465738147497177,-0.03417370095849037
28.6,0.05644117668271065,0.10141946375370026,-0.06815149635076523,-0.06046442314982414,0.07899931818246841,-0.03980814665555954
28.65,0.0806182473897934,0.30050280690193176,-0.19115032255649567,-0.08170060813426971,0.12034160643815994,-0.034210339188575745
28.7,-0.04810917750000954,0.1515198051929474,-0.03264809399843216,0.006113101728260517,0.10084153711795807,-0.02658911980688572
28.75,-0.016234777867794037,0.1496744155883789,0.16144920885562897,0.17552079260349274,0.0707700327038765,-0.02200309745967388
28.8,-0.07040507346391678,0.18676377832889557,0.03603699058294296,0.379510760307312,0.037192896008491516,-0.015555734746158123
28.85,-0.10504892468452454,0.5035648345947266,0.5289579629898071,0.4968579411506653,-0.03890245035290718,-0.020738741382956505
28.9,-0.42656365036964417,0.05166621878743172,0.9434758424758911,0.5716238021850586,-0.04792964458465576,-0.039087630808353424
28.95,-0.09602248668670654,-0.20940889418125153,1.2425099611282349,0.596224844455719,0.1366020143032074,-0.09250222146511078
29.0,0.034474313259124756,-0.6584541201591492,1.2195775508880615,0.5457602739334106,0.2930566072463989,-0.08900155872106552
29.05,0.18137139081954956,-1.2265989780426025,1.1408499479293823,0.45130112767219543,0.3837161958217621,-0.07347416132688522
29.1,0.2590373456478119,-0.8820039629936218,0.5039027333259583,0.3954368233680725,0.4988217353820801,0.029916726052761078
29.15,0.24017801880836487,-0.6943045258522034,-0.4946812689304352,0.3070729970932007,0.46466460824012756,0.1692032665014267
29.2,0.31685227155685425,-0.553219735622406,-1.2862552404403687,0.29796576499938965,0.2914614677429199,0.24741168320178986
29.25,0.30033326148986816,-0.013243594206869602,-1.19307541847229,0.404071182012558,0.0922422930598259,0.3219603896141052
29.3,-0.08836328983306885,0.2787753641605377,-1.2096257209777832,0.6135230660438538,-0.0402650460600853,0.3704148530960083
29.35,-0.22785326838493347,0.6360971331596375,-1.2102023363113403,0.8176127076148987,-0.20167189836502075,0.34536734223365784
29.4,0.02779597043991089,0.8349897265434265,-0.6828374266624451,0.9520150423049927,-0.4302636981010437,0.2276010513305664
29.45,0.11788488924503326,0.9991790652275085,-0.5492921471595764,1.0938955545425415,-0.5691308975219727,0.1390465945005417
29.5,0.03823630511760712,0.7979890704154968,-0.39946818351745605,1.1869070529937744,-0.6697791814804077,0.09366658329963684
29.55,-0.056068457663059235,0.2756223976612091,-0.014381540939211845,1.264452338218689,-0.7857276797294617,0.06217481195926666
29.6,-0.13892149925231934,0.15115736424922943,0.4732716381549835,1.2788885831832886,-0.8461710214614868,0.05544263869524002
29.65,-0.1060488224029541,-0.13347917795181274,0.6482006311416626,1.2160027027130127,-0.869903564453125,0.03507525101304054
29.7,-0.12422040104866028,-0.28019246459007263,0.775196373462677,1.1339008808135986,-0.8120947480201721,0.026567768305540085
29.75,-0.1278555691242218,-0.21260841190814972,0.6262152791023254,0.9781954884529114,-0.7211667895317078,0.047548048198223114
29.8,-0.187656432390213,0.23646162450313568,0.6890734434127808,0.809260368347168,-0.6290383338928223,0.12204001098871231
29.85,-0.4934021830558777,0.20705224573612213,0.7325000166893005,0.6553922891616821,-0.535324215888977,0.18174053728580475
29.9,-0.5134121775627136,0.33934786915779114,0.5791817903518677,0.5229942202568054,-0.4013768434524536,0.24329914152622223
29.95,-0.485560804605484,0.5298891663551331,0.5630683302879333,0.40920740365982056,-0.28568944334983826,0.2763523459434509
30.0,-0.4563479423522949,0.5597735047340393,0.4257190525531769,0.34631338715553284,-0.17488856613636017,0.28856781125068665
30.05,-0.31696611642837524,0.49719342589378357,0.14622539281845093,0.2987273335456848,-0.09750272333621979,0.2534547746181488
30.1,-0.29622453451156616,0.6172543168067932,0.257981538772583,0.2539261281490326,-0.059560082852840424,0.19981248676776886
30.15,-0.21863600611686707,0.4209814667701721,0.25798869132995605,0.2352430671453476,-0.03988524153828621,0.11727534979581833
30.2,-0.022844865918159485,0.41392233967781067,0.20982211828231812,0.1927204728126526,0.004694835282862186,0.04916740208864212
30.25,-0.00033846497535705566,0.4269419014453888,0.1756114959716797,0.1368756741285324,0.04364282265305519,-0.002396257361397147
30.3,0.07351769506931305,0.23001384735107422,0.2238026112318039,0.10122489929199219,0.03990466520190239,-0.07977946847677231
30.35,0.1251613050699234,0.1234435960650444,0.09995289891958237,0.052759528160095215,0.059218596667051315,-0.09449554979801178
30.4,-0.030344344675540924,0.1557474136352539,0.21183717250823975,-0.011404216289520264,0.08117914199829102,-0.09881934523582458
30.45,-0.05591556429862976,0.07173250615596771,0.2815611660480499,-0.04155406355857849,0.08843071758747101,-0.08283260464668274
30.5,-0.027703501284122467,0.017585743218660355,0.16680344939231873,-0.05292588472366333,0.10427097231149673,-0.054077986627817154
30.55,-0.11941460520029068,0.08738231658935547,0.2086842805147171,-0.08186743408441544,0.133718803524971,-0.017171911895275116
30.6,-0.026172444224357605,0.0005235515418462455,0.19429460167884827,-0.0780855268239975,0.15513436496257782,-0.009779198095202446
30.65,0.013715237379074097,0.14793968200683594,0.18412254750728607,-0.0637613832950592,0.15996985137462616,0.015912126749753952
30.7,-0.04029626026749611,0.19003108143806458,0.0793273076415062,-0.04519528150558472,0.16623304784297943,0.023668106645345688
30.75,-0.10680420696735382,0.23392489552497864,0.0649823322892189,-0.015373557806015015,0.16327936947345734,0.021402141079306602
30.8,-0.09574656933546066,0.16581536829471588,0.11802882701158524,0.012163693085312843,0.1588713675737381,0.03223055973649025
30.85,-0.10852350294589996,0.1287088543176651,0.12839177250862122,0.036693211644887924,0.1711799055337906,0.034025419503450394
30.9,-0.1666288822889328,0.1529417335987091,0.003054855391383171,0.04993579164147377,0.1661515235900879,0.023311447352170944
30.95,0.004759286995977163,0.07409954816102982,0.019129028543829918,0.04919515550136566,0.15123192965984344,0.0218550693243742
31.0,-0.03484940901398659,0.1301870495080948,0.08767065405845642,0.04243043065071106,0.1427917331457138,0.021196972578763962
31.05,-0.06615858525037766,0.026634223759174347,0.0206449031829834,0.04107671231031418,0.10825718194246292,0.007540467660874128
31.1,-0.09738294035196304,-0.13413813710212708,0.22135931253433228,0.02743622660636902,0.08538220822811127,0.017465079203248024
31.15,-0.102585069835186,-0.07935716211795807,0.22216598689556122,0.011719245463609695,0.10348832607269287,0.043924614787101746
31.2,-0.04711918905377388,-0.02856541983783245,0.14885997772216797,-0.003785141743719578,0.10975611209869385,0.031917110085487366
31.25,-0.02189098298549652,0.15451811254024506,0.28617438673973083,-0.012282783165574074,0.11879990994930267,0.041931524872779846
31.3,-0.17182117700576782,0.3754740357398987,0.3093845248222351,-0.0015084333717823029,0.13813625276088715,0.04958415403962135
31.35,-0.2250104695558548,0.38529592752456665,0.12365332990884781,0.0021119900047779083,0.17184017598628998,0.04314105212688446
31.4,-0.20311617851257324,0.32299238443374634,0.0075896368362009525,0.015131950378417969,0.171640545129776,0.03346489369869232
31.45,-0.21515879034996033,0.2026873081922531,-0.005890402011573315,0.039523690938949585,0.19047996401786804,0.03309377655386925
31.5,-0.061419278383255005,0.1421337127685547,0.19555170834064484,0.032373979687690735,0.2186042219400406,0.04471255838871002
31.55,0.004626283422112465,0.13095952570438385,0.04754399135708809,0.029217828065156937,0.22968001663684845,0.04943489655852318
31.6,0.11343167722225189,0.0846862718462944,0.05610009655356407,-0.01904931291937828,0.24922212958335876,0.06457573175430298
31.65,0.03794882819056511,-0.023880966007709503,-0.0041676475666463375,-0.08649297058582306,0.272857129573822,0.08365916460752487
31.7,0.07944708317518234,-0.06973457336425781,-0.1707448810338974,-0.15874958038330078,0.27446791529655457,0.08863569051027298
31.75,0.1907438337802887,-0.1014576181769371,-0.10911238193511963,-0.23470792174339294,0.2278280109167099,0.06941919028759003
31.8,-0.09799559414386749,-0.05753420293331146,-0.14426438510417938,-0.25431928038597107,0.17240560054779053,0.07274704426527023
31.85,-0.13976716995239258,0.07291988283395767,-0.14503762125968933,-0.23532980680465698,0.15616284310817719,0.08304247260093689
31.9,-0.15681125223636627,0.28802305459976196,-0.033877551555633545,-0.17949147522449493,0.14767849445343018,0.08863247185945511
31.95,-0.2703331708908081,0.2830095887184143,-0.0044062500819563866,-0.11995697021484375,0.17142422497272491,0.09601011127233505
32.0,-0.3054298758506775,0.0016794452676549554,0.050489842891693115,-0.06226884201169014,0.21282115578651428,0.10375020653009415
32.05,-0.18752530217170715,0.12822632491588593,-0.11202292144298553,-0.0464482456445694,0.2344113141298294,0.09573813527822495
32.1,-0.07385940849781036,0.06825163215398788,-0.09002359211444855,-0.04422779381275177,0.20056398212909698,0.04931706190109253
32.15,-0.09847410768270493,-0.1358194649219513,0.18989770114421844,-0.07836722582578659,0.15240122377872467,0.013922585174441338
32.2,-0.23951564729213715,-0.13966085016727448,0.21130602061748505,-0.12179335951805115,0.15616655349731445,0.01925012283027172
32.25,-0.2703772783279419,-0.33405593037605286,0.33669549226760864,-0.20347684621810913,0.17708413302898407,0.03758779913187027
32.3,-0.06213565170764923,-0.45126450061798096,0.5443657040596008,-0.333808958530426,0.19024071097373962,0.09758753329515457
32.35,-0.016541123390197754,-0.5985490083694458,0.7985865473747253,-0.4927055835723877,0.2012314349412918,0.19827963411808014
32.4,-0.1943376362323761,-0.4540320634841919,0.7441356778144836,-0.664039671421051,0.26705095171928406,0.24896036088466644
32.45,-0.08102554082870483,-0.6470710635185242,1.3502284288406372,-0.9177004098892212,0.23922263085842133,0.30276548862457275
32.5,0.14132720232009888,-0.8962490558624268,1.3948349952697754,-1.1132984161376953,0.26382845640182495,0.44492223858833313
32.55,0.4246704578399658,-0.43430447578430176,1.5613632202148438,-1.351127028465271,0.4273625314235687,0.6153813004493713
32.6,0.4960923492908478,0.14096151292324066,1.0248810052871704,-1.480568528175354,0.405629426240921,0.7154819369316101
32.65,1.1675680875778198,0.572134792804718,1.09499192237854,-1.5045990943908691,0.391895592212677,0.7625430226325989
32.7,0.7635141611099243,0.9759302139282227,0.23817498981952667,-1.423851490020752,0.5709369778633118,0.957198441028595
32.75,0.5420542359352112,1.179535984992981,-0.43732091784477234,-1.3111246824264526,0.84528648853302,1.0525617599487305
32.8,0.18989533185958862,1.1677610874176025,-0.8411725163459778,-1.228737235069275,0.96939617395401,1.1137481927871704
32.85,-0.6032459139823914,1.0480235815048218,-1.7829152345657349,-1.0780974626541138,0.9075827598571777,1.0727406740188599
32.9,-0.889611005783081,1.2334750890731812,-1.793475866317749,-0.8752990365028381,1.0039076805114746,0.851086437702179
32.95,-1.3350690603256226,0.4549974501132965,-2.2069578170776367,-0.7532989978790283,0.7610481977462769,0.6114225387573242
33.0,-0.870430588722229,0.7289250493049622,-1.632644534111023,-0.45341798663139343,0.4935421645641327,0.36024531722068787
33.05,-1.1954302787780762,0.37254270911216736,-1.8586163520812988,-0.26374703645706177,0.2996452748775482,0.19133733212947845
33.1,-0.630062997341156,0.21277254819869995,-0.9732791185379028,-0.015526347793638706,0.08755809813737869,-0.003871907014399767
33.15,-0.21954795718193054,0.13158521056175232,-0.5605984926223755,0.10843144357204437,-0.06177522987127304,-0.11826623231172562
33.2,-0.19504299759864807,-0.038807835429906845,-0.2011469155550003,0.17282666265964508,-0.09783176332712173,-0.13287483155727386
33.25,-0.056971222162246704,0.0521058663725853,0.5210912823677063,0.1696222722530365,-0.21293245255947113,-0.0839221179485321
33.3,-0.15223006904125214,-0.0290403813123703,0.5925470590591431,0.03833755850791931,-0.07364346832036972,-0.04567232355475426
33.35,-0.26347947120666504,0.16331960260868073,0.20408053696155548,-0.06279444694519043,0.04591676592826843,-0.0035347002558410168
33.4,-0.2821575701236725,0.15789130330085754,0.06532486528158188,-0.11875699460506439,0.08165599405765533,0.007001500576734543
33.45,-0.2637215256690979,0.1820564717054367,-0.027595294639468193,-0.1442214846611023,0.08839134126901627,-0.015341888181865215
33.5,-0.18965446949005127,0.13621237874031067,0.009662028402090073,-0.15297915041446686,0.09382156282663345,-0.03801422566175461
33.55,-0.004674099385738373,0.2241840660572052,0.0760556310415268,-0.15086638927459717,0.10185960680246353,-0.031272049993276596
33.6,-0.1237657219171524,0.1517191380262375,-0.12164025008678436,-0.13777364790439606,0.11054937541484833,-0.03044205904006958
33.65,-0.1394125521183014,-0.005817377008497715,-0.24760273098945618,-0.11949028074741364,0.09216775745153427,-0.02702507935464382
33.7,-0.057774994522333145,-0.03551863506436348,-0.08789050579071045,-0.09736299514770508,0.07941728085279465,-0.001115672872401774
33.75,-0.2255345582962036,0.12435535341501236,-0.011280594393610954,-0.0796395093202591,0.04092853143811226,0.011990876868367195
33.8,-0.17889992892742157,0.07296660542488098,-0.06727077066898346,-0.0514899343252182,0.05656234174966812,-0.00517791323363781
33.85,-0.15993927419185638,0.12753014266490936,-0.11415574699640274,-0.05026049166917801,0.04821890592575073,-0.013555758632719517
33.9,-0.06197313964366913,0.10695364326238632,0.00794889684766531,-0.04214305803179741,0.004200787283480167,-0.014469706453382969
33.95,0.05132148414850235,-0.004140851087868214,-0.0886630266904831,-0.04274333268404007,0.040679313242435455,-0.029146838933229446
34.0,0.009488515555858612,0.018939979374408722,-0.0772356390953064,-0.03301236033439636,0.0453716441988945,-0.010378886014223099
34.05,-0.036831751465797424,-0.014255514368414879,-0.08229696750640869,-0.025116082280874252,0.019456611946225166,0.015517131425440311
34.1,-0.0588608980178833,0.04732991382479668,0.004343914799392223,-0.010667416267096996,0.007122484967112541,0.030039506033062935
34.15,-0.009812204167246819,0.1122589260339737,-0.019074710085988045,-0.005375578999519348,0.02167692594230175,0.028160899877548218
34.2,-0.04142829030752182,0.12836076319217682,-0.034589733928442,-0.00737422052770853,0.03712043538689613,0.022240664809942245
34.25,-0.10737595707178116,0.14775851368904114,-0.026027163490653038,-0.018305867910385132,0.03781615570187569,0.023246504366397858
34.3,0.06804686784744263,0.18639089167118073,-0.024202175438404083,-0.016494015231728554,0.024880658835172653,0.0236760713160038
34.35,-0.03191696107387543,0.1819763481616974,-0.08087316155433655,-0.01941564306616783,0.028967496007680893,0.020695731043815613
34.4,-0.11603645235300064,0.17375090718269348,0.010612969286739826,-0.0060584889724850655,0.00922362506389618,0.03380140662193298
34.45,-0.03348199278116226,0.20394136011600494,0.13826778531074524,-0.0023241695016622543,-0.014692243188619614,0.03614675626158714
34.5,0.05276438593864441,0.10552120953798294,0.059644244611263275,-0.0209758710116148,0.005338933784514666,0.02632216364145279
34.55,0.003772268071770668,0.010962484404444695,0.029032990336418152,-0.041939083486795425,0.010649393312633038,0.026869283989071846
34.6,-0.015753522515296936,0.05419540777802467,0.05139822140336037,-0.04294838383793831,0.02091626636683941,0.03159690648317337
34.65,-0.0706605315208435,0.11029436439275742,-0.00832974724471569,-0.04865289479494095,0.0264296717941761,0.031846653670072556
34.7,-0.1868920475244522,0.12607482075691223,-0.0029104554560035467,-0.05705944448709488,0.04871741682291031,0.017719868570566177
34.75,-0.1529964953660965,0.09728243201971054,0.0715872049331665,-0.05921166390180588,0.05205903202295303,-0.016763897612690926
34.8,-0.1681608110666275,0.06579592823982239,-0.049796923995018005,-0.05603237822651863,0.06003342196345329,-0.056484997272491455
34.85,0.052904028445482254,-0.023822784423828125,-0.09113091230392456,-0.061864495277404785,0.06342346966266632,-0.06669776141643524
34.9,0.04808816313743591,0.11336617171764374,-0.35465285181999207,-0.044224292039871216,0.036849841475486755,-0.044019851833581924
34.95,-0.1660017967224121,0.3406601846218109,-0.602692186832428,-0.004817977547645569,-0.022811952978372574,-0.046698231250047684
35.0,-0.6880631446838379,-0.09710197895765305,-1.4030942916870117,0.09050998836755753,-0.10162094235420227,-0.11100642383098602
35.05,-0.5148466229438782,0.3809759318828583,-1.2003295421600342,0.3071751594543457,-0.20377133786678314,-0.2900741398334503
35.1,0.6584429144859314,0.1746797412633896,-0.401475727558136,0.48855602741241455,-0.3691938817501068,-0.3310874402523041
35.15,0.027016818523406982,0.27041906118392944,0.8149102330207825,0.4660608768463135,-0.2810360789299011,-0.176872119307518
35.2,-0.10743594169616699,-0.16891294717788696,0.6539225578308105,0.362870454788208,-0.020827878266572952,-0.11276300251483917
35.25,-0.21340644359588623,0.12233057618141174,1.3526782989501953,0.2657226622104645,0.22079433500766754,-0.1254851520061493
35.3,0.10011932253837585,-0.024211963638663292,0.706402063369751,0.06222265958786011,0.46701428294181824,-0.10493683815002441
35.35,0.2658750116825104,-0.02465634234249592,0.18811485171318054,-0.014411810785531998,0.5584285855293274,-0.0884113609790802
35.4,0.25082045793533325,0.03196621313691139,-0.25256791710853577,-0.0378619022667408,0.4545196294784546,-0.03421981260180473
35.45,-0.03745493292808533,0.0655260980129242,-0.8453793525695801,-0.010042637586593628,0.18468226492404938,0.0056197852827608585
35.5,0.07602739334106445,0.07973963767290115,-0.6904904842376709,0.026640722528100014,-0.29071763157844543,0.014229590073227882
35.55,-0.21066808700561523,0.05062117427587509,-1.2082897424697876,0.1376933753490448,-0.7542158365249634,-0.017256058752536774
35.6,-1.151465654373169,0.6445878148078918,-1.1700125932693481,0.24949997663497925,-1.1353094577789307,-0.10547202080488205
35.65,-1.1847691535949707,0.8857796788215637,-0.617825448513031,0.27827635407447815,-1.2747129201889038,-0.28002113103866577
35.7,-0.7005296349525452,0.7477656602859497,0.366575688123703,0.3378007411956787,-1.107580542564392,-0.48372429609298706
35.75,0.01117512583732605,0.42769911885261536,0.38094770908355713,0.42270493507385254,-0.6218875050544739,-0.6159771680831909
35.8,0.574245274066925,0.2189807891845703,-0.24652491509914398,0.6207138895988464,-0.08897221833467484,-0.5982723236083984
35.85,0.6098825335502625,0.09854032844305038,-0.739741325378418,0.7886188626289368,0.07584031671285629,-0.4761945903301239
35.9,0.6319471001625061,-0.1994180977344513,-0.5901849865913391,0.9220979809761047,-0.11052148789167404,-0.35458850860595703
35.95,0.7511706948280334,-0.1372595727443695,-0.012521971017122269,0.9796123504638672,-0.3424091339111328,-0.2406894713640213
36.0,0.6238916516304016,-0.22285759449005127,0.39434245228767395,0.9548137187957764,-0.44939401745796204,-0.1216697096824646
36.05,0.3704642951488495,-0.1042548343539238,0.6229392886161804,0.8960957527160645,-0.48205605149269104,0.00688868248835206
36.1,0.04512661695480347,-0.06384571641683578,0.7725119590759277,0.8025115728378296,-0.521271288394928,0.08702491968870163
36.15,-0.0034609735012054443,-0.14262686669826508,0.9829467535018921,0.6422984600067139,-0.5250487327575684,0.10359617322683334
36.2,-0.06957834959030151,-0.25396835803985596,1.0337666273117065,0.4656798541545868,-0.46291351318359375,0.14508269727230072
36.25,-0.26545265316963196,-0.1749020516872406,1.0116230249404907,0.28114789724349976,-0.3558698892593384,0.15767328441143036
36.3,-0.29381319880485535,-0.11225517094135284,0.969103217124939,0.11535413563251495,-0.23958681523799896,0.13455107808113098
36.35,-0.4326639771461487,-0.11371809989213943,1.0193688869476318,-0.03010394424200058,-0.1370490938425064,0.1018880158662796
36.4,-0.5297505259513855,-0.27396973967552185,1.226626992225647,-0.19260841608047485,-0.04205039143562317,-0.0070114415138959885
36.45,-0.6726008653640747,-0.2815343141555786,1.6683542728424072,-0.33297228813171387,0.11375311017036438,-0.10578861832618713
36.5,-0.6394016146659851,-0.3811027407646179,2.037667751312256,-0.5570307374000549,0.2833007872104645,-0.2671785056591034
36.55,-0.08487820625305176,-0.16495725512504578,2.087185859680176,-0.9085736870765686,0.5036023259162903,-0.36797836422920227
36.6,0.25160980224609375,0.049776840955019,1.8435261249542236,-1.2253206968307495,0.5994988679885864,-0.39792659878730774
36.65,0.4379398226737976,0.4366682767868042,1.6179131269454956,-1.4726829528808594,0.6856118440628052,-0.3964272439479828
36.7,0.9724298119544983,0.5014322996139526,0.9303730130195618,-1.559157371520996,0.849578320980072,-0.35944557189941406
36.75,1.453244924545288,0.5868061184883118,0.873702347278595,-1.547727346420288,1.0287292003631592,-0.18911056220531464
36.8,1.464616298675537,0.7950181365013123,0.11542169749736786,-1.4755139350891113,1.384855031967163,0.014828152023255825
36.85,0.59935063123703,0.6259557008743286,-1.2273293733596802,-1.3288969993591309,1.6375058889389038,0.1043843999505043
36.9,0.8555032014846802,0.427374005317688,-1.4772701263427734,-1.1085838079452515,1.6000410318374634,0.08197072893381119
36.95,0.31229251623153687,0.3710538446903229,-1.678220510482788,-0.8160985708236694,1.6493446826934814,0.04542429372668266
37.0,-0.5549829006195068,0.05338688939809799,-1.5133472681045532,-0.6238105297088623,1.4262714385986328,0.07639612257480621
37.05,-0.21128040552139282,0.006707310676574707,-1.0445913076400757,-0.4779776632785797,1.0237321853637695,0.07092906534671783
37.1,-0.9795762896537781,-0.08656766265630722,-1.4121469259262085,-0.30603012442588806,0.8317447304725647,-0.005873344838619232
37.15,-0.8576691150665283,-0.03603915125131607,-1.288723111152649,-0.14779557287693024,0.6349596977233887,-0.08674869686365128
37.2,-0.5529770255088806,-0.029459821060299873,-0.8825975656509399,-0.021994099020957947,0.4656406044960022,-0.15158793330192566
37.25,-0.2563857436180115,0.10910328477621078,-0.42627501487731934,0.01204385980963707,0.27960988879203796,-0.1314542591571808
37.3,-0.1731749325990677,0.324614554643631,0.020735373720526695,-0.012924913316965103,0.1945718228816986,-0.08806255459785461
37.35,-0.14023996889591217,0.37092307209968567,-0.013956638984382153,-0.05119656026363373,0.17811420559883118,-0.07578528672456741
37.4,-0.033947255462408066,0.3381109833717346,-0.14930006861686707,-0.06125543266534805,0.22166088223457336,-0.10515163838863373
37.45,-0.05601867660880089,0.18849091231822968,-0.17073002457618713,-0.06758635491132736,0.21202321350574493,-0.09900248050689697
37.5,0.002292158780619502,0.28904059529304504,-0.009033922106027603,-0.07297587394714355,0.18547672033309937,-0.07442078739404678
37.55,-0.003499699756503105,0.19505980610847473,-0.04053151607513428,-0.07844336330890656,0.16822098195552826,-0.06441707164049149
37.6,0.04576995596289635,0.1142740398645401,-0.08025597035884857,-0.05631190538406372,0.1710532307624817,-0.06004602834582329
37.65,0.00022814422845840454,0.046551719307899475,-0.13136273622512817,-0.03850053250789642,0.1508750170469284,-0.04433278739452362
37.7,-0.06629829108715057,0.006640444975346327,-0.03780393302440643,-0.031315580010414124,0.11451464891433716,-0.03535124287009239
37.75,0.00802297331392765,0.015545842237770557,0.0449063815176487,-0.025037575513124466,0.10548396408557892,-0.036866892129182816
37.8,-0.1615777313709259,-0.05645083263516426,-0.03015194833278656,-0.01815093494951725,0.12338151782751083,-0.04652789980173111
37.85,-0.020994417369365692,0.23904038965702057,0.10629108548164368,-0.020526474341750145,0.04581770673394203,-0.020240357145667076
37.9,0.03381943702697754,0.20271971821784973,0.019971830770373344,-0.017311731353402138,0.05711889639496803,-0.04170643538236618
37.95,0.027476027607917786,0.11554814875125885,-0.02839573100209236,-0.012289976701140404,0.07405390590429306,-0.06361734122037888
38.0,0.10257470607757568,0.16076374053955078,0.016869153827428818,-0.0025484003126621246,0.0655515044927597,-0.06242400407791138
38.05,0.0909247100353241,0.19467546045780182,0.04868323728442192,0.003726959228515625,0.06430977582931519,-0.053883038461208344
38.1,0.08901622891426086,0.07501696795225143,0.04554411396384239,-0.00037859193980693817,0.05200571566820145,-0.03489689528942108
38.15,0.053753651678562164,0.13007833063602448,0.020889408886432648,0.009458260610699654,0.054638709872961044,-0.03201780840754509
38.2,0.01481829583644867,0.19782163202762604,0.10047923028469086,0.019987182691693306,0.0440518893301487,-0.02165081538259983
38.25,0.019039684906601906,0.12746240198612213,0.03095557540655136,0.021945079788565636,0.05140848085284233,-0.024596836417913437
38.3,-0.07036466896533966,0.14725495874881744,0.007287190295755863,0.017757385969161987,0.06019701063632965,-0.030144697055220604
38.35,-0.009917447343468666,0.116273894906044,0.041687529534101486,0.009914717637002468,0.043024394661188126,-0.014901122078299522
38.4,0.006283491849899292,0.2050962597131729,0.07397086918354034,0.011084108613431454,0.0430622473359108,-0.018024267628788948
38.45,-0.0019441378535702825,0.15040399134159088,-0.0043234252370893955,0.01800314523279667,0.062066808342933655,-0.02402067929506302
38.5,0.07631294429302216,0.2761841118335724,-0.043058931827545166,0.02970692701637745,0.056167881935834885,-0.017799854278564453
38.55,0.16232697665691376,0.3081064224243164,0.08812812715768814,0.04597482457756996,0.03383836895227432,-0.007005474530160427
38.6,0.16440407931804657,0.19865798950195312,0.10727119445800781,0.05580576881766319,0.05026766285300255,-0.034900836646556854
38.65,0.10502614825963974,0.087189681828022,-0.0731692686676979,0.04894139990210533,0.07945392280817032,-0.062057044357061386
38.7,-0.00280406279489398,-0.12292005121707916,-0.015349311754107475,0.022779811173677444,0.07635417580604553,-0.05701978877186775
38.75,-0.013657599687576294,0.03311251476407051,0.15345388650894165,0.010050896555185318,0.06995577365159988,-0.051348406821489334
38.8,-0.0973224863409996,0.11629679054021835,0.05290902405977249,0.0024733543395996094,0.07981260120868683,-0.05308001860976219
38.85,-0.04524766281247139,0.15838244557380676,-0.04185868427157402,-0.003737248480319977,0.0792759582400322,-0.0686895027756691
38.9,0.06181872636079788,0.20676901936531067,-0.001112902769818902,0.0041038766503334045,0.07857881486415863,-0.08135944604873657
38.95,0.08429323136806488,0.1656627655029297,0.10930246859788895,-0.0015475116670131683,0.04876121133565903,-0.06972779333591461
39.0,0.04047207534313202,0.15572454035282135,-0.01775391958653927,0.005130026489496231,0.046797364950180054,-0.06519734114408493
39.05,0.060317765921354294,0.18719005584716797,0.14761605858802795,0.02145368605852127,0.03660810366272926,-0.041737303137779236
39.1,0.07184258103370667,0.18765832483768463,0.14697694778442383,0.026200054213404655,0.041727080941200256,-0.035008952021598816
39.15,0.09419220685958862,0.18825818598270416,0.07186848670244217,0.013280718587338924,0.03736768662929535,-0.004808098543435335
39.2,0.08163835108280182,0.28903961181640625,0.07638689130544662,0.012453015893697739,0.04343686252832413,0.006552858278155327
39.25,-0.024636218324303627,0.1614856868982315,0.06179480254650116,0.0002524126030039042,0.05616411566734314,-0.0006402091239579022
39.3,0.16117413341999054,0.1728639453649521,0.1011156365275383,-0.006009878125041723,0.055511604994535446,-0.005791467614471912
39.35,0.10743559896945953,0.21638108789920807,0.0871039628982544,-0.0013160912785679102,0.05165046453475952,0.006998683325946331
39.4,0.09214148670434952,0.22974874079227448,0.07870976626873016,0.0032625626772642136,0.05106237903237343,0.020122047513723373
39.45,0.033502861857414246,0.160554900765419,0.029958166182041168,0.005868210457265377,0.08379124104976654,-0.0023973656352609396
39.5,-0.18167929351329803,-1.144858479499817,-0.3410097658634186,-0.004787692800164223,0.18513798713684082,-0.04817650839686394
39.55,0.2921462953090668,0.14832976460456848,-0.45751723647117615,0.07136586308479309,0.2909177541732788,-0.024287493899464607
39.6,-0.6475971937179565,0.8110364079475403,-1.0048686265945435,0.12760740518569946,0.15199877321720123,0.008917579427361488
39.65,-1.544098973274231,0.8635058403015137,-2.429543972015381,-0.057307399809360504,-0.4187871813774109,0.1508503556251526
39.7,-2.282968759536743,0.9885345697402954,-2.8423922061920166,-0.08521711826324463,-1.4132661819458008,0.17657366394996643
39.75,-1.002077341079712,1.829577088356018,-2.966052532196045,0.2186225801706314,-2.156071186065674,0.09315847605466843
39.8,0.6110333800315857,1.302272081375122,-2.4087936878204346,0.6539345979690552,-2.549536943435669,0.06239406764507294
39.85,1.1840174198150635,1.2978307008743286,-1.5637826919555664,1.1717650890350342,-2.3864448070526123,-0.031044386327266693
39.9,1.7282723188400269,1.721664547920227,-0.27463144063949585,1.5617156028747559,-1.9871587753295898,-0.11806955933570862
39.95,1.5740728378295898,1.2956961393356323,0.3951651453971863,1.8281242847442627,-1.6050233840942383,-0.14650151133537292
40.0,0.5563256144523621,1.0275039672851562,0.6227129101753235,1.9256007671356201,-1.3804521560668945,-0.14927977323532104
40.05,0.1396700143814087,0.930787980556488,1.5753976106643677,1.6765155792236328,-1.238254427909851,-0.18469391763210297
40.1,-0.05018925666809082,0.6110066175460815,2.252525806427002,1.1699243783950806,-0.9989872574806213,-0.2123509794473648
40.15,-0.6927393674850464,0.07029896229505539,2.767672061920166,0.5927923917770386,-0.6450559496879578,-0.24478627741336823
40.2,-0.9839295148849487,-0.008260921575129032,3.07601261138916,-0.07698571681976318,-0.2333802431821823,-0.35673633217811584
40.25,-0.9429588317871094,-0.26583707332611084,4.416722297668457,-1.016258716583252,0.003319965675473213,-0.5648722648620605
40.3,0.43276166915893555,-0.4002547562122345,4.437991619110107,-2.0152275562286377,0.3083648681640625,-0.6924675703048706
40.35,0.7360299825668335,0.19481627643108368,2.9445319175720215,-2.6509270668029785,0.7327761054039001,-0.5620709657669067
40.4,0.8811693787574768,1.3412226438522339,1.94602632522583,-2.9289186000823975,1.1515774726867676,-0.4948103129863739
40.45,1.7915393114089966,0.5928401350975037,-0.473495751619339,-2.9245553016662598,1.3008990287780762,-0.425631582736969
40.5,1.326499104499817,0.08439360558986664,-2.367664337158203,-2.392665147781372,1.538413166999817,-0.3447706997394562
40.55,0.6206198930740356,-0.6281898617744446,-3.0650887489318848,-1.8966679573059082,1.574047327041626,-0.27538880705833435
40.6,-0.17203497886657715,-0.7474592328071594,-2.5289649963378906,-1.39332914352417,1.444909691810608,-0.298216849565506
40.65,-0.614162802696228,-1.233620524406433,-1.7237221002578735,-1.0318355560302734,1.2336304187774658,-0.355456680059433
40.7,-1.8222163915634155,-1.8668617010116577,-1.4825060367584229,-0.7615532875061035,0.7229716181755066,-0.30076664686203003
40.75,-0.595440149307251,-1.3114738464355469,-0.8110207319259644,-0.4790579676628113,0.21231846511363983,-0.30135825276374817
40.8,0.04658069834113121,-0.4635515809059143,-0.006929378025233746,-0.29040467739105225,0.11524240672588348,-0.3049190640449524
40.85,0.06707066297531128,-0.6203747391700745,0.0744856595993042,-0.23234474658966064,-0.04650568217039108,-0.21210213005542755
40.9,0.09913104772567749,-0.2976084053516388,-0.12233655154705048,-0.0968303233385086,-0.09964433312416077,-0.18190640211105347
40.95,-0.15792402625083923,-0.23006726801395416,0.030091432854533195,-0.07707924395799637,-0.07556939125061035,-0.07637909054756165
41.0,0.06160654127597809,-0.2765064537525177,0.07442470639944077,-0.13018588721752167,-0.1548629254102707,0.032787274569272995
41.05,0.031964436173439026,0.08108615130186081,0.146976500749588,-0.08765944838523865,-0.07704563438892365,-0.019625015556812286
41.1,0.15468667447566986,0.36165714263916016,0.05830710381269455,-0.0870850682258606,-0.014568130485713482,-0.029857847839593887
41.15,-0.021836116909980774,-0.09493635594844818,-0.2853772044181824,-0.07344922423362732,-0.0060958703979849815,-0.03847171366214752
41.2,-0.05801874399185181,-0.18627353012561798,-0.5077601671218872,-0.05898239463567734,-0.05376536399126053,0.019878828898072243
41.25,0.055711664259433746,0.30437761545181274,-0.26354750990867615,-0.03893512859940529,-0.08383485674858093,0.0853404551744461
41.3,0.31094804406166077,0.5186939239501953,0.2004171758890152,0.00890969205647707,0.004570289049297571,0.002923248102888465
41.35,-0.4659934639930725,-0.1163119524717331,-0.46475568413734436,0.052261363714933395,0.0305826123803854,-0.03307086229324341
41.4,0.1240120604634285,0.20114903151988983,-0.23377884924411774,0.07848972082138062,-0.05943412706255913,-0.04359045997262001
41.45,0.47327810525894165,0.4193219840526581,0.35370320081710815,0.07622314989566803,0.07024743407964706,-0.10436523705720901
41.5,-0.287032812833786,-0.26490113139152527,-0.3028820753097534,0.062267232686281204,0.05744105204939842,-0.06826291978359222
41.55,-0.04962344467639923,0.14386086165905,-0.309784859418869,0.08626311272382736,-0.09961359947919846,-0.04419514164328575
41.6,0.42896130681037903,0.5031766891479492,0.1475282907485962,0.0560796782374382,-0.0841754898428917,-0.049568887799978256
41.65,-0.02362055331468582,0.07352448999881744,-0.03842375800013542,0.08819263428449631,-0.03219849616289139,-0.08724755793809891
41.7,0.3112196624279022,0.2604541480541229,0.20173944532871246,0.1371617615222931,-0.01585150510072708,-0.15416918694972992
41.75,0.5105265378952026,-0.025117015466094017,0.44587641954421997,0.0469774566590786,0.023659927770495415,-0.09838815033435822
41.8,0.07466994225978851,-0.17727378010749817,0.013270825147628784,-0.00665673054754734,-0.10398247838020325,0.04065344110131264
41.85,0.11259504407644272,0.28579044342041016,0.06904908269643784,0.018718738108873367,-0.01364058069884777,0.038043901324272156
41.9,-0.0031936317682266235,0.1263875961303711,0.18527989089488983,-0.0008936254307627678,0.091420978307724,0.024178480729460716
41.95,-0.14182442426681519,-0.11957547068595886,-0.3192569613456726,0.03991719335317612,0.09207922965288162,-0.04161812365055084
42.0,-0.12370908260345459,0.1246519535779953,-0.19392570853233337,0.06995579600334167,0.05097576230764389,-0.029399970546364784
42.05,0.14252395927906036,0.1863221973180771,0.1567702740430832,0.03588709235191345,-0.02919170632958412,0.04920736327767372
42.1,0.04717337340116501,0.411685049533844,0.06670068204402924,0.05145572870969772,-0.0004715670656878501,-0.0007234980002976954
42.15,0.0030243322253227234,0.457404226064682,-0.2111581265926361,0.030457738786935806,-0.015563633292913437,-0.017070183530449867
42.2,-0.1318545937538147,0.4068690240383148,-0.19723941385746002,0.020083056762814522,-0.012373092584311962,-0.03180422633886337
42.25,-0.01635046675801277,0.3072538673877716,-0.029473355039954185,0.010112153366208076,0.017587538808584213,-0.07225978374481201
42.3,-0.0710231140255928,0.08074667304754257,-0.08510760962963104,0.005777955055236816,0.04687031731009483,-0.11558619886636734
42.35,-0.043877772986888885,0.10645391047000885,0.03115801140666008,-0.011997763067483902,0.01902199722826481,-0.08768237382173538
42.4,0.21197786927223206,0.17718790471553802,0.04678431153297424,-0.04517967253923416,-0.02075880579650402,-0.022547485306859016
42.45,0.08598639070987701,0.28307250142097473,0.05410250276327133,-0.0387730747461319,-0.0014802974183112383,-8.774382149567828e-05
42.5,0.0914715826511383,0.08302401751279831,0.06684913486242294,-0.04318637400865555,0.027386503294110298,-0.014716334640979767
42.55,0.07951384037733078,0.1658620983362198,-0.03765054792165756,-0.027763336896896362,0.0512470118701458,-0.011234300211071968
42.6,0.004002146422863007,0.24041560292243958,-0.04073990508913994,-0.03726493939757347,0.03087138757109642,0.02669365704059601
42.65,0.06913135200738907,0.1963196098804474,0.006704887840896845,-0.0517684705555439,0.027431610971689224,0.04541664570569992
42.7,-0.005550645291805267,0.2349729835987091,0.04873717576265335,-0.028570881113409996,0.04947173595428467,0.017526932060718536
42.75,0.013370166532695293,0.15067769587039948,-0.03880836442112923,-0.021921679377555847,0.028748227283358574,-0.009221146814525127
42.8,0.04949336498975754,0.09471895545721054,-0.14595739543437958,-0.022291630506515503,0.010325453244149685,-0.020997993648052216
42.85,-0.04010685905814171,0.04663373529911041,-0.08863808959722519,-0.0048668039962649345,-0.003172370372340083,-0.008311597630381584
42.9,-0.02528739906847477,0.055079467594623566,0.012660368345677853,0.01912831887602806,-0.01181146688759327,-0.004663707688450813
42.95,-0.16838863492012024,-0.07785318791866302,-0.10003729909658432,0.04869234561920166,-0.04782722517848015,0.023594725877046585
43.0,-0.1370944082736969,-0.05439566448330879,-0.0588616207242012,0.054213669151067734,-0.08687251806259155,0.055634621530771255
43.05,0.10703428089618683,0.27614691853523254,-0.008198942989110947,0.05612095072865486,-0.15307125449180603,0.059372030198574066
43.1,0.1498338282108307,0.5917311310768127,0.07707341760396957,0.07759140431880951,-0.08891773968935013,0.00791147630661726
43.15,0.07717476785182953,0.32618144154548645,-0.012577549554407597,0.017869628965854645,-0.08207593113183975,0.021248048171401024
43.2,0.11243944615125656,-0.04178046062588692,-0.2644121050834656,-0.011257972568273544,-0.15160630643367767,0.038261834532022476
43.25,0.2127910554409027,0.36103156208992004,-0.2181359976530075,0.03097563423216343,-0.09137171506881714,0.034828368574380875
43.3,0.05979407578706741,0.7367306351661682,0.20243658125400543,-0.04216255247592926,-0.0382915735244751,0.09030354022979736
43.35,-0.2204262912273407,0.005474129691720009,-0.18607740104198456,-0.09557681530714035,-0.08248911798000336,0.06752031296491623
43.4,-0.18658208847045898,0.3000688850879669,0.14764437079429626,0.03269610181450844,-0.10267951339483261,-0.11352571845054626
43.45,-0.26552140712738037,0.9902812242507935,0.4901876449584961,0.060027025640010834,-0.07838259637355804,-0.30633530020713806
43.5,0.328874409198761,0.04554266482591629,0.26587745547294617,-0.03143338859081268,-0.20052814483642578,-0.3937510848045349
43.55,0.6959450244903564,-0.9486867785453796,-0.09489376097917557,0.050583697855472565,-0.2798686623573303,-0.27471843361854553
43.6,0.24453255534172058,-0.24571140110492706,0.15463018417358398,0.21278142929077148,-0.05948776751756668,-0.15357144176959991
43.65,-0.01076100766658783,-0.281462699174881,0.15877653658390045,0.10738204419612885,-0.02458138018846512,0.021538671106100082
43.7,0.2999812960624695,0.025913210585713387,0.036411020904779434,0.16384445130825043,-0.046866100281476974,0.07381866872310638
43.75,0.13580939173698425,1.0494270324707031,0.649118959903717,0.2743620276451111,0.18734480440616608,-0.02022085152566433
43.8,-0.2028823345899582,-0.20369338989257812,-0.16385939717292786,0.14177675545215607,0.2120143622159958,-0.029291978105902672
43.85,-0.2172485888004303,-0.2593640685081482,-0.8802719712257385,0.09954468905925751,-0.09809470176696777,0.06301745027303696
43.9,0.27643299102783203,1.2605791091918945,0.49487417936325073,0.057011593133211136,-0.052304383367300034,0.15763315558433533
43.95,0.5229036211967468,0.9012689590454102,0.540855348110199,-0.03673263266682625,0.120640829205513,0.035750970244407654
44.0,-0.544562816619873,-0.838160514831543,-0.9704601168632507,-0.006102642044425011,0.06035003066062927,-0.06118130683898926
44.05,-0.1292632818222046,-0.06739895045757294,-0.7368832230567932,0.07004538923501968,-0.21882827579975128,0.07960950583219528
44.1,0.2423364818096161,1.3396081924438477,0.8412865400314331,0.019913993775844574,-0.15564684569835663,0.17762690782546997
44.15,0.6121914982795715,0.42427724599838257,0.6327478885650635,0.007016964256763458,0.026551632210612297,0.004786002449691296
44.2,-0.523224949836731,-1.176884651184082,-0.9687814712524414,0.11449520289897919,0.038953255861997604,-0.09835661947727203
44.25,-0.0752200186252594,-0.13437838852405548,-0.5793120861053467,0.14078709483146667,-0.18189460039138794,0.07196763902902603
44.3,0.36051252484321594,1.1057367324829102,0.8076906800270081,0.01749414950609207,-0.1740400195121765,0.15842202305793762
44.35,0.394817978143692,0.7385129332542419,0.6102802753448486,-0.009707574732601643,-0.029538026079535484,0.03517712652683258
44.4,-0.20464971661567688,-0.07851595431566238,-0.45421698689460754,0.00713134091347456,0.004403512459248304,-0.03817090392112732
44.45,-0.0994655191898346,-0.12044616788625717,-0.4842369258403778,0.019282640889286995,-0.10357579588890076,0.019750798121094704
44.5,0.3341831564903259,0.4735136330127716,0.10670948028564453,0.0066217295825481415,-0.15575045347213745,0.10311626642942429
44.55,0.09372509270906448,0.6226663589477539,0.2587163746356964,-0.00041591376066207886,-0.1134728193283081,0.0694940984249115
44.6,-0.0579313263297081,0.43656450510025024,-0.05145937204360962,-0.01905335858464241,-0.03800654783844948,0.0031133084557950497
44.65,-0.26209568977355957,0.04952721670269966,-0.15280906856060028,-0.024476194754242897,-0.003431718097999692,-0.032033175230026245
44.7,-0.02675800770521164,-0.0988922119140625,-0.11041565239429474,-0.005845904350280762,0.011804339475929737,-0.034187257289886475
44.75,-0.08450561761856079,0.02320578321814537,-0.17270034551620483,-0.014203342609107494,-0.07333862036466599,0.014912993647158146
44.8,0.09173139184713364,0.1506624072790146,0.19157613813877106,-0.036727018654346466,-0.16515737771987915,0.04570326954126358
44.85,0.24937835335731506,0.19932840764522552,0.27200376987457275,-0.015553719364106655,-0.15558482706546783,0.026306262239813805
44.9,0.12148193269968033,0.19700336456298828,0.13651546835899353,0.021611973643302917,-0.08700314909219742,-0.0027591115795075893
44.95,0.058953750878572464,0.09987831115722656,0.07554122060537338,0.008279750123620033,-0.06737973541021347,0.02019885554909706
45.0,0.012123160064220428,0.02164936251938343,-0.020859185606241226,-0.016090111806988716,-0.0717877596616745,0.05899640545248985
45.05,0.2727695107460022,0.1811361014842987,0.12735357880592346,-0.003597620874643326,-0.06810243427753448,0.0747772604227066
45.1,0.1743071973323822,0.4997720718383789,0.30625006556510925,0.042790137231349945,-0.004766068421304226,0.05836933106184006
45.15,0.16508162021636963,0.5702086091041565,0.140973299741745,0.0016090944409370422,0.018832281231880188,0.037778232246637344
45.2,-0.25857603549957275,-0.04559415206313133,-0.4539555311203003,-0.06216639280319214,-0.056765735149383545,0.02360895462334156
45.25,-0.12668707966804504,-0.2049550861120224,-0.2761598527431488,-0.016301091760396957,-0.12020568549633026,0.04155409336090088
45.3,0.023868385702371597,0.29073813557624817,0.07328144460916519,0.021695835515856743,-0.08005341142416,0.07132386416196823
45.35,-0.05689416825771332,0.2930803596973419,0.19851310551166534,-0.014198288321495056,-0.07998688519001007,0.06739236414432526
45.4,-0.2501038908958435,0.013631870970129967,-0.26196202635765076,-0.055440086871385574,-0.18114736676216125,0.08186198770999908
45.45,0.038788534700870514,0.004837048705667257,-0.16660788655281067,-0.022686604410409927,-0.23483681678771973,0.08707727491855621
45.5,-0.03455774486064911,0.3453054428100586,0.37743327021598816,0.009617134928703308,-0.15547148883342743,0.07422559708356857
45.55,0.04148652404546738,0.17333506047725677,0.265850692987442,-0.01322786696255207,-0.12574197351932526,0.04829813539981842
45.6,0.06210921332240105,-0.14768697321414948,-0.048250213265419006,-0.00733310729265213,-0.16499051451683044,0.055015452206134796
45.65,0.10655736178159714,0.0295247919857502,0.051008421927690506,0.006001077592372894,-0.16829736530780792,0.1058679148554802
45.7,0.11572786420583725,0.20538806915283203,0.274233341217041,0.011320196092128754,-0.15197815001010895,0.14029933512210846
45.75,0.06684277206659317,0.35851001739501953,0.22503575682640076,0.020213179290294647,-0.12423422932624817,0.11675041913986206
45.8,-0.021797817200422287,0.32284262776374817,0.12297296524047852,0.026948967948555946,-0.10065524280071259,0.07938729226589203
45.85,0.11407388001680374,0.23575878143310547,0.16137489676475525,0.01877927966415882,-0.0757688507437706,0.051328882575035095
45.9,0.08475376665592194,0.28289318084716797,0.1631195843219757,0.02541862428188324,-0.04477158561348915,0.035836610943078995
45.95,0.14198672771453857,0.30115699768066406,0.13610512018203735,0.02173353172838688,-0.036258138716220856,0.030242057517170906
46.0,0.15018489956855774,0.28733062744140625,0.10729991644620895,0.02121252752840519,-0.025182347744703293,0.015604659914970398
46.05,0.06791284680366516,0.2764291763305664,0.11714330315589905,0.020562712103128433,-0.007874060422182083,0.00923394039273262
46.1,0.08788890391588211,0.2610445022583008,0.13101822137832642,0.01867028884589672,0.022559579461812973,0.007735112681984901
46.15,0.02603132277727127,0.219606414437294,0.12003418803215027,0.018608156591653824,0.04818113520741463,0.007363853044807911
46.2,-0.009594198316335678,0.19603446125984192,0.03410972282290459,0.0034899874590337276,0.05066873878240585,0.008072135038673878
46.25,0.030718419700860977,0.2644357979297638,0.017775826156139374,-0.003863171674311161,0.051136959344148636,0.006032904610037804
46.3,0.004415694624185562,0.1518249809741974,-0.12009800970554352,-0.01528099924325943,0.03261831775307655,0.009094206616282463
46.35,-0.29162633419036865,-0.1871909350156784,-0.6813101768493652,-0.06214781478047371,-0.0930132195353508,0.08756905794143677
46.4,-0.0880066454410553,0.1756659299135208,-0.47661861777305603,-0.22071003913879395,-0.38432517647743225,0.2620609700679779
46.45,0.3239614963531494,1.027512550354004,0.7905498743057251,-0.4618380665779114,-0.4925065338611603,0.40140894055366516
46.5,0.3917153477668762,1.210031509399414,1.351589322090149,-0.541849672794342,-0.2910298705101013,0.27916473150253296
46.55,0.35221990942955017,0.8393908143043518,0.5136159062385559,-0.5578723549842834,-0.014251390472054482,0.01710897497832775
46.6,0.06598640233278275,0.20141412317752838,0.020124083384871483,-0.6178306937217712,0.07794643938541412,-0.054080117493867874
46.65,0.2850028872489929,0.13230609893798828,-0.14492908120155334,-0.6463582515716553,0.06587009131908417,-0.027920445427298546
46.7,0.04653838276863098,0.3067198395729065,-0.21532855927944183,-0.5100391507148743,0.19156414270401,-0.08283672481775284
46.75,-0.040482982993125916,-0.10376831144094467,-0.49483466148376465,-0.33575403690338135,0.30466923117637634,-0.2211042046546936
46.8,-0.1329840123653412,0.05646618828177452,-0.6879525184631348,-0.1839168816804886,0.33300071954727173,-0.2818751037120819
46.85,-0.15226611495018005,0.1018286719918251,-0.7462500333786011,-0.16187089681625366,0.2307761162519455,-0.25512248277664185
46.9,0.09540814161300659,0.21096999943256378,-0.6506397128105164,-0.1412019282579422,0.11707428097724915,-0.22734878957271576
46.95,-0.005161702632904053,0.1624031811952591,-0.5835095643997192,-0.10019367188215256,0.0852183848619461,-0.2278241068124771
47.0,-0.2162780463695526,0.14466769993305206,-0.4681256413459778,-0.15029367804527283,-0.0005718118045479059,-0.18202327191829681
47.05,-0.11665328592061996,0.3290768265724182,-0.34553542733192444,-0.2062956988811493,-0.09151391685009003,-0.1590903103351593
47.1,0.08988393098115921,0.41196733713150024,-0.16252978146076202,-0.25864526629447937,-0.13592317700386047,-0.1716461181640625
47.15,0.050372663885354996,0.44604402780532837,0.10349547863006592,-0.29253020882606506,-0.13473327457904816,-0.21525277197360992
47.2,0.2791643440723419,0.0968303382396698,0.23087692260742188,-0.28949958086013794,-0.11393708735704422,-0.3091295659542084
