Time [s],Acc_x [m/s^2],Acc_y [m/s^2],Acc_z [m/s^2],Gyro_x [1/s],Gyro_y [1/s],Gyro_z [1/s]
0.0,0.16442973911762238,0.12509441375732422,-0.15343444049358368,-0.17716528475284576,-0.05401981994509697,-0.03260963037610054
0.025,0.11012369394302368,0.2137327492237091,-0.020938042551279068,-0.1969635933637619,-0.11715313047170639,-0.10596201568841934
0.05,-0.0017176360124722123,0.3704366981983185,0.10299496352672577,-0.19875004887580872,-0.16314935684204102,-0.13693754374980927
0.075,-0.13645823299884796,0.5784445405006409,0.13294287025928497,-0.18893684446811676,-0.18770422041416168,-0.14108145236968994
0.1,-0.25714534521102905,0.7387486100196838,0.08939015865325928,-0.17363271117210388,-0.18438124656677246,-0.1356581747531891
0.125,-0.3359783887863159,0.778173565864563,-0.041838422417640686,-0.13925066590309143,-0.14858709275722504,-0.10546741634607315
0.15,-0.34363195300102234,0.7247610688209534,-0.24417829513549805,-0.08011079579591751,-0.09166768193244934,-0.0611732192337513
0.175,-0.29432401061058044,0.6251344680786133,-0.40406501293182373,-0.026408430188894272,-0.039069849997758865,-0.0467127300798893
0.2,-0.21096409857273102,0.4989795684814453,-0.4337625205516815,0.000834680802654475,0.003735445672646165,-0.06081024184823036
0.225,-0.1253241002559662,0.3488578498363495,-0.39019712805747986,0.013829031959176064,0.0344204418361187,-0.05940764397382736
0.25,-0.079210065305233,0.20658205449581146,-0.3925308287143707,0.02765464410185814,0.05724421888589859,-0.03641313686966896
0.275,-0.07197215408086777,0.0859794169664383,-0.4567801356315613,0.024965357035398483,0.0679175928235054,-0.02509104460477829
0.3,-0.08141328394412994,-0.034146372228860855,-0.4998687207698822,0.006526469253003597,0.06823773682117462,-0.02649218775331974
0.325,-0.10148277133703232,-0.13874538242816925,-0.4378645122051239,-0.02128881774842739,0.06434289366006851,-0.03437952324748039
0.35,-0.11724237352609634,-0.195712149143219,-0.290454626083374,-0.0745011419057846,0.04610750451683998,-0.05728646740317345
0.375,-0.12703339755535126,-0.2269945591688156,-0.13654862344264984,-0.1333899050951004,0.02520347572863102,-0.0882057473063469
0.4,-0.08226847648620605,-0.258849173784256,-0.041035931557416916,-0.17672735452651978,0.03386847302317619,-0.09327305853366852
0.425,0.009434702806174755,-0.26171019673347473,-0.03056088648736477,-0.1865677833557129,0.06786198914051056,-0.06931932270526886
0.45,0.04779434576630592,-0.20458415150642395,-0.03809201344847679,-0.16162994503974915,0.09578804671764374,-0.041199129074811935
0.475,-0.0008805980323813856,-0.112794890999794,-0.011131911538541317,-0.14347831904888153,0.09841159731149673,-0.017766224220395088
0.5,-0.1478182077407837,-0.06037426367402077,0.027723832055926323,-0.12825264036655426,0.06540513783693314,-0.010862386785447598
0.525,-0.33465683460235596,-0.04072856903076172,0.029980404302477837,-0.10310327261686325,0.02022940292954445,-0.016719676554203033
0.55,-0.48902809619903564,-0.0317535400390625,0.01880989968776703,-0.10034317523241043,0.003168240888044238,-0.021057289093732834
0.575,-0.6173489093780518,-0.06785107403993607,-0.00471243541687727,-0.13214941322803497,0.062066636979579926,-0.0022241331171244383
0.6,-0.6988438367843628,-0.1354093849658966,-0.10688108205795288,-0.14553536474704742,0.21565364301204681,0.08581671863794327
0.625,-0.7336158752441406,-0.2218189835548401,-0.20814219117164612,-0.07849635928869247,0.39067813754081726,0.21511948108673096
0.65,-0.738411545753479,-0.3696356415748596,-0.16352379322052002,0.03601546958088875,0.49678874015808105,0.2936064600944519
0.675,-0.7098986506462097,-0.6195583939552307,0.004481954965740442,0.11863203346729279,0.5278414487838745,0.2747797667980194
0.7,-0.6772632598876953,-0.9881316423416138,0.1667720228433609,0.17283113300800323,0.5348183512687683,0.19560296833515167
0.725,-0.6810259222984314,-1.4300967454910278,0.22758932411670685,0.2377474159002304,0.5710660219192505,0.15076880156993866
0.75,-0.7002232670783997,-1.7756454944610596,0.14808453619480133,0.3049856722354889,0.6316843628883362,0.17258602380752563
0.775,-0.7110390067100525,-1.901545763015747,-0.05149677395820618,0.3878331184387207,0.6757641434669495,0.20084607601165771
0.8,-0.592997133731842,-1.714386224746704,-0.1669350564479828,0.48777279257774353,0.6985382437705994,0.2200409173965454
0.825,-0.1155538484454155,-1.1283780336380005,-0.05498505011200905,0.5147309303283691,0.7215190529823303,0.24114014208316803
0.85,0.6405007839202881,-0.32950305938720703,0.14472821354866028,0.45016708970069885,0.7599055767059326,0.24318884313106537
0.875,1.1988112926483154,0.15316489338874817,0.17933042347431183,0.40332892537117004,0.7902430891990662,0.2567126750946045
0.9,1.1706568002700806,0.09858609735965729,-0.005769914016127586,0.5516568422317505,0.7043432593345642,0.28465670347213745
0.925,0.7451030015945435,-0.23426155745983124,-0.12001148611307144,0.8422137498855591,0.45681631565093994,0.1893676370382309
0.95,0.39167332649230957,-0.7304239869117737,0.09508610516786575,1.0433508157730103,0.09670831263065338,-0.13564282655715942
0.975,0.23469766974449158,-1.3626996278762817,0.48909008502960205,1.1314735412597656,-0.2364005744457245,-0.5445106029510498
1.0,0.10219719260931015,-1.9166995286941528,0.8047663569450378,1.2335518598556519,-0.3988426923751831,-0.7641552090644836
1.025,-0.06546786427497864,-2.2316038608551025,0.9842008948326111,1.4162949323654175,-0.4366587698459625,-0.7352591753005981
1.05,-0.22503039240837097,-2.235212564468384,0.972771942615509,1.662539005279541,-0.4221901297569275,-0.5533255338668823
1.075,-0.27259379625320435,-1.8287383317947388,0.8032717108726501,1.8620859384536743,-0.3791719377040863,-0.3097641170024872
1.1,-0.14677157998085022,-1.0472431182861328,0.6137775778770447,1.8913147449493408,-0.3469645082950592,-0.15291129052639008
1.125,0.05022898688912392,-0.06722255796194077,0.36412355303764343,1.7731300592422485,-0.309014230966568,-0.13483722507953644
1.15,0.16941966116428375,0.7857085466384888,0.011414354667067528,1.6178535223007202,-0.2598639726638794,-0.14351844787597656
1.175,0.12308835238218307,0.9579430818557739,-0.22419272363185883,1.511087417602539,-0.251319020986557,-0.09322556108236313
1.2,-0.015761135146021843,0.8210392594337463,-0.36748456954956055,1.4483072757720947,-0.26921024918556213,0.07598479092121124
1.225,-0.14201082289218903,0.9940672516822815,-0.5908178687095642,1.4031565189361572,-0.30132269859313965,0.3142942190170288
1.25,-0.21774600446224213,1.3391008377075195,-0.8266401886940002,1.351993203163147,-0.34264975786209106,0.5275331735610962
1.275,-0.16720418632030487,1.7154790163040161,-0.9290096163749695,1.2609565258026123,-0.3423191010951996,0.7235437035560608
1.3,-0.027711553499102592,2.0694706439971924,-0.8823022842407227,1.0816867351531982,-0.27530109882354736,0.7969585657119751
1.325,0.08110112696886063,2.2079927921295166,-0.7684638500213623,0.8359039425849915,-0.1806229054927826,0.6632367372512817
1.35,0.1439111828804016,2.084918260574341,-0.6246200799942017,0.6277994513511658,-0.12098369747400284,0.44104504585266113
1.375,0.1730676144361496,1.9023230075836182,-0.45699170231819153,0.4550311863422394,-0.10572533309459686,0.2733575701713562
1.4,0.13661983609199524,1.8369877338409424,-0.3896949589252472,0.28951936960220337,-0.10427974909543991,0.2263392210006714
1.425,0.04431966692209244,1.8385603427886963,-0.43849775195121765,0.1582414209842682,-0.0881519541144371,0.24013276398181915
1.45,-0.027404984459280968,1.7051975727081299,-0.45023706555366516,0.0582069531083107,-0.06293510645627975,0.21086589992046356
1.475,-0.07148285955190659,1.4297772645950317,-0.41835129261016846,-0.028489500284194946,-0.0382266566157341,0.12184829264879227
1.5,-0.09561725705862045,1.137905240058899,-0.4390984773635864,-0.09696578234434128,-0.0018135379068553448,0.021591562777757645
1.525,-0.06539436429738998,0.8451986908912659,-0.4655686914920807,-0.14975038170814514,0.03185179457068443,-0.053492192178964615
1.55,-0.005039652343839407,0.6298179626464844,-0.45146462321281433,-0.1932951658964157,0.04838942736387253,-0.07703371345996857
1.575,0.01595858298242092,0.5862255096435547,-0.4144379496574402,-0.2263321429491043,0.05671798065304756,-0.05626469478011131
1.6,0.029589204117655754,0.6425867080688477,-0.3157673180103302,-0.2653559744358063,0.061873190104961395,-0.03706708922982216
1.625,0.07128908485174179,0.7460708618164062,-0.25073397159576416,-0.32709646224975586,0.08503407984972,-0.05054839327931404
1.65,0.09228471666574478,0.9164534211158752,-0.40828996896743774,-0.4010758101940155,0.15554392337799072,-0.09268256276845932
1.675,0.0632522702217102,1.0983495712280273,-0.7039335370063782,-0.466732919216156,0.22594602406024933,-0.13856938481330872
1.7,0.032093364745378494,1.3275861740112305,-0.8927984833717346,-0.5162866711616516,0.2295183688402176,-0.11644270271062851
1.725,0.06595714390277863,1.7262574434280396,-0.8849564790725708,-0.577098548412323,0.1982075423002243,-0.003639546688646078
1.75,0.14129312336444855,2.20939564704895,-0.8282237648963928,-0.6679000854492188,0.17130498588085175,0.0967487096786499
1.775,0.17559321224689484,2.45693039894104,-0.9086217880249023,-0.7653444409370422,0.14233613014221191,0.046393439173698425
1.8,0.11570654064416885,2.3160476684570312,-1.1394070386886597,-0.852249801158905,0.09651592373847961,-0.10315348207950592
1.825,-0.03998958319425583,1.9323903322219849,-1.440832495689392,-0.9394811987876892,0.035102326422929764,-0.23721404373645782
1.85,-0.22024163603782654,1.452701449394226,-1.6687103509902954,-1.0344418287277222,-0.03208496794104576,-0.29908519983291626
1.875,-0.3241208493709564,0.9576320052146912,-1.677153468132019,-1.1334033012390137,-0.10072150081396103,-0.28627657890319824
1.9,-0.4051000773906708,0.4590061902999878,-1.5688775777816772,-1.2399728298187256,-0.1379760056734085,-0.27404308319091797
1.925,-0.5980386137962341,-0.1548149138689041,-1.5520191192626953,-1.3499512672424316,-0.12701842188835144,-0.29780125617980957
1.95,-0.86457359790802,-0.8279240727424622,-1.6122454404830933,-1.4392032623291016,-0.09249959886074066,-0.3066295385360718
1.975,-1.0456159114837646,-1.3154834508895874,-1.6226778030395508,-1.5144065618515015,-0.035202931612730026,-0.24762962758541107
2.0,-1.0884478092193604,-1.57883882522583,-1.572134017944336,-1.6028759479522705,0.04543444514274597,-0.14384183287620544
2.025,-1.0703009366989136,-1.7700961828231812,-1.4404476881027222,-1.6899985074996948,0.11905752867460251,-0.03817756846547127
2.05,-1.02940833568573,-1.8642066717147827,-1.2099087238311768,-1.768064022064209,0.15833422541618347,0.06159352511167526
2.075,-0.9023297429084778,-1.7212098836898804,-0.942213773727417,-1.8338937759399414,0.1678876280784607,0.1291942149400711
2.1,-0.5453384518623352,-1.297378659248352,-0.4988960325717926,-1.9084055423736572,0.1916600614786148,0.18562301993370056
2.125,0.14948934316635132,-0.39690306782722473,0.21649253368377686,-2.065709352493286,0.25520482659339905,0.33280685544013977
2.15,0.8949142098426819,1.0362741947174072,0.8127323389053345,-2.2532641887664795,0.32398560643196106,0.5297000408172607
2.175,1.208979845046997,2.3573458194732666,0.8635849952697754,-2.3236896991729736,0.320173978805542,0.5618123412132263
2.2,1.1113625764846802,2.848856210708618,0.5118234157562256,-2.2642385959625244,0.18816976249217987,0.37509405612945557
2.225,0.9167927503585815,2.4354946613311768,0.19240939617156982,-2.2154293060302734,-0.031919028609991074,0.0710218995809555
2.25,0.7488835453987122,1.4914675951004028,0.20988550782203674,-2.1980745792388916,-0.299661248922348,-0.245921328663826
2.275,0.6251564621925354,0.48376479744911194,0.6548822522163391,-2.0731544494628906,-0.589957594871521,-0.4950527548789978
2.3,0.6947877407073975,-0.2769201993942261,1.3352571725845337,-1.8570027351379395,-0.7774156332015991,-0.632993221282959
2.325,1.0217692852020264,-0.6933887600898743,1.8775088787078857,-1.637923240661621,-0.7379158735275269,-0.6001490354537964
2.35,1.3619111776351929,-0.7975167036056519,1.9558302164077759,-1.3964431285858154,-0.5702375173568726,-0.4443897604942322
2.375,1.5228744745254517,-0.8167933821678162,1.570939540863037,-1.1774823665618896,-0.4920428395271301,-0.3414182662963867
2.4,1.5402040481567383,-1.0228748321533203,1.077396273612976,-1.0445644855499268,-0.5746147036552429,-0.3411344289779663
2.425,1.4998929500579834,-1.362645149230957,0.6384944915771484,-0.9598245620727539,-0.6932976245880127,-0.3272380828857422
2.45,1.4657394886016846,-1.5913364887237549,0.047638606280088425,-0.9228190183639526,-0.7529473304748535,-0.24541346728801727
2.475,1.4648432731628418,-1.7380183935165405,-0.662636399269104,-0.9537181854248047,-0.8521467447280884,-0.18357017636299133
2.5,1.5707589387893677,-1.9651464223861694,-1.1319633722305298,-1.0067417621612549,-1.0336235761642456,-0.17455540597438812
2.525,1.8116611242294312,-2.1865921020507812,-1.2320256233215332,-1.0830168724060059,-1.2204972505569458,-0.19433711469173431
2.55,2.1352646350860596,-2.29486083984375,-1.111681342124939,-1.1768028736114502,-1.3987400531768799,-0.2549450993537903
2.575,2.505035877227783,-2.298767328262329,-0.8552402853965759,-1.220221996307373,-1.5889370441436768,-0.3291164040565491
2.6,2.830880641937256,-2.1544954776763916,-0.43288344144821167,-1.2040328979492188,-1.7884308099746704,-0.3756708800792694
2.625,3.0532023906707764,-1.833484411239624,0.07070154696702957,-1.202510118484497,-1.9561994075775146,-0.4075292944908142
2.65,3.0990848541259766,-1.4097490310668945,0.5651125311851501,-1.1742641925811768,-2.1397359371185303,-0.43284785747528076
2.675,2.8462653160095215,-0.9628791809082031,1.1233576536178589,-1.0660955905914307,-2.362866163253784,-0.4289633333683014
2.7,2.2278339862823486,-0.5715139508247375,1.8181260824203491,-0.918490469455719,-2.570190668106079,-0.41787219047546387
2.725,1.2960273027420044,-0.39202189445495605,2.4940097332000732,-0.7243223786354065,-2.6785030364990234,-0.3901420831680298
2.75,0.2565511465072632,-0.4777362048625946,2.840977907180786,-0.4999045729637146,-2.558135509490967,-0.2721148729324341
2.775,-0.6817630529403687,-0.6692587733268738,2.756530523300171,-0.2593064308166504,-2.2346279621124268,-0.05038204789161682
2.8,-1.350855827331543,-0.8202579617500305,2.441484212875366,0.011589184403419495,-1.826361060142517,0.17150959372520447
2.825,-1.75010347366333,-0.7177875638008118,2.242539882659912,0.27858737111091614,-1.3703746795654297,0.2821381390094757
2.85,-2.2068095207214355,0.07973889261484146,2.2620792388916016,0.4675370752811432,-0.871188759803772,0.2707973122596741
2.875,-2.7855281829833984,1.623466968536377,1.9860737323760986,0.5220146775245667,-0.35723406076431274,0.19008299708366394
2.9,-3.1854379177093506,2.9875433444976807,0.937999427318573,0.44283080101013184,-0.09440107643604279,0.06661549210548401
2.925,-3.323065996170044,3.2646536827087402,-0.3359379172325134,0.3433513045310974,-0.2141420692205429,0.0965290293097496
2.95,-3.3466224670410156,2.6213200092315674,-0.9094690084457397,0.3328584134578705,-0.3578829765319824,0.2689301371574402
2.975,-3.2883706092834473,1.6644842624664307,-0.4897584021091461,0.3387897312641144,-0.2457914501428604,0.2597745954990387
3.0,-3.0235869884490967,0.7013112306594849,0.5876015424728394,0.3539702594280243,0.06736862659454346,0.1930006891489029
3.025,-2.082197666168213,0.4120781123638153,1.167545199394226,0.2892859876155853,0.43537238240242004,0.1901247650384903
3.05,-0.48429399728775024,1.3628065586090088,0.5636945366859436,0.11180389672517776,0.689005970954895,0.11270596832036972
3.075,0.7967586517333984,2.6598284244537354,-0.21024370193481445,-0.0829397514462471,0.31285756826400757,-0.2556717097759247
3.1,1.0891730785369873,2.835131883621216,-0.2568499743938446,-0.24656131863594055,-0.6703234314918518,-0.797785222530365
3.125,0.4777395725250244,1.6502621173858643,0.022185565903782845,-0.34475716948509216,-1.463985562324524,-1.0045932531356812
3.15,-0.39984750747680664,0.07807447761297226,0.09486506879329681,-0.43855392932891846,-1.6702741384506226,-0.8497840762138367
3.175,-0.9934670925140381,-1.141013264656067,0.04263855889439583,-0.4741704761981964,-1.4262102842330933,-0.5925253033638
3.2,-1.2543087005615234,-1.9760921001434326,0.19044701755046844,-0.40636688470840454,-1.0999250411987305,-0.3451008200645447
3.225,-1.5025166273117065,-2.6032631397247314,0.6818317174911499,-0.2604668438434601,-0.9394816756248474,-0.12306706607341766
3.25,-1.93791663646698,-2.94179630279541,1.3143596649169922,-0.10458891093730927,-0.8872987627983093,0.03370631858706474
3.275,-2.480485200881958,-2.8411431312561035,1.7975798845291138,0.01054768729954958,-0.7965480089187622,0.12093523889780045
3.3,-3.0303454399108887,-2.373722553253174,2.0803301334381104,0.0679929107427597,-0.6482734084129333,0.18115343153476715
3.325,-3.431349992752075,-1.674698829650879,2.263176441192627,0.010199303738772869,-0.41161203384399414,0.21881143748760223
3.35,-3.378333330154419,-0.7550171613693237,2.2210488319396973,-0.2415931075811386,-0.059839893132448196,0.22720129787921906
3.375,-2.805154323577881,0.18150733411312103,1.7292847633361816,-0.5882386565208435,0.29970839619636536,0.22822290658950806
3.4,-1.9864953756332397,0.6908361315727234,0.8149993419647217,-0.8443450331687927,0.6432799696922302,0.29597947001457214
3.425,-1.0964505672454834,0.8027907013893127,-0.3052075207233429,-0.9929662346839905,1.0275682210922241,0.48686760663986206
3.45,-0.23277604579925537,0.869935929775238,-1.3828108310699463,-1.0647780895233154,1.293092966079712,0.6462265253067017
3.475,0.26324647665023804,0.8686217069625854,-2.005600929260254,-0.9897672533988953,1.251797080039978,0.6611359119415283
3.5,0.22915498912334442,0.7757681608200073,-1.8292049169540405,-0.7756077647209167,1.028091549873352,0.5550123453140259
3.525,0.07582663744688034,0.7582473754882812,-1.2450398206710815,-0.5728949308395386,0.8768481612205505,0.34330394864082336
3.55,0.020274952054023743,0.8124933242797852,-0.8574357032775879,-0.4352211058139801,0.7946310639381409,0.20595546066761017
3.575,-0.09108512848615646,0.8079748153686523,-0.7966282367706299,-0.33021634817123413,0.6864278316497803,0.12384701520204544
3.6,-0.11865106970071793,0.6610049605369568,-0.9765797257423401,-0.2615463137626648,0.533859133720398,-0.03864612430334091
3.625,0.09590647369623184,0.3657340109348297,-1.0954535007476807,-0.18561792373657227,0.27032336592674255,-0.2357165664434433
3.65,0.27784258127212524,0.03720751032233238,-0.7978606224060059,-0.0868067517876625,-0.11414528638124466,-0.41610005497932434
3.675,0.1557988077402115,-0.09115126729011536,-0.19148042798042297,-0.00912313349545002,-0.38632020354270935,-0.48545825481414795
3.7,-0.08033707737922668,0.1440792679786682,0.34514230489730835,0.05294087529182434,-0.35799726843833923,-0.40845856070518494
3.725,-0.19607895612716675,0.6032496690750122,0.7065274715423584,0.10659366101026535,-0.22021779417991638,-0.3030860722064972
3.75,-0.22218534350395203,0.8844587802886963,1.0101940631866455,0.15647606551647186,-0.18295520544052124,-0.24279458820819855
3.775,-0.12981508672237396,0.6998149752616882,1.2255322933197021,0.22199881076812744,-0.13518884778022766,-0.17642636597156525
3.8,0.31484779715538025,0.23908822238445282,1.138787865638733,0.28612563014030457,0.10220113396644592,-0.08647576719522476
3.825,1.0496922731399536,-0.08240213990211487,0.829596757888794,0.34466755390167236,0.3755142390727997,-0.053864531219005585
3.85,1.780806303024292,-0.11742585897445679,0.6277819275856018,0.4008672833442688,0.4917695224285126,-0.1375390738248825
3.875,2.3839383125305176,-0.03820222616195679,0.5452417731285095,0.417770653963089,0.47246861457824707,-0.278381884098053
3.9,2.8027219772338867,-0.11008164286613464,0.37057965993881226,0.36340636014938354,0.31591594219207764,-0.3829001188278198
3.925,2.911186695098877,-0.4358825981616974,0.15345607697963715,0.28669649362564087,-0.06540048122406006,-0.41782432794570923
3.95,2.6133241653442383,-0.9389430284500122,0.12701524794101715,0.2621559798717499,-0.5636002421379089,-0.4486141502857208
3.975,1.9741681814193726,-1.4662820100784302,0.31906676292419434,0.3047502338886261,-0.935405969619751,-0.4603290855884552
4.0,1.293211579322815,-1.7851593494415283,0.47355982661247253,0.3775174617767334,-1.0234270095825195,-0.39543047547340393
4.025,0.7419212460517883,-1.501293420791626,0.45395028591156006,0.44507476687431335,-0.9424267411231995,-0.2609003782272339
4.05,0.160238578915596,-0.36296841502189636,0.4761406481266022,0.488709419965744,-0.9631096124649048,-0.13791808485984802
4.075,-0.5956721901893616,1.056138277053833,0.5781182050704956,0.47283586859703064,-1.1791242361068726,-0.140875443816185
4.1,-1.502173900604248,1.706666350364685,0.553071141242981,0.39984652400016785,-1.5380595922470093,-0.15812967717647552
4.125,-2.5036566257476807,1.3776637315750122,0.3894071877002716,0.3028774559497833,-1.7622417211532593,-0.06790000945329666
4.15,-3.154726505279541,0.831025242805481,0.13362295925617218,0.21415284276008606,-1.432325005531311,0.017676232382655144
4.175,-2.8489320278167725,0.6659403443336487,-0.20001837611198425,0.07671181857585907,-0.7098581194877625,0.017219126224517822
4.2,-2.0350773334503174,0.7173128128051758,-0.549714982509613,-0.07636189460754395,-0.29363813996315,-0.1027202159166336
4.225,-1.6600004434585571,0.5932072997093201,-0.7923690676689148,-0.10798682272434235,-0.4417914152145386,-0.3022991120815277
4.25,-1.817790150642395,0.3313092589378357,-0.8454461097717285,-0.05658108368515968,-0.8458651304244995,-0.48481127619743347
4.275,-2.1347813606262207,0.0998801440000534,-0.7423560619354248,-0.007711061276495457,-1.1928642988204956,-0.6285172700881958
4.3,-2.3695266246795654,-0.15236005187034607,-0.633507251739502,0.01445790659636259,-1.3375914096832275,-0.7119630575180054
4.325,-2.3571014404296875,-0.5529844164848328,-0.7721205949783325,0.0077263531275093555,-1.2197245359420776,-0.6434763669967651
4.35,-2.095561981201172,-1.1349499225616455,-1.2013492584228516,0.010424014180898666,-0.9335247874259949,-0.4561106562614441
4.375,-1.7864282131195068,-1.6545100212097168,-1.6522630453109741,0.028561675921082497,-0.7346405982971191,-0.3457457721233368
4.4,-1.4966375827789307,-1.6185574531555176,-1.7362695932388306,0.01341607328504324,-0.710173487663269,-0.4111451804637909
4.425,-1.1249096393585205,-0.8044617772102356,-1.270006775856018,-0.01938312128186226,-0.7293809056282043,-0.635242223739624
4.45,-0.6117743849754333,0.41615962982177734,-0.45141273736953735,-0.029129698872566223,-0.6666449308395386,-0.8463040590286255
4.475,-0.04627218842506409,1.5492489337921143,0.3485085666179657,-0.04811280593276024,-0.48188430070877075,-0.8775267004966736
4.5,0.34045711159706116,2.44362473487854,0.8694998621940613,-0.05869418755173683,-0.20297440886497498,-0.7284221053123474
4.525,0.5200680494308472,3.15198016166687,1.0880026817321777,-0.06401433050632477,0.11651167273521423,-0.543196976184845
4.55,0.6472059488296509,3.3795154094696045,1.14906907081604,-0.061163052916526794,0.40619581937789917,-0.44403934478759766
4.575,0.6402788162231445,2.8268580436706543,1.0850660800933838,-0.0763992890715599,0.5768735408782959,-0.38991740345954895
4.6,0.33250299096107483,1.727338194847107,0.8882747292518616,-0.12475264072418213,0.6219707727432251,-0.2946572005748749
4.625,-0.1737615466117859,0.37768760323524475,0.7440382242202759,-0.10622619837522507,0.663742184638977,-0.16682401299476624
4.65,-0.4339448809623718,-0.7219963073730469,0.6985840201377869,-0.040131840854883194,0.7716010808944702,-0.13182495534420013
4.675,-0.2672160863876343,-1.194931983947754,0.6344870924949646,0.0793013647198677,0.8523123264312744,-0.2500399649143219
4.7,0.028990209102630615,-1.1451139450073242,0.6754083037376404,0.20650778710842133,0.8161703944206238,-0.46145784854888916
4.725,0.24074217677116394,-0.7818098068237305,0.9734845161437988,0.22750863432884216,0.642119824886322,-0.7001105546951294
4.75,0.4946986436843872,-0.35988888144493103,1.4080921411514282,0.16842781007289886,0.47204816341400146,-0.8632972240447998
4.775,0.9250336289405823,-0.1877487450838089,1.6025131940841675,0.10882782191038132,0.4851074814796448,-0.8983146548271179
4.8,1.4830275774002075,-0.23090635240077972,1.3293952941894531,0.03897975757718086,0.6353858709335327,-0.882841944694519
4.825,2.02539324760437,-0.13278856873512268,0.8811147809028625,-0.03644676133990288,0.6830151081085205,-0.8928409218788147
4.85,2.514652967453003,0.13741406798362732,0.6762970089912415,-0.07630787044763565,0.5814652442932129,-0.9112427234649658
4.875,2.841022491455078,0.2524930238723755,0.7184950113296509,-0.09148356318473816,0.4499671161174774,-0.8835083246231079
4.9,2.6600897312164307,0.06287107616662979,0.7346211075782776,-0.11443094164133072,0.30167654156684875,-0.737919807434082
4.925,1.9871549606323242,-0.26340481638908386,0.5564112067222595,-0.09492476284503937,0.21247652173042297,-0.4796591103076935
4.95,1.5247249603271484,-0.5181551575660706,0.2287977784872055,-0.012414563447237015,0.27278101444244385,-0.30078887939453125
4.975,1.6584211587905884,-0.6271334290504456,-0.07771414518356323,0.038115356117486954,0.24097439646720886,-0.37389516830444336
5.0,1.7010091543197632,-0.4057369828224182,-0.061368849128484726,-0.07243245840072632,-0.17520996928215027,-0.5904772281646729
5.025,1.1806254386901855,0.0969419926404953,0.2416798174381256,-0.1804380863904953,-0.6387699842453003,-0.7722827792167664
5.05,0.6534003615379333,0.566564679145813,0.44087785482406616,-0.1656888723373413,-0.8078993558883667,-0.8848641514778137
5.075,0.6320963501930237,0.8557426333427429,0.3418976664543152,-0.16430827975273132,-0.745958149433136,-0.9857706427574158
5.1,0.734846830368042,1.0936022996902466,-0.05148058384656906,-0.13182562589645386,-0.5915151238441467,-1.0387128591537476
5.125,0.3596780598163605,1.5520803928375244,-0.4984825551509857,-0.09763121604919434,-0.5925581455230713,-1.0483527183532715
5.15,-0.6110085844993591,1.7513600587844849,-0.6419543027877808,-0.12113479524850845,-0.895301103591919,-1.091119647026062
5.175,-1.6562696695327759,1.4702653884887695,-0.6138582229614258,-0.1424838900566101,-1.0618574619293213,-1.0869989395141602
5.2,-1.9923346042633057,1.5004311800003052,-0.7598577737808228,-0.14191554486751556,-0.840613603591919,-1.1443144083023071
5.225,-1.5790539979934692,1.7551833391189575,-0.986088752746582,-0.13881413638591766,-0.7230706214904785,-1.4154329299926758
5.25,-0.9079647064208984,1.6519213914871216,-1.1259193420410156,-0.1339917778968811,-0.7850130796432495,-1.666884422302246
5.275,-0.37205708026885986,1.1836042404174805,-1.3397483825683594,-0.13638994097709656,-0.8414316177368164,-1.7598177194595337
5.3,-0.1432531327009201,0.5541666746139526,-1.6843234300613403,-0.1072058454155922,-0.8763277530670166,-1.6864107847213745
5.325,-0.03352688252925873,0.16152551770210266,-1.8721354007720947,0.01696068048477173,-0.8043555021286011,-1.5277513265609741
5.35,0.008281448855996132,0.16953161358833313,-1.813542127609253,0.3383411765098572,-0.5741761326789856,-1.2982234954833984
5.375,-0.05428854376077652,0.3480232357978821,-1.6359484195709229,0.7660006880760193,-0.25044766068458557,-1.0019103288650513
5.4,0.11159384250640869,0.37054142355918884,-1.3859196901321411,1.0986181497573853,0.0715673640370369,-0.7380957007408142
5.425,0.4485677182674408,0.13387954235076904,-1.168307900428772,1.2495605945587158,0.23913981020450592,-0.5263183116912842
5.45,0.2936590611934662,-0.0907527357339859,-1.0472747087478638,1.245256781578064,0.1850370466709137,-0.3716529905796051
5.475,-0.38605910539627075,-0.08744440972805023,-0.818734347820282,1.194045066833496,0.1256778985261917,-0.2782626748085022
5.5,-0.8045594692230225,-0.19408711791038513,-0.45085349678993225,1.1302577257156372,0.1780741661787033,-0.2766265571117401
5.525,-0.48096874356269836,-0.73035728931427,-0.43261784315109253,1.0458695888519287,0.14478442072868347,-0.3647260367870331
5.55,0.0628168135881424,-1.3707973957061768,-0.8694587349891663,0.8649778962135315,-0.14899148046970367,-0.539422869682312
5.575,0.1322912871837616,-1.681519865989685,-1.0724047422409058,0.4845074415206909,-0.5880171060562134,-0.8307586312294006
5.6,-0.37622731924057007,-1.5365098714828491,-0.8280667066574097,0.0861777737736702,-0.9686110615730286,-1.065622329711914
5.625,-1.11086106300354,-1.0502045154571533,-0.5235758423805237,-0.0038161727134138346,-1.0981481075286865,-1.009231686592102
5.65,-1.3399109840393066,-0.5988293886184692,-0.3990519046783447,0.1916026920080185,-1.0125398635864258,-0.6613752841949463
5.675,-0.5620522499084473,-0.4860268235206604,0.0670551210641861,0.2616139352321625,-0.8631613850593567,-0.497389554977417
5.7,0.40586188435554504,-0.5445851683616638,0.8825176954269409,0.1167241632938385,-0.7423716187477112,-0.656406581401825
5.725,0.7376271486282349,-0.38452523946762085,1.071565866470337,-0.02359217405319214,-0.6441370844841003,-0.653174638748169
5.75,0.7838217616081238,-0.1935701221227646,0.3898950517177582,-0.08122973144054413,-0.5551009178161621,-0.3132185935974121
5.775,1.352600336074829,-0.05602939426898956,-0.5519465804100037,-0.03327774256467819,-0.4518178701400757,0.07151630520820618
5.8,3.0007243156433105,0.559752345085144,-1.3395793437957764,0.000148348233778961,-0.4179134666919708,0.2588854730129242
5.825,4.085905075073242,1.5207815170288086,-1.5874611139297485,0.019213788211345673,-0.747715950012207,0.4330780506134033
5.85,1.9302144050598145,2.060980796813965,-1.2946221828460693,0.49290046095848083,-1.3162097930908203,1.0337865352630615
5.875,-1.515459418296814,1.6302310228347778,-0.8359652161598206,1.4222861528396606,-1.2110399007797241,2.039761781692505
5.9,-2.373100519180298,0.5386772751808167,0.2446211576461792,2.0150482654571533,-0.28800931572914124,2.5498299598693848
5.925,-1.2671409845352173,-0.2459000200033188,1.4296064376831055,2.056169033050537,0.3995330035686493,2.4136276245117188
5.95,-0.5543651580810547,-0.4574669301509857,1.6792957782745361,1.72572660446167,0.33448362350463867,2.165576696395874
5.975,-0.5655285120010376,-0.35737213492393494,1.551999568939209,1.3285280466079712,0.007474882062524557,1.845942735671997
6.0,-0.7182779908180237,-0.1055028960108757,1.7126413583755493,0.9189794659614563,-0.18658362329006195,1.2284252643585205
6.025,-0.914677619934082,0.17545625567436218,1.6485720872879028,0.594640851020813,-0.21916136145591736,0.45532310009002686
6.05,-1.0069233179092407,0.46276208758354187,1.1275725364685059,0.4651748836040497,-0.1761009842157364,0.05909438803792
6.075,-0.6948168873786926,1.0371906757354736,0.8592883944511414,0.44971659779548645,-0.0005787852569483221,0.13363070785999298
6.1,-0.3519875705242157,1.6476396322250366,1.0072182416915894,0.7469905018806458,0.3388349711894989,0.627785861492157
6.125,-0.1653137505054474,1.0953505039215088,1.0028376579284668,1.5127100944519043,0.6930915117263794,1.5751912593841553
6.15,0.6549012064933777,-0.6383543014526367,0.7273357510566711,2.169745922088623,1.1182351112365723,2.2238142490386963
6.175,1.844738483428955,-1.670828104019165,0.4839005470275879,2.0658812522888184,1.3012360334396362,1.9290343523025513
6.2,2.434278726577759,-1.2014743089675903,0.2436448037624359,1.5685752630233765,1.126512050628662,1.1303279399871826
6.225,2.2619991302490234,-0.25935181975364685,-0.46091556549072266,1.4423483610153198,0.8972447514533997,0.5582312941551208
6.25,1.4116461277008057,0.07392676174640656,-1.4664400815963745,1.6110647916793823,0.7353785037994385,0.2743518650531769
6.275,0.4975752532482147,-0.40847525000572205,-2.311289072036743,1.5676897764205933,0.7454419732093811,0.10663144290447235
6.3,0.28557276725769043,-0.8642592430114746,-2.876055955886841,1.026262879371643,0.6912521123886108,0.03771854564547539
6.325,0.4027138948440552,-0.9028611183166504,-2.854780912399292,0.30563974380493164,0.3576306998729706,-0.09115420281887054
6.35,0.02708347514271736,-1.2400306463241577,-1.5865386724472046,-0.4356972575187683,-0.05717667564749718,-0.5711042284965515
6.375,-0.7410867214202881,-1.3947736024856567,0.0959799513220787,-0.900586724281311,-0.22205276787281036,-0.8665878772735596
6.4,-0.7486469149589539,-0.392548531293869,0.7773334980010986,-0.9510255455970764,-0.008668478578329086,-0.4637618064880371
6.425,0.012165750376880169,0.6789456605911255,0.3939467966556549,-0.640171229839325,0.3704707622528076,0.05023179203271866
6.45,-0.03245949745178223,0.7157211899757385,0.01042100228369236,-0.2208789438009262,0.5265628695487976,0.12726646661758423
6.475,-0.8134233951568604,0.43081289529800415,-0.004203936085104942,-0.03639354184269905,0.4064978361129761,0.004538782872259617
6.5,-1.502103567123413,0.42547234892845154,0.21642643213272095,-0.07726259529590607,0.2567880153656006,0.019768090918660164
6.525,-1.7298049926757812,0.5396004915237427,0.6951976418495178,0.01055777445435524,0.2896836996078491,0.2378813922405243
6.55,-1.0617715120315552,0.4776851534843445,0.9104729294776917,0.20716264843940735,0.39336833357810974,0.6568343043327332
6.575,-0.09585575014352798,0.3678484857082367,0.4279836118221283,0.28900036215782166,0.33092495799064636,1.0563279390335083
6.6,1.0007740259170532,0.35581302642822266,-0.19291390478610992,0.27831417322158813,0.20068417489528656,1.1163153648376465
6.625,2.078329086303711,0.7727614641189575,-0.10294471681118011,0.23228247463703156,0.018209131434559822,0.8780174851417542
6.65,1.5810133218765259,1.3607569932937622,0.41659116744995117,0.1929549276828766,-0.17582803964614868,0.373710960149765
6.675,0.08965510129928589,1.7062362432479858,0.6454046964645386,0.13880424201488495,-0.24160921573638916,-0.09066696465015411
6.7,-0.48476606607437134,1.3594553470611572,0.5303857922554016,0.28247931599617004,-0.15933632850646973,-0.12365773320198059
6.725,0.011419521644711494,0.41864022612571716,0.1525077223777771,0.5393233895301819,0.043756645172834396,0.06324689835309982
6.75,0.5879632234573364,-0.40264615416526794,-0.2785327136516571,0.5039439797401428,0.16553306579589844,0.04911084845662117
6.775,0.9596914649009705,-0.7010384798049927,-0.6314311623573303,0.2621750235557556,0.16694824397563934,-0.04115276783704758
6.8,0.9005835652351379,-0.45784488320350647,-0.6600450873374939,0.044325217604637146,0.0645841434597969,-0.14514866471290588
6.825,0.4311918318271637,0.000618880323600024,-0.45596548914909363,-0.11359614878892899,-0.05537794530391693,-0.24351230263710022
6.85,0.060820598155260086,0.2790975570678711,-0.22209084033966064,-0.16886061429977417,-0.08848633617162704,-0.18977877497673035
6.875,-0.18279945850372314,0.39424997568130493,0.0017627194756641984,-0.14701995253562927,-0.10576015710830688,-0.07591912150382996
6.9,-0.4239756166934967,0.3828373849391937,0.1780681312084198,-0.14932191371917725,-0.12619811296463013,0.0024304864928126335
6.925,-0.4342609941959381,0.09531787782907486,0.209922194480896,-0.1106591746211052,-0.042438916862010956,0.06317280232906342
6.95,-0.35623490810394287,-0.19588376581668854,0.13558442890644073,-0.09907267242670059,0.053915608674287796,0.07015807181596756
6.975,-0.4777638912200928,-0.11965275555849075,0.07934505492448807,-0.21250692009925842,0.029202880337834358,-0.07323668152093887
7.0,-0.6199287176132202,0.18869690597057343,0.18584762513637543,-0.28637048602104187,-0.017945392057299614,-0.12451361864805222
7.025,-0.5932568311691284,0.48618897795677185,0.259927898645401,-0.17072735726833344,0.0018658074550330639,-0.0684281587600708
7.05,-0.5011180639266968,0.6379852890968323,0.1399163454771042,-0.03984953835606575,-0.010439199395477772,-0.05931028351187706
7.075,-0.4865225553512573,0.6433621048927307,0.07826510816812515,0.026596160605549812,-0.00856609083712101,-0.0846472978591919
7.1,-0.7652215957641602,0.6106234788894653,0.32744482159614563,0.018120907247066498,0.03010997362434864,-0.18014594912528992
7.125,-1.0587894916534424,0.4332829713821411,0.6039144992828369,0.0221942700445652,0.08045360445976257,-0.2015591412782669
7.15,-0.8645896315574646,-0.005465453956276178,0.4539739787578583,0.08200661092996597,0.19180931150913239,-0.12372449040412903
7.175,-0.44683778285980225,-0.43902021646499634,0.08835891634225845,0.08394996076822281,0.26805755496025085,-0.08909241855144501
7.2,-0.3516893982887268,-0.42336946725845337,-0.03517123684287071,-0.029716691002249718,0.23730185627937317,-0.12367913872003555
7.225,-0.31716203689575195,-0.16552545130252838,0.053372226655483246,-0.11706239730119705,0.21586774289608002,-0.05780192092061043
7.25,0.038707610219717026,-0.030475612729787827,0.056960590183734894,-0.0988905057311058,0.242804154753685,0.0404835008084774
7.275,0.380351185798645,0.060972217470407486,-0.03982492536306381,-0.11389385163784027,0.2606295645236969,0.03768491372466087
7.3,0.40769660472869873,0.24176885187625885,-0.07793515920639038,-0.1783454418182373,0.23876403272151947,-0.037117961794137955
7.325,0.2726234197616577,0.4095650315284729,0.07371433824300766,-0.20729301869869232,0.22733281552791595,-0.10774384438991547
7.35,0.21110187470912933,0.35889726877212524,0.1772671490907669,-0.19355157017707825,0.24863356351852417,-0.13055214285850525
7.375,0.20517468452453613,0.21166422963142395,0.023924756795167923,-0.18033498525619507,0.26426446437835693,-0.13322721421718597
7.4,0.05022716149687767,0.24296095967292786,0.04512230306863785,-0.2649962306022644,0.20908477902412415,-0.14813187718391418
7.425,-0.2731854021549225,0.37528908252716064,0.3938729465007782,-0.3258684575557709,0.16362875699996948,-0.14069300889968872
7.45,-0.34867098927497864,0.3554917275905609,0.448158323764801,-0.22238901257514954,0.2047656923532486,-0.11274125427007675
7.475,-0.15452183783054352,0.24950319528579712,0.23950473964214325,-0.15886066854000092,0.2839581072330475,-0.14513260126113892
7.5,-0.15219762921333313,0.31074437499046326,0.39440152049064636,-0.21246041357517242,0.32165634632110596,-0.20371027290821075
7.525,-0.09726288914680481,0.33636385202407837,0.3474655747413635,-0.1646389663219452,0.35944047570228577,-0.17645438015460968
7.55,0.23273517191410065,0.1806945651769638,-0.19238066673278809,-0.08277866989374161,0.4205528497695923,-0.11647830903530121
7.575,0.2417220026254654,0.2569007873535156,-0.2116750329732895,-0.16361960768699646,0.3813765048980713,-0.13688096404075623
7.6,-0.2570447027683258,0.49442681670188904,0.310730516910553,-0.253301739692688,0.2902767062187195,-0.16784735023975372
7.625,-0.4065565764904022,0.5251647233963013,0.4245782792568207,-0.11852837353944778,0.3465203046798706,-0.11645251512527466
7.65,0.02692221663892269,0.3601379692554474,0.10448044538497925,0.042280346155166626,0.4647953510284424,-0.06419898569583893
7.675,0.32177698612213135,0.16802597045898438,-0.16034802794456482,0.042208392173051834,0.46150776743888855,-0.09265205264091492
7.7,0.3765886127948761,0.10576914995908737,-0.18071624636650085,0.01739679090678692,0.3685082197189331,-0.07439504563808441
7.725,0.28099358081817627,0.21059037744998932,-0.06929179280996323,-0.03742464631795883,0.2818712890148163,-0.10729542374610901
7.75,0.1838541030883789,0.2346058189868927,-0.04208751395344734,-0.06033886596560478,0.23300327360630035,-0.13278362154960632
7.775,0.28174328804016113,0.1531515121459961,-0.14865562319755554,-0.035799454897642136,0.22035500407218933,-0.041742704808712006
7.8,0.40161600708961487,0.134641632437706,-0.1968749612569809,-0.044718243181705475,0.17208103835582733,-0.012358317151665688
7.825,0.3776857852935791,0.1768970489501953,-0.09654649347066879,-0.04646201804280281,0.10657072067260742,-0.046398866921663284
7.85,0.20440471172332764,0.2212534248828888,-0.05001290887594223,-0.041611455380916595,0.0417591892182827,-0.09225377440452576
7.875,0.11743105947971344,0.21386338770389557,-0.15158423781394958,-0.03030851110816002,0.00800155010074377,-0.07955385744571686
7.9,0.15335120260715485,0.1561126708984375,-0.1444525569677353,-0.03605323284864426,-0.010687662288546562,-0.03706318885087967
7.925,0.1237804964184761,0.0884561538696289,-0.06656145304441452,-0.04367710277438164,-0.06621219217777252,-0.03837329149246216
7.95,0.08938301354646683,0.04615401104092598,-0.12264513969421387,-0.0390842966735363,-0.11043296009302139,-0.025448692962527275
7.975,-0.012705560773611069,0.06529808044433594,-0.03956734761595726,-0.06746306270360947,-0.1328638643026352,-0.031833622604608536
8.0,-0.10716165602207184,0.1492634117603302,0.14898301661014557,-0.07883107662200928,-0.14415478706359863,-0.05018221214413643
8.025,-0.04436279460787773,0.23531918227672577,0.13260845839977264,-0.04149968922138214,-0.13766145706176758,-0.015505094081163406
8.05,0.01721774972975254,0.2694273293018341,0.06907085329294205,-0.034900419414043427,-0.15150226652622223,0.008004599250853062
8.075,0.010376795195043087,0.308235228061676,0.18310920894145966,-0.05051373317837715,-0.16040076315402985,0.0008146528271026909
8.1,-0.03180750086903572,0.35363298654556274,0.22810526192188263,-0.04118596389889717,-0.14863845705986023,-0.021486453711986542
8.125,0.013660608790814877,0.32167914509773254,0.008497755043208599,-0.009620897471904755,-0.12874750792980194,-0.01858644001185894
8.15,0.06620001792907715,0.3049183189868927,-0.015501339919865131,-0.01858263835310936,-0.12527872622013092,-0.0032121932599693537
8.175,-0.06515325605869293,0.32958799600601196,0.13739854097366333,-0.01913420855998993,-0.15482373535633087,-0.03361085057258606
8.2,-0.09258700162172318,0.2975321114063263,0.08801762014627457,0.0336664579808712,-0.1489977091550827,-0.01762491464614868
8.225,-0.046157240867614746,0.22927191853523254,-0.00843045860528946,0.04091189429163933,-0.11793999373912811,-0.011464517563581467
8.25,-0.11425203084945679,0.12349797785282135,-0.01953112706542015,0.036794841289520264,-0.11629016697406769,-0.01725209318101406
8.275,-0.10418670624494553,0.03580760210752487,-0.07897282391786575,0.045026253908872604,-0.11063819378614426,0.014782877638936043
8.3,-0.13285750150680542,0.06365299224853516,-0.07293654978275299,0.014660023152828217,-0.12297756224870682,-0.0066738007590174675
8.325,-0.21268779039382935,0.1260843425989151,-0.040469296276569366,-0.015468403697013855,-0.14123792946338654,-0.03690062463283539
8.35,-0.27394092082977295,0.1785898357629776,0.0067948088981211185,-0.029286103323101997,-0.136407271027565,-0.014577634632587433
8.375,-0.3638148307800293,0.2094154804944992,0.07167422771453857,-0.031699489802122116,-0.11813917011022568,-0.019531937316060066
8.4,-0.34683436155319214,0.20963099598884583,0.03745853900909424,-0.009927810169756413,-0.07441869378089905,-0.04431002959609032
8.425,-0.05869174376130104,0.22672560811042786,0.05721786618232727,-0.024670742452144623,-0.039381805807352066,-0.007659705355763435
8.45,0.1798437237739563,0.29084399342536926,0.08480066061019897,-0.035655245184898376,-0.03732162341475487,0.03757796436548233
8.475,0.038426339626312256,0.3204346001148224,-0.02017863467335701,-0.03364390879869461,-0.05141228809952736,-0.040332477539777756
8.5,-0.16392378509044647,0.2529144585132599,-0.08824633806943893,-0.0339009128510952,-0.045040544122457504,-0.0641852617263794
8.525,-0.20166915655136108,0.17965413630008698,-0.01361059956252575,-0.028310811147093773,-0.034516703337430954,0.004454750567674637
8.55,-0.1927604079246521,0.18527795374393463,0.008258349262177944,-0.033298078924417496,-0.0608302466571331,0.022712456062436104
8.575,-0.21417611837387085,0.25805190205574036,-0.07382166385650635,-0.045990217477083206,-0.056567199528217316,-0.03322034329175949
8.6,-0.1853141039609909,0.2761049270629883,-0.16890573501586914,-0.025057153776288033,-0.01662351004779339,-0.03853629156947136
8.625,-0.16952525079250336,0.2682352364063263,-0.1237863302230835,-0.033224090933799744,-0.0006023860769346356,0.0005791096482425928
8.65,-0.250979483127594,0.3218822777271271,0.03756668046116829,-0.05631435289978981,-0.018368365243077278,0.002277495339512825
8.675,-0.2644966244697571,0.30782321095466614,0.023469228297472,-0.041745249181985855,-0.014789583161473274,-0.016054628416895866
8.7,-0.06571308523416519,0.14226530492305756,-0.2378845363855362,-0.020223218947649002,0.013721873052418232,-0.0209796242415905
8.725,-0.002997857518494129,0.2102060317993164,-0.2011725902557373,-0.0923495665192604,0.0026525892317295074,-0.04977220296859741
8.75,-0.2852546274662018,0.37355807423591614,0.012372753582894802,-0.15059752762317657,-0.04554401710629463,-0.08612759411334991
8.775,-0.20856353640556335,0.16675947606563568,-0.2679007351398468,-0.11846835911273956,-0.019648203626275063,-0.03329606354236603
8.8,0.3656439185142517,-0.054603658616542816,-0.63164222240448,-0.15549741685390472,0.03235821798443794,-0.04208871349692345
8.825,0.27875152230262756,0.1462106555700302,-0.26431533694267273,-0.3174639940261841,-0.04714519903063774,-0.22856570780277252
8.85,-0.4779243767261505,0.40734681487083435,0.31821686029434204,-0.34831130504608154,-0.14921915531158447,-0.31432437896728516
8.875,-0.49666130542755127,0.2367554008960724,-0.04706551879644394,-0.19937923550605774,-0.13985079526901245,-0.15841051936149597
8.9,0.4579000473022461,-0.30776989459991455,-0.8380310535430908,-0.12991386651992798,-0.058943577110767365,-0.031501248478889465
8.925,1.134398102760315,-0.6268998980522156,-1.1397500038146973,-0.36424151062965393,-0.12167409807443619,-0.3131401538848877
8.95,1.11239492893219,-0.7523281574249268,-1.002644658088684,-0.6467850208282471,-0.23911376297473907,-0.6915732622146606
8.975,0.9741466641426086,-0.8420212268829346,-0.8603723645210266,-0.9130454659461975,-0.3556613624095917,-0.9285560846328735
9.0,1.077865719795227,-0.8435003161430359,-0.6725102066993713,-1.2250807285308838,-0.48795944452285767,-1.047071099281311
9.025,1.1069204807281494,-0.6544457674026489,-0.26017120480537415,-1.5393610000610352,-0.6248272061347961,-1.228786826133728
9.05,0.9031485319137573,-0.35584259033203125,0.29244670271873474,-1.5951412916183472,-0.7913151383399963,-1.3667337894439697
9.075,0.8448384404182434,-0.12544912099838257,0.6256753206253052,-1.4323959350585938,-1.0078554153442383,-1.2791664600372314
9.1,0.9675645232200623,0.03251751512289047,0.645548939704895,-1.419418215751648,-1.3463548421859741,-1.0892335176467896
9.125,0.5523234009742737,0.13439282774925232,0.671270489692688,-1.4246371984481812,-1.7841322422027588,-1.0420384407043457
9.15,-0.3460768163204193,0.29988113045692444,1.0490790605545044,-1.1919052600860596,-2.0599541664123535,-0.8477934002876282
9.175,-1.3501533269882202,0.9962590336799622,1.669731616973877,-0.666414737701416,-2.0522236824035645,-0.017922168597579002
9.2,-2.4730358123779297,2.5594515800476074,2.9120428562164307,-0.3250176012516022,-1.7189382314682007,1.1513696908950806
9.225,-1.8927497863769531,2.4615092277526855,2.9906113147735596,-0.09769327193498611,-1.2965683937072754,2.108567714691162
9.25,0.2607593536376953,0.7387545108795166,1.304875135421753,-0.23299765586853027,-0.9258311986923218,2.3216233253479004
9.275,-3.257354736328125,3.2030141353607178,2.153308391571045,-1.154867172241211,-1.156211256980896,0.592167854309082
9.3,-6.81379508972168,5.342695236206055,2.437610149383545,-1.0360383987426758,-1.5233712196350098,0.579607367515564
9.325,-2.7084624767303467,2.325287103652954,0.4029427468776703,-0.3489702641963959,-0.8171067833900452,2.696324110031128
9.35,1.3712586164474487,0.5268707275390625,-0.7444432973861694,-0.38769829273223877,-0.17912843823432922,2.880307197570801
9.375,1.4678947925567627,0.8469792008399963,-0.35760241746902466,-0.6369924545288086,-0.46103957295417786,1.7200841903686523
9.4,-0.06319740414619446,1.478551983833313,0.37241336703300476,-0.737962543964386,-0.7688726782798767,0.8738256096839905
9.425,-0.9454622864723206,1.682984709739685,0.6924225687980652,-0.6667500138282776,-0.6976736187934875,0.7604715824127197
9.45,-0.7207263112068176,1.3880398273468018,0.5230309367179871,-0.5116653442382812,-0.448824942111969,1.0392965078353882
9.475,-0.036482132971286774,0.8288280367851257,0.41279950737953186,-0.38696715235710144,-0.23283369839191437,1.1758977174758911
9.5,0.3984726071357727,0.15615758299827576,0.6363297700881958,-0.33725836873054504,-0.0696479082107544,1.034194827079773
9.525,0.689819872379303,-0.4299783408641815,0.7765918970108032,-0.3520001173019409,0.07587411254644394,0.8606014847755432
9.55,1.2871397733688354,-0.7665815949440002,0.6402140259742737,-0.5101235508918762,0.19894321262836456,0.7687631845474243
9.575,2.080705404281616,-0.8319559693336487,0.3641906976699829,-0.7161449193954468,0.20510877668857574,0.6199614405632019
9.6,2.6413495540618896,-0.7110214829444885,0.08542171865701675,-0.8494835495948792,0.0775001123547554,0.32116082310676575
9.625,2.7346181869506836,-0.5857411026954651,-0.1396397054195404,-0.9083887338638306,-0.1781378537416458,-0.007548374589532614
9.65,2.3450348377227783,-0.414039671421051,-0.10220704227685928,-0.9436392188072205,-0.4562824070453644,-0.23187223076820374
9.675,1.703667163848877,-0.10534665733575821,0.301736056804657,-0.9350271821022034,-0.6309414505958557,-0.42170625925064087
9.7,1.2129701375961304,0.10369405895471573,0.6732751727104187,-0.9237590432167053,-0.6546295881271362,-0.4232540726661682
9.725,1.0010368824005127,0.0037890395615249872,0.7637740969657898,-0.9077203869819641,-0.5990714430809021,-0.19092904031276703
9.75,0.8156125545501709,-0.24890702962875366,0.7404443025588989,-0.9155073165893555,-0.5551161170005798,0.006736937910318375
9.775,0.45344942808151245,-0.4013194739818573,0.6846633553504944,-0.9365652203559875,-0.5846534371376038,0.008913068100810051
9.8,-0.03599165752530098,-0.40920543670654297,0.5539059638977051,-0.9166800379753113,-0.6778174638748169,-0.035972703248262405
9.825,-0.5078377723693848,-0.32636162638664246,0.40873289108276367,-0.8130996227264404,-0.7399705052375793,0.009391656145453453
9.85,-0.7446503043174744,0.0751228854060173,0.3818349838256836,-0.703129231929779,-0.667197585105896,0.09935196489095688
9.875,-0.693152666091919,0.9132530093193054,0.30509671568870544,-0.6407788395881653,-0.5451560616493225,0.17012432217597961
9.9,-0.40105485916137695,1.6827824115753174,-0.004900290165096521,-0.6676572561264038,-0.48125219345092773,0.25483739376068115
9.925,-0.07100768387317657,1.9107609987258911,-0.5226781964302063,-0.7766726016998291,-0.5659486055374146,0.28594979643821716
9.95,0.07577452808618546,1.5084220170974731,-1.1190518140792847,-0.8782579898834229,-0.7245296835899353,0.23500211536884308
9.975,-0.05240802466869354,0.7428139448165894,-1.5190893411636353,-0.9386122226715088,-0.7062657475471497,0.19265714287757874
10.0,-0.331006795167923,0.3711155354976654,-1.5597460269927979,-0.9668018817901611,-0.494507372379303,0.15567152202129364
10.025,-0.5802356600761414,0.7399128675460815,-1.5673598051071167,-0.9247009754180908,-0.3662532866001129,0.12141301482915878
10.05,-0.6473385691642761,1.2469786405563354,-1.7244669198989868,-0.8073539733886719,-0.4273492991924286,0.10897623002529144
10.075,-0.7796157002449036,1.40984046459198,-1.9904508590698242,-0.6711820960044861,-0.6406713128089905,0.19124360382556915
10.1,-1.2856898307800293,1.5352554321289062,-2.280724287033081,-0.5703229904174805,-0.8673322200775146,0.2485957145690918
10.125,-2.0684845447540283,1.8816078901290894,-2.5765068531036377,-0.40600061416625977,-1.0835081338882446,0.11789694428443909
10.15,-2.6756341457366943,2.0509777069091797,-2.8838255405426025,-0.15041038393974304,-1.1319199800491333,-0.005604415666311979
10.175,-2.732621669769287,1.657235026359558,-3.0845139026641846,0.06328041106462479,-0.9218794107437134,-0.008331076242029667
10.2,-2.358023166656494,0.908308744430542,-2.9748940467834473,0.20155823230743408,-0.6253334283828735,-0.008878244087100029
10.225,-2.0176849365234375,0.28036564588546753,-2.700847864151001,0.3358885943889618,-0.4504792392253876,-0.07989902794361115
10.25,-1.8543050289154053,-0.07041865587234497,-2.4445369243621826,0.5126752853393555,-0.3743603229522705,-0.1327744871377945
10.275,-1.677310824394226,-0.16800619661808014,-2.0448288917541504,0.680755078792572,-0.2803475558757782,-0.15575645864009857
10.3,-1.525576114654541,-0.11854572594165802,-1.4691193103790283,0.7983379364013672,-0.24721068143844604,-0.21520744264125824
10.325,-1.5626686811447144,-0.12837328016757965,-1.0615448951721191,0.8674234747886658,-0.3422675132751465,-0.2646263539791107
10.35,-1.5823094844818115,-0.1989528089761734,-0.8727209568023682,0.8326619863510132,-0.4374668002128601,-0.2512415647506714
10.375,-1.3856414556503296,-0.31190788745880127,-0.7720263600349426,0.7554961442947388,-0.48391419649124146,-0.22770069539546967
10.4,-1.080763816833496,-0.5739928483963013,-0.7261552810668945,0.6791561841964722,-0.5095032453536987,-0.2167726308107376
10.425,-0.8136473298072815,-0.9239665865898132,-0.6939630508422852,0.5806040167808533,-0.5161256194114685,-0.22966201603412628
10.45,-0.6424705386161804,-1.2077887058258057,-0.659029483795166,0.46470868587493896,-0.47514379024505615,-0.2582114040851593
10.475,-0.5370311141014099,-1.3832085132598877,-0.5807693600654602,0.321873277425766,-0.3261542022228241,-0.27272528409957886
10.5,-0.40232715010643005,-1.4867478609085083,-0.3795676529407501,0.14113546907901764,-0.1092575266957283,-0.23280051350593567
10.525,-0.21709273755550385,-1.4690581560134888,-0.18355104327201843,-0.07555755227804184,0.09224741160869598,-0.17944803833961487
10.55,-0.08069858700037003,-1.3630801439285278,-0.2592160105705261,-0.28728049993515015,0.1851096749305725,-0.11319845914840698
10.575,-0.11450047791004181,-1.161321759223938,-0.49240657687187195,-0.4668598473072052,0.19437846541404724,-0.03926858305931091
10.6,-0.3524860739707947,-0.8530933260917664,-0.6849026679992676,-0.6115366220474243,0.16350318491458893,-0.017206266522407532
10.625,-0.8168718218803406,-0.5503999590873718,-0.9215161800384521,-0.7592265605926514,0.1599508672952652,0.010532049462199211
10.65,-1.4159895181655884,-0.38922998309135437,-1.3348214626312256,-0.9073081016540527,0.24406278133392334,0.10774699598550797
10.675,-1.917089819908142,-0.3110229969024658,-1.662054419517517,-1.0544683933258057,0.5328192710876465,0.2641787827014923
10.7,-2.058260679244995,-0.24216006696224213,-1.581117868423462,-1.2001498937606812,1.0192503929138184,0.41371527314186096
10.725,-1.737293004989624,-0.15848366916179657,-1.267974615097046,-1.3659309148788452,1.5174586772918701,0.4963899850845337
10.75,-1.1876927614212036,-0.07289519160985947,-1.108776330947876,-1.5293948650360107,1.8710136413574219,0.5268921852111816
10.775,-0.9501306414604187,0.008260607719421387,-1.0048964023590088,-1.6080318689346313,2.069568634033203,0.5677922368049622
10.8,-1.0829057693481445,0.3338899314403534,-0.5466707944869995,-1.6263161897659302,2.291438579559326,0.5236360430717468
10.825,-1.3211016654968262,0.8066636323928833,0.07996796071529388,-1.628612995147705,2.506403684616089,0.38927707076072693
10.85,-1.4011560678482056,1.0482056140899658,0.6458314061164856,-1.6222906112670898,2.7516984939575195,0.25303980708122253
10.875,-0.9639639854431152,0.8468191623687744,1.0601953268051147,-1.6356710195541382,3.0397233963012695,0.14416728913784027
10.9,0.16100259125232697,0.46669599413871765,1.1288429498672485,-1.654015064239502,3.2828869819641113,0.137400284409523
10.925,0.9420062899589539,0.7678587436676025,0.8352586627006531,-1.5387649536132812,3.232978582382202,0.12206462025642395
10.95,0.45663005113601685,2.1337835788726807,0.5018350481987,-1.1765286922454834,2.8058345317840576,-0.0891544371843338
10.975,-0.03179458901286125,3.752377986907959,0.12085483968257904,-0.7549580931663513,2.7727928161621094,-0.26017284393310547
11.0,0.05225862190127373,4.348831653594971,-0.14599964022636414,-0.36844557523727417,2.9659969806671143,-0.2024889588356018
11.025,0.5546535849571228,3.2538228034973145,0.15352842211723328,0.02523847110569477,2.9553825855255127,-0.01845947466790676
11.05,0.8816202282905579,1.2208607196807861,0.6871060132980347,0.19387653470039368,2.461432695388794,0.13731649518013
11.075,0.4782184064388275,-0.6212376952171326,1.060497522354126,0.2270924597978592,1.785623550415039,0.331098735332489
11.1,-0.4250549376010895,-1.8394771814346313,1.2891632318496704,0.212194561958313,1.4603830575942993,0.41168347001075745
11.125,-0.9594542980194092,-2.3724026679992676,1.4217698574066162,0.20002928376197815,1.596733570098877,0.3188943862915039
11.15,-0.6702591180801392,-2.2757043838500977,1.4707825183868408,0.26632511615753174,1.928967833518982,0.15428729355335236
11.175,0.16731643676757812,-1.6218892335891724,1.4292072057724,0.3484697937965393,2.1156165599823,-0.021442320197820663
11.2,0.9519017934799194,-0.6443098783493042,1.462721586227417,0.41043439507484436,1.916317343711853,-0.2625904679298401
11.225,1.4803146123886108,0.20106624066829681,1.5866782665252686,0.37933528423309326,1.444123387336731,-0.5157214403152466
11.25,1.8010591268539429,0.6269724369049072,1.4422749280929565,0.22279253602027893,0.9779742360115051,-0.6866840124130249
11.275,2.0139176845550537,0.6267415285110474,0.6667096018791199,-0.002918473444879055,0.6486032009124756,-0.7776245474815369
11.3,2.0506045818328857,0.4377689063549042,-0.6595669984817505,-0.1826440840959549,0.31620314717292786,-0.8320267796516418
11.325,1.817689299583435,0.5309932827949524,-1.8111591339111328,-0.27994272112846375,-0.23552636802196503,-0.9216622114181519
11.35,1.558448314666748,0.9270523190498352,-2.4387593269348145,-0.33572816848754883,-0.8600578308105469,-1.0612401962280273
11.375,1.2042207717895508,1.101165533065796,-2.5124711990356445,-0.21132121980190277,-1.4186475276947021,-1.122450590133667
11.4,0.6378082633018494,1.0417250394821167,-2.0113368034362793,0.05281958356499672,-1.663689136505127,-1.082173228263855
11.425,0.2773531675338745,1.0142955780029297,-1.324324369430542,0.29542091488838196,-1.4334571361541748,-1.0247814655303955
11.45,0.4428582787513733,1.010148048400879,-0.7615732550621033,0.5326365828514099,-0.9222111701965332,-0.9054277539253235
11.475,0.7909283638000488,0.8202314972877502,-0.2836264371871948,0.7585333585739136,-0.47749194502830505,-0.6971158385276794
11.5,0.8855595588684082,0.44795137643814087,-0.08709728717803955,0.842434287071228,-0.1856493502855301,-0.4461223781108856
11.525,0.646539568901062,0.04930781573057175,-0.11984557658433914,0.8362281918525696,-0.1727103590965271,-0.38113024830818176
11.55,0.3676537275314331,-0.3899841904640198,0.08527111262083054,0.8399726152420044,-0.36658307909965515,-0.49093738198280334
11.575,0.3046114146709442,-0.7839766144752502,0.3624837100505829,0.7428672313690186,-0.5724905133247375,-0.6910494565963745
11.6,0.2837681472301483,-0.6474018096923828,0.3394124209880829,0.544804573059082,-0.7994853854179382,-0.7085217833518982
11.625,-0.0029773875139653683,-0.10165213793516159,0.18721342086791992,0.46860796213150024,-1.0623735189437866,-0.6972170472145081
11.65,-0.5028458833694458,0.31539827585220337,0.16588689386844635,0.4550277590751648,-1.2796807289123535,-0.7057574391365051
11.675,-0.8226941823959351,0.39413174986839294,0.25306299328804016,0.5685871243476868,-1.2632583379745483,-0.5690379738807678
11.7,-0.7203420400619507,0.4509612023830414,0.21059778332710266,0.731233537197113,-0.9922570586204529,-0.2806518077850342
11.725,-0.3649998903274536,0.7257729172706604,-0.09610791504383087,0.8220091462135315,-0.6389183402061462,0.010219451040029526
11.75,-0.27503055334091187,1.1317558288574219,-0.5303716063499451,0.8757883310317993,-0.4176250398159027,0.17349906265735626
11.775,-0.42366212606430054,1.4516105651855469,-0.8454141616821289,1.0208766460418701,-0.30425041913986206,0.312780499458313
11.8,-0.3702389597892761,1.646931767463684,-0.7462796568870544,1.2377300262451172,-0.20797674357891083,0.4064631462097168
11.825,-0.114500030875206,1.799760103225708,-0.18913395702838898,1.4123742580413818,-0.12382566928863525,0.3520902395248413
11.85,-0.044307731091976166,1.6258013248443604,0.2768723964691162,1.5229790210723877,-0.010438932105898857,0.40205010771751404
11.875,-0.10417730361223221,1.0717499256134033,0.7538526058197021,1.5768579244613647,0.18390004336833954,0.7510417699813843
11.9,0.2517770826816559,0.21262185275554657,1.172484278678894,1.5016335248947144,0.49984776973724365,1.0350606441497803
11.925,0.9904631972312927,-0.25909608602523804,0.6724095940589905,1.3328303098678589,0.42831698060035706,1.158877968788147
11.95,1.282421588897705,-0.48510172963142395,0.2539885938167572,1.2283782958984375,-0.09495892375707626,0.9661824703216553
11.975,0.7789542078971863,-0.9387827515602112,0.4256253242492676,1.0034303665161133,-0.7278995513916016,0.26385220885276794
12.0,0.0921902284026146,-1.3396369218826294,0.4013489782810211,0.8202303051948547,-1.1436206102371216,-0.3755716383457184
12.025,-0.3523297607898712,-1.5867464542388916,0.47057875990867615,0.7277165651321411,-1.329638957977295,-0.8377131223678589
12.05,-0.5646976828575134,-1.6251450777053833,0.7816425561904907,0.5940282344818115,-1.4274091720581055,-1.2285302877426147
12.075,-0.5825269818305969,-1.262354850769043,0.8268731832504272,0.451086163520813,-1.3898887634277344,-1.339646577835083
12.1,-0.2748035490512848,-0.7858219742774963,0.45575422048568726,0.3687978982925415,-1.3396614789962769,-1.3477697372436523
12.125,0.3135073184967041,-0.6564913392066956,0.09660669416189194,0.316027969121933,-1.4174240827560425,-1.510856032371521
12.15,0.8715542554855347,-0.8454524278640747,0.060082416981458664,0.20111055672168732,-1.6099811792373657,-1.800167202949524
12.175,1.0122997760772705,-0.716581404209137,0.16594506800174713,0.0016458140453323722,-1.8539799451828003,-1.9962098598480225
12.2,0.8454194068908691,-0.26390743255615234,0.17643076181411743,-0.16024768352508545,-1.9836788177490234,-2.093754768371582
12.225,0.3476390242576599,0.07315637171268463,0.06341175734996796,-0.19404985010623932,-2.091193437576294,-2.214806318283081
12.25,-0.48459377884864807,0.2995338439941406,-0.23220829665660858,-0.19576311111450195,-2.113363742828369,-2.160292625427246
12.275,-1.191645860671997,0.5201120376586914,-0.5442777872085571,-0.1362026184797287,-1.860595941543579,-1.8217339515686035
12.3,-1.5206589698791504,0.7452917098999023,-0.5549231767654419,-0.05692359060049057,-1.4277613162994385,-1.3414661884307861
12.325,-1.593074917793274,0.6905317306518555,-0.4441114664077759,0.04747135564684868,-0.9844856262207031,-0.770400881767273
12.35,-1.437859296798706,0.35887622833251953,-0.3530656099319458,0.10404976457357407,-0.5338554382324219,-0.16224466264247894
12.375,-1.1161383390426636,-0.005237607751041651,-0.23480428755283356,0.12335526198148727,-0.1827400028705597,0.26181119680404663
12.4,-0.8983868360519409,-0.27760985493659973,-0.0402446947991848,0.14020273089408875,0.016345839947462082,0.45503300428390503
12.425,-0.8931461572647095,-0.5214338898658752,0.08745848387479782,0.10721706598997116,0.07734130322933197,0.5552869439125061
12.45,-0.8030745983123779,-0.5783854126930237,0.22329461574554443,-0.028323780745267868,0.1534084528684616,0.7214117646217346
12.475,-0.6285794973373413,-0.4279079735279083,0.21605150401592255,-0.17037279903888702,0.20594646036624908,0.8201077580451965
12.5,-0.543731689453125,-0.4586086869239807,0.022140879184007645,-0.23273657262325287,0.1679154485464096,0.7884129285812378
12.525,-0.6160794496536255,-0.6001215577125549,0.20597638189792633,-0.26495686173439026,0.16284431517124176,0.7039843797683716
12.55,-0.6304922103881836,-0.5714854598045349,0.784818172454834,-0.21212732791900635,0.2620776295661926,0.565708577632904
12.575,-0.29109007120132446,-0.28741440176963806,1.460940957069397,-0.1745477318763733,0.3704223334789276,0.46392694115638733
12.6,-0.06605488061904907,0.04730726778507233,2.0477843284606934,-0.26010188460350037,0.3904852271080017,0.1688959300518036
12.625,-0.10334619134664536,-0.03024551086127758,2.296964406967163,-0.35343265533447266,0.41384389996528625,-0.16634634137153625
12.65,0.14115771651268005,-0.13098977506160736,2.3053126335144043,-0.567825198173523,0.46922793984413147,-0.29420751333236694
12.675,0.43120837211608887,0.30239513516426086,1.9312798976898193,-0.660846471786499,0.44506004452705383,-0.40506693720817566
12.7,0.35165104269981384,1.0351746082305908,1.088824987411499,-0.48451605439186096,0.3003098666667938,-0.4373362064361572
12.725,0.41808590292930603,1.6547157764434814,0.36654260754585266,-0.33508285880088806,0.40690380334854126,-0.3468305766582489
12.75,0.558890163898468,1.9512226581573486,0.14715415239334106,-0.10764946043491364,0.5271101593971252,-0.4639938175678253
12.775,0.5230222344398499,2.3356211185455322,0.16805730760097504,0.181874081492424,0.5770393013954163,-0.5679740905761719
12.8,0.30273792147636414,2.6668407917022705,0.18057143688201904,0.5297902226448059,0.6983669400215149,-0.4568699896335602
12.825,-0.12576813995838165,2.6639339923858643,0.20323309302330017,0.9542611837387085,0.9740166068077087,-0.025721533223986626
12.85,-0.4262511432170868,2.4258415699005127,0.39382585883140564,1.4620120525360107,1.3074820041656494,0.48421865701675415
12.875,-0.07111206650733948,1.7955049276351929,0.99626624584198,2.121019124984741,1.5650925636291504,0.8527482151985168
12.9,0.3737834692001343,1.2511171102523804,1.862437129020691,2.6310648918151855,1.581373691558838,0.9418148994445801
12.925,0.2989080846309662,0.7241290807723999,2.344691514968872,2.923771381378174,1.414780616760254,0.7583808302879333
12.95,0.5657017827033997,-0.6493147611618042,1.6786960363388062,3.0974714756011963,1.1222954988479614,0.744528591632843
12.975,1.2495144605636597,-2.1935808658599854,-0.16570252180099487,2.78890061378479,0.5447215437889099,0.7197480201721191
13.0,1.1115399599075317,-2.454651355743408,-2.1927480697631836,2.094180107116699,-0.09570147842168808,0.4177198112010956
13.025,-0.057737451046705246,-1.6648260354995728,-2.9199156761169434,1.2600914239883423,-0.4486507773399353,0.206734299659729
13.05,-1.1175891160964966,-0.9401925802230835,-2.1974942684173584,0.5324486494064331,-0.49976447224617004,0.2483261674642563
13.075,-0.9599205255508423,-0.23516294360160828,-1.5084154605865479,0.16311253607273102,-0.38457924127578735,0.4710034132003784
13.1,-0.11511803418397903,0.06908783316612244,-1.3127057552337646,0.015067619271576405,-0.442668080329895,0.8814312815666199
13.125,0.6701252460479736,-0.12547412514686584,-1.07765793800354,-0.38892215490341187,-0.7252165079116821,0.8819212317466736
13.15,1.2525867223739624,-0.3002006411552429,-1.1855013370513916,-0.4235823452472687,-0.9887617826461792,0.5721088647842407
13.175,1.3919973373413086,-0.1946994662284851,-1.2116292715072632,-0.4802601933479309,-1.4019728899002075,-0.1194390207529068
13.2,0.9852659106254578,0.21566766500473022,-0.7983155846595764,-0.5863109827041626,-2.0066282749176025,-0.7887882590293884
13.225,0.06581315398216248,0.4096527397632599,-0.3565804660320282,-0.5369718670845032,-2.5225021839141846,-1.2004027366638184
13.25,-1.2764543294906616,0.02522372268140316,-0.10277307778596878,-0.43939363956451416,-2.945641040802002,-1.530673861503601
13.275,-2.5014400482177734,-0.6447544693946838,-0.11286503821611404,-0.2991613745689392,-3.2597718238830566,-1.4655542373657227
13.3,-3.1125314235687256,-1.2275334596633911,-0.08258171379566193,-0.1676899641752243,-3.3289294242858887,-1.1312100887298584
13.325,-3.126429796218872,-1.778270959854126,-0.00822974182665348,0.05926148220896721,-3.2390012741088867,-0.7951133251190186
13.35,-3.147012710571289,-2.4545505046844482,-0.2888749837875366,0.2928515374660492,-3.237410306930542,-0.895167887210846
13.375,-3.642627477645874,-3.0276284217834473,-0.8454224467277527,0.5237736701965332,-3.363456964492798,-1.3008623123168945
13.4,-4.237452030181885,-3.1225059032440186,-1.4822416305541992,0.7285861372947693,-3.4201409816741943,-1.5931718349456787
13.425,-4.537589073181152,-2.8722939491271973,-2.212759256362915,0.8082773685455322,-3.4159467220306396,-1.8031806945800781
13.45,-4.490452289581299,-2.2420554161071777,-2.4524691104888916,0.5368998646736145,-3.240236520767212,-1.8529930114746094
13.475,-3.6820170879364014,-1.28584885597229,-1.3729143142700195,0.06783082336187363,-2.736135482788086,-1.644925594329834
13.5,-2.8439764976501465,-1.0290004014968872,-0.20037730038166046,-0.03849935159087181,-2.3568520545959473,-1.4042152166366577
13.525,-2.9172589778900146,-1.3350173234939575,-0.031004607677459717,-0.07989408075809479,-2.322258472442627,-1.2243947982788086
13.55,-3.5054550170898438,-1.4065247774124146,-0.29083460569381714,-0.4940517842769623,-2.0777673721313477,-0.8870717287063599
13.575,-3.653569221496582,-1.1914646625518799,-0.7439070343971252,-1.0732882022857666,-1.777605414390564,-0.4801504909992218
13.6,-3.2559075355529785,-1.2361195087432861,-1.0192874670028687,-1.629799723625183,-1.5832194089889526,-0.13937881588935852
13.625,-3.1276731491088867,-1.7630590200424194,-0.6015583276748657,-2.0684762001037598,-1.3269561529159546,0.02565748244524002
13.65,-3.2185168266296387,-1.9675848484039307,-0.20498545467853546,-2.545342445373535,-1.1110594272613525,0.022111108526587486
13.675,-2.6411919593811035,-1.0241156816482544,-0.18076330423355103,-2.6565444469451904,-1.1885629892349243,-0.3383350968360901
13.7,-1.4691801071166992,0.969335675239563,-0.02769954688847065,-2.3269715309143066,-1.5346612930297852,-0.9722676873207092
13.725,-0.16724207997322083,2.685896158218384,0.36557912826538086,-1.9142097234725952,-1.9440804719924927,-1.6001750230789185
13.75,1.3838181495666504,2.8704941272735596,0.20522131025791168,-1.7208209037780762,-2.304929256439209,-2.24446177482605
13.775,2.9941868782043457,2.2355244159698486,-0.8255525231361389,-1.4344511032104492,-2.4024248123168945,-2.7221486568450928
13.8,3.589444398880005,2.9096155166625977,-1.6301277875900269,-1.08637273311615,-1.9021271467208862,-3.0411744117736816
13.825,3.581068515777588,4.8644633293151855,-1.3164284229278564,-1.1702474355697632,-0.5366079211235046,-3.105520009994507
13.85,4.221780300140381,6.2882843017578125,-0.49169257283210754,-1.569822072982788,1.2073768377304077,-3.1644279956817627
13.875,5.566440582275391,6.325252532958984,-0.11254307627677917,-1.9125878810882568,2.595823287963867,-3.0925657749176025
13.9,7.261056900024414,7.961404800415039,1.6016196012496948,-1.38858962059021,3.5184876918792725,-3.1255204677581787
13.925,9.21178913116455,10.92547607421875,3.2234153747558594,-0.08910070359706879,3.0015079975128174,-2.933320999145508
13.95,11.019372940063477,12.271256446838379,1.0748158693313599,-0.3503442108631134,2.651517152786255,-1.8532156944274902
13.975,11.39211654663086,12.50571346282959,-2.4941484928131104,-1.1703249216079712,3.7057507038116455,0.03504766896367073
14.0,7.6853132247924805,13.103875160217285,-3.7199339866638184,-0.7349624633789062,4.795717239379883,2.075199604034424
14.025,0.8975511789321899,11.900362014770508,-1.2076261043548584,1.069565773010254,4.481102466583252,3.3102314472198486
14.05,-3.6761527061462402,7.482105731964111,3.4265100955963135,1.4415732622146606,3.541703939437866,3.423612117767334
14.075,-3.4068679809570312,2.5175211429595947,7.08990478515625,0.9712836146354675,1.9852886199951172,3.5542151927948
14.1,-3.45847487449646,-1.0237103700637817,8.449071884155273,1.495648741722107,-0.024417802691459656,3.660154342651367
14.125,-6.157123565673828,-4.019711017608643,8.737669944763184,3.06364369392395,-2.1186530590057373,3.616044759750366
14.15,-8.952652931213379,-8.02716064453125,8.31415843963623,4.773679256439209,-3.4395711421966553,3.7687811851501465
14.175,-9.978493690490723,-12.240907669067383,5.495841979980469,5.59271764755249,-4.059930801391602,3.859661817550659
14.2,-9.889404296875,-14.179627418518066,0.28070852160453796,6.079248428344727,-4.097558975219727,3.9502718448638916
14.225,-8.571462631225586,-13.625946998596191,-3.8258628845214844,5.6449127197265625,-3.488166332244873,4.015223026275635
14.25,-4.900729179382324,-12.206336975097656,-5.22574520111084,4.2778143882751465,-2.454789876937866,3.8759753704071045
14.275,0.3895151615142822,-10.416572570800781,-4.135279655456543,2.614180564880371,-2.07002329826355,3.434875011444092
14.3,4.323434829711914,-9.147252082824707,-0.18924981355667114,2.076404094696045,-2.1471076011657715,1.8402717113494873
14.325,4.742021083831787,-8.643744468688965,3.041588068008423,3.0273118019104004,-2.2892024517059326,0.03273194655776024
14.35,3.5931787490844727,-6.712687969207764,3.1442766189575195,4.88984489440918,-2.486623764038086,-1.031728744506836
14.375,1.4245545864105225,-3.202146530151367,0.9950810670852661,6.819489002227783,-3.157104969024658,-1.5565760135650635
14.4,-1.617416501045227,0.9222764372825623,-1.274407982826233,7.226583480834961,-4.000654697418213,-2.0361263751983643
14.425,-3.3128983974456787,3.5201189517974854,-2.3984203338623047,4.870087623596191,-4.599443435668945,-2.3091554641723633
14.45,-2.9205596446990967,3.0934362411499023,-3.734610080718994,1.844434142112732,-4.362944602966309,-2.8871755599975586
14.475,-1.862823486328125,1.2076115608215332,-5.411880016326904,0.03219224140048027,-3.63277530670166,-3.6181743144989014
14.5,-1.4419708251953125,-0.9657343626022339,-6.073446750640869,-1.096875548362732,-2.7825891971588135,-4.183923721313477
14.525,-2.033737897872925,-3.041395425796509,-5.53302001953125,-0.9930734038352966,-2.200835943222046,-4.35325288772583
14.55,-2.1072583198547363,-4.639244556427002,-4.797255516052246,0.008400943130254745,-2.386298179626465,-4.090410232543945
14.575,-1.770058035850525,-4.351485252380371,-4.5891618728637695,1.4128222465515137,-3.0257568359375,-3.57090425491333
14.6,-1.1681976318359375,-1.575078010559082,-5.613799095153809,2.022374391555786,-4.006844520568848,-2.5213959217071533
14.625,0.37309348583221436,2.994976282119751,-7.35015869140625,1.9700793027877808,-4.958322048187256,-1.4770575761795044
14.65,2.4981319904327393,8.125493049621582,-8.157283782958984,1.9262620210647583,-5.533979415893555,-1.1426446437835693
14.675,5.181311130523682,12.139404296875,-7.287532806396484,1.9077075719833374,-5.529373645782471,-1.4703192710876465
14.7,8.340851783752441,13.022027969360352,-4.402468681335449,2.0284128189086914,-5.165356636047363,-2.250552177429199
14.725,9.991382598876953,11.5277099609375,-1.1383821964263916,2.148510694503784,-4.016783714294434,-2.9742627143859863
14.75,10.03675365447998,9.36203384399414,0.8071635961532593,2.1140832901000977,-2.7056429386138916,-3.17641019821167
14.775,9.212173461914062,5.5860371589660645,1.9452667236328125,1.906468152999878,-1.6063827276229858,-3.126462936401367
14.8,6.225035667419434,0.7865173816680908,1.0512068271636963,2.069406032562256,-0.5873262286186218,-2.9748713970184326
14.825,2.6334826946258545,-2.141552448272705,-1.5124585628509521,2.5745046138763428,0.014833832159638405,-2.812037944793701
14.85,1.3064273595809937,-2.9034876823425293,-2.9025442600250244,2.9435505867004395,-0.08115515112876892,-2.7042431831359863
14.875,1.7000010013580322,-2.99674654006958,-2.739288091659546,2.9191839694976807,-0.5136224031448364,-2.565821409225464
14.9,2.7408640384674072,-2.679666519165039,-2.087437868118286,2.6406853199005127,-0.7542546391487122,-2.344764471054077
14.925,4.345821857452393,-1.3769724369049072,-1.1987171173095703,1.926705002784729,-1.2604037523269653,-1.8653759956359863
14.95,5.701423168182373,-0.6027127504348755,-0.259565532207489,1.1566414833068848,-1.789003610610962,-1.6634999513626099
14.975,6.092221736907959,-0.9966307282447815,0.3498493731021881,0.6986694931983948,-1.924465298652649,-1.6633485555648804
15.0,6.068901062011719,-2.319969654083252,1.1653366088867188,0.088258296251297,-2.0358614921569824,-1.6954379081726074
15.025,6.1142706871032715,-3.910541296005249,2.298668622970581,-0.5452209115028381,-2.0793542861938477,-1.5292671918869019
15.05,5.710822582244873,-4.609224319458008,2.7182278633117676,-0.8321784138679504,-1.418532133102417,-1.0655436515808105
15.075,4.844336986541748,-3.8919289112091064,2.1530556678771973,-0.7846912145614624,-0.5148059129714966,-0.4215832054615021
15.1,3.923067569732666,-3.258643388748169,1.5335949659347534,-0.9805279970169067,-0.16349861025810242,-0.010430054739117622
15.125,3.1783030033111572,-3.5637967586517334,1.5745909214019775,-1.352819561958313,-0.17874446511268616,0.08981983363628387
15.15,2.7683513164520264,-3.1532070636749268,1.5992889404296875,-1.278425931930542,0.09410528093576431,0.43041977286338806
15.175,2.561476469039917,-1.371434211730957,1.0525785684585571,-1.217755675315857,0.6795543432235718,0.9767202734947205
15.2,2.6147189140319824,0.8343193531036377,0.9254922866821289,-1.5881069898605347,0.9944769144058228,1.3576195240020752
15.225,2.92916202545166,3.1629817485809326,1.654425024986267,-1.7946879863739014,1.0264238119125366,1.7386422157287598
15.25,2.8526339530944824,4.795768737792969,3.005265951156616,-1.4653843641281128,1.042444109916687,1.8594152927398682
15.275,2.1942248344421387,5.2545013427734375,4.671102523803711,-0.5526612997055054,1.447079062461853,1.741100788116455
15.3,1.5492949485778809,4.487977981567383,5.656153202056885,0.5154429078102112,2.635697364807129,1.4075124263763428
15.325,1.0707828998565674,3.887887954711914,4.834466934204102,1.2096203565597534,4.453913688659668,0.7872025966644287
15.35,0.48999685049057007,4.920263290405273,3.2725298404693604,1.1500325202941895,5.553221702575684,0.587063193321228
15.375,0.7306593656539917,5.6257429122924805,2.392582893371582,0.5418751239776611,5.304405689239502,0.5007972121238708
15.4,1.4513832330703735,5.271382808685303,1.3450862169265747,-0.19344115257263184,4.772539138793945,0.6109265685081482
15.425,1.7191548347473145,4.721259593963623,0.6130889058113098,-0.5795034170150757,4.0471272468566895,1.1721469163894653
15.45,1.752518892288208,3.2982583045959473,0.8739192485809326,-0.5230298042297363,3.486212968826294,1.1773979663848877
15.475,1.6312097311019897,1.0003893375396729,1.047678828239441,-0.39147019386291504,3.6929824352264404,0.6190299987792969
15.5,1.2873871326446533,-1.3654061555862427,0.25920844078063965,-0.5726776123046875,4.266366958618164,0.3026611804962158
15.525,0.6071689128875732,-3.0063588619232178,-1.3909122943878174,-0.7292585372924805,4.824713230133057,0.4649367034435272
15.55,-0.8145481944084167,-4.155434608459473,-2.921989679336548,-0.5803114771842957,5.171868324279785,0.5559406280517578
15.575,-3.063693046569824,-5.948423862457275,-2.8987386226654053,-0.6102379560470581,5.2295966148376465,0.16295169293880463
15.6,-5.399767875671387,-7.897141933441162,-1.4241870641708374,-1.230316162109375,4.6241984367370605,-0.35992565751075745
15.625,-6.8406524658203125,-9.109552383422852,-0.6042049527168274,-1.8301670551300049,3.0060150623321533,0.07781429588794708
15.65,-7.099225997924805,-9.788615226745605,-0.8744006156921387,-1.4810179471969604,1.1981443166732788,1.1980739831924438
15.675,-6.177890777587891,-9.991138458251953,-1.2945855855941772,-0.6170379519462585,-0.08910787850618362,1.7352012395858765
15.7,-4.691360950469971,-8.916389465332031,-1.963124394416809,0.036646679043769836,-1.0721698999404907,1.5310643911361694
15.725,-3.776475667953491,-5.945933818817139,-3.02712082862854,0.4988986849784851,-1.7435075044631958,0.895412027835846
15.75,-3.8958823680877686,-1.7386804819107056,-3.411820888519287,0.8679267764091492,-1.8852486610412598,0.07343674451112747
15.775,-4.165282249450684,2.751030921936035,-2.6185460090637207,1.2225728034973145,-1.8061257600784302,-0.5117215514183044
15.8,-3.48223876953125,7.043403625488281,-1.3436778783798218,1.5883007049560547,-2.308288097381592,-0.6964356303215027
15.825,-1.3337290287017822,9.947492599487305,0.12907995283603668,1.708540439605713,-3.6587719917297363,-0.6206309795379639
15.85,1.7851336002349854,10.036619186401367,2.0947420597076416,1.3873316049575806,-4.527368068695068,-0.7847815155982971
15.875,3.9981696605682373,8.186717987060547,3.7987887859344482,1.1409341096878052,-3.7223238945007324,-0.9934428930282593
15.9,4.11688232421875,6.454899311065674,4.01381254196167,1.0589555501937866,-1.943743348121643,-0.8965981602668762
15.925,2.7809317111968994,5.366546630859375,3.436826705932617,1.0838605165481567,-0.1994113326072693,-0.9636220932006836
15.95,1.2303563356399536,3.965487241744995,2.840909957885742,1.0954078435897827,0.587672770023346,-1.1383099555969238
15.975,0.11218541860580444,2.455014705657959,2.0279133319854736,1.0271003246307373,0.11247705668210983,-1.0382230281829834
16.0,-0.28413107991218567,1.1373684406280518,1.073989748954773,0.7204315662384033,-1.0437506437301636,-0.8747846484184265
16.025,-0.2502109706401825,0.1261635422706604,0.3862597346305847,0.3249167799949646,-2.1859896183013916,-0.7045312523841858
16.05,-0.3032396733760834,-0.48186686635017395,0.27929526567459106,-0.10178963094949722,-2.976673126220703,-0.5677836537361145
16.075,-0.3143308460712433,-1.1471986770629883,0.6181425452232361,-0.5334532856941223,-3.644120216369629,-0.4023740589618683
16.1,-0.10691499710083008,-2.1731910705566406,1.0436447858810425,-1.0910818576812744,-4.208657264709473,-0.079316146671772
16.125,-0.34358352422714233,-2.5314526557922363,1.4448533058166504,-1.598067045211792,-4.429040908813477,0.4539983570575714
16.15,-1.2915258407592773,-1.9026509523391724,1.3739008903503418,-1.9619799852371216,-4.1308159828186035,0.8539339303970337
16.175,-1.8429797887802124,-1.5747061967849731,0.740677535533905,-2.2710983753204346,-3.6192266941070557,0.7352646589279175
16.2,-2.003863573074341,-0.8723812699317932,0.3072831630706787,-2.3152194023132324,-2.9972915649414062,0.3948837220668793
16.225,-1.8976507186889648,0.4645300507545471,0.12089147418737411,-1.8655266761779785,-2.111241340637207,-0.19211018085479736
16.25,-0.16481217741966248,1.6148580312728882,0.9393981099128723,-1.2221819162368774,-1.08464515209198,-1.403720736503601
16.275,2.72320818901062,2.8805861473083496,1.0862066745758057,-0.7828582525253296,0.003814048133790493,-2.449193239212036
16.3,4.719264984130859,4.089580059051514,-0.5566974878311157,-0.19186213612556458,1.4804811477661133,-2.770252227783203
16.325,5.273223876953125,4.317660331726074,-2.0142557621002197,0.765202522277832,2.080108642578125,-2.63167667388916
16.35,4.706524848937988,3.3552582263946533,-2.253953695297241,1.0454607009887695,1.610370397567749,-2.060805320739746
16.375,3.6468629837036133,2.0164949893951416,-0.7001855373382568,0.4758906066417694,0.6474010348320007,-1.2090184688568115
16.4,2.1115174293518066,-0.37759873270988464,0.8524196147918701,-0.11364120990037918,0.5441455245018005,-0.8230302333831787
16.425,0.7085121870040894,-2.886608123779297,1.4799813032150269,-0.016902923583984375,0.7919721603393555,-0.6459112167358398
16.45,-0.11831673979759216,-4.540599346160889,1.0128042697906494,0.23642227053642273,1.241538405418396,-0.5717328786849976
16.475,-0.6385743618011475,-4.121056079864502,-0.30915626883506775,0.6382956504821777,1.5237817764282227,-0.34481486678123474
16.5,-1.6976767778396606,-2.5745434761047363,-1.716961145401001,0.5745935440063477,1.6025753021240234,-0.09675044566392899
16.525,-2.3128468990325928,-2.202723503112793,-2.611107587814331,-0.16744501888751984,0.9942647218704224,-0.13325127959251404
16.55,-1.425665259361267,-3.0145909786224365,-2.7347872257232666,-0.8990702629089355,0.015914171934127808,0.23990260064601898
16.575,0.5974682569503784,-4.144333839416504,-2.49695086479187,-1.4368051290512085,-0.8303754329681396,0.7558387517929077
16.6,1.218387246131897,-3.7751338481903076,-2.7637863159179688,-1.089805245399475,-0.6070784330368042,0.6910824775695801
16.625,-0.5817317366600037,-2.1636626720428467,-3.1884982585906982,-0.3385680019855499,-0.1857241988182068,0.0930425152182579
16.65,-1.079845666885376,-0.8806081414222717,-3.27339768409729,-0.17136913537979126,-0.6423835158348083,0.12763960659503937
16.675,0.9527949094772339,-0.2736209034919739,-2.150698661804199,-0.7891288995742798,-1.5454925298690796,0.7121841907501221
16.7,2.628319263458252,0.46702098846435547,-0.5699472427368164,-1.0343565940856934,-1.6691838502883911,0.6829127073287964
16.725,2.4978859424591064,1.4324856996536255,-0.09768258035182953,-0.6936831474304199,-1.2491286993026733,0.3974306285381317
16.75,1.1456787586212158,3.113185405731201,-0.5273719429969788,-0.493414044380188,-0.8062976002693176,0.5580253601074219
16.775,-0.9280924201011658,4.711320400238037,-0.785197377204895,-0.397833913564682,-0.6412479877471924,0.8558964133262634
16.8,-2.932356834411621,4.313416957855225,-0.3162377178668976,-0.11269348114728928,-0.8567720651626587,0.8691501617431641
16.825,-4.170858383178711,3.4745078086853027,-0.2191900908946991,0.37666645646095276,-1.162721872329712,0.5097014904022217
16.85,-4.652328968048096,3.083003282546997,-1.4446898698806763,0.5608681440353394,-1.148964762687683,0.29563698172569275
16.875,-4.096366882324219,2.109437942504883,-2.6363439559936523,0.40770968794822693,-1.4835104942321777,0.0884036272764206
16.9,-1.612088680267334,1.5181397199630737,-2.9906344413757324,-0.006245369091629982,-2.19527530670166,-0.06254538893699646
16.925,2.073627233505249,1.6987487077713013,-1.1775230169296265,-0.8354912996292114,-3.0994434356689453,0.09774814546108246
16.95,4.123678684234619,0.5828203558921814,2.913869619369507,-1.488593578338623,-3.8848209381103516,0.05510671064257622
16.975,2.6958279609680176,-1.36640202999115,5.794076919555664,-1.1846855878829956,-3.5998518466949463,-0.07662744075059891
17.0,0.5046543478965759,-2.1842827796936035,5.843844413757324,-0.8040854334831238,-2.759079933166504,-0.12038706988096237
17.025,-0.32602396607398987,-1.7602975368499756,4.479965686798096,-1.1174657344818115,-2.5300028324127197,-0.08476163446903229
17.05,-0.9037759304046631,-0.812481701374054,2.446237325668335,-0.6243419647216797,-2.3286168575286865,0.0037127695977687836
17.075,-1.92363440990448,-0.19052009284496307,1.926405668258667,-0.37652409076690674,-2.6740362644195557,-0.026990918442606926
17.1,-2.5232737064361572,-0.1906239241361618,2.9026317596435547,-0.46350035071372986,-3.103461742401123,-0.17052046954631805
17.125,-2.0344979763031006,-1.0297763347625732,2.9011142253875732,0.15989366173744202,-2.356555700302124,-0.317313015460968
17.15,-0.8693125247955322,-1.674662470817566,2.604320526123047,0.8389847278594971,-1.7112257480621338,-0.02657717652618885
17.175,-0.6682541966438293,-1.4306504726409912,3.213721990585327,0.7871738076210022,-1.7708556652069092,0.48393574357032776
17.2,-1.2622984647750854,-0.32871678471565247,4.0022077560424805,0.26392966508865356,-2.070605516433716,0.673971951007843
17.225,-1.662746787071228,0.8839336037635803,3.4574263095855713,-0.018585562705993652,-1.9157158136367798,0.6774076223373413
17.25,-1.9510910511016846,1.367017149925232,2.3690977096557617,0.009496278129518032,-1.6348758935928345,0.6043869256973267
17.275,-2.100454092025757,1.2267793416976929,1.855544924736023,0.037237782031297684,-1.5049490928649902,0.4899405837059021
17.3,-1.8381649255752563,0.5836555361747742,1.0223194360733032,0.29075297713279724,-1.0600570440292358,0.3803538382053375
17.325,-0.9846867918968201,0.24271391332149506,-0.4101502001285553,0.6271560788154602,-0.5785776972770691,0.5396579504013062
17.35,-0.2586769163608551,-0.03904546797275543,-1.1011430025100708,0.6402949690818787,-0.7303150296211243,0.4907636046409607
17.375,0.18114858865737915,0.3340892195701599,-0.631659746170044,0.4292967617511749,-1.28695809841156,0.3478337824344635
17.4,-0.08612395077943802,1.3015538454055786,0.08563844114542007,0.30648985505104065,-1.7591416835784912,0.4562021791934967
17.425,-1.8391681909561157,0.900503396987915,0.8152036070823669,0.5647038221359253,-2.167731523513794,0.48147448897361755
17.45,-3.3133554458618164,-0.001817545504309237,1.3253201246261597,0.815719723701477,-2.026925563812256,0.5549274682998657
17.475,-3.360792398452759,-0.17769509553909302,1.565712809562683,0.9230172038078308,-1.4802470207214355,0.5069327354431152
17.5,-2.0859410762786865,-0.2261751890182495,1.218854308128357,0.9549152851104736,-0.8205339312553406,0.23791323602199554
17.525,-0.3179841637611389,-0.4564485251903534,0.6511968374252319,0.8806011080741882,-0.5797668099403381,-0.2141646444797516
17.55,1.135901689529419,-0.12267109751701355,0.3753863275051117,0.5712707042694092,-0.8024041652679443,-0.7750783562660217
17.575,2.182891845703125,0.7340747117996216,0.2833283543586731,0.3441976308822632,-1.0865472555160522,-1.1698145866394043
17.6,2.585056781768799,1.5228283405303955,0.27806350588798523,0.22013132274150848,-1.2525904178619385,-1.2232935428619385
17.625,1.9526695013046265,2.1281893253326416,0.7060595750808716,0.10358329117298126,-1.5757302045822144,-0.8422874212265015
17.65,0.9299172163009644,2.1335034370422363,1.0328172445297241,0.33741024136543274,-1.5875087976455688,-0.5109550952911377
17.675,0.45736396312713623,1.6226037740707397,1.2016702890396118,0.7465616464614868,-1.2643895149230957,-0.14820213615894318
17.7,0.25193390250205994,1.1737664937973022,1.7413681745529175,0.9935008883476257,-1.1945961713790894,0.07198219001293182
17.725,0.03922015428543091,0.5935900807380676,2.038506269454956,1.2639820575714111,-1.1052017211914062,0.3399888277053833
17.75,0.07637866586446762,-0.19620780646800995,1.823448896408081,1.472643494606018,-1.0190553665161133,0.5887764096260071
17.775,0.4609121084213257,-0.8676652312278748,1.5079385042190552,1.5408153533935547,-0.8970658183097839,0.6283225417137146
17.8,1.0411232709884644,-1.126402735710144,1.7281726598739624,1.5191333293914795,-0.8868830800056458,0.4784558415412903
17.825,1.2612364292144775,-0.9765042066574097,2.2453725337982178,1.5150560140609741,-0.9525122046470642,0.36034053564071655
17.85,0.6782383918762207,-0.2715470492839813,2.4694085121154785,1.2716612815856934,-0.9922971725463867,0.4852456748485565
17.875,-0.5161074995994568,-0.5744131207466125,2.201413631439209,1.1637507677078247,-0.9779435396194458,0.37167203426361084
17.9,-0.9355961680412292,-2.0955495834350586,1.7763572931289673,1.1909078359603882,-0.5570966601371765,0.31872180104255676
17.925,0.2537778615951538,-3.0364158153533936,1.3885471820831299,1.0587438344955444,-0.02309044450521469,0.8284006118774414
17.95,2.577392578125,-2.6892588138580322,0.6586157083511353,0.8331445455551147,0.408459335565567,1.3359565734863281
17.975,4.303314208984375,-2.17458176612854,-0.13242991268634796,0.5580220222473145,0.3483998775482178,1.0492606163024902
18.0,4.527736663818359,-2.029700517654419,-0.3677152395248413,0.29876840114593506,-0.08213048428297043,0.27417564392089844
18.025,4.073268413543701,-1.6449406147003174,-0.20861326158046722,0.1071033626794815,-0.4284440577030182,-0.007954685017466545
18.05,3.635568618774414,-0.7283945679664612,-0.12497850507497787,0.14572927355766296,-0.6965015530586243,0.08025780320167542
18.075,2.7763166427612305,0.7274294495582581,0.12584541738033295,0.08571507781744003,-1.0240336656570435,0.38527053594589233
18.1,1.1692490577697754,1.6074354648590088,-0.06235523521900177,-0.14322495460510254,-1.6093209981918335,0.765030026435852
18.125,0.10280101001262665,1.5250511169433594,-1.9056954383850098,-0.056842658668756485,-1.6570547819137573,1.0622285604476929
18.15,0.4391024708747864,2.3825900554656982,-3.2484729290008545,-0.3380710482597351,-1.4443027973175049,1.3838526010513306
18.175,0.700150728225708,3.86210560798645,-2.802323341369629,-0.615943968296051,-1.5883913040161133,0.9366779327392578
18.2,-0.5655039548873901,4.259335994720459,-1.694454550743103,-0.5675873160362244,-1.9936939477920532,-0.004228134639561176
18.225,-2.5536680221557617,3.043731927871704,-1.01729154586792,-0.4367879033088684,-2.21057391166687,-0.7584151029586792
18.25,-3.5556609630584717,1.231078028678894,-1.528960943222046,-0.25251248478889465,-1.9523197412490845,-0.7078019976615906
18.275,-3.3851237297058105,-0.14638930559158325,-2.353130340576172,-0.27430808544158936,-1.483923316001892,-0.22457265853881836
18.3,-2.7828691005706787,-2.2419161796569824,-2.256856679916382,-0.29528528451919556,-1.049487590789795,-0.4392133057117462
18.325,-2.457634925842285,-4.34182596206665,-1.610241174697876,-0.3753182888031006,-0.7816281318664551,-0.8478450775146484
18.35,-2.2692389488220215,-5.205634593963623,-1.231608510017395,-0.6182141304016113,-0.6091099381446838,-1.1760470867156982
18.375,-2.036167621612549,-5.120910167694092,-1.0105332136154175,-0.6669652462005615,-0.5565597414970398,-1.5527364015579224
18.4,-2.0012922286987305,-4.273956298828125,-0.35227179527282715,-0.9055591821670532,-0.6726647615432739,-1.9801580905914307
18.425,-2.300893783569336,-3.178164482116699,0.34053149819374084,-1.17470383644104,-0.7355670928955078,-2.5130255222320557
18.45,-2.756305694580078,-1.801737904548645,0.6666198372840881,-1.3977669477462769,-0.6120051741600037,-2.920902729034424
18.475,-2.8137850761413574,0.1298571676015854,0.765889048576355,-1.642999291419983,-0.20945657789707184,-2.9287164211273193
18.5,-2.032876968383789,1.8246300220489502,0.33754831552505493,-1.7590270042419434,0.457080602645874,-2.391643524169922
18.525,-0.8924028873443604,2.5891201496124268,0.04843783378601074,-1.8238226175308228,1.0642279386520386,-1.6980456113815308
18.55,-0.017267979681491852,2.8954575061798096,0.4366268515586853,-1.8425947427749634,1.6523224115371704,-1.301604986190796
18.575,0.7987148761749268,3.094566822052002,0.04598661884665489,-1.7929068803787231,2.167365550994873,-1.023550271987915
18.6,1.393422245979309,2.501357078552246,-1.2766157388687134,-1.4378676414489746,2.3920700550079346,-0.7785798907279968
18.625,1.973683476448059,1.5876502990722656,-1.9753488302230835,-1.0678905248641968,2.395186424255371,-0.8312481641769409
18.65,2.5290567874908447,0.8518876433372498,-1.6637367010116577,-0.7422001957893372,2.174555540084839,-0.9177340865135193
18.675,3.129514694213867,0.7040566205978394,-1.3372828960418701,-0.5067517161369324,1.949427843093872,-0.7144361734390259
18.7,3.718535900115967,0.6766498684883118,-1.892460584640503,-0.2515052855014801,1.6275575160980225,-0.30332157015800476
18.725,3.740865468978882,0.11811131983995438,-2.533113718032837,0.029331456869840622,0.8437888622283936,0.05278157442808151
18.75,3.113781213760376,-0.29816848039627075,-2.2267231941223145,0.09833667427301407,0.013410388492047787,0.10060050338506699
18.775,1.9655615091323853,-0.05566137284040451,-1.363358974456787,0.06389052420854568,-0.6505992412567139,-0.026456864550709724
18.8,0.6712492108345032,0.6689825057983398,-0.6327816843986511,-0.007525900844484568,-0.8565963506698608,-0.05810423567891121
18.825,-0.4790763556957245,1.2241765260696411,-0.30255499482154846,0.04991096630692482,-0.9137448668479919,-0.030667085200548172
18.85,-1.4524266719818115,1.1434603929519653,0.38398656249046326,0.20376235246658325,-0.9744834899902344,-0.00848753284662962
18.875,-2.0300588607788086,0.8381311893463135,1.0866490602493286,0.2128983587026596,-0.8542079329490662,0.12758328020572662
18.9,-2.384831190109253,0.9853299260139465,1.2733449935913086,0.0415625125169754,-0.7151480317115784,0.18551447987556458
18.925,-2.787496566772461,1.6770509481430054,1.1946107149124146,-0.1309053748846054,-0.7434027194976807,-0.03913624584674835
18.95,-3.208644390106201,2.057692050933838,1.2687727212905884,-0.23228833079338074,-0.7583832740783691,-0.23184867203235626
18.975,-3.5329532623291016,1.7254565954208374,1.1367425918579102,-0.4556841254234314,-0.6693479418754578,-0.25805506110191345
19.0,-3.903416156768799,1.1107245683670044,0.3235176205635071,-0.6453871726989746,-0.4553281366825104,0.01887337490916252
19.025,-3.6981725692749023,0.7992878556251526,-0.5047590732574463,-0.6726899147033691,-0.04338071867823601,0.3408474028110504
19.05,-2.5550405979156494,0.5494784712791443,-0.9088018536567688,-0.49685952067375183,0.5389373898506165,0.5741046667098999
19.075,-1.3850735425949097,-0.04117118939757347,-0.9343292713165283,-0.3707178831100464,0.7482106685638428,0.5198008418083191
19.1,-1.1085187196731567,-0.8083755373954773,-0.7402704358100891,-0.2552552819252014,0.3952179551124573,0.20939910411834717
19.125,-1.4002275466918945,-1.2454711198806763,-0.3324940800666809,-0.21478219330310822,-0.03080938011407852,-0.16329310834407806
19.15,-1.9185826778411865,-1.1827155351638794,0.23982736468315125,-0.2911902964115143,-0.12159454077482224,-0.4310688078403473
19.175,-2.786069393157959,-1.027695655822754,0.9259405136108398,-0.3543914556503296,-0.036510683596134186,-0.5451470613479614
19.2,-3.2083640098571777,-0.8524169921875,1.1567087173461914,-0.36093616485595703,0.30635958909988403,-0.517177939414978
19.225,-2.543797492980957,-0.5022791624069214,1.4303550720214844,-0.26521018147468567,0.9057050347328186,-0.409227192401886
19.25,-0.767432451248169,0.4087335765361786,1.320728063583374,-0.3131316602230072,1.4656420946121216,-0.3506775498390198
19.275,1.2888215780258179,1.3167773485183716,0.15407711267471313,-0.2864699065685272,1.5504114627838135,-0.3140527009963989
19.3,2.585402727127075,1.5189448595046997,-1.2715831995010376,-0.13647639751434326,1.0849761962890625,-0.37528759241104126
19.325,2.875643730163574,1.1666725873947144,-1.7966707944869995,-0.004647056106477976,0.33937564492225647,-0.5707859396934509
19.35,2.450255870819092,0.9672107696533203,-1.2047052383422852,0.09364668279886246,-0.2704305350780487,-0.6386884450912476
19.375,1.753659963607788,0.6537581086158752,-0.21789507567882538,0.27151134610176086,-0.6597786545753479,-0.6389129161834717
19.4,1.4423341751098633,-0.032800640910863876,0.2993067800998688,0.490521103143692,-0.7190324068069458,-0.4997233748435974
19.425,1.4915766716003418,-0.8778086304664612,0.5529950261116028,0.7106767296791077,-0.793138325214386,-0.2285842001438141
19.45,1.5744549036026,-1.332296371459961,0.7554734349250793,0.7835959196090698,-1.0507513284683228,0.06007111817598343
19.475,1.4582130908966064,-1.1432886123657227,1.400948166847229,0.7483510971069336,-1.4336997270584106,0.14056602120399475
19.5,1.0557246208190918,-0.5512444972991943,2.370394229888916,0.7193933129310608,-1.6025960445404053,0.1948700100183487
19.525,-0.08252979069948196,0.050819817930459976,3.479048490524292,0.6733204126358032,-1.6391700506210327,0.40456727147102356
19.55,-2.4442195892333984,-0.09620138257741928,4.43005895614624,0.548073947429657,-1.6109528541564941,0.38702791929244995
19.575,-4.084453582763672,-1.26650869846344,4.155938148498535,0.3216046392917633,-1.3176419734954834,0.1955101639032364
19.6,-2.7126810550689697,-2.1138038635253906,2.939645290374756,0.2933387756347656,-0.4891967475414276,0.24843992292881012
19.625,0.006770000793039799,-1.7299528121948242,1.5220654010772705,0.19228219985961914,-0.22526687383651733,0.37411198019981384
19.65,1.6093111038208008,-0.5478935837745667,0.17050418257713318,0.046298831701278687,-0.839154064655304,0.27457302808761597
19.675,1.4077671766281128,0.45380115509033203,-0.46726787090301514,0.12377408891916275,-1.7556514739990234,0.07704184949398041
19.7,-0.15227720141410828,1.234181523323059,-0.3358854055404663,0.19923309981822968,-2.200775623321533,0.046983007341623306
19.725,-1.551615834236145,1.6491729021072388,-0.7250618934631348,0.17340151965618134,-1.910038709640503,0.3815084397792816
19.75,-1.3747295141220093,1.6701240539550781,-1.9923940896987915,0.042592853307724,-1.2111760377883911,0.841618537902832
19.775,-0.48561370372772217,1.7933415174484253,-2.6666159629821777,-0.032056696712970734,-0.8218607902526855,0.8438925743103027
19.8,-0.2990065813064575,2.485025405883789,-2.6531758308410645,-0.31805992126464844,-0.9686632752418518,0.562208354473114
19.825,-1.2482991218566895,3.0823309421539307,-2.933499574661255,-0.5704327821731567,-1.3273147344589233,0.40606504678726196
19.85,-2.361391305923462,2.993647336959839,-3.354074478149414,-0.5599064230918884,-1.3559682369232178,0.3439446687698364
19.875,-2.5306599140167236,2.2506701946258545,-3.1143641471862793,-0.4097411334514618,-0.8597421050071716,0.2729957401752472
19.9,-1.9912611246109009,1.29112708568573,-2.2999141216278076,-0.2245081663131714,-0.27729764580726624,0.11834192276000977
19.925,-1.6131478548049927,0.5926616787910461,-1.7543094158172607,-0.06145468354225159,-0.08094621449708939,-0.22973965108394623
19.95,-1.4349581003189087,0.07214619219303131,-1.924453854560852,0.14202085137367249,-0.18743979930877686,-0.5921453833580017
19.975,-1.5579553842544556,-0.6708319783210754,-2.008798837661743,0.4275118112564087,-0.352853924036026,-0.7002747654914856
20.0,-1.8083610534667969,-1.2021507024765015,-1.6160743236541748,0.5080270171165466,-0.16157911717891693,-0.7400023937225342
20.025,-1.3603739738464355,-1.3394396305084229,-1.2142459154129028,0.4589831531047821,0.2638930082321167,-0.6746917366981506
20.05,-0.1585356593132019,-1.194277048110962,-1.1630642414093018,0.3315899074077606,0.5472637414932251,-0.6466746926307678
20.075,0.8025028109550476,-1.1637871265411377,-1.4773558378219604,0.2624543309211731,0.4734013080596924,-0.5963112711906433
20.1,0.9326769113540649,-0.8592846989631653,-1.5602338314056396,0.15577681362628937,0.29560086131095886,-0.5615250468254089
20.125,0.7079437971115112,-0.33393019437789917,-1.189046859741211,0.08167705684900284,0.2823760509490967,-0.40956658124923706
20.15,0.7875950932502747,0.058063410222530365,-0.8752151131629944,0.07687133550643921,0.3920484781265259,-0.1881433129310608
20.175,1.2969765663146973,0.2683066427707672,-0.9295338988304138,0.06646522134542465,0.4677942991256714,-0.00036528511554934084
20.2,1.4528785943984985,0.10432516783475876,-1.184821605682373,0.14252658188343048,0.22544510662555695,-0.04216579720377922
20.225,0.8450348377227783,-0.27609363198280334,-1.0649023056030273,0.23517143726348877,-0.09684225916862488,-0.227871373295784
20.25,-0.0704822763800621,-0.4813500940799713,-0.6574698686599731,0.25755804777145386,-0.19933046400547028,-0.34238335490226746
20.275,-1.0975284576416016,-0.3105107247829437,-0.4159495234489441,0.22182445228099823,-0.18499232828617096,-0.3905993103981018
20.3,-1.8221529722213745,-0.05865197256207466,-0.3312327265739441,0.16190005838871002,-0.06350387632846832,-0.4211491346359253
20.325,-1.8309972286224365,-0.22991760075092316,-0.3519556224346161,0.1208053007721901,0.26131629943847656,-0.33185890316963196
20.35,-1.5871490240097046,-0.5377055406570435,-0.45046594738960266,0.05657494068145752,0.48902562260627747,-0.23557955026626587
20.375,-1.5033795833587646,-0.4300767183303833,-0.4442708492279053,-0.08814813196659088,0.5129427313804626,-0.28830739855766296
20.4,-1.598461389541626,-0.14820484817028046,-0.24590176343917847,-0.17681719362735748,0.5572360157966614,-0.30520471930503845
20.425,-1.6857858896255493,0.07140254229307175,-0.13436952233314514,-0.22579731047153473,0.6324042081832886,-0.30957940220832825
20.45,-1.327136754989624,0.31161022186279297,-0.18241654336452484,-0.26363569498062134,0.752297580242157,-0.3235636353492737
20.475,-0.29538241028785706,0.6780281066894531,-0.2724585235118866,-0.3053808808326721,0.9015396237373352,-0.2575831711292267
20.5,0.6956030130386353,0.8557310700416565,-0.5796231031417847,-0.2487504631280899,0.8740320205688477,-0.12752006947994232
20.525,1.1835846900939941,0.7751245498657227,-0.9652937650680542,-0.16985413432121277,0.6904214024543762,-0.002864621579647064
20.55,1.4681423902511597,0.6385087370872498,-0.9265665411949158,-0.09543827176094055,0.5882166624069214,0.1418950855731964
20.575,1.5697039365768433,0.5258750319480896,-0.8564023375511169,-0.029469508677721024,0.5202794075012207,0.2965376377105713
20.6,1.2768887281417847,0.3054894506931305,-1.1012682914733887,0.03471185639500618,0.38081657886505127,0.46457624435424805
20.625,0.7114720940589905,0.11699951440095901,-1.0706443786621094,0.11120147258043289,0.18555006384849548,0.564622163772583
20.65,0.17021793127059937,0.13169759511947632,-0.6114106774330139,0.18198543787002563,0.09186729043722153,0.5955720543861389
20.675,-0.20720306038856506,0.17392441630363464,-0.3176713287830353,0.21543508768081665,0.07239427417516708,0.6457136869430542
20.7,-0.5179831385612488,0.023638686165213585,-0.36329707503318787,0.22845278680324554,0.06708434224128723,0.6894732713699341
20.725,-0.7292572259902954,-0.19214065372943878,-0.42233243584632874,0.2150820791721344,0.06051992252469063,0.6025625467300415
20.75,-0.7709930539131165,-0.2141295224428177,-0.3600960969924927,0.1729753613471985,0.06931058317422867,0.39209309220314026
20.775,-0.7565872073173523,-0.28741273283958435,-0.47922006249427795,0.13866274058818817,0.07783258706331253,0.23596245050430298
20.8,-0.8755794167518616,-0.5186569094657898,-0.7818253040313721,0.09002704173326492,0.011129200458526611,0.18074077367782593
20.825,-1.055646300315857,-0.44278064370155334,-0.8196390271186829,-0.0016718421829864383,-0.06532969325780869,0.13662973046302795
20.85,-1.1931411027908325,-0.1621304452419281,-0.5841242671012878,-0.03108724020421505,-0.08588554710149765,0.09640279412269592
20.875,-1.3961181640625,-0.24723348021507263,-0.47829076647758484,0.02431577630341053,-0.05382388457655907,0.099051833152771
20.9,-1.6324965953826904,-0.6321126222610474,-0.46369248628616333,0.04332183301448822,-0.039972443133592606,0.10108742117881775
20.925,-1.8621320724487305,-0.9363471865653992,-0.2759321331977844,-0.01985006220638752,-0.02353130280971527,0.07132627069950104
20.95,-2.0405349731445312,-1.0399123430252075,-0.022427864372730255,-0.11664684861898422,0.07192275673151016,0.027478765696287155
20.975,-1.9489097595214844,-1.0402928590774536,0.11346502602100372,-0.215128093957901,0.2622516453266144,0.08088439702987671
21.0,-1.5477827787399292,-0.9532347917556763,0.20097662508487701,-0.3020840287208557,0.4003766179084778,0.05590635538101196
21.025,-1.028102993965149,-0.6938848495483398,0.29511913657188416,-0.3538251221179962,0.4339435398578644,-0.0779225081205368
21.05,-0.41147568821907043,-0.177763894200325,0.46436357498168945,-0.4264620840549469,0.35970497131347656,-0.21714897453784943
21.075,0.3813358545303345,0.5936509370803833,0.680130660533905,-0.5641033053398132,0.2831476926803589,-0.3136865198612213
21.1,0.9644343256950378,1.1608994007110596,0.5015261173248291,-0.7112628817558289,0.12270884960889816,-0.33000513911247253
21.125,1.3329956531524658,1.6798155307769775,0.04522164911031723,-0.8091384172439575,-0.10575313866138458,-0.23593765497207642
21.15,1.5115444660186768,2.40173077583313,-0.40142834186553955,-0.8508657217025757,-0.21819394826889038,-0.21095125377178192
21.175,1.3246638774871826,2.676549196243286,-0.7577306628227234,-0.7335046529769897,-0.3029460310935974,-0.23003095388412476
21.2,0.9351534247398376,2.2387535572052,-0.7310807704925537,-0.5384252667427063,-0.33274930715560913,-0.19320684671401978
21.225,0.6638873219490051,1.4885913133621216,-0.33704498410224915,-0.3536854684352875,-0.3337848484516144,-0.16543292999267578
21.25,0.6746484041213989,0.9246741533279419,0.19014234840869904,-0.21733897924423218,-0.35336795449256897,-0.09487711638212204
21.275,0.7998310923576355,0.8752376437187195,0.6352651119232178,-0.20026135444641113,-0.4512098431587219,0.0441194549202919
21.3,0.833681046962738,1.1365597248077393,0.906790554523468,-0.21627284586429596,-0.5622715950012207,0.24264712631702423
21.325,0.6124613881111145,0.8843472003936768,0.8660023808479309,-0.1664707362651825,-0.5845023989677429,0.48853784799575806
21.35,0.4178016483783722,0.14555750787258148,0.7334007024765015,-0.1070069819688797,-0.44469013810157776,0.7539075016975403
21.375,0.6232098340988159,-0.2700957655906677,0.7076931595802307,-0.10721316933631897,-0.16850225627422333,0.9053205847740173
21.4,0.9300770163536072,-0.3744916319847107,0.7911282777786255,-0.06184559315443039,0.00033172027906402946,0.9211373925209045
21.425,0.9235405325889587,-0.5513677000999451,0.9865518808364868,0.017714466899633408,-0.01935568079352379,0.8042899370193481
21.45,0.9306297302246094,-0.8029889464378357,1.2935916185379028,0.08898225426673889,-0.05990259349346161,0.6907986402511597
21.475,1.1239503622055054,-1.0366801023483276,1.5644252300262451,0.10404201596975327,-0.1299239993095398,0.6052242517471313
21.5,1.1798630952835083,-1.0664957761764526,1.698428750038147,0.08322253078222275,-0.3347855806350708,0.4935188591480255
21.525,0.9239194989204407,-0.7309845089912415,1.822268009185791,0.04435347765684128,-0.6298656463623047,0.3287188410758972
21.55,0.7355210781097412,-0.3241021931171417,1.8808974027633667,0.06913544237613678,-0.7996557950973511,0.24438101053237915
21.575,0.8783626556396484,-0.18947488069534302,1.7849255800247192,0.13899490237236023,-0.8132869601249695,0.26372969150543213
21.6,0.9190621376037598,-0.4164036512374878,1.5170961618423462,0.20457349717617035,-0.8732159733772278,0.3021770119667053
21.625,0.31695231795310974,-0.7854013442993164,1.1700870990753174,0.24621808528900146,-1.076684594154358,0.2631506025791168
21.65,-0.8973484635353088,-1.0478506088256836,0.9090911746025085,0.24671073257923126,-1.2501624822616577,0.14284783601760864
21.675,-2.325939893722534,-1.1825370788574219,0.5205225944519043,0.29784414172172546,-1.2442865371704102,0.03919863700866699
21.7,-2.980293035507202,-0.09013838320970535,0.4826188385486603,0.3250439167022705,-0.8952435851097107,-0.21833272278308868
21.725,-1.6373087167739868,1.5643417835235596,0.23545272648334503,0.24041560292243958,-0.09595052152872086,-0.46473315358161926
21.75,0.2263883352279663,2.0123627185821533,-0.7753666639328003,-0.05728839337825775,0.07967299222946167,-0.4706161916255951
21.775,0.4944162666797638,1.9044685363769531,-2.1166977882385254,-0.3715389370918274,-0.4203459620475769,-0.42448633909225464
21.8,0.017658904194831848,2.311081647872925,-3.232269048690796,-0.5058349967002869,-0.29484936594963074,-0.44095686078071594
21.825,0.7823663353919983,2.6646392345428467,-3.679103136062622,-0.4799201190471649,0.6458086967468262,-0.328585147857666
21.85,2.1099014282226562,2.6028926372528076,-3.36087703704834,-0.2484927624464035,1.0799118280410767,-0.3263404071331024
21.875,2.5526773929595947,2.0945653915405273,-2.597587823867798,0.10745794326066971,0.7323093414306641,-0.5607485771179199
21.9,1.8889249563217163,0.9113243222236633,-2.2709107398986816,0.4226926565170288,0.06300104409456253,-0.7703434228897095
21.925,0.8883244395256042,-0.475791335105896,-2.4356791973114014,0.5489362478256226,-0.3003024756908417,-0.7871158123016357
21.95,0.8240869641304016,-1.1666730642318726,-2.3242299556732178,0.5875323414802551,-0.12394452840089798,-0.718297004699707
21.975,1.4538614749908447,-1.3314927816390991,-1.9530715942382812,0.6540717482566833,0.06792319566011429,-0.7720088362693787
22.0,1.7489979267120361,-1.352277159690857,-1.7452023029327393,0.7261660695075989,-0.02170124277472496,-0.9534412622451782
22.025,1.574391484260559,-1.1530497074127197,-1.4431554079055786,0.7124295234680176,-0.1996425837278366,-1.1851680278778076
22.05,1.1424371004104614,-0.5806991457939148,-0.9269736409187317,0.644995391368866,-0.19979478418827057,-1.3812896013259888
22.075,0.6338189244270325,0.006176836788654327,-0.9447394013404846,0.5481218695640564,0.012716183438897133,-1.4347137212753296
22.1,0.3968077600002289,0.11412889510393143,-1.5645906925201416,0.4162013530731201,0.29390090703964233,-1.2907639741897583
22.125,0.4571613073348999,0.24379906058311462,-1.5601394176483154,0.42283138632774353,0.78357994556427,-1.118308424949646
22.15,0.8733662962913513,0.708213746547699,-0.8330163955688477,0.5301744937896729,1.3763383626937866,-0.969003438949585
22.175,1.4302879571914673,0.8889790177345276,-0.4757445454597473,0.49086445569992065,1.6363835334777832,-0.8400660753250122
22.2,1.975550651550293,0.7127618789672852,-0.5371535420417786,0.3925005793571472,1.6734895706176758,-0.6154102683067322
22.225,2.398676633834839,0.7659788727760315,-0.3079383075237274,0.3588927090167999,1.5286195278167725,-0.49040350317955017
22.25,2.409670352935791,0.9075623750686646,0.12835583090782166,0.3959352374076843,1.3433237075805664,-0.5747052431106567
22.275,2.3051748275756836,0.7182207703590393,0.06488256901502609,0.39553242921829224,1.1071796417236328,-0.6446050405502319
22.3,2.0409061908721924,0.33168697357177734,-0.2702057957649231,0.4230620861053467,0.7470414638519287,-0.6741294264793396
22.325,1.6163275241851807,0.0681581199169159,-0.33905160427093506,0.4946553409099579,0.3975161910057068,-0.7393202185630798
22.35,1.2704912424087524,0.03804108873009682,-0.23700372874736786,0.4750134348869324,0.11868611723184586,-0.8046982288360596
22.375,0.8103938102722168,0.25875380635261536,0.05993615463376045,0.39286455512046814,-0.12792053818702698,-0.8398382067680359
22.4,0.14855653047561646,0.6052991151809692,0.6057153940200806,0.3808269500732422,-0.2311418354511261,-0.6968526840209961
22.425,-0.4282471239566803,0.7600891590118408,1.0465734004974365,0.5338318347930908,-0.06584709882736206,-0.45999419689178467
22.45,-0.7438803911209106,0.587716281414032,1.116268277168274,0.6390261054039001,0.1554136425256729,-0.23305638134479523
22.475,-0.8266521096229553,0.3090163767337799,0.9578243494033813,0.6631403565406799,0.24917460978031158,-0.08603208512067795
22.5,-0.9130857586860657,0.21259984374046326,0.5417990684509277,0.6495176553726196,0.15678617358207703,-0.07689855992794037
22.525,-1.1863319873809814,0.3569384217262268,0.31894299387931824,0.5577128529548645,-0.01699111983180046,-0.3294064700603485
22.55,-1.1789302825927734,0.35636910796165466,0.46495866775512695,0.594682514667511,-0.07446284592151642,-0.5536960363388062
22.575,-0.9088453650474548,0.10877714306116104,0.6982331275939941,0.6971698999404907,-0.07875775545835495,-0.6108554601669312
22.6,-0.8419818878173828,-0.20300382375717163,0.7792235016822815,0.7060275673866272,-0.18882928788661957,-0.6120143532752991
22.625,-1.0899230241775513,-0.4564065635204315,0.7401388883590698,0.5767391324043274,-0.35308200120925903,-0.6503286957740784
22.65,-1.1295363903045654,-0.6025152206420898,0.5783265829086304,0.4809320569038391,-0.3924872577190399,-0.6179772019386292
22.675,-0.8512884378433228,-0.7246065139770508,0.4024757444858551,0.4793849289417267,-0.39735543727874756,-0.4790102243423462
22.7,-0.6209754943847656,-0.9880514740943909,0.26658567786216736,0.4232873320579529,-0.510066032409668,-0.4370608627796173
22.725,-0.6511456966400146,-1.2662631273269653,0.19937187433242798,0.19999727606773376,-0.6850041151046753,-0.4801968038082123
22.75,-0.8878644704818726,-1.2655459642410278,0.22248582541942596,-0.10739922523498535,-0.837056040763855,-0.4796501100063324
22.775,-1.073670506477356,-0.9379931092262268,0.33349424600601196,-0.29950353503227234,-0.8250519037246704,-0.35502123832702637
22.8,-0.9973457455635071,-0.5310220718383789,0.34706342220306396,-0.3007165193557739,-0.6671150326728821,-0.026525815948843956
22.825,-0.9752262234687805,-0.3666553199291229,0.4697675108909607,-0.2770368754863739,-0.5314661860466003,0.3185620605945587
22.85,-1.0359269380569458,-0.17805667221546173,0.5025171637535095,-0.3525148630142212,-0.38524356484413147,0.5327862501144409
22.875,-0.9142578840255737,0.24827294051647186,0.1327328383922577,-0.4518895149230957,-0.2581320106983185,0.5802133083343506
22.9,-0.6078038215637207,0.43566039204597473,-0.3078613579273224,-0.42900678515434265,-0.23528611660003662,0.4885174632072449
22.925,-0.4569424092769623,0.44651126861572266,-0.39374449849128723,-0.42053771018981934,-0.2790234684944153,0.35572874546051025
22.95,-0.4952714145183563,0.5689249634742737,-0.2027263641357422,-0.4318424165248871,-0.28605982661247253,0.2111406922340393
22.975,-0.4133939743041992,0.5344458222389221,-0.15957830846309662,-0.38884398341178894,-0.22525714337825775,0.18770021200180054
23.0,-0.16394518315792084,0.3508901596069336,-0.23770380020141602,-0.34290704131126404,-0.1308269500732422,0.2953392267227173
23.025,0.18319739401340485,0.14615915715694427,-0.23771381378173828,-0.22160857915878296,-0.024673715233802795,0.4036196768283844
23.05,0.4601997435092926,0.05217645317316055,-0.25567626953125,-0.2034018635749817,-0.04557335004210472,0.31996265053749084
23.075,0.31464138627052307,0.20962999761104584,-0.36394593119621277,-0.30236226320266724,-0.22761009633541107,0.12735415995121002
23.1,-0.08027133345603943,0.48786070942878723,-0.3736366927623749,-0.29771900177001953,-0.3469044268131256,0.06210529804229736
23.125,-0.3300797641277313,0.690730094909668,-0.3669686019420624,-0.21154086291790009,-0.2721864879131317,0.1611703783273697
23.15,-0.4677782654762268,0.6820344924926758,-0.5542331337928772,-0.11858902871608734,-0.1701337695121765,0.2378154993057251
23.175,-0.3002849221229553,0.4189090430736542,-0.6626605987548828,0.06382975727319717,-0.0847766175866127,0.2675531208515167
23.2,0.09935764223337173,-0.27274999022483826,-0.41523560881614685,0.2118360698223114,-0.027977222576737404,0.20996101200580597
23.225,0.5128372311592102,-0.9612818956375122,-0.21971569955348969,0.19535833597183228,-0.047185905277729034,0.10436717420816422
23.25,0.8506826162338257,-1.0631715059280396,-0.3125334680080414,0.0533747635781765,-0.14362354576587677,-0.02522662654519081
23.275,0.9666487574577332,-0.6832915544509888,-0.5645027756690979,-0.10149581730365753,-0.3594658672809601,-0.20435014367103577
23.3,0.6726167798042297,-0.3073493242263794,-0.7158022522926331,-0.18577522039413452,-0.6040300726890564,-0.4159867763519287
23.325,0.24223919212818146,-0.04688369482755661,-0.8622223138809204,-0.2523438632488251,-0.6840000748634338,-0.5218960046768188
23.35,0.2661132514476776,0.2369660586118698,-0.9171916246414185,-0.25706109404563904,-0.5866690874099731,-0.40686288475990295
23.375,0.665736734867096,0.27192968130111694,-0.6971287131309509,-0.18953144550323486,-0.4714256525039673,-0.28613540530204773
23.4,1.0112478733062744,0.10714907199144363,-0.5337042808532715,-0.15121431648731232,-0.4741755425930023,-0.17030495405197144
23.425,1.137271761894226,0.1743268370628357,-0.6395196318626404,-0.21902471780776978,-0.6322327852249146,-0.06448434293270111
23.45,1.2405281066894531,0.44017598032951355,-0.6879647970199585,-0.23254512250423431,-0.8263572454452515,-0.010954917408525944
23.475,1.3008766174316406,0.7395544052124023,-0.42199739813804626,-0.1945277452468872,-1.007180094718933,-0.03059803508222103
23.5,1.0576720237731934,1.5415680408477783,-0.302593469619751,-0.27063044905662537,-1.148466944694519,-0.02672670967876911
23.525,-0.058330923318862915,2.551180839538574,-1.0199267864227295,-0.4960974454879761,-1.3092721700668335,-0.039141323417425156
23.55,-1.969098448753357,2.8067140579223633,-1.8661847114562988,-0.4873339831829071,-1.51055908203125,-0.04490111768245697
23.575,-3.15950345993042,2.0877685546875,-1.6222209930419922,-0.08258603513240814,-1.0585745573043823,0.2095358967781067
23.6,-2.3943915367126465,0.7837591767311096,-0.5889262557029724,0.27094605565071106,-0.17163419723510742,0.6846501231193542
23.625,-0.8263599872589111,-0.38224130868911743,0.06451762467622757,0.2939082682132721,0.23783783614635468,0.7033290266990662
23.65,-0.25193285942077637,-0.6869173645973206,-0.1650017350912094,0.11789032816886902,-0.001420226995833218,0.2737089991569519
23.675,-1.0314264297485352,-0.07327660173177719,-0.6104595065116882,0.0029533265624195337,-0.39177295565605164,-0.23609481751918793
23.7,-1.8635931015014648,0.48970985412597656,-0.3908642828464508,0.0600612536072731,-0.2985163927078247,-0.3579007387161255
23.725,-1.456934928894043,0.01669793762266636,0.4341685175895691,0.20130302011966705,0.27059057354927063,0.07715130597352982
23.75,-0.2990945279598236,-0.8526153564453125,1.0740373134613037,0.2003687173128128,0.6515288352966309,0.3824446201324463
23.775,0.7091587781906128,-1.2026309967041016,1.2921396493911743,0.05274678021669388,0.6295952796936035,0.2610138952732086
23.8,1.2290571928024292,-1.0686712265014648,1.4265469312667847,-0.10942801088094711,0.39637207984924316,-0.01580151356756687
23.825,1.1900349855422974,-0.8218974471092224,1.3970929384231567,-0.19131560623645782,0.11021433025598526,-0.1806746870279312
23.85,0.8602918386459351,-0.29777610301971436,1.1256587505340576,-0.2803093492984772,-0.1494467407464981,-0.30028945207595825
23.875,0.5445625185966492,0.3250542879104614,0.8142156600952148,-0.3215949833393097,-0.2839597463607788,-0.3300507366657257
23.9,0.12472792714834213,0.5669413805007935,0.4599210023880005,-0.3271154463291168,-0.35060209035873413,-0.26877400279045105
23.925,-0.42826080322265625,0.44541746377944946,0.0279326643794775,-0.30994629859924316,-0.34496110677719116,-0.11710192263126373
23.95,-0.7584900856018066,0.3309307098388672,-0.13765671849250793,-0.24332311749458313,-0.22405891120433807,-0.0353093221783638
23.975,-0.7787232398986816,0.3737631142139435,0.02160809189081192,-0.16289983689785004,-0.07305175065994263,-0.04694706201553345
24.0,-0.6501083374023438,0.33057311177253723,-0.051747582852840424,-0.14715535938739777,0.016066372394561768,-0.0910978838801384
24.025,-0.6940118670463562,0.18786999583244324,-0.462312787771225,-0.2026679366827011,0.04428432136774063,-0.11895132809877396
24.05,-0.8340734839439392,0.20323556661605835,-0.7204040288925171,-0.20079034566879272,0.20070351660251617,-0.07290345430374146
24.075,-0.8018435835838318,0.19249340891838074,-0.49721917510032654,-0.07497987896203995,0.4684644639492035,-0.025106847286224365
