Time [s],Acc_x [m/s^2],Acc_y [m/s^2],Acc_z [m/s^2],Gyro_x [1/s],Gyro_y [1/s],Gyro_z [1/s]
0.0,-0.10311225056648254,-0.32029151916503906,0.3119466304779053,-0.08426668494939804,0.00402422808110714,-0.04482598975300789
0.025,-0.09894134849309921,-0.26822566986083984,0.28986310958862305,-0.08397173881530762,0.004380067810416222,-0.043959613889455795
0.05,-0.11244585365056992,-0.046344734728336334,0.22441746294498444,-0.07606713473796844,0.013515057973563671,-0.02181498520076275
0.075,-0.20018698275089264,0.3134823441505432,0.15325097739696503,-0.05050129070878029,0.04139403998851776,0.03710106760263443
0.1,-0.3313479423522949,0.45739564299583435,0.1673605889081955,-0.05064953863620758,0.036674078553915024,0.015390727669000626
0.125,-0.31223180890083313,0.33115774393081665,0.21121148765087128,-0.09250852465629578,-0.020688680931925774,-0.04734329879283905
0.15,-0.1468992382287979,0.1779356449842453,0.22793081402778625,-0.08379832655191422,-0.0600440613925457,-0.057606738060712814
0.175,-0.07729722559452057,0.14876273274421692,0.18525627255439758,-0.03190584480762482,-0.057799361646175385,-0.06276335567235947
0.2,-0.20079948008060455,0.28795817494392395,0.09419301897287369,-0.02253158576786518,-0.0617203451693058,-0.0740460753440857
0.225,-0.28192687034606934,0.36858752369880676,0.08509638905525208,-0.042132433503866196,-0.03283703327178955,-0.08414208143949509
0.25,-0.17869997024536133,0.2617340385913849,0.05115153640508652,-0.11870127171278,0.09130318462848663,-0.0996461808681488
0.275,0.01497125905007124,0.13699056208133698,-0.026873096823692322,-0.14179885387420654,0.1303679496049881,-0.0994371697306633
0.3,0.06702352315187454,0.06166934594511986,-0.08381199091672897,-0.12656494975090027,0.15002839267253876,-0.03416631743311882
0.325,-0.08994102478027344,0.016156194731593132,-0.034136541187763214,-0.1189129501581192,0.16400113701820374,0.0061925617046654224
0.35,-0.18542172014713287,-0.09623527526855469,0.09564708173274994,-0.19280849397182465,0.18966414034366608,-0.01953890174627304
0.375,-0.038231637328863144,-0.2608022689819336,0.2871429920196533,-0.26385775208473206,0.21547143161296844,-0.010967707261443138
0.4,0.18619152903556824,-0.2942981421947479,0.3771980404853821,-0.29449552297592163,0.20201103389263153,0.02221342921257019
0.425,0.1782812774181366,-0.1914071887731552,0.3838983178138733,-0.3047086000442505,0.19811633229255676,0.05784376338124275
0.45,0.011468849144876003,0.006641440559178591,0.43381673097610474,-0.3234473466873169,0.2384607195854187,0.0855403020977974
0.475,-0.05315593630075455,0.20418937504291534,0.42988190054893494,-0.3751774728298187,0.27893951535224915,0.05834126099944115
0.5,-0.011163733899593353,0.26408010721206665,0.25160104036331177,-0.43007785081863403,0.2974235415458679,-0.012027580291032791
0.525,-0.12851907312870026,0.04320813715457916,0.10260487347841263,-0.3774035573005676,0.28321462869644165,-0.03651556745171547
0.55,-0.37343788146972656,-0.19458773732185364,-0.04138451814651489,-0.31237468123435974,0.2865268588066101,-0.06801795959472656
0.575,-0.4306177794933319,0.22975824773311615,-0.344892293214798,-0.24712875485420227,0.20453137159347534,-0.08396502584218979
0.6,-0.3948979079723358,0.9386005997657776,-0.44026514887809753,-0.09161604940891266,0.11802259087562561,-0.043934497982263565
0.625,-0.5672032833099365,0.7998219728469849,-0.24545405805110931,-0.1332799643278122,0.23406697809696198,-0.12864530086517334
0.65,-0.824133038520813,-0.26627829670906067,0.07031073421239853,-0.28825652599334717,0.4695907235145569,-0.2141110897064209
0.675,-0.7670710682868958,-1.167594075202942,0.3962777554988861,-0.21119336783885956,0.6593531370162964,-0.09970466047525406
0.7,-0.43174949288368225,-1.3798571825027466,0.4652474820613861,-0.008266078308224678,0.824181318283081,0.022632207721471786
0.725,-0.3060535490512848,-1.2977629899978638,0.2769399583339691,0.04518130049109459,0.8740181922912598,0.03190835565328598
0.75,-0.493282675743103,-1.3055201768875122,0.033580344170331955,0.0762617290019989,0.9348502159118652,0.13981978595256805
0.775,-0.49378857016563416,-1.4892865419387817,-0.2582099437713623,0.08510173857212067,1.0519707202911377,0.26769524812698364
0.8,0.005027825944125652,-1.4002411365509033,-0.6269807815551758,0.04272369295358658,1.0697311162948608,0.3542850911617279
0.825,0.8259099125862122,-0.5560857057571411,-0.7369166016578674,0.25721821188926697,0.8406850695610046,0.3617490828037262
0.85,1.4692494869232178,0.7326936721801758,-0.6088911294937134,0.46633586287498474,0.5740081071853638,0.23086802661418915
0.875,1.4478442668914795,1.8390980958938599,-0.6291300654411316,0.445868581533432,0.2906426787376404,0.1395428478717804
0.9,0.9348607063293457,1.8382627964019775,-0.01954716257750988,0.6251713633537292,-0.10960301011800766,0.057843852788209915
0.925,0.7080329656600952,-0.5516718626022339,1.4623373746871948,0.8036789894104004,-0.21958421170711517,-0.3058118224143982
0.95,0.9491945505142212,-3.1866843700408936,1.4879142045974731,0.37775543332099915,0.1655840128660202,-0.4111992418766022
0.975,1.153668761253357,-2.8626978397369385,0.8038378953933716,0.7598994970321655,-0.2114429771900177,-0.2994309663772583
1.0,0.8181589841842651,-1.259324073791504,1.346117377281189,1.648381233215332,-0.611015260219574,-0.24216847121715546
1.025,0.33119794726371765,-0.9516667723655701,1.6241005659103394,1.5955088138580322,-0.4023232161998749,-0.2108880579471588
1.05,0.2659497559070587,-1.439986228942871,1.050001859664917,1.4106805324554443,-0.3733270466327667,-0.20628972351551056
1.075,0.25512319803237915,-1.7141038179397583,0.626106858253479,1.5282368659973145,-0.554314136505127,-0.14913000166416168
1.1,0.21940582990646362,-1.670491337776184,0.597629189491272,1.7205368280410767,-0.6796383261680603,-0.1860368251800537
1.125,0.33983105421066284,-1.3710222244262695,0.6390150785446167,1.8436472415924072,-0.7386050224304199,-0.35517409443855286
1.15,0.33420103788375854,-0.689600944519043,0.7161052227020264,1.9614286422729492,-0.8543332815170288,-0.4974774718284607
1.175,-0.22718770802021027,0.3505183458328247,0.8378726840019226,2.04034161567688,-0.9776687026023865,-0.5494581460952759
1.2,-0.9136548638343811,1.182476282119751,0.8910991549491882,2.0556511878967285,-1.0420200824737549,-0.421357125043869
1.225,-1.047639012336731,1.4527676105499268,0.8051628470420837,1.9382855892181396,-0.928718626499176,-0.14556433260440826
1.25,-0.47619396448135376,1.2738449573516846,0.691377580165863,1.6833913326263428,-0.7038527131080627,-0.09899906069040298
1.275,0.25410884618759155,1.0424644947052002,0.6152276396751404,1.4869375228881836,-0.6096851229667664,-0.06476691365242004
1.3,0.5675739645957947,1.207789659500122,0.5435588359832764,1.4444952011108398,-0.7400023341178894,0.0503353476524353
1.325,0.28639695048332214,1.5938656330108643,0.45434048771858215,1.4744679927825928,-0.8209581971168518,0.011104593053460121
1.35,-0.31997349858283997,1.7858688831329346,0.2759335935115814,1.3357269763946533,-0.704742431640625,-0.08478286862373352
1.375,-0.8049087524414062,1.6756937503814697,0.0556270070374012,1.051215648651123,-0.5134618878364563,-0.0400993786752224
1.4,-0.8621878623962402,1.31080162525177,-0.14051979780197144,0.7334267497062683,-0.32718273997306824,0.009306292980909348
1.425,-0.46756502985954285,0.7977190613746643,-0.295436829328537,0.5481477975845337,-0.24165627360343933,-0.07193861901760101
1.45,0.08397630602121353,0.361202210187912,-0.4279748499393463,0.43904662132263184,-0.18644045293331146,-0.037163522094488144
1.475,0.37923768162727356,0.20744511485099792,-0.456156849861145,0.3413245975971222,-0.12936347723007202,0.1872621327638626
1.5,0.15131619572639465,0.2679547965526581,-0.39104190468788147,0.20493710041046143,-0.09238091856241226,0.3505373001098633
1.525,-0.37216755747795105,0.4060116112232208,-0.32073521614074707,0.07502550631761551,-0.10612626373767853,0.36480170488357544
1.55,-0.623136043548584,0.4467926323413849,-0.2998279631137848,0.015115581452846527,-0.11336176097393036,0.25181281566619873
1.575,-0.3645467460155487,0.23059557378292084,-0.39512157440185547,-0.08147243410348892,-0.008202929981052876,0.12325946241617203
1.6,-0.10408634692430496,-0.07655247300863266,-0.6028308272361755,-0.2702368497848511,0.15819916129112244,0.13215507566928864
1.625,-0.15608733892440796,-0.130896657705307,-0.6620684266090393,-0.2991569936275482,0.17368268966674805,0.18287701904773712
1.65,-0.36900705099105835,0.27461904287338257,-0.7174271941184998,-0.2675372064113617,0.12852530181407928,0.20172695815563202
1.675,-0.5765785574913025,0.8704099655151367,-0.8949330449104309,-0.2920280694961548,0.1285066455602646,0.14179140329360962
1.7,-0.601101815700531,0.9751701354980469,-0.8450291752815247,-0.2931530177593231,0.1697411835193634,-0.05920080095529556
1.725,-0.5634073615074158,0.6193561553955078,-0.5896841883659363,-0.3513683080673218,0.26360490918159485,-0.1618206948041916
1.75,-0.5342249274253845,0.621556282043457,-0.4978169798851013,-0.4887429177761078,0.29750069975852966,-0.0042535061948001385
1.775,-0.45618385076522827,0.9153395295143127,-0.6793942451477051,-0.6807506084442139,0.3165590167045593,0.15789151191711426
1.8,-0.36491289734840393,0.7801218032836914,-0.9054023623466492,-0.8401167392730713,0.38211435079574585,0.09477318078279495
1.825,-0.2276887148618698,0.364525705575943,-0.924616277217865,-0.9114803671836853,0.3993706703186035,-0.0978732630610466
1.85,-0.02808086946606636,0.3339681029319763,-0.80030757188797,-0.980201244354248,0.3377268314361572,-0.1775004118680954
1.875,0.07424885034561157,0.44063565135002136,-0.6972768306732178,-1.1638245582580566,0.3435489535331726,-0.2225542515516281
1.9,-0.12905257940292358,0.1959475874900818,-0.7481070160865784,-1.401686668395996,0.4412551522254944,-0.23820993304252625
1.925,-0.5457672476768494,-0.34341636300086975,-0.9580773115158081,-1.5337531566619873,0.4898129403591156,-0.18618208169937134
1.95,-0.8860119581222534,-0.8027126789093018,-1.130203127861023,-1.5251774787902832,0.47525596618652344,-0.0035572079941630363
1.975,-0.9558793306350708,-0.9652540683746338,-1.0736398696899414,-1.4954283237457275,0.4735088348388672,0.18097612261772156
2.0,-0.8786115050315857,-0.7861425876617432,-0.8622509837150574,-1.5791596174240112,0.5519460439682007,0.270945280790329
2.025,-0.7815966010093689,-0.4663611948490143,-0.7062000632286072,-1.7260853052139282,0.6228458285331726,0.2336864322423935
2.05,-0.6246101260185242,-0.49742141366004944,-0.6696166396141052,-1.873523235321045,0.6539690494537354,0.17238010466098785
2.075,-0.28827589750289917,-0.821641206741333,-0.8421666622161865,-1.8944870233535767,0.7464845776557922,0.2324446588754654
2.1,-0.039276499301195145,-0.7819740772247314,-1.1646454334259033,-1.8843324184417725,0.8723745346069336,0.40300190448760986
2.125,-0.13843099772930145,0.2491692751646042,-0.8886176347732544,-1.8074438571929932,0.7169727087020874,0.42644837498664856
2.15,0.016010509803891182,1.9043219089508057,0.14050507545471191,-1.7065436840057373,0.43286603689193726,0.12609559297561646
2.175,0.6781463027000427,2.906214952468872,0.6513738632202148,-1.874422550201416,0.6109076142311096,-0.03127649798989296
2.2,1.0391242504119873,2.3407280445098877,0.17775669693946838,-2.0867562294006348,0.8081091046333313,0.0940965935587883
2.225,0.7792329788208008,0.7784606218338013,-0.037281833589076996,-2.1928906440734863,0.45687127113342285,0.1297127604484558
2.25,0.9085227847099304,-0.04205407574772835,0.8846465945243835,-1.992989182472229,-0.15973703563213348,0.00436841044574976
2.275,1.805860161781311,-0.1789281815290451,1.7587448358535767,-2.0059609413146973,-0.17890849709510803,-0.35635679960250854
2.3,2.597405195236206,-0.352498859167099,1.616300344467163,-2.2579915523529053,0.2076638638973236,-0.39393365383148193
2.325,2.565483570098877,-0.06594834476709366,1.248400330543518,-1.8931634426116943,0.2672263979911804,0.1394864320755005
2.35,1.960660696029663,0.44875645637512207,1.4166734218597412,-1.3842995166778564,0.11162014305591583,0.496701180934906
2.375,1.4808942079544067,0.3176977038383484,1.245312213897705,-1.3884248733520508,0.11093433201313019,0.26499655842781067
2.4,1.171417236328125,-0.08978552371263504,0.5187926888465881,-1.3508105278015137,0.1669166386127472,0.09851173311471939
2.425,0.9608511924743652,-0.016825636848807335,0.34890592098236084,-0.8482753038406372,0.084342360496521,0.19649377465248108
2.45,0.912778377532959,0.1769009381532669,0.4982559084892273,-0.6181822419166565,-0.003977030515670776,0.2545574903488159
2.475,1.0886681079864502,-0.18416304886341095,0.4814169406890869,-0.6654622554779053,-0.09698262065649033,0.21034382283687592
2.5,1.0309386253356934,-0.929751455783844,0.38808783888816833,-0.8134593367576599,-0.1777738630771637,0.15021871030330658
2.525,0.6424364447593689,-1.38056480884552,0.40774857997894287,-0.7658109664916992,-0.3311077058315277,0.15818092226982117
2.55,0.39785054326057434,-1.4679538011550903,0.4507473409175873,-0.6948844194412231,-0.4482104480266571,0.10940002650022507
2.575,0.5221566557884216,-1.3806535005569458,0.3824275732040405,-0.7713266611099243,-0.621092677116394,-0.021859431639313698
2.6,0.7944869995117188,-1.2090007066726685,0.19784189760684967,-0.8996352553367615,-0.8441547155380249,-0.18691571056842804
2.625,0.9857735633850098,-0.9193516969680786,0.05826602876186371,-0.9315875768661499,-1.0048549175262451,-0.27324265241622925
2.65,1.1289485692977905,-0.8066064119338989,0.0174885131418705,-1.0474587678909302,-1.062728762626648,-0.4421360492706299
2.675,1.2505922317504883,-0.9813624620437622,-0.05098704993724823,-1.167202115058899,-1.1222913265228271,-0.6001428365707397
2.7,1.3363962173461914,-1.1583892107009888,-0.18272852897644043,-1.0728943347930908,-1.153261423110962,-0.6399406790733337
2.725,1.4206256866455078,-1.060014009475708,-0.5436472296714783,-0.8584537506103516,-1.0973509550094604,-0.6516683101654053
2.75,1.534237265586853,-0.710432231426239,-0.9809406995773315,-0.609800398349762,-1.059657096862793,-0.5183412432670593
2.775,1.8296740055084229,-0.8502275943756104,-0.990506649017334,-0.4974757134914398,-0.8869569897651672,-0.36406558752059937
2.8,2.296355724334717,-1.737982153892517,-0.6368662118911743,-0.5455119013786316,-0.6378892660140991,-0.3562462031841278
2.825,2.250086784362793,-2.355902910232544,-0.8418000340461731,-0.329426646232605,-0.41387060284614563,-0.19158850610256195
2.85,1.1296831369400024,-1.849496841430664,-1.7266087532043457,0.19250540435314178,-0.3782373070716858,0.17226377129554749
2.875,-0.47911006212234497,-0.2996734082698822,-2.5069572925567627,0.5645319223403931,-0.49917852878570557,0.2466742843389511
2.9,-1.4897444248199463,1.6831512451171875,-2.3865768909454346,0.6063375473022461,-0.628052294254303,0.05296333134174347
2.925,-1.5611680746078491,2.7722513675689697,-0.38526129722595215,0.32870054244995117,-0.7296286225318909,0.04007510095834732
2.95,-0.7643227577209473,1.480787754058838,2.606358528137207,-0.30800366401672363,-0.3515447974205017,0.13518035411834717
2.975,-0.2769644856452942,0.031544141471385956,3.4031455516815186,-0.5044869184494019,-0.011901725083589554,0.48093655705451965
3.0,-1.4963099956512451,0.6393712759017944,2.6505184173583984,0.26691925525665283,-0.31022176146507263,0.6186039447784424
3.025,-2.9922471046447754,1.7289910316467285,1.7656011581420898,0.8005956411361694,-0.27673444151878357,0.3157634139060974
3.05,-3.5961341857910156,2.4336750507354736,0.9217227697372437,0.6661336421966553,-0.32740700244903564,0.41439583897590637
3.075,-3.664626121520996,2.7820589542388916,0.8880886435508728,0.47126251459121704,-0.7844094038009644,0.47442302107810974
3.1,-3.21838116645813,2.608119487762451,1.2652699947357178,0.15747763216495514,-1.1144602298736572,0.00036217286833561957
3.125,-2.5487639904022217,2.4908204078674316,1.5252270698547363,0.0821136012673378,-1.2671176195144653,-0.40597450733184814
3.15,-1.9951263666152954,2.2466368675231934,1.753922939300537,0.23585444688796997,-1.3249537944793701,-0.3796980679035187
3.175,-1.8993613719940186,1.0641826391220093,2.04608416557312,0.09436298906803131,-1.2589761018753052,-0.18440406024456024
3.2,-1.764600396156311,-0.7285869717597961,2.240689277648926,-0.2001514732837677,-1.1470799446105957,-0.2887622117996216
3.225,-1.4196020364761353,-2.0532989501953125,2.0051159858703613,-0.2514292597770691,-0.9170977473258972,-0.362010657787323
3.25,-1.191532850265503,-2.5886549949645996,1.3538097143173218,-0.12494829297065735,-0.6872462630271912,-0.24314802885055542
3.275,-1.222483515739441,-2.5987141132354736,0.4314422607421875,-0.05909270793199539,-0.5038361549377441,-0.08197546750307083
3.3,-1.384666085243225,-2.3321306705474854,-0.08833347260951996,-0.11862961202859879,-0.3445568084716797,-0.09976159036159515
3.325,-1.3639752864837646,-1.7406103610992432,-0.054942406713962555,-0.1692807376384735,-0.20955400168895721,-0.13727807998657227
3.35,-1.2542694807052612,-1.0456887483596802,0.05460597574710846,-0.24051065742969513,-0.07234353572130203,-0.10256858170032501
3.375,-1.3047133684158325,-0.32808688282966614,-0.09609512984752655,-0.3004912734031677,-0.0009365109144710004,0.07169456034898758
3.4,-1.495917797088623,0.46515658497810364,-0.3537534177303314,-0.19628040492534637,-0.16112549602985382,0.25546786189079285
3.425,-1.542877197265625,0.7162933349609375,-0.3493717610836029,-0.19474413990974426,-0.34544432163238525,0.19927635788917542
3.45,-1.3374305963516235,0.299559623003006,-0.11553642898797989,-0.3409019112586975,-0.36845043301582336,0.15075816214084625
3.475,-0.9898059368133545,-0.0184459425508976,0.2330794334411621,-0.3459237515926361,-0.32429051399230957,0.19710597395896912
3.5,-0.654664933681488,0.14265163242816925,0.4479157030582428,-0.19602133333683014,-0.3275409936904907,0.22019901871681213
3.525,-0.35770025849342346,0.3472338318824768,0.20251040160655975,-0.08745129406452179,-0.26593902707099915,0.1618330031633377
3.55,-0.12054093927145004,0.5527572631835938,-0.4036000669002533,0.007585227023810148,-0.22718088328838348,0.2196117639541626
3.575,0.07856619358062744,0.8315773606300354,-0.7176621556282043,0.05567539110779762,-0.24064159393310547,0.21186235547065735
3.6,0.2352631539106369,0.8193922638893127,-0.5481888055801392,0.005001068580895662,-0.20729820430278778,0.02892235293984413
3.625,0.10808923095464706,0.30428314208984375,-0.213725283741951,-0.02747996151447296,-0.19853170216083527,-0.06380832195281982
3.65,-0.18010461330413818,-0.3318023979663849,-0.062252286821603775,-0.015212351456284523,-0.1271246373653412,-0.023374043405056
3.675,-0.15501511096954346,-0.5576229691505432,-0.02996700443327427,0.002556413412094116,-0.15765754878520966,0.0008381392690353096
3.7,0.06403086334466934,-0.4078045189380646,0.2900078594684601,0.034305159002542496,-0.09868515282869339,0.027792315930128098
3.725,0.20557743310928345,-0.19144529104232788,0.7388967275619507,0.05232085660099983,0.17918238043785095,0.1320500522851944
3.75,0.08899655193090439,-0.17174232006072998,1.140213966369629,0.06835484504699707,0.38797318935394287,0.1257038414478302
3.775,0.005872957408428192,-0.31801876425743103,1.44661283493042,0.07311320304870605,0.626552164554596,0.09169980883598328
3.8,0.3281090259552002,-0.20785413682460785,1.3584169149398804,0.08159438520669937,0.9131998419761658,0.23760564625263214
3.825,0.608015775680542,0.3357182741165161,0.7381507158279419,0.19881737232208252,0.9066599607467651,0.5443910956382751
3.85,0.5113691091537476,0.8998051881790161,-0.12543927133083344,0.21763241291046143,0.515048086643219,0.6868558526039124
3.875,0.26641425490379333,1.1814422607421875,-0.5893997550010681,0.18571235239505768,-0.009035690687596798,0.5952336192131042
3.9,0.19061730802059174,0.9596081376075745,-0.34247592091560364,0.08273342996835709,-0.4079795479774475,0.32910141348838806
3.925,0.47172853350639343,0.13584238290786743,0.3678569793701172,-0.1261768937110901,-0.5072680711746216,-0.06238259747624397
3.95,1.0189275741577148,-0.8351430892944336,0.8388625979423523,-0.1909170150756836,-0.39864465594291687,-0.2162671536207199
3.975,1.3148561716079712,-1.3240824937820435,0.4962652623653412,-0.0444667786359787,-0.28528210520744324,-0.004062537103891373
4.0,0.9794955253601074,-1.5931684970855713,-0.3559863269329071,0.023649608716368675,-0.3620023727416992,0.03708450496196747
4.025,0.38068076968193054,-1.9128507375717163,-0.9512866735458374,0.06224028766155243,-0.6373090147972107,-0.08976323902606964
4.05,-0.25723886489868164,-1.9776686429977417,-0.9256790280342102,0.06777298450469971,-0.7352339029312134,-0.24811765551567078
4.075,-0.9996263384819031,-0.8604280352592468,-0.4844021797180176,0.13785527646541595,-0.6144935488700867,-0.277292937040329
4.1,-1.1481812000274658,1.1511365175247192,0.42570769786834717,0.23392601311206818,-0.4048037528991699,-0.1375172734260559
4.125,-0.04622979462146759,1.98184335231781,0.8500419855117798,-0.020185163244605064,-0.021371841430664062,-0.2856126129627228
4.15,0.4258817136287689,1.9083216190338135,0.22159668803215027,-0.0443887822329998,0.1110730916261673,0.2101045697927475
4.175,-1.151019811630249,1.920039415359497,-0.044794078916311264,0.1665431708097458,-0.1463661938905716,0.23140420019626617
4.2,-2.5127148628234863,1.8228819370269775,0.18682409822940826,-0.04966161772608757,-0.3297345042228699,-0.3984431326389313
4.225,-2.433675765991211,1.2655240297317505,0.3488468825817108,-0.2918523848056793,-0.25231555104255676,-0.3289763927459717
4.25,-1.8235005140304565,0.3722439110279083,-0.0764971375465393,-0.2660168707370758,-0.2610815167427063,0.03809363767504692
4.275,-1.8187154531478882,-0.50727379322052,-0.660394012928009,-0.12945377826690674,-0.4979463517665863,-0.004904210567474365
4.3,-1.8995811939239502,-0.6904021501541138,-0.7048810124397278,-0.015377668663859367,-0.5379647612571716,-0.10625685751438141
4.325,-1.3714183568954468,-0.1923714429140091,-0.3818853795528412,0.06997288018465042,-0.41689079999923706,-0.051786281168460846
4.35,-1.0796241760253906,0.19692419469356537,-0.418853223323822,0.11056900769472122,-0.3334417939186096,0.08154303580522537
4.375,-1.4392497539520264,-0.33120545744895935,-0.6044749021530151,0.04067276790738106,-0.17544075846672058,0.021196946501731873
4.4,-1.7871148586273193,-1.3401472568511963,-0.576138436794281,-0.09687509387731552,0.01749364100396633,-0.06758537888526917
4.425,-1.7327141761779785,-1.903433084487915,-0.43860307335853577,-0.2026798278093338,0.07160904258489609,-0.09277348220348358
4.45,-1.4828722476959229,-1.48078453540802,-0.4477245807647705,-0.2608727514743805,-0.001081597525626421,-0.09691254049539566
4.475,-1.1244479417800903,-0.08726317435503006,-0.4843910038471222,-0.26648062467575073,-0.007157366257160902,-0.019111763685941696
4.5,-0.4926017224788666,1.5393383502960205,-0.24098481237888336,-0.26496952772140503,-0.10643929988145828,-0.12669777870178223
4.525,-0.10034418851137161,2.98055100440979,0.12106186896562576,-0.1712425798177719,-0.26448050141334534,-0.23067013919353485
4.55,0.4057396352291107,3.20731782913208,0.2061721384525299,-0.058710116893053055,-0.17786583304405212,-0.465364545583725
4.575,0.8981873989105225,2.6761534214019775,-0.10648775100708008,-0.2619803249835968,-0.12579825520515442,-0.44396376609802246
4.6,1.147283673286438,2.3753836154937744,-0.2803899645805359,-0.36336734890937805,-0.06678775697946548,-0.19983887672424316
4.625,1.4498136043548584,1.6819851398468018,0.014865667559206486,-0.2688945531845093,-0.05527036264538765,-0.10397948324680328
4.65,1.6661972999572754,0.08352763205766678,0.503294050693512,-0.2193722277879715,-0.062364816665649414,-0.1540672481060028
4.675,1.4334346055984497,-1.172917366027832,0.565193772315979,-0.20836691558361053,0.12054657936096191,0.028934165835380554
4.7,1.1299552917480469,-1.5508902072906494,0.11120273917913437,-0.20169977843761444,0.31564921140670776,0.1816050261259079
4.725,1.1025596857070923,-1.2742501497268677,-0.36562907695770264,-0.08617526292800903,0.5050662159919739,0.31801638007164
4.75,1.0696187019348145,-0.7193948030471802,-0.6065382361412048,-0.0869455561041832,0.5282419919967651,0.2531157433986664
4.775,1.0973122119903564,-0.2822905480861664,-0.5287810564041138,-0.18492062389850616,0.34388044476509094,0.030190808698534966
4.8,1.1368659734725952,-0.24175268411636353,-0.19293197989463806,-0.27969175577163696,0.31809940934181213,-0.09111640602350235
4.825,0.903367817401886,-0.3782701790332794,0.33969348669052124,-0.2714724838733673,0.35962721705436707,-0.08139932155609131
4.85,0.4101352095603943,-0.325161874294281,0.6757572293281555,-0.20931808650493622,0.38051801919937134,-0.10783858597278595
4.875,-0.07505886256694794,0.03769403696060181,0.4762645959854126,-0.10693233460187912,0.4252452850341797,-0.0489591620862484
4.9,-0.23256826400756836,0.2525463402271271,0.023511243984103203,0.035654958337545395,0.44295114278793335,0.06282967329025269
4.925,0.02525450848042965,-0.014862091280519962,-0.2431568205356598,0.09585977345705032,0.4325203597545624,0.0694640576839447
4.95,0.31858959794044495,-0.3336945176124573,-0.20334847271442413,0.11246130615472794,0.32289350032806396,0.09084995090961456
4.975,0.33144527673721313,-0.2619648277759552,-0.09731568396091461,0.15455088019371033,0.17124256491661072,0.1865723431110382
5.0,0.13070963323116302,-0.06298542022705078,0.08817888796329498,0.1986543983221054,0.06268548220396042,0.1707552969455719
5.025,0.11430223286151886,-0.030548036098480225,0.5388340950012207,0.24347682297229767,-0.024385303258895874,0.0019435323774814606
5.05,0.37776511907577515,-0.13698379695415497,0.8032933473587036,0.20263145864009857,-0.10725650936365128,-0.24015089869499207
5.075,0.6041831970214844,-0.10556979477405548,0.49661150574684143,0.15853537619113922,-0.1963215172290802,-0.28928908705711365
5.1,0.40656065940856934,-0.021416649222373962,0.1466943472623825,0.1420200616121292,-0.2840649485588074,-0.22294928133487701
5.125,-0.2751502990722656,-0.1877441555261612,0.12315240502357483,0.07233209908008575,-0.34461456537246704,-0.3444254994392395
5.15,-0.7319430112838745,0.3850117027759552,-0.2389243096113205,0.0269299503415823,-0.4252370297908783,-0.24330376088619232
5.175,-0.3638269603252411,1.5553972721099854,-0.42398086190223694,-0.06783276796340942,-0.6510387659072876,-0.3155655860900879
5.2,0.3746201694011688,1.123424768447876,0.5108595490455627,-0.3640896677970886,-0.5677633285522461,-0.6391870379447937
5.225,0.41191500425338745,-0.05582325533032417,0.6495469808578491,-0.6834317445755005,-0.0403134822845459,-0.16820259392261505
5.25,-0.03626411035656929,-0.2244798094034195,-0.8183571100234985,-0.5079808235168457,0.11419004946947098,0.3961336314678192
5.275,-0.27579960227012634,0.22003528475761414,-2.4709808826446533,-0.17138653993606567,0.08782366663217545,0.35160118341445923
5.3,-0.22168181836605072,0.2871806025505066,-2.825241804122925,-0.19908550381660461,-0.05879032239317894,0.07525741308927536
5.325,0.03455391153693199,-0.020855233073234558,-2.364410400390625,-0.3757246136665344,-0.32824158668518066,0.16298668086528778
5.35,0.0621417872607708,-0.4201072156429291,-2.182675361633301,-0.30445221066474915,-0.5377854704856873,0.3262748420238495
5.375,-0.5206775069236755,-0.43343386054039,-2.3257358074188232,-0.023325782269239426,-0.6329692602157593,0.4632345736026764
5.4,-1.2060626745224,-0.14213302731513977,-2.079270601272583,0.22245047986507416,-0.4873889684677124,0.49261799454689026
5.425,-1.6204222440719604,0.19409264624118805,-1.1443361043930054,0.237193763256073,-0.48541808128356934,0.3871236741542816
5.45,-1.606315016746521,0.5078516602516174,-0.23523841798305511,0.21654246747493744,-0.4117712676525116,0.21284514665603638
5.475,-1.436674952507019,0.7000618577003479,0.014706035144627094,0.3077375888824463,-0.2376614809036255,0.13256444036960602
5.5,-1.4395605325698853,0.41126158833503723,-0.34753891825675964,0.4634915888309479,-0.04637325927615166,0.3200770616531372
5.525,-1.671806812286377,-0.44926372170448303,-0.8022049069404602,0.5285298824310303,0.09734416007995605,0.4193968176841736
5.55,-1.9438443183898926,-0.9974367618560791,-0.950031578540802,0.46593615412712097,0.12204573303461075,0.3155984878540039
5.575,-2.036892890930176,-0.664477527141571,-0.8655650019645691,0.34821879863739014,0.07777160406112671,0.21331970393657684
5.6,-2.023775100708008,0.10185521841049194,-0.5983689427375793,0.30918529629707336,0.1532595455646515,0.1624056100845337
5.625,-1.8981479406356812,0.547880232334137,-0.05978761985898018,0.326960027217865,0.5308237671852112,0.14412584900856018
5.65,-1.5285358428955078,0.5111600160598755,0.4948351979255676,0.11256881803274155,1.2671785354614258,0.05891483277082443
5.675,-1.10334050655365,0.3856021761894226,1.045339584350586,-0.639968752861023,0.9549568891525269,-0.3553726375102997
5.7,-0.5336385369300842,0.003187241032719612,0.512637734413147,-1.2111953496932983,0.4554850459098816,-0.8583698868751526
5.725,-0.5463287234306335,0.6228341460227966,-0.9935821890830994,-0.7804445028305054,0.46245530247688293,-0.38913020491600037
5.75,-0.9770230650901794,0.8998430967330933,-1.8118668794631958,-0.16716037690639496,0.44126811623573303,-0.14536172151565552
5.775,-0.7683866024017334,-0.2786247134208679,-1.374452829360962,0.04593505710363388,0.26231202483177185,-0.4399529695510864
5.8,-0.09468431025743484,-0.9635278582572937,-0.5869280695915222,-0.11848145723342896,0.11626866459846497,-0.47686514258384705
5.825,0.5235344767570496,-0.15909773111343384,-0.4330379366874695,-0.20202679932117462,0.04837769642472267,-0.2305711954832077
5.85,0.8395852446556091,0.9878768920898438,-0.9645912051200867,-0.05273878201842308,0.11591823399066925,-0.12423665076494217
5.875,0.8227577209472656,1.0362892150878906,-1.3695875406265259,-0.053021468222141266,0.026608360931277275,-0.36114826798439026
5.9,0.4261159896850586,0.07479558885097504,-1.204058051109314,-0.26461848616600037,-0.1630408763885498,-0.5006290078163147
5.925,0.3759888708591461,-0.961810290813446,-0.4364136755466461,-0.3402746617794037,-0.21578891575336456,-0.4937187433242798
5.95,0.5908000469207764,-1.159037709236145,-0.05496356263756752,-0.22499065101146698,-0.20392493903636932,-0.28299155831336975
5.975,0.47354307770729065,-0.5807353258132935,-0.4620338976383209,0.052371032536029816,-0.3090643882751465,-0.0020121585112065077
6.0,0.3809100091457367,0.1373547613620758,-0.9045735001564026,0.10076694190502167,-0.5159679651260376,0.1067616194486618
6.025,0.7745135426521301,0.6296987533569336,-0.5120623111724854,0.09923884272575378,-0.3546798825263977,0.17590442299842834
6.05,1.4393367767333984,0.16903312504291534,0.44716331362724304,-0.12654730677604675,-0.25888535380363464,-0.012781801633536816
6.075,1.1484578847885132,-0.2689637541770935,0.7279939651489258,-0.10246873646974564,-0.23810690641403198,0.04871295765042305
6.1,0.48095211386680603,-0.20225906372070312,0.2817451059818268,0.07115064561367035,-0.18462155759334564,0.19850538671016693
6.125,0.121741883456707,-0.1289825439453125,0.06679201126098633,0.15899652242660522,-0.2617014944553375,0.41668322682380676
6.15,0.0287996307015419,-0.46178534626960754,0.2592964470386505,0.16546230018138885,-0.3758215606212616,0.56265789270401
6.175,0.4260326325893402,-0.7878791093826294,0.2099618911743164,0.23118898272514343,-0.3955349624156952,0.622353196144104
6.2,0.6573876142501831,-0.5146504640579224,-0.28931382298469543,0.274641752243042,-0.37107789516448975,0.49340131878852844
6.225,0.4952734708786011,0.2222718596458435,-0.8027006983757019,0.333855003118515,-0.5422736406326294,0.342775821685791
6.25,0.3431786596775055,0.4855011999607086,-1.2406163215637207,0.3218279778957367,-0.9298874735832214,0.2507422864437103
6.275,-0.1772710680961609,0.28829360008239746,-2.3664488792419434,0.2324824035167694,-1.5364562273025513,0.4394928216934204
6.3,-0.9390995502471924,0.22344082593917847,-2.8075737953186035,0.2170013189315796,-2.3429455757141113,0.2883972227573395
6.325,-1.246066927909851,0.9624994993209839,-1.7603013515472412,0.10819680988788605,-2.4754889011383057,-0.03912938013672829
6.35,-0.9553614854812622,2.1977827548980713,0.239815354347229,-0.08929862082004547,-2.3766250610351562,0.19354654848575592
6.375,-0.17699243128299713,1.951688289642334,1.5501598119735718,-0.3227258026599884,-1.7526925802230835,0.21761269867420197
6.4,0.3082951009273529,0.44464224576950073,0.8858290910720825,-0.29036402702331543,-1.3897427320480347,0.3646799325942993
6.425,-0.048966068774461746,-0.8365805149078369,-0.8096821308135986,-0.2330784648656845,-1.2084556818008423,0.4596477746963501
6.45,-0.5568367838859558,-1.169165015220642,-1.827422022819519,-0.057722073048353195,-0.9522077441215515,0.07615784555673599
6.475,-0.8966923952102661,-0.5330431461334229,-1.5192047357559204,0.17395000159740448,-0.868619978427887,0.0009962167823687196
6.5,-1.262121319770813,-0.021679984405636787,-0.8776193261146545,0.1076088547706604,-0.7719671130180359,0.048847708851099014
6.525,-1.4780104160308838,-0.1719256341457367,-0.5857397317886353,-0.05439398065209389,-0.6836111545562744,0.022010406479239464
6.55,-1.5099601745605469,-0.08894448727369308,-0.3996872305870056,-0.015110145322978497,-0.5492010116577148,0.05651354417204857
6.575,-1.107792854309082,0.5119657516479492,-0.3736920654773712,0.06526084989309311,-0.23200255632400513,0.13953782618045807
6.6,-0.3395501971244812,0.6321859359741211,-0.7016363739967346,0.06574908643960953,-0.13445907831192017,0.19799961149692535
6.625,0.33579784631729126,-0.11427608877420425,-1.2074551582336426,0.04738456755876541,-0.12333172559738159,0.15000958740711212
6.65,0.45541730523109436,-0.5747120380401611,-1.4083820581436157,0.06822338700294495,0.013881152495741844,0.2881556451320648
6.675,-0.018773304298520088,-0.309637188911438,-0.8351686596870422,0.14423424005508423,-0.03396115079522133,0.3041822910308838
6.7,-0.7117935419082642,0.24287036061286926,-0.025345908477902412,0.21731986105442047,-0.11398186534643173,0.22110597789287567
6.725,-0.627149760723114,0.59919273853302,0.3740023672580719,0.20241262018680573,0.21123246848583221,0.1740128993988037
6.75,0.1416570246219635,0.5471659302711487,0.1898026168346405,0.23317132890224457,0.39844778180122375,0.010148664936423302
6.775,0.3335702419281006,0.2986202538013458,-0.11968818306922913,0.18729665875434875,0.1850348562002182,-0.24490222334861755
6.8,-0.04183245822787285,0.10790632665157318,-0.2252788245677948,0.05253668501973152,0.05052955448627472,-0.29131802916526794
6.825,-0.16472144424915314,0.0096129784360528,-0.49965471029281616,-0.060553595423698425,0.10787942260503769,-0.2830974757671356
6.85,-0.1502639800310135,-0.00297648087143898,-0.5279859304428101,-0.05507334694266319,-0.0042920042760670185,-0.33749666810035706
6.875,0.31101325154304504,-0.0006838334957137704,-0.41073617339134216,-0.08002397418022156,-0.0060140579007565975,-0.33200034499168396
6.9,0.6693218350410461,0.10858529806137085,-0.5938407182693481,-0.07388786971569061,-0.03535010665655136,-0.12144389003515244
6.925,0.32232415676116943,0.12251272797584534,-0.8741752505302429,-0.06544090062379837,-0.033775124698877335,-0.03427460417151451
6.95,0.019268952310085297,-0.06695377826690674,-0.9475345611572266,-0.07976651191711426,0.01809188351035118,-0.08313640207052231
6.975,-0.0022062514908611774,-0.11188232898712158,-0.8478671908378601,-0.06405996531248093,-0.03532339632511139,0.003972596023231745
7.0,0.012280345894396305,-0.061711400747299194,-0.6906350255012512,-0.043974507600069046,-0.15889744460582733,-0.033009130507707596
7.025,-0.20281383395195007,-0.01254563219845295,-0.3732447326183319,-0.0703277736902237,-0.13234803080558777,-0.02291792444884777
7.05,-0.3819045424461365,-0.08352376520633698,-0.06110861152410507,-0.06920519471168518,-0.11229557543992996,0.05200220271945
7.075,-0.4608781933784485,-0.058436404913663864,-0.030292166396975517,-0.029109416529536247,-0.07021623849868774,0.05671108141541481
7.1,-0.4371039569377899,0.1693544238805771,-0.22178591787815094,-0.02842518500983715,0.021917711943387985,0.04650619998574257
7.125,-0.3816315829753876,0.39904025197029114,-0.37093809247016907,-0.07072913646697998,0.12457941472530365,0.04477264732122421
7.15,-0.30707404017448425,0.4812021255493164,-0.5008189082145691,-0.09579697251319885,0.12469223141670227,0.02353573776781559
7.175,-0.08068996667861938,0.4106006324291229,-0.672713577747345,-0.12804198265075684,0.14653588831424713,-0.053069353103637695
7.2,0.03458523005247116,0.2754974067211151,-0.6103376150131226,-0.08178597688674927,0.01607975736260414,-0.11151488125324249
7.225,-0.018451837822794914,0.06825824826955795,-0.35831397771835327,0.0009295459603890777,-0.09684126079082489,-0.0891856700181961
7.25,0.036080311983823776,-0.11178305745124817,-0.11810609698295593,-0.0018780507380142808,0.012486649677157402,-0.06994876265525818
7.275,0.12400682270526886,-0.09472659975290298,-0.1613604724407196,-0.052236877381801605,0.16470734775066376,-0.004707062151283026
7.3,0.161919504404068,0.04710002616047859,-0.4036007523536682,-0.06708197295665741,0.2377231866121292,0.039675552397966385
7.325,0.12293432652950287,0.23401829600334167,-0.5432823300361633,-0.04749242216348648,0.27038055658340454,0.0013904182706028223
7.35,0.1467701494693756,0.37686634063720703,-0.3832230865955353,-0.055677298456430435,0.31535565853118896,-0.016976146027445793
7.375,0.2231634259223938,0.4711170792579651,-0.07246753573417664,-0.06690190732479095,0.3199448883533478,-0.024836760014295578
7.4,-0.15061865746974945,0.27536964416503906,-0.24708466231822968,-0.04728635773062706,0.2633538246154785,-0.03688165917992592
7.425,-0.3069424331188202,0.024759259074926376,-0.3077892065048218,-0.042495884001255035,0.2612867057323456,-0.0770154520869255
7.45,-0.14928528666496277,-0.03857807815074921,-0.34613868594169617,-0.03886058181524277,0.23675473034381866,-0.05056394264101982
7.475,-0.10480829328298569,0.04580015689134598,-0.4621235430240631,-0.01731722243130207,0.18162164092063904,-0.11745001375675201
7.5,-0.26263532042503357,0.09657856076955795,-0.43204402923583984,-0.043363314121961594,0.23299172520637512,-0.11129427701234818
7.525,-0.3180667459964752,0.047273602336645126,-0.3388311564922333,-0.0837881863117218,0.2639999985694885,-0.01285369973629713
7.55,-0.22258360683918,0.01620001532137394,-0.43943023681640625,-0.09724274277687073,0.228898286819458,-0.02261744625866413
7.575,-0.23612602055072784,0.0546082928776741,-0.5033289194107056,-0.09384088218212128,0.29328274726867676,-0.0024454877711832523
7.6,-0.09911181777715683,0.055354077368974686,-0.4200016260147095,-0.11453278362751007,0.3229500949382782,0.020354922860860825
7.625,0.09393439441919327,0.0862559825181961,-0.41239163279533386,-0.10532042384147644,0.3116019666194916,-0.03897595405578613
7.65,0.026775527745485306,0.12813371419906616,-0.5633757710456848,-0.11295920610427856,0.29381605982780457,-0.07048782706260681
7.675,-0.2674102187156677,0.048355042934417725,-0.5649862885475159,-0.15279346704483032,0.35350435972213745,0.016660286113619804
7.7,-0.4048289954662323,-0.02729898877441883,-0.48486050963401794,-0.15640829503536224,0.3654084801673889,0.0550360344350338
7.725,-0.20810742676258087,0.04183763638138771,-0.5041704773902893,-0.1512596160173416,0.26506757736206055,0.05427487939596176
7.75,0.047732580453157425,0.19891545176506042,-0.5442102551460266,-0.08672410994768143,0.19046148657798767,0.06381846964359283
7.775,0.0835031121969223,0.19523712992668152,-0.5201200246810913,-0.05401421710848808,0.12469524890184402,0.027325717732310295
7.8,0.04171363636851311,0.08429999649524689,-0.45363378524780273,-0.05301029235124588,0.07382974028587341,-0.0071264090947806835
7.825,-0.01356567908078432,-0.0016413278644904494,-0.45366379618644714,-0.058522146195173264,0.08471065014600754,-0.03809347003698349
7.85,-0.11688877642154694,0.0005778667400591075,-0.5027313828468323,-0.058234140276908875,0.06875172257423401,-0.05190770700573921
7.875,-0.09563793241977692,0.059160176664590836,-0.520938515663147,-0.0404890812933445,0.030087823048233986,-0.04320617392659187
7.9,0.03008202649652958,0.12297340482473373,-0.44355344772338867,-0.034918978810310364,-0.047568269073963165,-0.0575377456843853
7.925,0.13479390740394592,0.16121575236320496,-0.32755523920059204,-0.039474084973335266,-0.08880997449159622,-0.06952495872974396
7.95,0.14393070340156555,0.145872101187706,-0.2778817415237427,-0.045482173562049866,-0.015381671488285065,-0.07466308027505875
7.975,0.05543902516365051,0.13082978129386902,-0.331487238407135,-0.04016470909118652,0.047683898359537125,-0.07589809596538544
8.0,-0.017155015841126442,0.11641594767570496,-0.3984276056289673,-0.0351460762321949,0.13540062308311462,-0.021886374801397324
8.025,-0.05095549300312996,0.053979821503162384,-0.48448777198791504,-0.014738899655640125,0.2266886830329895,0.055379223078489304
8.05,-0.168012335896492,-0.005713527090847492,-0.5368678569793701,-0.04465153068304062,0.20873598754405975,0.015987079590559006
8.075,-0.2580282390117645,-0.01843172125518322,-0.46876591444015503,-0.08777204900979996,-0.002085380954667926,-0.05768776312470436
8.1,-0.17424115538597107,0.04439254105091095,-0.415377140045166,-0.03474922850728035,-0.13555073738098145,-0.06872779130935669
8.125,-0.1716727912425995,0.07327458262443542,-0.3244757652282715,-0.030454274266958237,-0.19259025156497955,-0.07880111783742905
8.15,-0.27474913001060486,0.09026429802179337,-0.2490474134683609,-0.031239338219165802,-0.2841115891933441,-0.037043485790491104
8.175,-0.1613665521144867,0.1422128528356552,-0.2819475829601288,0.00255314982496202,-0.37538376450538635,-0.03908349946141243
8.2,-0.030822962522506714,0.1818675696849823,-0.3313024044036865,0.004841070156544447,-0.3192586898803711,-0.08168064802885056
8.225,-0.020713776350021362,0.17161843180656433,-0.3358736038208008,-0.004446892067790031,-0.25598713755607605,-0.06336863338947296
8.25,-0.005289287772029638,0.12348363548517227,-0.3239014446735382,0.009893919341266155,-0.20151852071285248,-0.037248823791742325
8.275,0.030147824436426163,0.07268615812063217,-0.3757432997226715,0.014824097976088524,-0.21061335504055023,-0.06791120022535324
8.3,-0.01679452508687973,0.060628846287727356,-0.42820465564727783,0.01091599278151989,-0.18747825920581818,-0.06457307189702988
8.325,-0.05586370453238487,0.06534763425588608,-0.3895331025123596,0.002767642494291067,-0.12812797725200653,-0.03618532046675682
8.35,-0.07720133662223816,0.09323975443840027,-0.326396644115448,0.016375858336687088,-0.14143593609333038,-0.03774840384721756
8.375,-0.013162222690880299,0.1110353171825409,-0.3693768084049225,0.026663491502404213,-0.15473033487796783,-0.036845240741968155
8.4,0.009972725994884968,0.14678093791007996,-0.39888814091682434,0.01277101319283247,-0.12366971373558044,-0.027422087267041206
8.425,-0.06508848071098328,0.15611645579338074,-0.3758429288864136,0.014503107406198978,-0.12642069160938263,-0.02806865982711315
8.45,-0.09312686324119568,0.1372070014476776,-0.35912594199180603,0.024708719924092293,-0.11480291187763214,-0.03036162257194519
8.475,-0.022001946344971657,0.15800663828849792,-0.4003990590572357,0.008418341167271137,-0.11074703931808472,-0.007591941859573126
8.5,-0.05493171885609627,0.17023082077503204,-0.47051775455474854,-0.005322214215993881,-0.15946315228939056,0.0001659005502006039
8.525,-0.3921666443347931,-0.013529904186725616,-1.0431002378463745,-0.009787817485630512,-0.15612511336803436,-0.026682721450924873
8.55,-0.7605255246162415,-0.2537863254547119,-1.8555216789245605,-0.015324600972235203,-0.14939551055431366,-0.031547266989946365
8.575,-0.24977196753025055,-0.09016433358192444,-1.1875578165054321,-0.016586940735578537,-0.14285023510456085,-0.052727509289979935
8.6,-0.04987577348947525,0.018168341368436813,-0.9284683465957642,-0.021342884749174118,-0.10691043734550476,-0.05012700706720352
8.625,-0.3256974220275879,-0.052091751247644424,-1.2228481769561768,-0.042886342853307724,-0.09253831952810287,-0.025404473766684532
8.65,-0.09802156686782837,0.019690437242388725,-0.6585102081298828,-0.0304569024592638,-0.05095365643501282,-0.030608683824539185
8.675,0.08032956719398499,0.0991506353020668,-0.3092070519924164,-0.01326694805175066,0.02779236063361168,-0.016560429707169533
8.7,0.07628563046455383,0.08292003720998764,-0.36145392060279846,-0.0027510898653417826,0.062141258269548416,-0.019105417653918266
8.725,0.1147545874118805,0.04592033848166466,-0.3275705575942993,-0.006208926439285278,0.09219326078891754,-0.023441053926944733
8.75,0.21018506586551666,0.05945489555597305,-0.24639858305454254,-0.014363295398652554,0.10988935083150864,-0.010213308036327362
8.775,0.19822873175144196,0.09505747258663177,-0.25046324729919434,-0.027107970789074898,0.1394117921590805,-0.01300059538334608
8.8,0.13366535305976868,0.13401030004024506,-0.30905652046203613,-0.04203549027442932,0.1530715525150299,-0.030019406229257584
8.825,0.16420713067054749,0.15097233653068542,-0.3579917550086975,-0.059924326837062836,0.22026844322681427,-0.005385155789554119
8.85,0.19497838616371155,0.11622902750968933,-0.39344522356987,-0.11325575411319733,0.2812303900718689,0.004957450553774834
8.875,0.007116705644875765,0.055442776530981064,-0.34359225630760193,-0.14285825192928314,0.27369457483291626,-0.003974526189267635
8.9,-0.19226965308189392,0.027100523933768272,-0.3559774160385132,-0.1192636638879776,0.2717347741127014,0.01349279098212719
8.925,-0.14862200617790222,0.10913846641778946,-0.3118637204170227,-0.01373741589486599,0.2889859080314636,0.023606272414326668
8.95,0.1140226274728775,0.22044087946414948,-0.18300390243530273,0.008598902262747288,0.23275290429592133,-0.09595026075839996
8.975,0.21619226038455963,0.31852149963378906,-0.1321418434381485,-0.018084337934851646,0.27150389552116394,-0.144121915102005
9.0,0.022550001740455627,0.20200254023075104,-0.1696266382932663,-0.05123249068856239,0.29725807905197144,-0.11580871790647507
9.025,-0.13300880789756775,-0.05663305148482323,-0.3969024121761322,-0.10553786903619766,0.35082411766052246,-0.1305508017539978
9.05,0.02321285381913185,0.08572379499673843,-0.7222204804420471,-0.036127183586359024,0.30870524048805237,-0.1306876689195633
9.075,0.37851613759994507,0.3479995131492615,-0.8022598028182983,0.06806305050849915,0.2787175178527832,-0.11007285118103027
9.1,0.5906161069869995,0.2775534987449646,-0.6615372896194458,-0.014457731507718563,0.333596795797348,-0.05405430868268013
9.125,0.48865923285484314,0.12763972580432892,-0.4932807981967926,-0.03683587163686752,0.35317468643188477,0.0023748017847537994
9.15,0.2655772268772125,0.15856453776359558,-0.41851651668548584,0.052716225385665894,0.37855443358421326,0.07954894006252289
9.175,0.16299036145210266,0.11666391044855118,-0.3316626250743866,0.1070367619395256,0.451251357793808,0.08345131576061249
9.2,0.14831580221652985,-0.03287509083747864,-0.23070542514324188,0.14819252490997314,0.5235146880149841,0.11309484392404556
9.225,0.11423160880804062,-0.1700926274061203,-0.29000407457351685,0.20432601869106293,0.5151532292366028,0.1866103857755661
9.25,0.07441549003124237,-0.15348251163959503,-0.490138441324234,0.2734866440296173,0.4778256118297577,0.26250797510147095
9.275,0.06962209194898605,0.023161817342042923,-0.6082507967948914,0.3061521351337433,0.44385212659835815,0.256401002407074
9.3,0.18745934963226318,0.21251769363880157,-0.6216034293174744,0.3029002249240875,0.37553563714027405,0.28827688097953796
9.325,0.21627531945705414,0.04298299551010132,-0.5394051671028137,0.2541806101799011,0.3163452744483948,0.21124038100242615
9.35,-0.051879122853279114,-0.33786115050315857,-0.49368593096733093,0.17365789413452148,0.29339364171028137,0.11893247067928314
9.375,-0.2937934100627899,-0.2628641724586487,-0.35031479597091675,0.16837985813617706,0.21956467628479004,0.13998016715049744
9.4,-0.20435750484466553,0.2852630913257599,0.04410197213292122,0.1989387720823288,0.26714569330215454,0.12396898120641708
9.425,-0.030047211796045303,0.7680980563163757,0.3837466239929199,0.1378340870141983,0.34326934814453125,0.12592126429080963
9.45,-0.002571141580119729,0.6639271974563599,0.4072631895542145,0.06154743954539299,0.32313457131385803,0.17720037698745728
9.475,-0.06063004955649376,0.2916269898414612,0.31580203771591187,0.17063884437084198,0.2454194575548172,0.2659136652946472
9.5,0.0024730670265853405,0.012482712045311928,0.5591842532157898,0.2715531587600708,0.20160064101219177,0.2728012502193451
9.525,0.30798444151878357,-0.028118981048464775,0.9209356307983398,0.232273668050766,0.20466311275959015,0.28495290875434875
9.55,0.6074196696281433,0.23404517769813538,0.9656219482421875,0.28209373354911804,0.21201200783252716,0.35183992981910706
9.575,0.6691157221794128,0.6124144792556763,0.48403415083885193,0.3151733875274658,0.24518148601055145,0.337796151638031
9.6,0.45963263511657715,0.7709637880325317,-0.004769246093928814,0.2305639088153839,0.14790022373199463,0.1916240155696869
9.625,0.21968838572502136,0.4158230423927307,-0.038626693189144135,0.02214408665895462,0.07949239015579224,-0.02674318477511406
9.65,0.2595551013946533,-0.08777807652950287,0.18681225180625916,-0.16781537234783173,0.01471876073628664,-0.23130378127098083
9.675,0.41931501030921936,-0.17664431035518646,0.30708491802215576,-0.13633690774440765,-0.039916347712278366,-0.3091293275356293
9.7,0.5688565969467163,-0.09492014348506927,0.2503519356250763,-0.09815759211778641,-0.14606110751628876,-0.39136213064193726
9.725,0.7210350036621094,-0.21833325922489166,0.13217388093471527,-0.1550314575433731,-0.2978247106075287,-0.4774532616138458
9.75,0.8713387846946716,-0.35085490345954895,0.09817494451999664,-0.16623979806900024,-0.41062623262405396,-0.462052583694458
9.775,1.1930025815963745,-0.2391061782836914,0.19731904566287994,-0.08169568330049515,-0.3637695610523224,-0.3955278694629669
9.8,1.6192378997802734,-0.168731689453125,0.1815485805273056,-0.023274701088666916,-0.2523098886013031,-0.37370285391807556
9.825,1.7902405261993408,-0.6172972917556763,-0.327478289604187,-0.032069962471723557,-0.32384058833122253,-0.3962025046348572
9.85,1.806260108947754,-1.5239356756210327,-1.4086275100708008,0.030520692467689514,-0.491308331489563,-0.3329021632671356
9.875,1.8669079542160034,-1.8302727937698364,-2.7700142860412598,0.266426682472229,-0.38359954953193665,-0.07554984837770462
9.9,1.6214890480041504,-0.7298989295959473,-3.5561530590057373,0.5194935202598572,-0.5978633165359497,0.16585195064544678
9.925,0.746654748916626,1.226494550704956,-3.0848660469055176,0.6485358476638794,-1.1644885540008545,0.05008487403392792
9.95,-0.5164750814437866,2.7093467712402344,-1.7675484418869019,0.5634182095527649,-1.271079182624817,-0.11071381717920303
9.975,-1.7327450513839722,2.5239126682281494,-0.44438454508781433,0.21894347667694092,-0.9852337837219238,-0.32985779643058777
10.0,-2.5086112022399902,0.936964213848114,0.506642758846283,0.07336298376321793,-0.8252214193344116,-0.24250419437885284
10.025,-2.6805412769317627,-0.8212165832519531,0.831288754940033,0.11447950452566147,-0.6970685720443726,-0.06119024381041527
10.05,-2.1091697216033936,-1.127442479133606,0.3832980692386627,0.278013676404953,-0.36682069301605225,0.08140444755554199
10.075,-1.3606023788452148,0.49140551686286926,-0.3383522629737854,0.4663766622543335,-0.5072336792945862,0.29535627365112305
10.1,-1.124941349029541,1.8139106035232544,-0.5158119797706604,0.5725115537643433,-0.7575632929801941,0.25406911969184875
10.125,-1.348120093345642,1.2142972946166992,-0.5182241201400757,0.4588456451892853,-0.8882960081100464,-0.14379620552062988
10.15,-1.6859465837478638,0.04434099420905113,-0.8134902715682983,0.35402795672416687,-0.8482493162155151,-0.30323198437690735
10.175,-1.8963298797607422,0.10315695405006409,-0.8950199484825134,0.4071565568447113,-0.7732855677604675,-0.09737909585237503
10.2,-1.8153390884399414,0.7328395843505859,-0.3497411012649536,0.39428824186325073,-0.7998451590538025,-0.1056121364235878
10.225,-1.3951902389526367,0.506074070930481,0.45036089420318604,0.20230640470981598,-0.8168998956680298,-0.301453560590744
10.25,-1.151498556137085,-0.27681535482406616,0.8301517963409424,0.10844612866640091,-0.6059569120407104,-0.1873164027929306
10.275,-1.2303879261016846,-0.7834730744361877,0.4564691185951233,0.14547958970069885,-0.3310757577419281,-0.01793057657778263
10.3,-1.506096601486206,-0.9834777116775513,3.1952506105881184e-05,0.17059095203876495,-0.20138339698314667,-0.09253410249948502
10.325,-1.6433426141738892,-0.9305497407913208,-0.017792213708162308,0.07304611802101135,-0.1560288667678833,-0.25415247678756714
10.35,-1.6752688884735107,-0.5251865983009338,0.08221384137868881,-0.03586569055914879,-0.1041330099105835,-0.1948300004005432
10.375,-1.441667914390564,-0.3288031220436096,-0.35075274109840393,-0.12810508906841278,0.014183939434587955,-0.10389702022075653
10.4,-0.9605666399002075,-0.29059234261512756,-1.122014045715332,-0.20260503888130188,0.05186818540096283,0.024426376447081566
10.425,-0.6723331212997437,-0.0795404389500618,-1.497322678565979,-0.15940886735916138,-0.07449518889188766,0.1251324862241745
10.45,-0.6376920938491821,0.06283938884735107,-1.0720683336257935,-0.10728219896554947,-0.21908850967884064,0.096030093729496
10.475,-0.5589491724967957,0.05279058963060379,-0.508043646812439,-0.18137937784194946,-0.26963016390800476,0.06304019689559937
10.5,-0.6626584529876709,0.16674134135246277,-0.3331236243247986,-0.22293990850448608,-0.2687123715877533,0.05319397151470184
10.525,-0.8330671191215515,0.30942150950431824,-0.40949562191963196,-0.16930998861789703,-0.22988943755626678,-0.024713467806577682
10.55,-0.8614636063575745,0.3296336829662323,-0.4847812056541443,-0.1447804868221283,-0.13984987139701843,-0.07387885451316833
10.575,-0.8885942101478577,0.1720561534166336,-0.5552772283554077,-0.14245189726352692,-0.023610003292560577,-0.07569843530654907
10.6,-0.8843595385551453,-0.28919994831085205,-0.6928872466087341,-0.1565357744693756,0.136454239487648,-0.10224497318267822
10.625,-0.8559631705284119,-0.5991546511650085,-0.9478615522384644,-0.19958078861236572,0.2410176694393158,-0.07257261872291565
10.65,-0.8685556650161743,-0.44968149065971375,-1.2873460054397583,-0.1825714409351349,0.27022266387939453,0.017810046672821045
10.675,-0.84013831615448,-0.18081972002983093,-1.6380598545074463,-0.1609344482421875,0.2795281708240509,0.015011166222393513
10.7,-0.8099158406257629,0.02580716274678707,-1.8628199100494385,-0.15790237486362457,0.2863619029521942,0.03453657031059265
10.725,-0.8151732087135315,0.08330703526735306,-1.9869171380996704,-0.16645754873752594,0.2495023012161255,0.023881984874606133
10.75,-0.7733449339866638,-0.14864468574523926,-1.91100013256073,-0.17802461981773376,0.19692164659500122,-0.0485980398952961
10.775,-0.5783646106719971,-0.4694550037384033,-1.538493275642395,-0.20607218146324158,0.210611030459404,-0.13085360825061798
10.8,-0.22855250537395477,-0.32337871193885803,-0.9349293112754822,-0.20242150127887726,0.23284755647182465,-0.09064256399869919
10.825,0.29169395565986633,0.3829917907714844,-0.46450504660606384,-0.14215150475502014,0.24353480339050293,0.012272043153643608
10.85,0.6837476491928101,1.157288670539856,-0.3012654781341553,-0.014956677332520485,0.182490736246109,0.024818675592541695
10.875,0.8830462694168091,1.6062138080596924,-0.24059851467609406,0.13595595955848694,0.12035699933767319,-0.07673492282629013
10.9,1.0443873405456543,1.6291019916534424,0.17111751437187195,0.34401214122772217,0.13099515438079834,-0.18136999011039734
10.925,1.0370303392410278,0.9050114750862122,1.3400191068649292,0.6245362162590027,0.16925571858882904,-0.2366618663072586
10.95,0.6575274467468262,-0.3951098620891571,2.698052406311035,0.6507827639579773,0.3867829144001007,-0.4425406754016876
10.975,0.12012045830488205,-0.84812992811203,3.520232677459717,0.40008726716041565,0.5649906396865845,-0.31829574704170227
11.0,-0.026873629540205002,0.21333545446395874,3.202211856842041,0.1271360218524933,0.5501655340194702,0.07470284402370453
11.025,0.20651324093341827,1.9330878257751465,1.8886386156082153,-0.03577746823430061,0.4041135907173157,0.5547496676445007
11.05,0.7856235504150391,2.479565143585205,1.2317793369293213,-0.09224984794855118,0.5468388795852661,0.6050651669502258
11.075,1.5063577890396118,1.2240307331085205,1.4946500062942505,-0.3653911352157593,0.933057963848114,0.43110305070877075
11.1,1.6183215379714966,-0.28622230887413025,1.6095588207244873,-0.6427183151245117,1.2884328365325928,0.7293357253074646
11.125,1.1207985877990723,-1.075047492980957,1.1598483324050903,-0.7140974402427673,1.408939003944397,0.8653886914253235
11.15,0.7552420496940613,-1.3840723037719727,0.6530080437660217,-0.5788777470588684,1.5440579652786255,0.6052818894386292
11.175,0.6799518465995789,-1.3978776931762695,0.5732306241989136,-0.449388325214386,1.5559974908828735,0.44723251461982727
11.2,0.41581830382347107,-0.9830198884010315,0.5010948181152344,-0.30949103832244873,1.4058442115783691,0.5887596011161804
11.225,-0.014983956702053547,-0.39054304361343384,0.05728220194578171,-0.17313259840011597,1.2237873077392578,0.6268113851547241
11.25,-0.27308544516563416,0.07849878817796707,-0.5077255368232727,0.01963471993803978,1.0428584814071655,0.3849632143974304
11.275,-0.30010920763015747,0.5505351424217224,-0.8813068866729736,0.1685829907655716,0.8069193959236145,0.20559051632881165
11.3,-0.20182444155216217,0.7816047668457031,-0.8223468661308289,0.09264074265956879,0.5244477987289429,0.058193229138851166
11.325,-0.08668077737092972,0.49955180287361145,-0.2877163887023926,-0.03146732226014137,0.3281499445438385,-0.05754747986793518
11.35,-0.03746685013175011,-0.015807118266820908,0.2976094186306,-0.1074996143579483,0.30370426177978516,-0.15042880177497864
11.375,-0.09204331785440445,-0.277039498090744,0.44778740406036377,-0.06276535242795944,0.26661714911460876,-0.14238181710243225
11.4,-0.15493692457675934,-0.15129661560058594,0.12427975237369537,0.004177877213805914,0.15255558490753174,-0.09889489412307739
11.425,-0.16993723809719086,0.117156021296978,-0.2033630609512329,-0.027318743988871574,-0.0034383623860776424,-0.1881764531135559
11.45,-0.11851136386394501,0.2776603698730469,-0.19641338288784027,-0.10108312964439392,-0.14498355984687805,-0.3431697487831116
11.475,0.023607436567544937,0.3961248993873596,-0.0474027544260025,-0.16777540743350983,-0.2604318857192993,-0.4484756886959076
11.5,0.18446367979049683,0.6051464676856995,0.06132284179329872,-0.18953731656074524,-0.285927414894104,-0.4302257299423218
11.525,0.2740074396133423,0.6355982422828674,0.1171526238322258,-0.21247771382331848,-0.2600867450237274,-0.34348994493484497
11.55,0.27746790647506714,0.3558826744556427,0.1050095483660698,-0.25585269927978516,-0.2772477865219116,-0.2846931517124176
11.575,0.20025676488876343,0.03860856220126152,0.05273991823196411,-0.264435738325119,-0.22706227004528046,-0.23511850833892822
11.6,0.1570395827293396,-0.20790007710456848,-0.011776162311434746,-0.21967516839504242,-0.12406162917613983,-0.20096921920776367
11.625,0.20455855131149292,-0.4058085083961487,-0.03903097286820412,-0.1986367106437683,-0.1447076052427292,-0.22164586186408997
11.65,0.26670706272125244,-0.5140209794044495,0.020330393686890602,-0.17433078587055206,-0.21118012070655823,-0.25518736243247986
11.675,0.2957320809364319,-0.3212452232837677,0.024343570694327354,-0.11005362123250961,-0.19777794182300568,-0.1919940561056137
11.7,0.21295811235904694,0.2198209911584854,-0.17842113971710205,-0.04569295421242714,-0.15146774053573608,-0.06096282973885536
11.725,0.21942131221294403,0.5844221115112305,-0.44804608821868896,0.0068618301302194595,-0.07215657830238342,0.021206261590123177
11.75,0.25868821144104004,0.3905191421508789,-0.5236074328422546,-0.015401878394186497,0.00947351474314928,-0.007679966278374195
11.775,0.14572301506996155,0.004658655729144812,-0.36733847856521606,-0.07223035395145416,-0.06294254213571548,-0.02479885146021843
11.8,0.01673520728945732,-0.10064414143562317,-0.12028303742408752,-0.08619151264429092,-0.05871737003326416,0.020207790657877922
11.825,-0.010826232843101025,0.063447006046772,0.02723057009279728,-0.03595203161239624,0.02898203209042549,0.06726264953613281
11.85,0.0922858864068985,0.0870046466588974,-0.17596237361431122,-0.00873260572552681,0.028901781886816025,0.04638899117708206
11.875,0.11041101813316345,-0.08894925564527512,-0.3756139278411865,-0.01335232611745596,0.00794009119272232,0.04514365643262863
11.9,-0.030057882890105247,-0.1606770008802414,-0.2712138295173645,0.012577377259731293,0.013120485469698906,0.014985714107751846
11.925,-0.13126634061336517,0.0464610829949379,-0.23364822566509247,0.048818547278642654,0.05117454007267952,0.061506208032369614
11.95,-0.0862409770488739,0.29921722412109375,-0.3645617961883545,0.085908904671669,0.08398483693599701,0.1378001719713211
11.975,-8.776968024903908e-05,0.38462451100349426,-0.31982913613319397,0.09949924796819687,0.08630167692899704,0.11938793957233429
12.0,0.00886810664087534,0.2891083061695099,-0.0917082130908966,0.11445887386798859,0.06890276819467545,0.14679349958896637
12.025,0.04396796599030495,0.10487938672304153,-0.033267904072999954,0.10678870975971222,0.07826825976371765,0.14117439091205597
12.05,0.09748037904500961,-0.022730858996510506,-0.24874649941921234,0.05780743062496185,0.059115249663591385,0.06440331041812897
12.075,0.0545186810195446,0.031225154176354408,-0.45105689764022827,0.04265165701508522,0.0007864026119932532,0.04121895506978035
12.1,-0.04114587977528572,0.09272760897874832,-0.4772051274776459,0.032592687755823135,-0.08252566307783127,-0.03776593506336212
12.125,-0.0808837041258812,0.10317035764455795,-0.45531460642814636,0.020052902400493622,-0.19541314244270325,-0.1217118427157402
12.15,-0.08872362971305847,0.09267231822013855,-0.3346233069896698,-0.013727470301091671,-0.2704117000102997,-0.17870615422725677
12.175,-0.12726615369319916,0.14594078063964844,-0.17937679588794708,-0.02104342170059681,-0.30034637451171875,-0.15850377082824707
12.2,-0.283266544342041,0.18384075164794922,-0.08398372679948807,-0.00797292124480009,-0.3471904695034027,-0.1333385556936264
12.225,-0.42583250999450684,0.16248416900634766,-0.10113021731376648,0.018276823684573174,-0.3928222954273224,-0.05926193669438362
12.25,-0.40020427107810974,0.03766343742609024,-0.2227988839149475,0.03149522468447685,-0.4482492208480835,0.023660089820623398
12.275,-0.29539382457733154,-0.11619094014167786,-0.11490463465452194,0.06871489435434341,-0.47705909609794617,0.10002285987138748
12.3,-0.061681509017944336,-0.0384674072265625,0.017954282462596893,0.10534567385911942,-0.390112966299057,0.16267938911914825
12.325,0.16289031505584717,0.07557201385498047,-0.060714587569236755,0.11603834480047226,-0.3919319212436676,0.10979325324296951
12.35,0.2032892256975174,-0.05617240443825722,-0.21269191801548004,0.05870289355516434,-0.40693289041519165,0.019039016216993332
12.375,0.1618576943874359,-0.21170049905776978,-0.2828403115272522,0.01728396862745285,-0.3874588906764984,0.0015813617501407862
12.4,0.13725049793720245,-0.09807494282722473,-0.13570870459079742,0.04301854968070984,-0.35098788142204285,0.023418769240379333
12.425,0.20300859212875366,0.13415910303592682,0.03609410673379898,0.07507059723138809,-0.28109318017959595,0.009696312248706818
12.45,0.29382210969924927,0.18653014302253723,0.06259163469076157,0.07165829837322235,-0.24875931441783905,-0.007536950055509806
12.475,0.3154698610305786,0.10230350494384766,-0.09978191554546356,0.02080109529197216,-0.23018142580986023,0.020669376477599144
12.5,0.2822642922401428,0.03512667864561081,-0.09951378405094147,0.004770181607455015,-0.25405699014663696,0.07533060014247894
12.525,0.23447416722774506,-0.11345385015010834,0.23334607481956482,-0.01232827827334404,-0.24878619611263275,0.08826170116662979
12.55,0.1035395935177803,-0.2940663993358612,0.5840685367584229,0.028781110420823097,-0.06579059362411499,0.23582859337329865
12.575,-0.19764752686023712,-0.3328656554222107,0.7691001892089844,0.06449979543685913,0.3077295124530792,0.48970827460289
12.6,-0.6379206776618958,-0.1983298361301422,0.9659957885742188,0.030172264203429222,0.3072901666164398,0.4421941936016083
12.625,-0.7579135894775391,0.33346766233444214,1.1303069591522217,0.17526482045650482,-0.28829818964004517,0.190482497215271
12.65,-0.39189085364341736,0.9011709690093994,1.117037296295166,0.2855287194252014,-0.6757004261016846,0.060855936259031296
12.675,0.07811334729194641,0.698098361492157,0.9942446351051331,0.14270731806755066,-0.574863612651825,-0.08051379024982452
12.7,0.09768365323543549,0.18275749683380127,0.8655626177787781,0.031157318502664566,-0.34156954288482666,0.008272514678537846
12.725,-0.03914475440979004,0.016131483018398285,0.6737821698188782,0.03666865453124046,-0.37997084856033325,0.08797802031040192
12.75,-0.13327424228191376,-0.15976233780384064,0.46041128039360046,0.0656542107462883,-0.5371163487434387,-0.11923141777515411
12.775,-0.15972471237182617,-0.45683762431144714,0.6786296367645264,0.13310642540454865,-0.8338354229927063,-0.40256398916244507
12.8,0.37881284952163696,-0.4192332327365875,1.2569783926010132,0.19014468789100647,-1.065704584121704,-0.5891761183738708
12.825,1.293906569480896,-0.07798650860786438,1.8223282098770142,0.2208987921476364,-1.0210862159729004,-0.5304645895957947
12.85,1.6552140712738037,-0.14655278623104095,2.198316812515259,0.20424455404281616,-0.9042581915855408,-0.4046420156955719
12.875,1.2721450328826904,-0.9869573712348938,2.4974868297576904,0.16870814561843872,-0.9205089211463928,-0.37368467450141907
12.9,0.7849079370498657,-2.201815605163574,2.5394301414489746,0.10385453701019287,-0.9148877859115601,-0.4811468720436096
12.925,0.4794759154319763,-2.8644962310791016,1.925297737121582,0.07893198728561401,-0.8452258110046387,-0.31208717823028564
12.95,0.13044077157974243,-2.2800281047821045,0.6431508660316467,0.1604209840297699,-0.8974522948265076,0.06811324506998062
12.975,-0.34133365750312805,-0.908454179763794,-0.8760220408439636,0.2830268144607544,-0.9596849083900452,0.13735806941986084
13.0,-0.8994141221046448,0.7282846570014954,-1.981439232826233,0.2773723006248474,-0.670067310333252,0.159332737326622
13.025,-1.255602478981018,2.3314208984375,-2.10701060295105,0.011391028761863708,-0.18784426152706146,0.28445327281951904
13.05,-0.9599603414535522,3.7302277088165283,-1.6937247514724731,-0.47472304105758667,-0.18998385965824127,0.3187694251537323
13.075,-0.9352585077285767,4.232625484466553,-1.2436803579330444,-0.7342551350593567,-0.5296778678894043,0.20666605234146118
13.1,-1.9537487030029297,3.561291217803955,-0.5983802080154419,-0.49076300859451294,-0.6310305595397949,-0.16134048998355865
13.125,-2.9960765838623047,2.824514627456665,-0.27105942368507385,-0.12699313461780548,-0.5525990724563599,-0.37248536944389343
13.15,-3.2957231998443604,2.2502644062042236,-0.464652419090271,0.09376730024814606,-0.38606661558151245,-0.24792297184467316
13.175,-3.0431947708129883,0.987675666809082,-0.8433035612106323,0.11026151478290558,-0.16315145790576935,-0.32566726207733154
13.2,-2.812486410140991,-0.30568137764930725,-1.0883299112319946,0.1405186802148819,0.051466189324855804,-0.37429991364479065
13.225,-2.683624505996704,-0.5407020449638367,-1.1999268531799316,0.27279630303382874,0.10515563189983368,-0.2350621521472931
13.25,-2.1983683109283447,-0.45268937945365906,-1.169899344444275,0.3838653564453125,0.09623978286981583,-0.14258918166160583
13.275,-1.717113971710205,-0.9640581607818604,-1.0839771032333374,0.44041872024536133,0.16746458411216736,-0.12692584097385406
13.3,-1.5404607057571411,-1.7121881246566772,-1.1743922233581543,0.47351717948913574,0.17398647964000702,0.02953328751027584
13.325,-1.3011444807052612,-2.288851737976074,-1.3824973106384277,0.4705163836479187,0.02826358564198017,0.296625018119812
13.35,-1.1561721563339233,-2.6075873374938965,-1.500296711921692,0.4696117043495178,0.01957780495285988,0.5203393697738647
13.375,-1.1173092126846313,-2.5530576705932617,-1.4227193593978882,0.45746099948883057,0.0035641444846987724,0.5826095938682556
13.4,-1.0079309940338135,-2.1479897499084473,-1.1937683820724487,0.45817145705223083,-0.00829364638775587,0.6433418393135071
13.425,-1.0478010177612305,-1.6119941473007202,-0.8869147300720215,0.3927013576030731,-0.05054916441440582,0.7073627710342407
13.45,-1.2954248189926147,-1.1672230958938599,-0.44510000944137573,0.26285240054130554,-0.021370839327573776,0.7322742938995361
13.475,-1.552707552909851,-0.8282214403152466,0.02910490334033966,0.13772812485694885,0.05253785103559494,0.7365221381187439
13.5,-1.9112684726715088,-0.5624762177467346,0.18160879611968994,0.09350312501192093,0.10749950259923935,0.7582381963729858
13.525,-2.4080564975738525,-0.5196762681007385,0.12352444231510162,0.07097278535366058,0.10691631585359573,0.707602858543396
13.55,-2.90633487701416,-0.7138681411743164,0.26287466287612915,0.010954818688333035,0.10199608653783798,0.6477240920066833
13.575,-3.3851892948150635,-0.9257851243019104,0.4437757134437561,-0.04221867769956589,0.115517258644104,0.6099659204483032
13.6,-3.845069169998169,-0.9221926331520081,0.4618506133556366,0.02151273749768734,0.1284392923116684,0.6531063914299011
13.625,-4.035986423492432,-0.9297056198120117,0.8830030560493469,0.16307222843170166,0.29506736993789673,0.7299994826316833
13.65,-4.064356327056885,-0.9761428236961365,1.3338207006454468,0.1408301144838333,0.589235782623291,0.7902216911315918
13.675,-4.101566314697266,-0.9716453552246094,1.225317120552063,0.03826260566711426,0.6878355145454407,0.8926190137863159
13.7,-2.7917392253875732,-0.7600756883621216,-0.2136663943529129,-0.12562410533428192,0.587332546710968,0.9586939811706543
13.725,-0.19861489534378052,1.5086535215377808,-3.4156508445739746,-0.3913317322731018,0.06551893800497055,1.5215280055999756
13.75,0.3246614336967468,5.960644721984863,-4.694253444671631,0.08723067492246628,-1.2132987976074219,2.3026621341705322
13.775,0.8762593269348145,6.684947490692139,-3.0160939693450928,0.6243920922279358,-2.254096746444702,1.3703389167785645
13.8,3.875214099884033,2.902045249938965,-1.216138482093811,0.1964912712574005,-2.1025328636169434,0.5306157469749451
13.825,6.295872688293457,0.31188565492630005,-1.6292973756790161,-0.25245678424835205,-1.6248931884765625,1.0970584154129028
13.85,6.1815409660339355,0.5894657373428345,-3.332744836807251,-0.22796036303043365,-1.7319751977920532,1.115816354751587
13.875,5.6325554847717285,2.335212469100952,-3.753024101257324,-0.08701915293931961,-2.2707278728485107,0.39969974756240845
13.9,5.438173294067383,4.675635814666748,-1.8856757879257202,0.048356447368860245,-2.7313942909240723,0.288796067237854
13.925,4.4946465492248535,5.516202449798584,0.7670803070068359,0.2955985367298126,-2.859814167022705,0.1371719092130661
13.95,2.747779369354248,4.110350608825684,2.4630377292633057,0.49766629934310913,-2.906917095184326,-0.6896969079971313
13.975,0.5899274349212646,3.360836982727051,3.0310161113739014,0.3330048620700836,-2.817246675491333,-1.0500972270965576
14.0,-0.8238012790679932,4.822946548461914,2.478297233581543,-0.0298631489276886,-2.5718741416931152,-1.0155489444732666
14.025,-0.8026612997055054,6.503902435302734,1.03342604637146,-0.0854489728808403,-2.705928325653076,-1.4385511875152588
14.05,-0.3721196949481964,6.414545059204102,0.18467190861701965,0.2702797055244446,-3.2743265628814697,-2.0919487476348877
14.075,-0.6168678998947144,4.579861164093018,1.0530868768692017,0.5442222952842712,-3.7549545764923096,-2.3153622150421143
14.1,-0.9612948298454285,1.7759146690368652,1.6788543462753296,0.4975159764289856,-4.228669166564941,-2.136201858520508
14.125,0.31638097763061523,-1.4497910737991333,0.0699252039194107,-0.09583208709955215,-4.576848030090332,-1.62397301197052
14.15,2.8869121074676514,-5.659542083740234,-1.4871867895126343,-0.5354263782501221,-4.8583083152771,-1.0102224349975586
14.175,3.685438871383667,-11.232769012451172,0.3441581428050995,0.06845863163471222,-5.508425235748291,-0.31351718306541443
14.2,1.5554028749465942,-14.94005012512207,3.7895870208740234,0.5771161317825317,-6.106391906738281,0.5074337720870972
14.225,-1.141652226448059,-13.162858009338379,4.482555389404297,-0.2869844436645508,-5.993730068206787,0.7001903653144836
14.25,-2.929126501083374,-9.317730903625488,2.7328481674194336,-0.5938360691070557,-5.811725616455078,0.589541494846344
14.275,-3.046945571899414,-6.8239264488220215,0.5109497308731079,-0.11979425698518753,-5.551311016082764,0.48826858401298523
14.3,-1.7244707345962524,-4.278622627258301,-1.5785859823226929,0.06776031851768494,-4.846718788146973,0.26866060495376587
14.325,0.1776987612247467,-0.5626148581504822,-3.0037145614624023,0.2024916112422943,-4.10274076461792,0.32041993737220764
14.35,1.981227159500122,3.907505989074707,-3.427506685256958,0.26963645219802856,-3.727961540222168,0.4748554229736328
14.375,3.4829602241516113,8.20741081237793,-3.6655430793762207,-0.29795747995376587,-3.2016241550445557,0.32116734981536865
14.4,4.404958248138428,9.346712112426758,-2.966940402984619,-0.29888883233070374,-3.019059419631958,0.3001714050769806
14.425,3.4351584911346436,5.7927165031433105,-1.1995117664337158,0.021656867116689682,-2.809452772140503,-0.050734035670757294
14.45,1.842118740081787,1.8616154193878174,-0.39031821489334106,-0.05015631020069122,-3.123227834701538,-0.5201276540756226
14.475,0.9908685088157654,-0.46289271116256714,-1.0413035154342651,-0.0420498326420784,-3.442307233810425,-0.40808629989624023
14.5,0.6566898226737976,-1.5274394750595093,-0.6208229660987854,-0.14829573035240173,-3.255763292312622,-0.10395756363868713
14.525,0.20704923570156097,-1.4938230514526367,0.8465736508369446,-0.7587732076644897,-3.255187511444092,-0.29284489154815674
14.55,-0.6240110397338867,-2.539275646209717,1.6643444299697876,-0.9662073254585266,-3.1850924491882324,-0.6609088182449341
14.575,-2.0650312900543213,-5.275234699249268,0.7418798208236694,-0.5187588930130005,-2.89149808883667,-0.6343291997909546
14.6,-2.8760626316070557,-6.3719682693481445,-1.6134942770004272,-0.1505424678325653,-2.460111618041992,-0.42087608575820923
14.625,-1.439941644668579,-3.0637288093566895,-3.4817967414855957,-0.26479867100715637,-1.8977073431015015,-0.4662879407405853
14.65,1.365830659866333,2.942167043685913,-3.873267889022827,-0.41225123405456543,-1.547978401184082,-0.34711822867393494
14.675,3.597069025039673,7.115371227264404,-4.423364162445068,-0.517062246799469,-1.6804360151290894,0.3634166419506073
14.7,5.33467435836792,6.816239833831787,-5.987788200378418,-0.5861597061157227,-1.4487907886505127,1.1192570924758911
14.725,6.656142234802246,4.441887378692627,-6.068108081817627,-0.3825996518135071,-1.0292303562164307,1.6126643419265747
14.75,8.048391342163086,3.242884635925293,-4.00139045715332,-0.054704878479242325,-0.6982879638671875,0.7070918083190918
14.775,7.409853458404541,1.9405517578125,-1.832879662513733,0.11301425099372864,0.10082760453224182,0.6418008804321289
14.8,4.652102470397949,0.44728657603263855,-0.6685753464698792,0.27013665437698364,0.41324248909950256,0.26276344060897827
14.825,1.666556715965271,0.011416471563279629,0.2935740649700165,0.2515788674354553,0.5742051601409912,-0.4393554627895355
14.85,0.10116352885961533,-0.22035211324691772,0.7850813865661621,0.23978617787361145,0.4011678397655487,-0.8262630105018616
14.875,0.19508662819862366,-1.8304555416107178,0.28223222494125366,0.27327245473861694,-0.2774018347263336,0.01472245343029499
14.9,0.9962223768234253,-3.625919818878174,-0.6763455867767334,0.1555147022008896,-0.9732006788253784,0.7156782746315002
14.925,1.516261100769043,-4.171051025390625,-1.873889684677124,-0.11486861854791641,-1.1468050479888916,0.9747515916824341
14.95,1.3882733583450317,-2.9783451557159424,-3.144824504852295,-0.33101707696914673,-0.9602558612823486,0.8467989563941956
14.975,0.7539303302764893,-1.1534467935562134,-3.793290853500366,-0.4333065152168274,-0.6825916767120361,0.525886595249176
15.0,0.7485589385032654,-0.19004200398921967,-3.6497769355773926,-0.45375296473503113,-0.5869283080101013,0.27930065989494324
15.025,1.7277781963348389,-0.41336870193481445,-3.563495397567749,-0.49619606137275696,-0.4961963891983032,0.3930758535861969
15.05,2.670325517654419,-1.0597740411758423,-3.853954315185547,-0.5288798213005066,-0.34817856550216675,0.6134040355682373
15.075,2.4493377208709717,-1.4261127710342407,-4.028153419494629,-0.5505167245864868,-0.06945481896400452,0.5439568161964417
15.1,1.5768219232559204,-1.4124313592910767,-3.813124656677246,-0.4137207567691803,0.25765976309776306,0.29994460940361023
15.125,1.3494434356689453,-1.1849493980407715,-3.365692615509033,-0.037275321781635284,0.39580363035202026,0.07578203827142715
15.15,1.5667171478271484,-1.3002914190292358,-2.4727604389190674,0.2978045642375946,0.3064136207103729,-0.006417565047740936
15.175,1.398095726966858,-1.7201236486434937,-1.253234624862671,0.223672017455101,0.011330753564834595,-0.11931870132684708
15.2,0.6994514465332031,-1.5400030612945557,0.12075789272785187,0.011558298952877522,-0.28079473972320557,-0.2200959473848343
15.225,-0.23525412380695343,0.2999269664287567,1.5335038900375366,0.016253171488642693,-0.45538002252578735,-0.5856943130493164
15.25,-0.6391149759292603,3.0651910305023193,2.4812746047973633,0.09453166276216507,-0.5028790235519409,-0.8690711855888367
15.275,0.18497151136398315,4.942334175109863,2.6805036067962646,0.26017266511917114,-0.43723264336586,-0.8578795790672302
15.3,1.7667664289474487,4.9757280349731445,2.135735511779785,0.39726221561431885,-0.2084597647190094,-0.5792239308357239
15.325,2.5699472427368164,3.703839063644409,1.343376636505127,0.2079271525144577,0.21392634510993958,-0.19088932871818542
15.35,2.328357696533203,2.8258423805236816,1.252394199371338,-0.13091276586055756,0.7310376763343811,0.007979442365467548
15.375,2.2234442234039307,3.5441434383392334,2.5666792392730713,-0.3945097029209137,1.0622189044952393,-0.2779949903488159
15.4,2.577641725540161,4.649992942810059,3.923738479614258,-0.6444262862205505,1.2013875246047974,-0.4649346172809601
15.425,2.5923876762390137,4.4848737716674805,4.005092144012451,-0.6412585377693176,1.2762454748153687,-0.33034148812294006
15.45,2.10646653175354,3.699896812438965,3.5742764472961426,-0.31225138902664185,1.3599685430526733,-0.12914031744003296
15.475,1.5576355457305908,3.15753173828125,3.2401041984558105,-0.05241715535521507,1.404049038887024,-0.14264920353889465
15.5,1.1649399995803833,1.8824955224990845,2.9574978351593018,0.1211104467511177,1.1897879838943481,-0.2335028499364853
15.525,1.0158404111862183,-0.8965643048286438,2.390136957168579,0.27710866928100586,0.7608882188796997,-0.10073868185281754
15.55,0.5526605248451233,-4.118148326873779,0.872269868850708,0.32620927691459656,0.20188955962657928,0.07990027964115143
15.575,-0.6729835271835327,-6.179642677307129,-1.2368935346603394,0.46279630064964294,0.347847044467926,-0.043871551752090454
15.6,-1.4618271589279175,-7.077237129211426,-1.9885791540145874,0.7013342380523682,0.9205293655395508,-0.6120089888572693
15.625,-0.8494494557380676,-8.259963035583496,-0.24347420036792755,0.8255147337913513,1.1545720100402832,-0.9670717716217041
15.65,0.37796321511268616,-10.034306526184082,2.502037286758423,0.6306822896003723,0.7904298305511475,-0.7332438826560974
15.675,1.2652390003204346,-10.63735294342041,3.241412401199341,0.1783728450536728,0.30004921555519104,-0.18430715799331665
15.7,1.8906384706497192,-8.588966369628906,0.43637460470199585,-0.18791784346103668,0.33465296030044556,-0.18929925560951233
15.725,1.426016092300415,-4.749231338500977,-3.0800211429595947,-0.07532722502946854,0.8667425513267517,-0.36828118562698364
15.75,0.2020685076713562,-1.275805115699768,-3.8681271076202393,0.20090754330158234,1.2013558149337769,-0.21788468956947327
15.775,-0.32207679748535156,1.2710723876953125,-1.4653977155685425,0.27594149112701416,1.2463613748550415,-0.25359514355659485
15.8,1.3150359392166138,3.729910373687744,0.847661018371582,0.23679468035697937,1.080255389213562,-0.6277600526809692
15.825,3.6096441745758057,6.518611907958984,0.6536614298820496,0.1642759144306183,0.6856582164764404,-0.3923572599887848
15.85,4.021018981933594,8.863840103149414,1.280587077140808,0.12242063879966736,0.527059018611908,0.07999598979949951
15.875,4.017334938049316,8.841784477233887,4.165213584899902,-0.06107691302895546,0.738927960395813,-0.5484123229980469
15.9,4.591604232788086,5.48380184173584,5.655752658843994,0.060186393558979034,0.5124617218971252,-0.23888027667999268
15.925,4.411558628082275,2.305396795272827,3.8680436611175537,0.31743723154067993,-0.4628085196018219,0.9832644462585449
15.95,3.5228235721588135,2.7515835762023926,1.1553897857666016,0.07985105365514755,-1.0219112634658813,0.7399680614471436
15.975,2.669771671295166,4.301827907562256,0.4960518777370453,-0.42216557264328003,-0.893132209777832,-0.039114415645599365
16.0,2.4552230834960938,3.2894062995910645,0.7766019701957703,-0.5114381909370422,-1.0995776653289795,0.2194070667028427
16.025,2.877241849899292,0.8689882159233093,0.5167242884635925,-0.289542555809021,-1.2268670797348022,0.4445464313030243
16.05,3.436730146408081,-0.7455483078956604,-0.10760234296321869,-0.21481159329414368,-1.0209280252456665,0.19973628222942352
16.075,3.5328006744384766,-1.7162210941314697,-0.32239025831222534,-0.22422556579113007,-0.7083143591880798,0.09579020738601685
16.1,3.0767314434051514,-2.7722179889678955,0.10202233493328094,-0.23773787915706635,-0.5404486060142517,0.23079751431941986
16.125,2.6848244667053223,-3.611445426940918,0.7263187170028687,-0.26079562306404114,-0.608476996421814,0.2930987775325775
16.15,2.352151870727539,-3.7669923305511475,1.204988718032837,-0.25198444724082947,-0.7119260430335999,0.3447841703891754
16.175,1.9164968729019165,-3.485344171524048,1.537569522857666,-0.14682283997535706,-0.9893693923950195,0.6006184220314026
16.2,1.6904021501541138,-3.04357647895813,1.4348043203353882,0.11858014017343521,-1.1317583322525024,0.9813252091407776
16.225,1.6616411209106445,-2.0500173568725586,1.10942804813385,0.45384085178375244,-1.0372216701507568,1.2522343397140503
16.25,0.8398728966712952,-0.2965115010738373,1.6001166105270386,0.7226197123527527,-1.1091195344924927,1.4770467281341553
16.275,-1.3821743726730347,1.6878200769424438,3.1935534477233887,0.6508833169937134,-1.100692629814148,1.4877809286117554
16.3,-3.4906861782073975,2.9379775524139404,4.423827648162842,0.18989098072052002,-1.3789114952087402,1.0000591278076172
16.325,-3.2137489318847656,2.8122575283050537,4.147821426391602,-0.12976673245429993,-1.7497674226760864,0.7526542544364929
16.35,-2.235179901123047,2.3882272243499756,3.6278064250946045,0.09970927983522415,-1.8501862287521362,0.8063149452209473
16.375,-3.0436763763427734,2.801715612411499,3.3405187129974365,0.31165534257888794,-1.7406065464019775,0.6158064007759094
16.4,-3.5596492290496826,2.699206829071045,2.2474591732025146,0.15782836079597473,-1.551941156387329,0.7857411503791809
16.425,-1.883580207824707,1.851588487625122,0.40348073840141296,0.08388618379831314,-1.61777925491333,0.7747074365615845
16.45,0.21850043535232544,0.7088022232055664,-0.7274864315986633,0.1635793149471283,-1.5569696426391602,0.7356882691383362
16.475,0.8735595941543579,-0.9946175813674927,-0.2025822550058365,0.20478355884552002,-1.468349814414978,0.7060530185699463
16.5,-4.095752239227295,-5.9376220703125,4.111721038818359,0.20617982745170593,-1.4797964096069336,0.582771360874176
16.525,-13.201162338256836,-14.908921241760254,11.084739685058594,0.3650209605693817,-1.5940841436386108,0.976023256778717
16.55,-7.346127033233643,-18.911930084228516,12.54145336151123,-1.4326189756393433,-0.31757283210754395,2.302051067352295
16.575,5.865273952484131,-21.630443572998047,14.097723960876465,-0.6733118891716003,-2.192263126373291,0.26828306913375854
16.6,6.194925785064697,-20.513999938964844,9.463418960571289,-0.27402186393737793,-2.6393330097198486,-0.6372061967849731
16.625,1.1289374828338623,-9.98602294921875,1.9690735340118408,0.09689052402973175,-2.008636236190796,-0.8746352195739746
16.65,-0.7526826858520508,-0.33150389790534973,0.06209983304142952,0.2593463063240051,-2.130411386489868,-0.073677659034729
16.675,0.6519602537155151,0.5987118482589722,-1.3042311668395996,-0.4407549500465393,-2.4123141765594482,0.7202761769294739
16.7,2.2333624362945557,-1.5859427452087402,-2.4490489959716797,-0.49536335468292236,-1.772166132926941,0.6523346900939941
16.725,1.5928220748901367,-1.7470439672470093,-1.1565170288085938,-0.19594092667102814,-0.8178086280822754,0.324797123670578
16.75,-0.10084882378578186,-0.34250909090042114,1.6821434497833252,-0.10189010202884674,-0.8323031067848206,0.2551172971725464
16.775,-1.82037353515625,2.0540380477905273,5.071276664733887,-0.2109481692314148,-1.2485543489456177,0.3085900545120239
16.8,-3.8282394409179688,5.0141987800598145,6.365898132324219,-0.045672111213207245,-1.3663110733032227,0.079116091132164
16.825,-4.7205352783203125,6.0234503746032715,3.7334935665130615,0.0758301168680191,-1.1188377141952515,-0.15734414756298065
16.85,-3.233062744140625,4.762732028961182,1.9025429487228394,0.00991403590887785,-1.7921662330627441,0.05099031701683998
16.875,-0.5790266394615173,2.537842273712158,2.202052116394043,-0.18709184229373932,-2.694783926010132,0.4525949954986572
16.9,1.549331545829773,-0.10018604248762131,2.7057766914367676,-0.2466513216495514,-2.8396897315979004,0.8035365343093872
16.925,2.290226936340332,-1.7621068954467773,2.2112245559692383,-0.18525470793247223,-2.4870638847351074,0.5585095882415771
16.95,1.4791299104690552,-1.322800636291504,1.314886450767517,-0.19648918509483337,-2.0163567066192627,-0.35010039806365967
16.975,-0.11856052279472351,-0.9288568496704102,1.0293927192687988,-0.3687954246997833,-1.7054747343063354,-0.91561359167099
17.0,-1.2574220895767212,-1.733718991279602,0.9214752316474915,-0.30153995752334595,-1.5345855951309204,-0.8646712899208069
17.025,-1.5335239171981812,-2.2096402645111084,0.9617002010345459,-0.11032827943563461,-1.4247868061065674,-0.589380145072937
17.05,-1.3496620655059814,-1.0937814712524414,1.3558474779129028,0.12765322625637054,-1.4563229084014893,-0.5840698480606079
17.075,-0.7321795225143433,0.45887401700019836,1.8197296857833862,0.27164405584335327,-1.60700261592865,-0.7458150386810303
17.1,-0.11736300587654114,0.40190160274505615,2.427757501602173,0.15978893637657166,-1.7754120826721191,-0.7893980145454407
17.125,-0.29055508971214294,-0.7652499675750732,3.023658037185669,0.2109142690896988,-1.8440805673599243,-0.6530826687812805
17.15,-0.5809162855148315,-1.0619990825653076,3.2666401863098145,0.4314858913421631,-1.8222593069076538,-0.5396373271942139
17.175,0.10016421973705292,-0.1678720861673355,2.945629119873047,0.5253050327301025,-1.8127120733261108,-0.3890744149684906
17.2,1.0870410203933716,1.0660823583602905,2.0837819576263428,0.5450745820999146,-1.6782615184783936,-0.3003041744232178
17.225,1.1429866552352905,1.2012112140655518,1.4082950353622437,0.29005202651023865,-1.3783888816833496,-0.28812551498413086
17.25,0.30428242683410645,0.012018367648124695,1.3596235513687134,0.04886371269822121,-1.195565104484558,-0.2709999084472656
17.275,-0.42058321833610535,-1.0530728101730347,1.5640956163406372,0.12877608835697174,-1.2903658151626587,-0.19862903654575348
17.3,-0.5401306748390198,-1.037896990776062,1.7145837545394897,0.31032779812812805,-1.4894490242004395,-0.09677682816982269
17.325,-0.34041494131088257,-0.5721815228462219,1.9499293565750122,0.4598587155342102,-1.6665905714035034,-0.053161367774009705
17.35,-0.18208572268486023,-0.5236365795135498,2.4504282474517822,0.553356945514679,-1.8216180801391602,-0.05216323956847191
17.375,-0.16753266751766205,-0.5857980251312256,2.6197755336761475,0.7132356762886047,-1.869798183441162,-0.059531617909669876
17.4,0.12454979866743088,-0.34207990765571594,2.1011924743652344,0.8883232474327087,-1.5663857460021973,-0.023234596475958824
17.425,0.6260710954666138,-0.12803161144256592,1.1408601999282837,0.9082711935043335,-0.9552867412567139,0.048581838607788086
17.45,0.8503960371017456,-0.16606992483139038,0.6729395389556885,0.6811142563819885,-0.7366723418235779,0.08822960406541824
17.475,0.9398353695869446,-0.20703308284282684,0.8630052208900452,0.46836593747138977,-0.7303085327148438,0.0991949513554573
17.5,1.2288110256195068,-0.14380724728107452,1.449310541152954,0.360479474067688,-0.7080373764038086,0.1514481008052826
17.525,1.5925841331481934,-0.29492929577827454,1.9868288040161133,0.2972170114517212,-0.7194216251373291,0.1886032074689865
17.55,1.7557660341262817,-0.6419122815132141,2.1083908081054688,0.3758627772331238,-0.6626579165458679,0.10683531314134598
17.575,1.6783230304718018,-0.3740547299385071,1.6718670129776,0.6346302032470703,-0.47454893589019775,-0.025635752826929092
17.6,1.4632798433303833,0.8538525104522705,1.1291728019714355,0.8336904048919678,-0.2943115532398224,-0.09148603677749634
17.625,1.2208698987960815,2.0135951042175293,1.105745553970337,0.6747462749481201,-0.3739961087703705,0.0032264739274978638
17.65,1.1564109325408936,2.119511127471924,1.5269652605056763,0.3889024555683136,-0.4078666865825653,0.2183716595172882
17.675,1.3493361473083496,1.2553638219833374,1.8298792839050293,0.16586217284202576,-0.35277438163757324,0.39529168605804443
17.7,1.618500828742981,0.15208937227725983,2.0146632194519043,0.028424708172678947,-0.3589268624782562,0.3629090487957001
17.725,1.8591772317886353,-0.585440456867218,1.9023258686065674,-0.0431351512670517,-0.3270214796066284,0.2533819079399109
17.75,1.9104892015457153,-0.8078984618186951,1.5839627981185913,0.00869788322597742,-0.33582034707069397,0.25010979175567627
17.775,1.852752923965454,-0.8646401762962341,1.4733407497406006,0.08567790687084198,-0.3681919276714325,0.30191439390182495
17.8,2.0764644145965576,-0.8890599608421326,1.5846534967422485,0.17362277209758759,-0.3422045409679413,0.3732011914253235
17.825,2.454770803451538,-0.6747978925704956,1.626030445098877,0.29710638523101807,-0.27851563692092896,0.3682112395763397
17.85,2.63504958152771,-0.2091587483882904,1.501595139503479,0.4403493404388428,-0.06733962148427963,0.3082386255264282
17.875,2.597689390182495,0.16057124733924866,1.17462158203125,0.4840799868106842,0.2880755066871643,0.28369998931884766
17.9,2.2100729942321777,0.11198150366544724,0.8147700428962708,0.32514411211013794,0.2726280093193054,0.2259576916694641
17.925,1.507737159729004,-0.382286012172699,0.9148904085159302,0.19371497631072998,0.04074467718601227,0.09482624381780624
17.95,1.1832572221755981,-0.9881353378295898,1.2417727708816528,0.1872609555721283,-0.20482638478279114,-0.0026329318061470985
17.975,1.3669780492782593,-1.0391960144042969,1.3845791816711426,0.37201252579689026,-0.42674779891967773,0.052065614610910416
18.0,1.6177741289138794,-0.8611821532249451,1.6949995756149292,0.4815865159034729,-0.614162802696228,0.03444027900695801
18.025,1.905017614364624,-1.0665968656539917,2.1561365127563477,0.2945551872253418,-0.7656225562095642,-0.054519157856702805
18.05,1.9976162910461426,-1.3282049894332886,2.3908519744873047,0.08947868645191193,-0.879660427570343,-0.02920522168278694
18.075,1.3850276470184326,-0.9952629804611206,2.0470266342163086,0.05228547006845474,-1.0574877262115479,0.023029059171676636
18.1,0.18617621064186096,0.42180556058883667,1.0476154088974,0.11836554110050201,-1.3987095355987549,-0.04283079877495766
18.125,-0.6330327987670898,2.4415676593780518,0.46750956773757935,0.3069112300872803,-1.4258112907409668,-0.12266754359006882
18.15,-1.1983590126037598,3.9765000343322754,0.6655394434928894,0.35375046730041504,-1.37230384349823,-0.0019505905220285058
18.175,-1.8957977294921875,4.424943447113037,0.3082028925418854,0.077712282538414,-1.854149341583252,0.07237432152032852
18.2,-2.1473753452301025,3.6801905632019043,-0.5961132049560547,-0.38781872391700745,-2.130258083343506,-0.08477140963077545
18.225,-1.659443974494934,3.2376949787139893,-1.3321601152420044,-0.36371904611587524,-1.9605591297149658,-0.04126458242535591
18.25,-1.1418159008026123,3.8170416355133057,-2.012009620666504,0.1909714788198471,-1.650553584098816,0.06280200183391571
18.275,-0.9842202067375183,3.517519235610962,-2.666450262069702,0.42320433259010315,-1.3932831287384033,-0.21953533589839935
18.3,-0.8961169719696045,1.308105230331421,-2.975147247314453,0.15977714955806732,-1.3795936107635498,-0.49755245447158813
18.325,-0.7800233364105225,-1.3156132698059082,-2.884708881378174,-0.13628076016902924,-1.5170663595199585,-0.45317918062210083
18.35,-0.585045576095581,-2.7625179290771484,-2.6871018409729004,-0.19335606694221497,-1.6174519062042236,-0.36199936270713806
18.375,-0.20221258699893951,-2.9659252166748047,-2.224912405014038,-0.09786491841077805,-1.8218127489089966,-0.4310234487056732
18.4,0.26817360520362854,-2.6814208030700684,-1.227510690689087,-0.1758822351694107,-1.9981135129928589,-0.48468077182769775
18.425,0.6215685606002808,-2.2255666255950928,-0.24854670464992523,-0.46436622738838196,-1.9730257987976074,-0.43875476717948914
18.45,0.7079707384109497,-1.5619595050811768,-0.1022748202085495,-0.6382713317871094,-1.8847118616104126,-0.40416860580444336
18.475,0.5254052877426147,-1.0012733936309814,-0.6042068600654602,-0.6148476600646973,-1.8551521301269531,-0.3968220055103302
18.5,0.41944119334220886,-0.767289400100708,-1.0228291749954224,-0.5324333310127258,-1.9134471416473389,-0.39824536442756653
18.525,0.655985951423645,-0.43806952238082886,-0.9312074780464172,-0.4223521649837494,-2.003427267074585,-0.3184417188167572
18.55,1.073590874671936,0.11303422600030899,-0.34321796894073486,-0.32910028100013733,-2.079745054244995,-0.16097642481327057
18.575,1.437909483909607,0.400275319814682,0.3427352011203766,-0.34607934951782227,-2.1049675941467285,-0.07429517060518265
18.6,1.5781302452087402,0.21473512053489685,0.551037609577179,-0.405281662940979,-1.936397910118103,-0.06561826914548874
18.625,1.5361406803131104,-0.09641075134277344,0.12308494001626968,-0.34927093982696533,-1.6757546663284302,0.012963204644620419
18.65,1.576098918914795,-0.26737698912620544,-0.47785505652427673,-0.2314925640821457,-1.62859046459198,0.16760459542274475
18.675,1.8760695457458496,-0.3932019770145416,-0.6603369116783142,-0.14246736466884613,-1.7448629140853882,0.2037065476179123
18.7,2.336364269256592,-0.5474616289138794,-0.283580482006073,-0.09113676100969315,-1.7352131605148315,0.04831599444150925
18.725,2.5654196739196777,-0.6770363450050354,0.14250807464122772,-0.09505213797092438,-1.585493564605713,-0.17961634695529938
18.75,2.1344470977783203,-0.8317786455154419,0.2466369867324829,-0.09087854623794556,-1.477516531944275,-0.3040376305580139
18.775,1.2095192670822144,-1.0016471147537231,0.28529927134513855,-0.009626219049096107,-1.3870720863342285,-0.3248915672302246
18.8,0.3175075948238373,-0.7082061767578125,0.6079263687133789,0.10166742652654648,-1.1071910858154297,-0.28926751017570496
18.825,-0.4454718828201294,0.2317955195903778,1.4519363641738892,0.2123047113418579,-0.6796624064445496,-0.31234151124954224
18.85,-0.89565509557724,1.286821722984314,2.2221267223358154,0.2730133831501007,-0.30214059352874756,-0.27943411469459534
18.875,-1.0094496011734009,1.877525806427002,1.8653095960617065,0.24912570416927338,-0.034583620727062225,-0.17067646980285645
18.9,-1.1995095014572144,1.8422902822494507,0.717069685459137,0.26719236373901367,0.018092330545186996,-0.1870342344045639
18.925,-1.8247500658035278,1.6470568180084229,0.05975727736949921,0.37111976742744446,-0.14800181984901428,-0.23988355696201324
18.95,-2.727463960647583,1.660961389541626,0.25885093212127686,0.4640633761882782,-0.2643815577030182,-0.24517467617988586
18.975,-3.400002956390381,1.965009093284607,1.014175534248352,0.40685680508613586,-0.23671308159828186,-0.23138941824436188
19.0,-3.4106786251068115,2.3988776206970215,1.7151381969451904,0.20096778869628906,0.03486889973282814,-0.3062998950481415
19.025,-3.0904486179351807,2.3263888359069824,1.6947427988052368,-0.06484010070562363,0.19162426888942719,-0.21403463184833527
19.05,-2.831324577331543,1.135042428970337,1.0715010166168213,-0.20741617679595947,0.09846474230289459,0.0029139381367713213
19.075,-2.539330005645752,-0.5623197555541992,0.625165581703186,-0.23108839988708496,0.04727417230606079,0.06705119460821152
19.1,-2.0949110984802246,-1.479379653930664,0.7013823390007019,-0.26635900139808655,0.058386363089084625,0.15317071974277496
19.125,-1.4134712219238281,-1.391092300415039,0.8408161401748657,-0.3220577538013458,0.05919693410396576,0.3372330367565155
19.15,-0.7310051321983337,-1.0293874740600586,0.6257862448692322,-0.34026458859443665,0.05380627140402794,0.43963003158569336
19.175,-0.2546980679035187,-0.8365707993507385,0.2641005218029022,-0.3102574050426483,0.03468857705593109,0.382592111825943
19.2,0.12098728865385056,-0.7264414429664612,0.06337885558605194,-0.2692330479621887,0.10826622694730759,0.18438410758972168
19.225,0.16646741330623627,-0.4534817039966583,0.1603344976902008,-0.2396945208311081,0.22114282846450806,0.022455759346485138
19.25,-0.35811787843704224,-0.0574607290327549,0.5195584297180176,-0.18140217661857605,0.21049292385578156,0.0198440570384264
19.275,-0.9836582541465759,0.03729163482785225,0.8893852233886719,-0.06532398611307144,0.17662686109542847,0.04911112040281296
19.3,-1.136680006980896,-0.21642006933689117,1.0861232280731201,-0.01714036986231804,0.28816038370132446,0.060252681374549866
19.325,-0.8243094682693481,-0.26884737610816956,1.0413588285446167,-0.06177525594830513,0.49753808975219727,0.09260620921850204
19.35,-0.3866887092590332,0.04120646044611931,0.8074401021003723,-0.042432837188243866,0.7602859735488892,0.0755019560456276
19.375,0.025929998606443405,0.2265377938747406,0.5510873198509216,0.04775569587945938,0.8956258893013,-0.015142071060836315
19.4,0.3834591805934906,0.03181843459606171,0.3566366732120514,0.11699429154396057,0.8616262674331665,-0.14166997373104095
19.425,0.6081597208976746,-0.3165569305419922,0.23769454658031464,0.15787310898303986,0.7386937141418457,-0.2122279852628708
19.45,0.6321220993995667,-0.550602912902832,0.30809485912323,0.2419458031654358,0.5490021109580994,-0.26932239532470703
19.475,0.4226444363594055,-0.4937610626220703,0.5328978300094604,0.3273608684539795,0.3322332203388214,-0.2942361533641815
19.5,0.16798096895217896,-0.358792245388031,0.7453257441520691,0.35302233695983887,0.1338055431842804,-0.3163612186908722
19.525,0.009951268322765827,-0.5076665282249451,0.9671868681907654,0.35117703676223755,0.0123111167922616,-0.3508247137069702
19.55,-0.06540166586637497,-0.8817538619041443,1.3169773817062378,0.3371411859989166,-0.02464314177632332,-0.36873000860214233
19.575,0.04824826493859291,-1.1452807188034058,1.6501398086547852,0.2733164131641388,-0.020533664152026176,-0.2747575640678406
19.6,0.4188646972179413,-1.0985230207443237,1.577406883239746,0.17742954194545746,0.009204527363181114,-0.05532063916325569
19.625,0.8659530282020569,-0.8302974104881287,1.2939478158950806,0.11550959199666977,-0.039017632603645325,0.09080734103918076
19.65,1.0730775594711304,-0.527769923210144,1.4467030763626099,0.09955541044473648,-0.13814707100391388,0.12687404453754425
19.675,0.9847805500030518,-0.23867778480052948,1.8803826570510864,0.09066541492938995,-0.0811479389667511,0.20837856829166412
19.7,0.9634250998497009,-0.07089116424322128,1.8471068143844604,0.03814716637134552,0.06646065413951874,0.3392435610294342
19.725,1.2057182788848877,-0.14726252853870392,0.551844596862793,-0.07943183183670044,0.21860522031784058,0.41504478454589844
19.75,0.9712609052658081,-0.1288006603717804,-2.131312131881714,-0.3041183352470398,0.28480643033981323,0.6000238656997681
19.775,-0.8634350895881653,0.42884302139282227,-4.5934367179870605,-0.5916621088981628,-0.05760149285197258,1.0669642686843872
19.8,-2.915032386779785,1.6892858743667603,-5.458696365356445,-0.8240329027175903,-0.3114193379878998,1.1762263774871826
19.825,-2.445952892303467,3.5936334133148193,-5.743051052093506,-0.9630047678947449,-0.3699655830860138,0.7419399619102478
19.85,-0.849186897277832,5.088020324707031,-5.655339241027832,-0.5340082049369812,-0.6224557161331177,0.5412826538085938
19.875,-0.5268332362174988,4.946301460266113,-4.641578674316406,0.2712317109107971,-0.7886289954185486,0.5817747116088867
19.9,-0.9255036115646362,3.0992374420166016,-3.425773859024048,0.5802168846130371,-0.9411116242408752,0.3527447283267975
19.925,-1.0627741813659668,0.7901904582977295,-2.786703109741211,0.4435158669948578,-1.1245478391647339,0.15485094487667084
19.95,-0.9127891659736633,-0.8187660574913025,-2.2541885375976562,0.521245002746582,-1.1801174879074097,0.1382264792919159
19.975,-0.8623141050338745,-1.6190236806869507,-1.3910408020019531,0.7729793190956116,-1.1245282888412476,0.060589537024497986
20.0,-1.0815824270248413,-1.732545256614685,-1.114478349685669,0.7035458087921143,-1.0322495698928833,0.19780628383159637
20.025,-1.2716325521469116,-1.4907029867172241,-1.5352559089660645,0.4630826413631439,-1.0344717502593994,0.4589812755584717
20.05,-0.8656984567642212,-1.421606421470642,-1.5153381824493408,0.43774309754371643,-1.0377613306045532,0.30274316668510437
20.075,-0.29872897267341614,-1.2754566669464111,-0.9656354188919067,0.4693683683872223,-1.056046962738037,0.04224906116724014
20.1,-0.32295864820480347,-0.8309957385063171,-0.6620824933052063,0.35922932624816895,-1.077435851097107,0.012002820149064064
20.125,-0.5956017374992371,-0.5971786379814148,-0.7934419512748718,0.1989460438489914,-0.8898918628692627,-0.018219219520688057
20.15,-0.5719438195228577,-0.7132980227470398,-0.9980292916297913,0.09635048359632492,-0.6469596028327942,-0.09960680454969406
20.175,-0.3655313551425934,-0.6217758059501648,-1.0262988805770874,0.05295450612902641,-0.46645238995552063,-0.07208369672298431
20.2,-0.31157711148262024,-0.25524821877479553,-1.0079375505447388,0.06244971975684166,-0.25894856452941895,-0.02770567126572132
20.225,-0.3712886869907379,-0.18986907601356506,-1.0005375146865845,0.13450737297534943,-0.12384220212697983,-0.11920526623725891
20.25,-0.4222763180732727,-0.5204936861991882,-0.7743536829948425,0.13898970186710358,-0.03525463119149208,-0.207244411110878
20.275,-0.5308900475502014,-0.7318307161331177,-0.6437662243843079,0.032489702105522156,0.12074849754571915,-0.2664702832698822
20.3,-0.5365849137306213,-0.17412389814853668,-0.9912288188934326,-0.10107308626174927,0.1657998263835907,-0.21821628510951996
20.325,-0.0847867950797081,0.8254537582397461,-1.145195722579956,-0.12057826668024063,0.11398274451494217,-0.09222879260778427
20.35,0.5812196731567383,1.0650415420532227,-0.7668253779411316,0.020464075729250908,0.18948642909526825,-0.15857242047786713
20.375,0.7684762477874756,0.4347877502441406,-0.5923474431037903,0.17424216866493225,0.31382572650909424,-0.3389238119125366
20.4,0.5552811622619629,-0.08525095880031586,-0.8259432911872864,0.21833911538124084,0.28566744923591614,-0.4040104150772095
20.425,0.3132903277873993,-0.22583307325839996,-0.9063939452171326,0.16332878172397614,0.21652103960514069,-0.3303207755088806
20.45,0.18894489109516144,-0.3557072877883911,-0.8461846709251404,0.08974141627550125,0.2076147198677063,-0.1920703798532486
20.475,0.2774074971675873,-0.29645076394081116,-0.9568275809288025,0.008867507800459862,0.17986340820789337,-0.04435383901000023
20.5,0.31858953833580017,0.037175051867961884,-1.0824800729751587,-0.0118873855099082,0.09216582030057907,0.01920855976641178
20.525,0.06346854567527771,0.20542994141578674,-0.980346143245697,0.048451490700244904,-0.00017863490211311728,-0.013638737611472607
20.55,-0.3885270953178406,0.19481557607650757,-0.699582040309906,0.08538451790809631,-0.008309559896588326,-0.012229460291564465
20.575,-0.669486939907074,0.3089418113231659,-0.42795106768608093,0.1144125759601593,0.09855613857507706,0.002833887469023466
20.6,-0.46351107954978943,0.5656890869140625,-0.3885035812854767,0.17508283257484436,0.30618178844451904,0.010438088327646255
20.625,-0.11756616830825806,0.5895414352416992,-0.652616560459137,0.23346760869026184,0.5092619061470032,0.06788522005081177
20.65,-0.06441846489906311,0.0894392803311348,-1.0141476392745972,0.27232739329338074,0.564684271812439,0.1004212275147438
20.675,-0.19279098510742188,-0.5733578205108643,-1.2797296047210693,0.3027077913284302,0.4955720901489258,0.07628932595252991
20.7,-0.37597668170928955,-0.7932637333869934,-1.3205108642578125,0.31362152099609375,0.3805690407752991,0.06111157312989235
20.725,-0.603549599647522,-0.507856547832489,-1.1867411136627197,0.25456103682518005,0.26944783329963684,0.049916524440050125
20.75,-0.8354665637016296,-0.13920892775058746,-1.014664649963379,0.16650161147117615,0.206339031457901,0.030882438644766808
20.775,-0.9720599055290222,-0.014146903529763222,-0.8123106956481934,0.1309131234884262,0.10428471118211746,0.0021489316131919622
20.8,-0.9959998726844788,-0.06304270774126053,-0.49252572655677795,0.11983168870210648,-0.045655131340026855,-0.01881321892142296
20.825,-1.071190595626831,-0.08492662757635117,-0.13908231258392334,0.08725831657648087,-0.08599895238876343,-0.00021779244707431644
20.85,-1.2376601696014404,-0.0847473219037056,-0.006099820137023926,0.02771618403494358,-0.04209776967763901,0.04433739557862282
20.875,-1.2798130512237549,-0.1994200050830841,0.007183536421507597,-0.041791316121816635,0.01882939599454403,0.11826872080564499
20.9,-1.1245392560958862,-0.46073251962661743,0.10570214688777924,-0.030367612838745117,0.13092449307441711,0.15211451053619385
20.925,-1.1051908731460571,-0.518773078918457,0.3383217453956604,0.03215651214122772,0.19613683223724365,0.19365540146827698
20.95,-1.2642841339111328,-0.13990014791488647,0.6141167879104614,0.025300098583102226,0.30350324511528015,0.27663618326187134
20.975,-1.3254293203353882,0.2256108522415161,0.691798210144043,-0.01950359344482422,0.5194591283798218,0.2683057487010956
21.0,-1.3560478687286377,0.21732911467552185,0.5510727167129517,-0.0324375219643116,0.6859529614448547,0.2007305771112442
21.025,-1.451859474182129,0.04828934744000435,0.34028252959251404,-0.011218986473977566,0.7849492430686951,0.15452228486537933
21.05,-1.457059621810913,0.002182986354455352,0.21486927568912506,0.015159924514591694,0.82122403383255,0.1193966418504715
21.075,-1.0283902883529663,0.3003216087818146,-0.06790202856063843,-0.029141345992684364,0.8088933229446411,0.09761568158864975
21.1,-0.16408899426460266,1.1619548797607422,-1.0093178749084473,-0.12105635553598404,0.816868007183075,0.05549101531505585
21.125,0.28411808609962463,2.288872718811035,-1.8366529941558838,-0.10922860354185104,0.6819203495979309,0.05413180962204933
21.15,-0.144612655043602,2.5604400634765625,-1.5343648195266724,-0.012713110074400902,0.43430662155151367,-0.1912873536348343
21.175,-0.6786772608757019,1.5908395051956177,-0.5054604411125183,-0.004762149881571531,0.17357204854488373,-0.7750017642974854
21.2,-0.17430271208286285,0.6453915238380432,0.13682924211025238,-0.20377255976200104,0.09334441274404526,-0.8949820399284363
21.225,1.3399714231491089,0.4203214943408966,-0.1393270194530487,-0.33850836753845215,0.39358624815940857,-0.37122616171836853
21.25,2.669180393218994,0.29001137614250183,-0.5579885840415955,-0.16257745027542114,0.6900480389595032,0.07656159996986389
21.275,3.257002353668213,-0.10815819352865219,-0.5708807110786438,-0.031699731945991516,0.8278158903121948,0.16687706112861633
21.3,3.1809585094451904,-0.3631993532180786,-0.8278356194496155,-0.0997629314661026,0.8496716022491455,0.18332867324352264
21.325,2.587836503982544,-0.09754202514886856,-1.6567621231079102,-0.13450901210308075,0.5606646537780762,0.22339312732219696
21.35,1.897080659866333,0.378522664308548,-2.266352415084839,-0.13847482204437256,0.057750117033720016,0.23178142309188843
21.375,1.371990442276001,0.49770623445510864,-1.8843350410461426,-0.23041485249996185,-0.1968526542186737,0.1910124570131302
21.4,0.865812361240387,0.1619538515806198,-0.7402218580245972,-0.36873936653137207,-0.18473803997039795,0.0807516947388649
21.425,0.5042134523391724,-0.27490234375,0.2986382842063904,-0.39933961629867554,-0.11607171595096588,-0.010322694666683674
21.45,0.5291504859924316,-0.6410465240478516,0.593557596206665,-0.2826964557170868,-0.04112771898508072,-0.013354049995541573
21.475,0.6998230218887329,-0.9625321626663208,0.22539350390434265,-0.16047658026218414,-0.1185753121972084,0.07224201411008835
21.5,0.8386684656143188,-1.0818644762039185,-0.12838804721832275,-0.1381734162569046,-0.3220526874065399,0.15680481493473053
21.525,0.982094943523407,-0.941146969795227,-0.015569647774100304,-0.17470715939998627,-0.43960070610046387,0.14499253034591675
21.55,1.102489948272705,-0.8090716600418091,0.20976299047470093,-0.17689627408981323,-0.4730490446090698,0.050620272755622864
21.575,1.0820356607437134,-0.7819205522537231,0.1873665601015091,-0.1110210120677948,-0.5071092247962952,-0.06549619883298874
21.6,0.8406877517700195,-0.6736813187599182,0.22014091908931732,-0.030275285243988037,-0.625457763671875,-0.21079371869564056
21.625,0.3100975751876831,-0.5101708769798279,0.7906004786491394,0.04526827111840248,-0.7725864052772522,-0.38688382506370544
21.65,-0.484317809343338,-0.5302627682685852,1.8361142873764038,0.10682341456413269,-0.7044892311096191,-0.5420050621032715
21.675,-0.8265692591667175,-0.745711088180542,2.403642416000366,0.07113911211490631,-0.5278068780899048,-0.5495259165763855
21.7,0.02814098447561264,-0.7916707992553711,1.1081278324127197,-0.03409333899617195,-0.37213799357414246,-0.3608790636062622
21.725,1.2044341564178467,0.048063986003398895,-2.123964548110962,-0.03527349233627319,-0.39358553290367126,-0.11582642793655396
21.75,1.0096253156661987,1.82853102684021,-4.466209888458252,0.1461161971092224,-0.8086901903152466,-0.023480871692299843
21.775,0.6031569838523865,2.922833204269409,-3.6624107360839844,0.1973060667514801,-0.4815887212753296,-0.2170126587152481
21.8,1.0775624513626099,2.941190719604492,-2.0641112327575684,-0.24040944874286652,-0.08810894936323166,-0.30453628301620483
21.825,0.8029230237007141,2.469883918762207,-1.9008535146713257,-0.5565372705459595,-0.6721628904342651,-0.2818746268749237
21.85,0.05712052434682846,1.354439616203308,-2.3220722675323486,-0.30617353320121765,-0.82525634765625,-0.4334813952445984
21.875,0.1696474552154541,0.7677276730537415,-2.7047317028045654,-0.009342283941805363,-0.6873821020126343,-0.31223589181900024
21.9,0.9331367015838623,0.9898183345794678,-3.0055665969848633,-0.0033994102850556374,-0.7867852449417114,0.09675361216068268
21.925,1.4888832569122314,0.38368576765060425,-2.974463939666748,-0.17023131251335144,-0.9170375466346741,0.21655899286270142
21.95,1.517906904220581,-1.2247575521469116,-2.48416805267334,-0.19011156260967255,-0.9248175621032715,0.0740436390042305
21.975,1.3583228588104248,-2.2549242973327637,-2.168578624725342,-0.03833461180329323,-0.886740505695343,0.05027768760919571
22.0,1.3049561977386475,-2.019102096557617,-2.4393818378448486,0.0772874504327774,-0.880830705165863,0.1640000343322754
22.025,1.235573410987854,-1.3271689414978027,-2.733060836791992,0.031672265380620956,-0.8998515009880066,0.20335479080677032
22.05,1.1623361110687256,-0.9807361960411072,-2.717449903488159,-0.06545466184616089,-0.9206703901290894,0.12915469706058502
22.075,1.2518255710601807,-0.8952345252037048,-2.713932752609253,-0.08505535125732422,-0.9316489100456238,0.005279277451336384
22.1,1.3488836288452148,-0.7507328987121582,-2.9308817386627197,-0.11457418650388718,-0.9030159711837769,-0.08524933457374573
22.125,1.34798264503479,-0.6063846945762634,-3.097761631011963,-0.2028489112854004,-0.8767075538635254,-0.09339286386966705
22.15,1.3309268951416016,-0.514668881893158,-2.937678575515747,-0.27159181237220764,-0.9433674216270447,-0.0929144024848938
22.175,1.3029754161834717,-0.1640818864107132,-2.5235321521759033,-0.27966296672821045,-1.0747358798980713,-0.1075756847858429
22.2,1.2652183771133423,0.5090520977973938,-2.0647733211517334,-0.26413989067077637,-1.1983680725097656,-0.06996067613363266
22.225,1.153468370437622,0.9882954955101013,-1.7334918975830078,-0.24262504279613495,-1.2254043817520142,-0.005300578195601702
22.25,0.9153344631195068,0.9196214079856873,-1.3990241289138794,-0.20892691612243652,-1.2129056453704834,0.05313299968838692
22.275,0.6199202537536621,0.5986489653587341,-0.9120030403137207,-0.17507249116897583,-1.2395635843276978,0.13710512220859528
22.3,0.44066691398620605,0.42772483825683594,-0.5530734658241272,-0.12743805348873138,-1.2173627614974976,0.20781166851520538
22.325,0.4126321077346802,0.33342835307121277,-0.5159151554107666,-0.059056855738162994,-1.1601009368896484,0.24381674826145172
22.35,0.2859848737716675,0.09571928530931473,-0.5316694974899292,0.010075907222926617,-1.1878081560134888,0.2270096391439438
22.375,-0.13026927411556244,-0.11132530868053436,-0.24302363395690918,0.04594762623310089,-1.2751857042312622,0.15039893984794617
22.4,-0.608223021030426,0.16576485335826874,0.23776577413082123,0.005622098222374916,-1.2545392513275146,0.06382077187299728
22.425,-0.7617535591125488,0.8217641711235046,0.544755220413208,-0.06955429911613464,-1.1155550479888916,0.01756254769861698
22.45,-0.6966330409049988,1.1198351383209229,0.6775889992713928,-0.1015787422657013,-1.0446650981903076,0.0234393198043108
22.475,-0.7403104901313782,0.8015530109405518,0.9170648455619812,-0.04513313248753548,-1.0973435640335083,-0.030735792592167854
22.5,-0.9940139651298523,0.33425918221473694,1.0739529132843018,-0.006124356761574745,-1.0595027208328247,-0.17098136246204376
22.525,-1.1332429647445679,0.018631091341376305,0.9115079641342163,-0.0968712642788887,-0.8625828623771667,-0.2802897095680237
22.55,-0.9513415694236755,-0.16279977560043335,0.6774157881736755,-0.15601718425750732,-0.7590557932853699,-0.30927473306655884
22.575,-0.8111640214920044,-0.17264647781848907,0.49916210770606995,-0.1489199548959732,-0.7408735752105713,-0.2719532251358032
22.6,-0.8674800395965576,-0.0640220120549202,0.5276225209236145,-0.1470022052526474,-0.6936618089675903,-0.23236136138439178
22.625,-0.7731793522834778,0.03814515098929405,0.6946190595626831,-0.13653096556663513,-0.602735161781311,-0.22666984796524048
22.65,-0.49934110045433044,0.06616505235433578,0.6059181690216064,-0.1495785266160965,-0.6236408948898315,-0.2215310037136078
22.675,-0.31467241048812866,-0.04750440642237663,0.22520911693572998,-0.18647454679012299,-0.7611483931541443,-0.2034575343132019
22.7,-0.19376401603221893,-0.25474074482917786,-0.11085504293441772,-0.21388857066631317,-0.8084564208984375,-0.13843847811222076
22.725,-0.042744919657707214,-0.40504369139671326,-0.1613941788673401,-0.18830348551273346,-0.796072781085968,-0.04010046273469925
22.75,-0.04892151802778244,-0.3098755180835724,-0.08429347723722458,-0.14593654870986938,-0.7790891528129578,0.02699126861989498
22.775,-0.26521027088165283,-0.04954720661044121,-0.022525638341903687,-0.10554257780313492,-0.7531384825706482,0.050121065229177475
22.8,-0.38025134801864624,0.02249336615204811,0.022715061902999878,-0.0708421841263771,-0.7505092620849609,0.06312417984008789
22.825,-0.18450859189033508,-0.04593086615204811,0.005434074439108372,-0.05224694684147835,-0.7528195977210999,0.10760033875703812
22.85,0.025174664333462715,0.09868241846561432,-0.027139713987708092,-0.01836536079645157,-0.7308852076530457,0.16692951321601868
22.875,-0.05746708810329437,0.26898765563964844,-0.1614140123128891,0.049139201641082764,-0.678223192691803,0.17107991874217987
22.9,-0.2155018448829651,0.1097230613231659,-0.38148394227027893,0.09212370961904526,-0.5976026058197021,0.13318537175655365
22.925,-0.18518595397472382,-0.15471751987934113,-0.4771873354911804,0.0757289007306099,-0.5298149585723877,0.1131812110543251
22.95,-0.10417114198207855,-0.12509258091449738,-0.4730057418346405,0.010650197975337505,-0.5523089170455933,0.13920260965824127
22.975,-0.035154301673173904,0.0884055569767952,-0.4765626788139343,-0.06509018689393997,-0.5892598032951355,0.1525869518518448
23.0,0.0006905942573212087,0.09531112015247345,-0.5109816789627075,-0.12014259397983551,-0.5706613063812256,0.13666056096553802
23.025,-0.06042875349521637,-0.037505216896533966,-0.5241903066635132,-0.1637202948331833,-0.5295209884643555,0.1104571670293808
23.05,-0.2145453244447708,0.08603090047836304,-0.5772178769111633,-0.20694448053836823,-0.5037600994110107,0.08268160372972488
23.075,-0.27129173278808594,0.3077210783958435,-0.7237064838409424,-0.18681494891643524,-0.4627176523208618,0.053467024117708206
23.1,-0.15745465457439423,0.2928885817527771,-0.8611133694648743,-0.10606967657804489,-0.43918469548225403,0.02598668821156025
23.125,-0.20275679230690002,0.22139158844947815,-0.9846510887145996,-0.04527663812041283,-0.46426060795783997,-0.005374683067202568
23.15,-0.39434653520584106,0.23140515387058258,-1.1651031970977783,0.015651002526283264,-0.4380134046077728,-0.05124511569738388
23.175,-0.2872523069381714,0.24492156505584717,-1.270517110824585,0.037225186824798584,-0.4276907742023468,-0.05269816890358925
23.2,0.0345642976462841,0.20109261572360992,-1.1560935974121094,0.010514281690120697,-0.507709801197052,-0.004928544629365206
23.225,0.13956497609615326,0.0323856957256794,-1.1332926750183105,0.039238981902599335,-0.5824124813079834,0.013924798928201199
23.25,0.0609888881444931,-0.12082497030496597,-1.2083820104599,0.08205600827932358,-0.6044571995735168,0.019522298127412796
23.275,-0.03907352313399315,-0.15882793068885803,-1.0691112279891968,0.12812834978103638,-0.5963879823684692,0.04331977292895317
23.3,-0.20639578998088837,-0.22662176191806793,-0.9354224801063538,0.1715981513261795,-0.6326245069503784,0.05781279504299164
23.325,-0.2982061207294464,-0.34842124581336975,-0.9439173340797424,0.14937378466129303,-0.6968218684196472,0.06266319751739502
23.35,-0.24320538341999054,-0.2914811372756958,-0.8316237330436707,0.06868351995944977,-0.6532055735588074,0.06710681319236755
23.375,-0.1197761744260788,-0.1288042962551117,-0.6678169369697571,0.058546531945466995,-0.5513982176780701,0.06214241310954094
23.4,0.1268511414527893,-0.25455009937286377,-0.7581894993782043,0.10655780136585236,-0.5587228536605835,0.0478362999856472
23.425,0.4053553342819214,-0.6484100222587585,-1.1038990020751953,0.10582952201366425,-0.5970323085784912,0.0600883774459362
23.45,0.44616833329200745,-0.8154862523078918,-1.5341670513153076,0.025870371609926224,-0.6340811252593994,0.0948919951915741
23.475,0.32159051299095154,-0.5458681583404541,-1.7358767986297607,-0.08575376123189926,-0.7071414589881897,0.11476896703243256
23.5,0.09641694277524948,0.023443983867764473,-1.643059253692627,-0.14402756094932556,-0.7910680770874023,0.1061144694685936
23.525,-0.5071353316307068,0.7580766081809998,-1.2845538854599,-0.08409056812524796,-0.7794991731643677,0.08782757073640823
23.55,-1.4322789907455444,1.5571414232254028,-0.83782958984375,0.03133770823478699,-0.5499773621559143,0.024888984858989716
23.575,-1.4708926677703857,2.019258737564087,-0.8230912089347839,0.0024188149254769087,-0.09816522896289825,-0.1351620852947235
23.6,-0.10787014663219452,1.627045750617981,-1.0768455266952515,-0.0918290764093399,0.06705879420042038,-0.25630056858062744
23.625,1.0732862949371338,0.7118873000144958,-1.0668214559555054,0.0206865593791008,-0.20122964680194855,-0.2501594126224518
23.65,0.920174241065979,0.23521797358989716,-0.8569433093070984,0.13393226265907288,-0.4397849142551422,-0.2147679328918457
23.675,0.05175630375742912,0.3162812888622284,-0.508781909942627,0.09113843739032745,-0.5415719151496887,-0.17318487167358398
23.7,-0.33663609623908997,0.3861551880836487,-0.04893248528242111,-0.07322382181882858,-0.5200632810592651,-0.1675989329814911
23.725,-0.022267648950219154,0.09923656284809113,0.510178804397583,-0.11065056174993515,-0.36817610263824463,-0.16193388402462006
23.75,0.33856797218322754,-0.2891205847263336,0.937302827835083,-0.032633259892463684,-0.22518384456634521,-0.08236394822597504
23.775,0.4814514219760895,-0.4774932265281677,1.0909277200698853,0.007574164774268866,-0.15784291923046112,-0.01948237046599388
23.8,0.5635842680931091,-0.4656466841697693,1.0290952920913696,0.006624927744269371,-0.026824114844202995,0.025803130120038986
23.825,0.5272143483161926,-0.38678452372550964,0.8468091487884521,-0.030293434858322144,0.04965079575777054,0.10677661746740341
23.85,0.4337378740310669,-0.2979259192943573,0.5679680705070496,-0.04325246065855026,0.030910085886716843,0.14991898834705353
23.875,0.3306131958961487,-0.08287237584590912,0.20763801038265228,-0.0717378631234169,0.04134569689631462,0.13369497656822205
