Time [s],Acc_x [m/s^2],Acc_y [m/s^2],Acc_z [m/s^2],Gyro_x [1/s],Gyro_y [1/s],Gyro_z [1/s]
0.0,-0.13482223451137543,0.05472087115049362,0.0204320065677166,0.00636485917493701,0.011978324502706528,0.0009576319716870785
0.05,-0.11938824504613876,0.053133003413677216,0.01910964958369732,0.006673529278486967,0.009308194741606712,0.0010154787451028824
0.1,0.005791414529085159,0.051537513732910156,-0.013673902489244938,0.0088832788169384,-0.007598976604640484,0.001385403098538518
0.15,-0.0117874126881361,0.10087203979492188,-0.036013416945934296,0.008076656609773636,0.007193276192992926,0.000910528062377125
0.2,-0.044389624148607254,0.15468978881835938,0.016462303698062897,0.006298617459833622,0.01105764415115118,-0.0013604838168248534
0.25,-0.03658091276884079,0.10101032257080078,0.031932756304740906,0.0122405756264925,-0.0031432074028998613,0.00040412513772025704
0.3,0.013599423691630363,0.07518863677978516,0.024791447445750237,0.005271166563034058,-0.003217256860807538,-0.0008323924266733229
0.35,-0.0025602811947464943,0.08709526062011719,-0.037758029997348785,0.0019726892933249474,-0.005215146578848362,0.004167196340858936
0.4,0.023270972073078156,0.097198486328125,0.015064233914017677,0.005103918258100748,-0.001546184765174985,0.00534821068868041
0.45,-0.025189245119690895,0.03316688537597656,-0.07287473976612091,0.0054723117500543594,-0.005562114994972944,0.010681109502911568
0.5,-0.03364524617791176,0.12163066864013672,0.0037718506064265966,0.015370089560747147,-0.012862355448305607,0.011390074156224728
0.55,-0.03327789530158043,0.08898258209228516,-0.006833437364548445,0.008377770893275738,-0.014001083560287952,0.013405585661530495
0.6,-0.04955221712589264,0.05195998772978783,-0.04547709599137306,0.010382948443293571,-0.013511564582586288,0.01196673046797514
0.65,0.05449859797954559,0.037397388368844986,0.035138245671987534,0.012540921568870544,-0.013912276364862919,0.015517444349825382
0.7,-0.007486896123737097,0.06699752807617188,0.006306214723736048,0.013369310647249222,-0.013176042586565018,0.015935400500893593
0.75,-0.06711046397686005,0.083250992000103,0.01261686161160469,0.01922607421875,-0.007980117574334145,0.018450221046805382
0.8,-0.08198390156030655,0.07690047472715378,0.050870660692453384,0.019558221101760864,-0.010121497325599194,0.013525252230465412
0.85,0.040685489773750305,0.09311294555664062,0.074742890894413,0.017304493114352226,-0.02410140261054039,0.0013798563741147518
0.9,0.058784693479537964,0.0499420203268528,0.03748243674635887,0.006247061304748058,-0.01745820790529251,0.0012788019375875592
0.95,0.012007647193968296,0.04078197479248047,0.028308948501944542,0.0056140306405723095,-0.02025609090924263,0.0027308163698762655
1.0,0.040115438401699066,-0.04546451196074486,-0.11547161638736725,0.005904889199882746,-0.014107387512922287,-0.002182979602366686
1.05,0.008922126144170761,-0.17771053314208984,-0.21439243853092194,0.017905905842781067,0.013829090632498264,-0.008396784774959087
1.1,-0.01254822313785553,0.056055065244436264,0.17433105409145355,0.13676351308822632,-0.030239345505833626,-0.020340753719210625
1.15,0.22274191677570343,0.43332481384277344,0.761957049369812,0.18021567165851593,-0.13299007713794708,-0.021569352596998215
1.2,0.2280654013156891,0.41348838806152344,0.6935433745384216,0.032662563025951385,-0.1801251769065857,0.021378817036747932
1.25,0.1163971871137619,0.2532234191894531,0.41371825337409973,-0.07200359553098679,-0.18120570480823517,0.02346736565232277
1.3,0.09393729269504547,0.07700444012880325,0.10874729603528976,-0.16933590173721313,-0.12065205723047256,-0.024232931435108185
1.35,0.10423441976308823,-0.3425464630126953,-0.3744615614414215,-0.2129211574792862,-0.10854627192020416,-0.03582152724266052
1.4,0.027075938880443573,-0.5303144454956055,-0.5636228322982788,-0.13353483378887177,-0.11866699159145355,-0.06802385300397873
1.45,0.057255178689956665,-0.5572109222412109,-0.6403519511222839,0.019311945885419846,-0.21200355887413025,-0.0773458406329155
1.5,-0.01787162944674492,-0.3327512741088867,-0.3577052652835846,0.235041543841362,-0.30836084485054016,-0.09246595203876495
1.55,0.19357405602931976,0.2237834930419922,0.4845931828022003,0.4417825937271118,-0.4886845052242279,-0.08559391647577286
1.6,0.1497078239917755,0.5672340393066406,1.2654080390930176,0.4026169776916504,-0.4469716250896454,-0.08228182047605515
1.65,0.08738718926906586,-0.07543277740478516,0.6515541076660156,0.1646760255098343,-0.4820857644081116,-0.016843456774950027
1.7,-0.4556882381439209,-0.2932739555835724,0.4447045624256134,0.11035002022981644,-0.33365094661712646,-0.048064034432172775
1.75,-0.34755679965019226,-0.5774250030517578,-0.05931270495057106,0.09932520240545273,-0.4526419937610626,-0.04500759392976761
1.8,-0.6590679883956909,-0.13677029311656952,0.11638485640287399,0.1914258599281311,-0.4472081959247589,-0.06802491843700409
1.85,-0.8963650465011597,0.36121267080307007,0.038565583527088165,0.16505397856235504,-0.5544210076332092,-0.06263584643602371
1.9,-1.2244898080825806,1.0312212705612183,0.25414493680000305,0.13131679594516754,-0.5952059626579285,-0.1566188484430313
1.95,-1.5421479940414429,1.413145899772644,0.49941983819007874,0.04866842180490494,-0.6852020621299744,-0.25034984946250916
2.0,-1.5324159860610962,1.4687212705612183,0.6320868134498596,-0.11106424778699875,-0.6571282148361206,-0.5175199508666992
2.05,-1.0741111040115356,1.553984522819519,0.6333178877830505,-0.2976286709308624,-0.6334108710289001,-0.8281556367874146
2.1,-0.6568252444267273,1.6128320693969727,0.34883251786231995,-0.4788687527179718,-0.5706682205200195,-0.9840443134307861
2.15,-0.22223205864429474,1.3621482849121094,-0.2608196437358856,-0.6465970873832703,-0.3872016668319702,-1.1388263702392578
2.2,0.14181508123874664,1.12823486328125,-0.55970299243927,-0.6061177253723145,-0.1708250790834427,-1.3798503875732422
2.25,0.5591782331466675,0.9720554947853088,-0.7475682497024536,-0.49894362688064575,0.0047830273397266865,-1.6270294189453125
2.3,1.1973077058792114,0.4364415109157562,-0.7508460283279419,-0.5235286355018616,0.07118970900774002,-1.8122600317001343
2.35,1.355941653251648,-0.5308799147605896,-0.6847044825553894,-0.6098753213882446,0.106430783867836,-1.7672370672225952
2.4,1.1994376182556152,-0.9866265654563904,-0.4087367057800293,-0.6050959825515747,0.09212632477283478,-1.4965218305587769
2.45,0.8311706185340881,-1.1779680252075195,-0.24012218415737152,-0.7366998791694641,0.07995045185089111,-1.137766718864441
2.5,0.6329326033592224,-0.7055739760398865,-0.1513311117887497,-0.7835203409194946,0.13016901910305023,-0.7066125869750977
2.55,0.29712995886802673,0.08894827216863632,-0.28522932529449463,-0.5997899174690247,0.4365943372249603,-0.5077979564666748
2.6,0.0555243194103241,-0.7315683364868164,-0.04327413812279701,-0.5516643524169922,0.6476123332977295,-0.575083315372467
2.65,0.33929428458213806,-1.1427345275878906,0.37362486124038696,-0.4377927780151367,0.388079971075058,-0.5312458276748657
2.7,0.6604160666465759,-0.49774643778800964,0.5537118315696716,-0.7181153297424316,-0.05579144507646561,0.018157493323087692
2.75,1.3808106184005737,0.06814296543598175,0.1960136592388153,-1.3047531843185425,-0.4935866892337799,0.6817096471786499
2.8,1.3648279905319214,0.42658624053001404,0.22566470503807068,-1.3460323810577393,-0.4111802875995636,0.7949045300483704
2.85,1.5506097078323364,-0.3501376211643219,0.42767101526260376,-1.2681258916854858,-0.21586686372756958,0.4547621011734009
2.9,1.726132869720459,-0.8344095945358276,0.10414693504571915,-1.3227620124816895,0.047635652124881744,0.4446708559989929
2.95,1.3186746835708618,-0.3893527090549469,-0.6618746519088745,-1.2461525201797485,0.2655095160007477,0.6591254472732544
3.0,0.46985331177711487,-0.09042354673147202,-0.7554988265037537,-0.9815900921821594,0.23483917117118835,0.5756633281707764
3.05,0.6903241276741028,-1.0171833038330078,-0.4855187237262726,-1.2313278913497925,-0.2161860316991806,0.7761434316635132
3.1,0.9366429448127747,-0.8317155241966248,-0.41681888699531555,-1.1193974018096924,-0.48938074707984924,1.1259039640426636
3.15,1.0835864543914795,-0.15835468471050262,-0.42502909898757935,-0.8716267943382263,-0.5076407194137573,1.2853186130523682
3.2,1.2816213369369507,-0.1469086855649948,-0.40487122535705566,-0.6698842644691467,-0.4097602367401123,1.1553795337677002
3.25,1.6012814044952393,-0.10256470739841461,-0.6336387395858765,-0.5067742466926575,-0.26636984944343567,0.9085221886634827
3.3,1.7070155143737793,-0.18162621557712555,-0.7164731025695801,-0.3590467572212219,-0.05514955520629883,0.7507769465446472
3.35,1.2681037187576294,-0.15707293152809143,-1.0843102931976318,0.0474199578166008,0.2159123420715332,0.6071776151657104
3.4,0.08914980292320251,0.6832160949707031,-1.3765051364898682,0.5474362373352051,0.25557634234428406,0.37828749418258667
3.45,-1.468847393989563,1.6927393674850464,-0.5391682386398315,-0.05143425241112709,-0.2216777801513672,-0.0430782325565815
3.5,0.07493839412927628,0.5227298736572266,-0.5408386588096619,-0.5988070964813232,-0.2674744427204132,-0.3550550043582916
3.55,0.17980530858039856,-0.6810693740844727,-0.5007955431938171,-0.5658727288246155,-0.272355318069458,-0.20611229538917542
3.6,-0.6444803476333618,0.03818126767873764,-0.046328719705343246,-0.5289676189422607,-0.3079061210155487,-0.07049517333507538
3.65,-0.37821492552757263,0.13570210337638855,0.5741041302680969,-0.391507625579834,-0.24231119453907013,-0.1407019942998886
3.7,-0.5138564705848694,0.2532787024974823,0.49751850962638855,-0.10465338826179504,-0.019407646730542183,-0.289131760597229
3.75,-0.44600430130958557,0.3417529761791229,0.7882327437400818,0.020049989223480225,-0.008254844695329666,-0.18529511988162994
3.8,-0.3449222445487976,0.385651558637619,0.7582007050514221,0.1612187772989273,-0.04705410823225975,-0.12220107764005661
3.85,-0.4467408061027527,0.23395249247550964,0.5768651366233826,0.18575388193130493,-0.08710908889770508,-0.0822480246424675
3.9,-0.19492384791374207,0.06856916844844818,0.3388921022415161,0.042697980999946594,-0.19292622804641724,0.11498438566923141
3.95,0.003208562731742859,0.3730010986328125,-0.3728522062301636,0.05319247394800186,-0.20911385118961334,0.25337401032447815
4.0,0.01547393947839737,0.32277488708496094,-0.4963926374912262,0.24919244647026062,-0.07596016675233841,0.24664360284805298
4.05,0.027461305260658264,0.15706254541873932,-0.6089926958084106,0.3517983853816986,0.03875226899981499,0.23587235808372498
4.1,0.03916769474744797,0.24392415583133698,-0.5331715941429138,0.24164822697639465,0.02320045605301857,0.2593769431114197
4.15,0.14758950471878052,-0.004733075853437185,-0.08293718099594116,0.10022126138210297,-0.03151990473270416,0.32608625292778015
4.2,0.2023875117301941,0.14332105219364166,-0.3126267194747925,0.1301707923412323,-0.035268720239400864,0.3311156928539276
4.25,0.07749629765748978,-0.31975746154785156,-0.5084162950515747,0.17948687076568604,-0.01300904992967844,0.2743791937828064
4.3,0.2569831311702728,0.26790526509284973,-0.5296174883842468,0.26251062750816345,0.017520872876048088,0.22233493626117706
4.35,0.11532942950725555,0.1861419826745987,-0.30975449085235596,0.1514708399772644,0.009565009735524654,0.18642202019691467
4.4,-0.13935968279838562,0.22423648834228516,-0.10455072671175003,0.07336443662643433,-0.0045026745647192,0.17640265822410583
4.45,-0.18753105401992798,0.20793722569942474,0.033814698457717896,0.05849241465330124,-0.01662951521575451,0.18291859328746796
4.5,0.2695246934890747,0.5846929550170898,-0.24443824589252472,0.18121644854545593,-0.001955723389983177,0.08688408136367798
4.55,0.5398823022842407,0.012063057161867619,0.04056888073682785,0.14468325674533844,-0.04914886876940727,-0.165122389793396
4.6,0.6996735334396362,0.4205761253833771,-0.12062648683786392,0.10176214575767517,-0.01430486049503088,-0.7443217039108276
4.65,1.1019282341003418,1.5096179246902466,-0.5847150087356567,0.05512720346450806,0.06182112544775009,-1.5037798881530762
4.7,1.9595942497253418,1.4082404375076294,-1.4133599996566772,0.03748464584350586,0.4407779276371002,-2.988096237182617
4.75,-0.3270753026008606,0.7694406509399414,-2.7659029960632324,-1.7977070808410645,1.011592149734497,-3.3606433868408203
4.8,-1.6633245944976807,-3.4651455879211426,1.6167652606964111,-3.718442440032959,0.8409308791160583,-1.1887390613555908
4.85,-1.979995608329773,-1.5089913606643677,2.045656442642212,-1.3593000173568726,0.18167580664157867,-0.08277633041143417
4.9,-1.075648307800293,5.609099388122559,-0.9894599914550781,0.42088785767555237,-0.23304590582847595,0.32243046164512634
4.95,0.18372324109077454,-0.26238346099853516,0.030409149825572968,-0.5460705757141113,-0.30475977063179016,-0.014346461743116379
5.0,0.45970988273620605,0.1842089146375656,-1.3444983959197998,-0.1673286408185959,-0.7083362340927124,0.12174446880817413
5.05,1.657277226448059,1.7166777849197388,-2.02478289604187,-0.3117290139198303,-0.570571780204773,0.2487407773733139
5.1,1.2715033292770386,0.054137323051691055,-1.5403013229370117,-0.5455735921859741,-0.40342792868614197,-0.1414785236120224
5.15,0.7870481610298157,-1.7675703763961792,-1.2275054454803467,-0.30606380105018616,-0.3248840272426605,-0.2827520966529846
5.2,-0.13295388221740723,-2.156325340270996,-0.3156137764453888,0.09062362462282181,-0.3231878876686096,-0.017038125544786453
5.25,-0.5442324876785278,-0.7376366257667542,0.780195415019989,0.3589083254337311,-0.3941405117511749,0.26286789774894714
5.3,-0.6153693199157715,0.29030507802963257,1.3127976655960083,0.4052276909351349,-0.2466980516910553,0.3028365969657898
5.35,-0.34997373819351196,1.0459051132202148,1.053939700126648,0.2933858633041382,0.027029410004615784,0.19240038096904755
5.4,0.4993852972984314,1.9562864303588867,1.016187071800232,0.1123630553483963,0.18755680322647095,-0.025699308142066002
5.45,0.17163881659507751,0.1280965805053711,0.40231117606163025,0.1633945256471634,0.32611584663391113,-0.24722601473331451
5.5,0.274198442697525,0.25542739033699036,-0.44798895716667175,0.6518856287002563,0.34346804022789,-0.20297908782958984
5.55,-0.11929991841316223,0.7418355941772461,-0.7800535559654236,0.5637630224227905,0.175836443901062,-0.08492673188447952
5.6,-0.31639063358306885,0.18086908757686615,-0.39234474301338196,0.07554860413074493,-0.06409673392772675,0.23035693168640137
5.65,0.058648571372032166,-0.0005388313438743353,0.6513552069664001,-0.047394752502441406,-0.016599498689174652,0.3685372471809387
5.7,-0.6891592741012573,0.2592248320579529,0.6528053283691406,0.21363627910614014,0.05084420368075371,0.17524173855781555
5.75,-0.7975187301635742,0.5099696516990662,0.5318079590797424,0.5428750514984131,-0.13960953056812286,0.2496185153722763
5.8,-0.454192578792572,0.5416078567504883,-0.44331005215644836,0.9850565195083618,-0.49944788217544556,0.5017052292823792
5.85,1.8926582336425781,1.021750569343567,-0.5248556733131409,1.397249460220337,-0.9254162907600403,0.6869533658027649
5.9,1.5274972915649414,1.020788311958313,0.7048463225364685,1.6530125141143799,-0.5795249342918396,0.4232555329799652
5.95,-1.150400996208191,-0.15728288888931274,-0.1342608630657196,1.1392585039138794,-0.4658891558647156,-0.08461755514144897
6.0,0.24668610095977783,0.47517111897468567,-0.7982163429260254,0.2877607047557831,-1.1808229684829712,-0.08874358981847763
6.05,-0.11542841792106628,0.0826864168047905,-0.14411267638206482,-0.1882728934288025,-0.9525777101516724,-0.23533831536769867
6.1,-0.05623529851436615,0.4143381118774414,0.19459116458892822,-0.41573336720466614,-0.7189550399780273,-0.2941690683364868
6.15,0.019146732985973358,0.03647994250059128,0.6482529044151306,-0.539100170135498,-0.10880779474973679,-0.5625669956207275
6.2,-0.2131580412387848,-0.5608196258544922,0.6021704077720642,-0.020033031702041626,0.19382397830486298,-0.8183547258377075
6.25,-0.6812158823013306,0.039771050214767456,-0.6719269156455994,0.5399433970451355,0.28656068444252014,-0.7334556579589844
6.3,0.06988292932510376,-0.06218813732266426,-0.45819440484046936,0.2019544243812561,0.1922968327999115,0.07771648466587067
6.35,0.13908708095550537,0.3951692581176758,-0.39450445771217346,0.10537217557430267,0.511715292930603,0.22161155939102173
6.4,-0.04843447357416153,-1.0938100814819336,0.426131010055542,-0.27658966183662415,0.9308046698570251,0.448807954788208
6.45,-0.5970055460929871,-0.7067804932594299,-0.21587221324443817,-0.030677318572998047,1.1905295848846436,0.8853791952133179
6.5,-0.29104167222976685,1.0299615859985352,-1.1380248069763184,0.18094401061534882,0.934445858001709,0.9139820337295532
6.55,0.3562309443950653,0.3139791786670685,-0.18161287903785706,-0.09596043825149536,0.7083731889724731,0.5170215368270874
6.6,0.8122553825378418,0.08576684445142746,-0.2466117888689041,0.04740498587489128,0.7948577404022217,0.39737802743911743
6.65,0.834980309009552,-0.3352136015892029,-0.2736763656139374,-0.013778764754533768,0.655933141708374,0.2660571038722992
6.7,0.8232680559158325,0.45593172311782837,-0.7802259922027588,0.23026308417320251,0.4872742295265198,0.32997721433639526
6.75,1.5067569017410278,1.2002602815628052,-0.38741493225097656,0.1224493533372879,0.2051023244857788,0.11212583631277084
6.8,1.0486607551574707,1.3473273515701294,-0.6842721700668335,-0.22504562139511108,0.48492008447647095,-0.423004150390625
6.85,0.48904716968536377,1.8470182418823242,-1.578024983406067,-0.8193644285202026,1.034986138343811,-1.0478624105453491
6.9,-0.7411343455314636,0.8153715133666992,-1.5310078859329224,-1.7522363662719727,1.0796715021133423,-1.409472107887268
6.95,-1.2180808782577515,-1.430592656135559,-0.6813593506813049,-1.97705078125,0.2590388357639313,-1.3814830780029297
7.0,-0.8275364637374878,-2.1848840713500977,0.49052709341049194,-1.3641974925994873,-0.5880371928215027,-0.5492839813232422
7.05,0.37807607650756836,-1.4416379928588867,0.835182785987854,-0.44400233030319214,-0.9057060480117798,0.5443319082260132
7.1,0.9963718056678772,0.02018360048532486,1.5617456436157227,-0.20750504732131958,-0.27726688981056213,1.3985497951507568
7.15,-0.7485058307647705,3.9134416580200195,-0.34521809220314026,0.09064142405986786,-0.005073637701570988,0.44654580950737
7.2,0.3079488277435303,-0.11458777636289597,0.7792852520942688,-0.6254434585571289,0.2331654131412506,0.27573278546333313
7.25,0.3077421188354492,0.056393641978502274,-0.08323658257722855,0.10825268924236298,0.1576784998178482,0.22521637380123138
7.3,0.4968261122703552,0.1779337227344513,-0.2891141474246979,0.42012113332748413,-0.03412654623389244,0.4052266478538513
7.35,0.18940243124961853,0.47956180572509766,-0.2489681839942932,0.3603074550628662,-0.08425286412239075,0.43342339992523193
7.4,-0.24521106481552124,0.6638164520263672,-0.4233994781970978,0.1225401759147644,-0.04588483273983002,0.4223552644252777
7.45,-1.2186399698257446,0.3540467619895935,-0.8101533651351929,0.14260898530483246,-0.15033261477947235,0.19153288006782532
7.5,-0.8715242147445679,-0.25702574849128723,-0.49260222911834717,-0.05298493802547455,-0.3045702576637268,0.3594847023487091
7.55,0.3115541636943817,-0.12004659324884415,-0.08467146009206772,-0.18581247329711914,-0.3858480453491211,0.4311302602291107
7.6,1.1999316215515137,-0.2325381636619568,0.21320559084415436,-0.22968211770057678,-0.2923246920108795,0.3030151426792145
7.65,0.6353908777236938,0.07454017549753189,-0.1572694480419159,0.022968124598264694,-0.046982377767562866,0.1845678985118866
7.7,0.4519869387149811,0.5452871918678284,-0.8186097145080566,0.06901443749666214,-0.21835580468177795,0.14833073318004608
7.75,1.0745999813079834,-0.14036935567855835,0.18682487308979034,-0.13159911334514618,-0.3453593850135803,0.0954982116818428
7.8,1.0219943523406982,0.07145410031080246,0.4131733477115631,-0.02210446447134018,-0.3401421904563904,0.13709953427314758
7.85,0.041517920792102814,0.484161376953125,-0.15245023369789124,0.06967495381832123,-0.09675021469593048,0.04914390668272972
7.9,0.02255171537399292,0.27309417724609375,0.3180466890335083,-0.0044692084193229675,0.1288006454706192,-0.10463981330394745
7.95,-0.5939990282058716,-0.3080931007862091,0.1504525989294052,0.1605076789855957,0.30676043033599854,-0.35436299443244934
8.0,-0.21283483505249023,0.15059185028076172,-0.44677287340164185,0.3679782748222351,0.04916669800877571,-0.21529388427734375
8.05,0.8827583193778992,0.15767960250377655,0.37270283699035645,0.4189916253089905,-0.18964208662509918,-0.09156832844018936
8.1,0.33045631647109985,0.5325098037719727,-0.28260520100593567,0.6454444527626038,-0.22401399910449982,-0.19575345516204834
8.15,0.34267839789390564,0.07359602302312851,-0.042161718010902405,0.40845775604248047,-0.4022543132305145,-0.22352683544158936
8.2,0.3424023687839508,-0.23739145696163177,0.011215963400900364,0.2656722366809845,-0.5318739414215088,-0.26910778880119324
8.25,0.2706136405467987,0.012112635187804699,-0.17588770389556885,0.28838062286376953,-0.48670557141304016,-0.26235610246658325
8.3,0.586471438407898,0.003207241417840123,-0.039643995463848114,0.293815940618515,-0.4258553683757782,-0.2253182828426361
8.35,0.4308605194091797,0.021612191572785378,0.12004213780164719,0.30537086725234985,-0.35442879796028137,-0.25518980622291565
8.4,0.4852050840854645,-0.1056966483592987,0.08244030177593231,0.24734115600585938,-0.2249561995267868,-0.2314271330833435
8.45,0.1294838786125183,-0.03267573565244675,-0.03162984177470207,0.25763392448425293,-0.11899249255657196,-0.23208606243133545
8.5,-1.1002399921417236,0.31691449880599976,-1.116577386856079,0.2599337100982666,-0.06950777769088745,-0.22475239634513855
8.55,0.9890584349632263,-0.1408814787864685,0.3578146696090698,0.10963263362646103,-0.11533140391111374,-0.13163220882415771
8.6,0.2417747527360916,0.49172118306159973,-0.15573111176490784,0.15812109410762787,-0.041613634675741196,-0.10881523042917252
8.65,0.4325305223464966,0.23470786213874817,0.1392844021320343,0.038244884461164474,-0.025784539058804512,-0.05478225648403168
8.7,0.8675039410591125,-0.017564725130796432,0.1258866786956787,0.05579669401049614,0.009794863872230053,-0.06247694045305252
8.75,0.2510707974433899,0.12772847712039948,-0.21871653199195862,0.004520701244473457,0.06484343111515045,-0.01819128915667534
8.8,-0.4510047733783722,0.9815731048583984,-1.774005651473999,-0.0158885158598423,0.03075922094285488,0.025189831852912903
8.85,0.05219089984893799,0.22436046600341797,-0.10017163306474686,-0.023478709161281586,-0.005351867526769638,0.04201079532504082
8.9,0.3000626564025879,0.028277410194277763,0.2710013687610626,-0.06199707090854645,-0.02242419496178627,0.009798851795494556
8.95,0.5887121558189392,0.16677001118659973,0.16502588987350464,-0.07812033593654633,-0.044086672365665436,0.021420612931251526
9.0,0.8010021448135376,0.25779250264167786,0.46416178345680237,-0.07886690646409988,-0.02924928069114685,-0.020100943744182587
9.05,0.6478344202041626,0.31732943654060364,0.29685917496681213,-0.008149759843945503,0.004923373460769653,-0.049967244267463684
9.1,0.4867885708808899,0.10721208900213242,0.2320883423089981,-0.03969661146402359,0.0756329596042633,-0.06638143211603165
9.15,0.3093436360359192,0.1798124462366104,-0.008740078657865524,-0.03921718895435333,0.12645259499549866,-0.05241834744811058
9.2,0.10090731829404831,0.006011013872921467,0.09103982895612717,0.01383986882865429,0.12373226881027222,-0.10998212546110153
9.25,0.056337062269449234,0.21634578704833984,-0.26953351497650146,0.04288344830274582,0.11755061149597168,-0.10215506702661514
9.3,0.03226960450410843,0.15176868438720703,0.1967071294784546,0.00560101680457592,0.040772613137960434,-0.07293858379125595
9.35,0.2204844057559967,0.26595592498779297,0.06555216759443283,-0.0063217682763934135,-0.00865780096501112,-0.014713720418512821
9.4,-0.5068004131317139,0.2743997275829315,-0.7392935156822205,-0.017873838543891907,0.026800278574228287,0.0372704342007637
9.45,-4.164528846740723,0.4821822941303253,-2.494161605834961,0.0005486006266437471,0.018024148419499397,0.0027756665367633104
9.5,0.8008968830108643,-0.05494018644094467,0.6916331648826599,-0.10946780443191528,-0.0899495854973793,0.06267469376325607
9.55,0.3689824938774109,0.4452114403247833,-0.009627778083086014,-0.03948303684592247,-0.008686951361596584,0.043015412986278534
9.6,-0.02660532295703888,0.17278671264648438,-0.16288159787654877,-0.03736747428774834,0.010540544986724854,0.006017609033733606
9.65,0.025124315172433853,-0.14706707000732422,0.0412159264087677,-0.03294715657830238,0.01691056229174137,-0.0074426583014428616
9.7,0.06188511848449707,-3.1130824089050293,1.3833266496658325,0.0038780919276177883,-0.04533490538597107,-0.030149200931191444
9.75,-0.32438725233078003,-12.287394523620605,2.7102372646331787,0.048641227185726166,-0.028072688728570938,0.14639919996261597
9.8,-0.37948766350746155,-0.12871460616588593,1.3893307447433472,0.40652328729629517,-0.0830228254199028,0.3180748224258423
9.85,0.8480280637741089,0.9433146119117737,-0.9247742891311646,0.9077911376953125,-0.20715053379535675,0.5489993691444397
9.9,1.5165667533874512,-0.3042420446872711,-0.2080133855342865,0.2553033232688904,0.02894466556608677,0.3459986746311188
9.95,1.1226692199707031,0.6877966523170471,-0.7675058245658875,-0.07001228630542755,0.5301739573478699,0.140961155295372
10.0,0.17545053362846375,-1.1467628479003906,0.23069289326667786,-0.5497646331787109,0.5172597169876099,-0.027827708050608635
10.05,-1.7096507549285889,0.46560564637184143,-0.6806820631027222,-0.15065573155879974,0.6800140142440796,-0.22964096069335938
10.1,-0.4717373847961426,0.41954705119132996,0.33297890424728394,-0.20348696410655975,0.2652798891067505,-0.08432455360889435
10.15,0.6076446771621704,0.12316897511482239,0.22235199809074402,-0.23920537531375885,0.06638248264789581,0.27426326274871826
10.2,0.7399414777755737,0.5352373719215393,-0.20828324556350708,-0.21520349383354187,0.008327241986989975,0.4421253502368927
10.25,0.32489675283432007,0.5340375900268555,-0.3402827978134155,-0.1567308008670807,-0.008584161289036274,0.23261037468910217
10.3,0.33807313442230225,0.1518278270959854,0.7640072107315063,-0.2147572636604309,-0.26235339045524597,-0.19540245831012726
10.35,0.5935717821121216,-0.2452058494091034,0.43610692024230957,-0.5784436464309692,-0.16982010006904602,0.12175536155700684
10.4,0.18513484299182892,0.16028882563114166,-0.007105135824531317,-0.7038074731826782,-0.1122894361615181,0.10484238713979721
10.45,0.16503643989562988,0.08906174451112747,0.02845633216202259,-0.28698664903640747,-0.28468388319015503,-0.0818929523229599
10.5,0.6618527173995972,0.395720511674881,-0.3493727445602417,0.23261962831020355,-0.24772876501083374,-0.05623280629515648
10.55,0.884360134601593,0.38160043954849243,-0.06025344878435135,0.2674490511417389,-0.20540019869804382,-0.11126325279474258
10.6,-0.1694203019142151,0.3376016616821289,-0.49719810485839844,0.21367593109607697,-0.02426428161561489,-0.331712007522583
10.65,0.27409371733665466,-0.32274529337882996,0.07507406920194626,0.12238796055316925,-0.02440394088625908,-0.23477044701576233
10.7,-0.26991960406303406,-0.05642319843173027,-0.284467488527298,0.4017309844493866,0.19989126920700073,-0.05710670351982117
10.75,0.24260400235652924,0.2392416149377823,-0.08196111023426056,0.21001961827278137,0.04958442598581314,0.4757508635520935
10.8,0.8185725212097168,0.8466091752052307,-0.013040507212281227,-0.13217571377754211,-0.007754701655358076,0.7617599368095398
10.85,0.815039336681366,1.899979591369629,1.3477673530578613,-0.0522824227809906,0.22685506939888,0.2057875096797943
10.9,-0.10209974646568298,2.2024011611938477,1.3060588836669922,0.13647277653217316,0.6223271489143372,-0.7658202052116394
10.95,-1.3434709310531616,1.017898440361023,0.016029806807637215,-0.054407477378845215,0.6835935115814209,-1.3930906057357788
11.0,-0.17286863923072815,-1.1643972396850586,0.4992547333240509,-0.7461485266685486,0.3209611475467682,-1.3676249980926514
11.05,0.4915506839752197,-2.327481746673584,-0.26117250323295593,-0.6527011394500732,0.3568592965602875,-1.3586452007293701
11.1,0.5477969646453857,-4.483357906341553,-0.8320865631103516,-0.4378621578216553,0.2842816412448883,-0.6907225847244263
11.15,0.27390891313552856,-4.308354377746582,-1.2573987245559692,0.07892485707998276,-0.21550017595291138,0.6400195360183716
11.2,2.0605506896972656,1.9595195055007935,-2.7666709423065186,1.2117223739624023,-1.1895856857299805,1.8380000591278076
11.25,1.4067003726959229,3.314875602722168,-0.15620578825473785,1.1917665004730225,-1.257633924484253,1.7123414278030396
11.3,0.7251167297363281,3.6505041122436523,0.3988308012485504,0.8284072875976562,-0.6586222052574158,1.187368631362915
11.35,-0.6028003692626953,-0.10597138106822968,0.7303780913352966,0.09836654365062714,-0.02168533205986023,0.11996065825223923
11.4,-0.38536494970321655,0.2856607139110565,0.29835882782936096,0.14706818759441376,-0.011085023172199726,0.03234118968248367
11.45,0.2971450984477997,0.11336041241884232,0.9712544083595276,-0.2309301197528839,0.023317281156778336,-0.15958374738693237
11.5,0.6122488379478455,-0.6005010008811951,0.10233405977487564,-0.2610875070095062,0.406406432390213,-0.46518319845199585
11.55,-0.0949530079960823,-0.11866569519042969,-0.42391437292099,-0.39339762926101685,0.6454756855964661,-0.552767276763916
11.6,-0.9953677654266357,1.0087213516235352,-0.7779104113578796,-0.21696323156356812,0.578601062297821,-0.4075910747051239
11.65,0.01867710053920746,0.6562919616699219,0.3878571391105652,-0.22866100072860718,0.10850365459918976,0.009677144698798656
11.7,-0.15741866827011108,0.10344217717647552,0.4906049966812134,0.041697870939970016,0.1426483690738678,0.26116394996643066
11.75,-0.1521736979484558,1.015625,-1.0265806913375854,0.14383402466773987,0.10737940669059753,0.7312244772911072
11.8,-0.19046856462955475,-0.6152925491333008,-0.08820737898349762,-0.645470917224884,-0.4009614586830139,0.6154841184616089
11.85,0.19685427844524384,-0.4276456832885742,0.5333997011184692,-0.8293984532356262,-0.7201467156410217,0.7098819613456726
11.9,1.4208329916000366,0.4373398423194885,1.3773678541183472,-0.5210825204849243,-0.505523145198822,1.0067864656448364
11.95,1.3827167749404907,0.6521120667457581,0.8971386551856995,0.7725979089736938,0.27455267310142517,0.6796907186508179
12.0,0.17177513241767883,0.8573904037475586,-0.5678679347038269,1.3749033212661743,1.0969159603118896,-0.1077154353260994
12.05,-2.5630393028259277,1.2547158002853394,-3.1019582748413086,0.5131133794784546,0.5152738094329834,-0.9687128663063049
12.1,-1.4513887166976929,-1.643159031867981,-1.190672516822815,-1.1654562950134277,-0.6445935368537903,-0.9493024945259094
12.15,-0.847587525844574,-1.104207992553711,-0.4136542081832886,-1.0213419198989868,-1.1035128831863403,-0.6315330862998962
12.2,1.417389154434204,-1.335458755493164,1.896768569946289,-2.1622798442840576,-1.405044674873352,0.15238505601882935
12.25,0.8925122618675232,-1.0086297988891602,2.630821704864502,-1.9558168649673462,-0.8290667533874512,0.12897460162639618
12.3,1.6548436880111694,1.5339213609695435,0.6390228271484375,-0.7113397121429443,-0.5496307015419006,0.40846091508865356
12.35,1.4708164930343628,1.0583277940750122,0.46550750732421875,-0.31280890107154846,-0.39948374032974243,-0.004768820013850927
12.4,1.139879822731018,0.7113714814186096,0.4632270634174347,-0.17166364192962646,-0.0018275530310347676,-0.730709433555603
12.45,0.6104360818862915,0.5865975022315979,-0.2718963921070099,-0.6039023399353027,0.2865220308303833,-1.0759073495864868
12.5,0.11575227230787277,-1.2516002655029297,0.6222082376480103,-1.114999771118164,0.3265972435474396,-1.0753300189971924
12.55,0.9098176956176758,-1.4378042221069336,0.8974106311798096,-0.8411065936088562,0.3190876543521881,-0.4264707863330841
12.6,1.1306852102279663,-0.10416978597640991,0.4984859228134155,-0.5042538046836853,0.281791627407074,0.07849622517824173
12.65,1.2250882387161255,0.49764642119407654,-0.5305171012878418,-0.26152074337005615,0.4248506426811218,0.31578198075294495
12.7,0.27737027406692505,0.23522475361824036,-0.5512621998786926,-0.2400667518377304,0.41727617383003235,0.34708479046821594
12.75,-0.5394786596298218,1.3450736999511719,-0.7107109427452087,-0.009165972471237183,0.38347622752189636,0.3828490078449249
12.8,-0.8236560821533203,0.8784331679344177,0.2740125060081482,-0.03484882414340973,0.5808875560760498,0.31578317284584045
12.85,-0.42287224531173706,-0.30216220021247864,0.7750920653343201,0.00963805615901947,1.1351892948150635,0.451568067073822
12.9,0.6721400618553162,0.984657347202301,-0.40225842595100403,0.656822919845581,1.6306846141815186,0.5893245935440063
12.95,-0.762297511100769,0.9997310638427734,-1.3721174001693726,1.2801873683929443,1.2284549474716187,-0.22260625660419464
13.0,-1.331272840499878,-0.4315224289894104,-1.0587576627731323,1.5850591659545898,0.3980638086795807,-0.5411021709442139
13.05,0.1827276051044464,-0.2689971625804901,-0.39171549677848816,1.813397765159607,-0.31576967239379883,-0.6004152297973633
13.1,-0.41421738266944885,-1.4077377319335938,1.1445529460906982,1.3933897018432617,-0.40448060631752014,-0.684212327003479
13.15,0.7520979046821594,-0.10442158579826355,0.8828235268592834,1.087594747543335,-0.3724735677242279,0.5504194498062134
13.2,0.8370158672332764,0.6833372712135315,0.682956337928772,0.25156542658805847,-0.31941694021224976,0.7379697561264038
13.25,0.5269649624824524,0.9324274063110352,0.5915728807449341,-0.1538168042898178,-0.20628701150417328,0.17278176546096802
13.3,0.2652721107006073,-0.3330059051513672,0.20693834125995636,-0.18314604461193085,-0.0232948437333107,-0.26652708649635315
13.35,-0.397205650806427,0.524571418762207,-0.13590216636657715,0.10665980726480484,0.0370604582130909,-0.3413759768009186
13.4,-0.8452507257461548,-0.026749657467007637,-0.16221606731414795,0.2169676125049591,-0.235735684633255,-0.28309184312820435
13.45,0.1816266030073166,-0.1004171296954155,0.11011280119419098,0.28001031279563904,-0.7561057806015015,-0.17855699360370636
13.5,0.3315052390098572,0.34887412190437317,0.26103872060775757,0.24006466567516327,-0.5383210182189941,-0.2166699469089508
13.55,0.5338729619979858,0.16427329182624817,0.014252851717174053,0.15527278184890747,-0.44701406359672546,-0.2443958818912506
13.6,0.3575805723667145,0.883723258972168,-0.25196531414985657,0.14484743773937225,-0.3540875017642975,-0.28437313437461853
13.65,0.3468877673149109,0.23145581781864166,0.2112707942724228,0.0840723067522049,-0.3616568446159363,-0.2984781563282013
13.7,0.2965060770511627,-0.3016185760498047,0.32047635316848755,0.15725842118263245,-0.34193822741508484,-0.2682443857192993
13.75,0.5326170325279236,-0.4532947242259979,0.29461899399757385,0.24789653718471527,-0.25582510232925415,-0.2462652325630188
13.8,0.6451132893562317,-0.09018800407648087,0.9503418803215027,0.11638671159744263,-0.14664903283119202,-0.1808401346206665
13.85,0.4151521623134613,0.2671089470386505,0.07594235241413116,0.08180393278598785,-0.1339970976114273,-0.09838752448558807
13.9,-0.04722052067518234,0.23115062713623047,0.008645201101899147,0.030433233827352524,-0.10446097701787949,-0.18952824175357819
13.95,0.08593307435512543,0.22608089447021484,0.13273340463638306,0.035195931792259216,-0.02417302317917347,-0.2394418567419052
14.0,0.15266862511634827,0.07692909240722656,0.4417946934700012,-0.027495697140693665,-0.010033940896391869,-0.2592967450618744
14.05,-0.15507850050926208,0.37990570068359375,-0.11293595284223557,-0.013211920857429504,0.00749542098492384,-0.27134522795677185
14.1,0.16096168756484985,0.2920808792114258,-0.021998582407832146,-0.04118391498923302,0.010865278542041779,-0.16922502219676971
14.15,0.042897507548332214,-0.05627727881073952,0.49044138193130493,-0.05238519608974457,-0.006748830899596214,-0.10177377611398697
14.2,0.2259300947189331,0.19331742823123932,-0.14566132426261902,0.005352312698960304,-0.06940340250730515,-0.08147586137056351
14.25,0.3361825942993164,0.07697583734989166,0.15916040539741516,0.06062550097703934,-0.0970536470413208,-0.0911341980099678
14.3,1.1716426610946655,-0.5663804411888123,0.8156477212905884,0.15829099714756012,-0.1873016506433487,-0.15774419903755188
14.35,-0.1139955222606659,0.21642017364501953,-0.7846248745918274,0.19060634076595306,0.08766834437847137,-0.26354649662971497
14.4,-0.09694452583789825,0.24803543090820312,0.10383255779743195,0.11769253015518188,0.12472554296255112,-0.19395427405834198
14.45,-0.32742589712142944,0.047389011830091476,0.0586998350918293,0.11358286440372467,0.0751330628991127,-0.15890008211135864
14.5,-0.08687885105609894,-0.4532223045825958,0.7512116432189941,0.07677740603685379,0.04809713363647461,-0.13756363093852997
14.55,0.018486812710762024,-1.1343202590942383,0.8586955666542053,0.0905083417892456,0.12416654825210571,-0.1475025862455368
14.6,0.30614298582077026,-0.2108430713415146,0.08006950467824936,0.0637393444776535,0.10511214286088943,-0.14380024373531342
14.65,-0.5481303334236145,0.10875221341848373,0.4795101284980774,0.07673656940460205,0.020611058920621872,-0.13059286773204803
14.7,-2.092900276184082,-1.3841735124588013,3.169247627258301,0.09275250881910324,-0.17034649848937988,-0.09314296394586563
14.75,1.8984482288360596,-2.266486167907715,3.566500425338745,0.017669688910245895,-0.05178333446383476,-0.050499413162469864
14.8,-0.18592965602874756,0.33019351959228516,-0.4276260733604431,0.14119918644428253,0.13835270702838898,-0.1303139179944992
14.85,0.08551353961229324,0.25337696075439453,-0.3295021057128906,0.03201201185584068,0.031002521514892578,-0.020350618287920952
14.9,0.29476121068000793,0.10915662348270416,-0.06819387525320053,0.018180379644036293,-0.06397151947021484,0.006067926995456219
14.95,0.4951954483985901,0.12283328175544739,-0.1360601931810379,0.005303070414811373,-0.031025899574160576,0.015988057479262352
15.0,0.37092798948287964,2.0939855575561523,-2.064340114593506,0.03877797722816467,0.05334500968456268,-0.04322739318013191
15.05,1.2042629718780518,9.185088157653809,-9.521114349365234,0.1617819219827652,-0.014910942874848843,-0.06519991904497147
15.1,3.689995765686035,-1.5657508373260498,1.1660734415054321,-0.048860132694244385,-0.05903910845518112,-0.02571355178952217
15.15,-0.958986759185791,1.5255155563354492,-0.9477051496505737,0.2736474871635437,0.07494740188121796,-0.14579921960830688
15.2,0.5412845015525818,0.08890822529792786,0.3922613263130188,0.00386974960565567,-0.16979603469371796,0.21266449987888336
15.25,0.7972626686096191,-0.42827126383781433,0.9094640612602234,0.11559271067380905,-0.01711001992225647,0.4726426601409912
15.3,0.31721439957618713,0.07057859748601913,-0.445644736289978,0.07318428158760071,0.18779101967811584,0.696479082107544
15.35,0.7356188297271729,-0.4491729438304901,0.7530621290206909,-0.3918907046318054,0.14409050345420837,0.8176345825195312
15.4,0.23421475291252136,0.5927972793579102,0.8015812039375305,-0.04818238317966461,0.573989748954773,0.6645517945289612
15.45,0.2001856416463852,1.045741081237793,-0.1584678590297699,0.288747102022171,0.6797207593917847,0.44619590044021606
15.5,-0.785099446773529,0.790097177028656,-0.14438308775424957,0.061930008232593536,0.6268489956855774,0.43091222643852234
15.55,-0.1216527670621872,0.5767583847045898,-0.6276258230209351,0.08264871686697006,0.38223618268966675,0.3829842209815979
15.6,-0.3519233167171478,0.5035772323608398,-0.19866567850112915,0.04827619343996048,0.5012843012809753,0.3571174144744873
15.65,-1.0358117818832397,0.8067368865013123,-0.5269598960876465,0.15031485259532928,0.502962052822113,0.4248659014701843
15.7,-1.46236252784729,1.7054766416549683,-0.3747234344482422,0.29212579131126404,0.3387259244918823,0.7757712602615356
15.75,-1.2509288787841797,4.7900190353393555,-2.0870015621185303,0.8184661865234375,0.21201977133750916,1.4715324640274048
15.8,-2.611778736114502,6.880772590637207,-4.20918083190918,-0.08784422278404236,-0.005080187693238258,1.4164695739746094
15.85,-4.1822004318237305,-2.943760633468628,-5.53430700302124,-2.4365317821502686,-1.2864675521850586,-1.1506224870681763
15.9,-0.7002522945404053,-6.610017776489258,-1.2316585779190063,-2.3035333156585693,-2.7565841674804688,-1.0069960355758667
15.95,1.7061522006988525,-6.782868385314941,4.701272964477539,-1.3646535873413086,-2.608015775680542,0.4895819127559662
16.0,3.936239242553711,-2.281562566757202,5.513923168182373,-0.17728248238563538,-1.5307364463806152,1.388617992401123
16.05,5.022200107574463,5.5534281730651855,2.357027530670166,0.45293742418289185,-0.7382196187973022,0.9326568841934204
16.1,1.9893202781677246,4.498159408569336,-1.2824361324310303,0.5543071031570435,-0.8443954586982727,-0.7381524443626404
16.15,0.29616957902908325,-0.9666681289672852,1.3634685277938843,-0.34443944692611694,-1.1456273794174194,-1.358381748199463
16.2,0.11585065722465515,-0.7224798202514648,2.4082279205322266,-0.4822133183479309,-0.8392143845558167,-0.9566647410392761
16.25,-0.15342378616333008,1.059128761291504,0.49638667702674866,-0.27684733271598816,-0.7826988697052002,-1.2342305183410645
16.3,-0.7213804721832275,1.7356233596801758,-3.3199076652526855,-0.06297947466373444,-0.5710220336914062,-1.1418251991271973
16.35,-0.6930122375488281,-0.8415041565895081,2.212456226348877,-0.15710431337356567,-0.9284465312957764,-1.2307865619659424
16.4,-0.7282199859619141,0.3442945182323456,-0.4065529406070709,-0.155708909034729,-0.8594586849212646,-1.3124196529388428
16.45,-0.14917409420013428,0.5513877868652344,0.20296591520309448,-0.2212255895137787,-0.8634873032569885,-1.0252045392990112
16.5,-0.10654565691947937,-0.3748064339160919,1.0464327335357666,-0.08131296187639236,-0.5700053572654724,-0.5905756950378418
16.55,2.0019164085388184,-1.9644922018051147,3.1515448093414307,0.21917560696601868,0.655626654624939,0.37025192379951477
16.6,-3.0086779594421387,-0.2034531533718109,-5.833494663238525,0.09190942347049713,0.2788630723953247,0.26351088285446167
16.65,-1.1632330417633057,1.630391001701355,0.7532086372375488,0.17166511714458466,-0.5172377228736877,0.38681837916374207
16.7,-0.41054767370224,-0.6466341614723206,2.543421506881714,-0.029388204216957092,-0.12611520290374756,0.24575798213481903
16.75,0.5909345149993896,-0.09169288724660873,0.026426637545228004,0.27895644307136536,0.46723872423171997,0.30212822556495667
16.8,-0.5886368155479431,0.3202629089355469,-1.5727927684783936,0.5896252989768982,0.42363688349723816,0.2523634135723114
16.85,-1.2935160398483276,0.5299023985862732,-0.36459094285964966,0.09910080581903458,0.4727168679237366,0.5106233358383179
16.9,-0.7670962810516357,1.020339012145996,-1.8574429750442505,0.5504449009895325,0.7417389750480652,0.3375248312950134
16.95,-1.7509204149246216,0.01257791742682457,-0.6078752279281616,0.4607709050178528,0.34062960743904114,0.018809786066412926
17.0,-0.34165385365486145,0.6790618896484375,-0.007692393381148577,0.6593192219734192,0.26209113001823425,0.18355673551559448
17.05,0.6906494498252869,0.40353110432624817,0.5029352307319641,0.33704429864883423,0.41196662187576294,-0.05513088032603264
17.1,0.8474627733230591,-0.6599845290184021,0.6746273040771484,0.15310868620872498,0.5271924138069153,-0.11598792672157288
17.15,2.1581947803497314,-0.5467337369918823,1.634920358657837,-0.17853273451328278,0.6666143536567688,0.42586618661880493
17.2,3.4461262226104736,1.6913272142410278,2.3966472148895264,-0.1639246642589569,0.7414931654930115,0.6842890381813049
17.25,2.1218008995056152,1.4902011156082153,2.207486867904663,0.21692819893360138,0.5255423784255981,-0.12199169397354126
17.3,1.019324541091919,-0.3211164176464081,1.776464581489563,0.19410720467567444,0.9574916362762451,-0.5985651016235352
17.35,-1.2324570417404175,-1.3409816026687622,0.1754409819841385,0.4130171835422516,1.2629982233047485,-0.5690363645553589
17.4,-2.1174983978271484,-0.5242310762405396,-0.3196544051170349,0.11932402104139328,1.1809940338134766,-0.003996570128947496
17.45,-2.278146743774414,0.6231955289840698,-1.1505602598190308,0.26461464166641235,0.6619289517402649,0.009690610691905022
17.5,-1.1305766105651855,-0.5008383393287659,-0.3819996118545532,0.1072937622666359,0.07649611681699753,0.03861334174871445
17.55,0.30735617876052856,0.5384483337402344,-0.06952555477619171,0.2524512708187103,-0.06022646278142929,0.041613515466451645
17.6,0.269764244556427,0.9105930328369141,0.20338493585586548,0.24772699177265167,0.19716309010982513,-0.1631104052066803
17.65,0.5549237728118896,0.1518411934375763,0.16003726422786713,0.21874302625656128,0.26552408933639526,-0.1740192323923111
17.7,0.28287675976753235,0.15372753143310547,0.7744103670120239,0.14645405113697052,0.27027857303619385,-0.07545410096645355
17.75,-0.1440822035074234,0.6053428649902344,0.6970080733299255,0.13410057127475739,0.4477052390575409,0.032327234745025635
17.8,-0.19401301443576813,0.08980558812618256,0.4337776303291321,0.006420630030333996,0.5051513910293579,0.07141029834747314
17.85,-0.5353502631187439,-0.07000831514596939,0.40755510330200195,0.08051441609859467,0.43979454040527344,0.08218708634376526
17.9,0.22605371475219727,0.11273479461669922,0.7109483480453491,0.042074233293533325,0.27740758657455444,0.308232843875885
17.95,-0.07652372121810913,-0.1451273113489151,0.3810058534145355,0.10370348393917084,0.18306885659694672,0.17465625703334808
18.0,-0.11291797459125519,-0.004263891838490963,0.5349546074867249,0.17062121629714966,0.09062543511390686,0.17591474950313568
18.05,-0.3348633050918579,0.4004029929637909,0.4466177523136139,0.33938246965408325,0.020879078656435013,0.016255440190434456
18.1,-0.19468837976455688,0.05781267210841179,0.43976208567619324,0.20828363299369812,-0.08950921893119812,-0.014078250154852867
18.15,-0.3782202899456024,0.14968392252922058,0.4116135537624359,0.14768072962760925,-0.13748596608638763,0.006468630395829678
18.2,-0.2517487704753876,0.20685480535030365,0.40185266733169556,0.14291800558567047,-0.19343647360801697,0.1303071230649948
18.25,0.04808289185166359,0.2342395782470703,0.4449676275253296,0.3073669672012329,-0.3080531358718872,0.27516865730285645
18.3,0.2965199947357178,0.4997110366821289,0.8821126222610474,0.646785318851471,-0.5044918060302734,0.3109753727912903
18.35,0.7173201441764832,1.1405258178710938,1.3410109281539917,0.9844216108322144,-0.5512109398841858,0.26844915747642517
18.4,0.863176167011261,0.5715990662574768,0.48930415511131287,1.0557624101638794,-0.4747055172920227,-0.10178358852863312
18.45,-0.1038927435874939,-0.625798225402832,-0.09453859180212021,0.3603688180446625,-0.06289418041706085,-0.5580065846443176
18.5,-0.8728116750717163,-0.3385515809059143,-0.0034970545675605536,0.05635327100753784,0.4266534447669983,-0.8188823461532593
18.55,-1.4980523586273193,0.4262303411960602,-0.5894784927368164,0.26707619428634644,0.4865137040615082,-0.8295705318450928
18.6,-1.0315003395080566,-0.21101003885269165,-0.15400266647338867,-0.07554161548614502,0.3324103355407715,-0.507257878780365
18.65,0.031278591603040695,0.13408374786376953,0.16619309782981873,-0.026398256421089172,0.038305751979351044,-0.2509112060070038
18.7,0.5680200457572937,0.11125471442937851,0.8687891960144043,0.11491232365369797,-0.034863486886024475,-0.12473353743553162
18.75,0.6819267272949219,0.5252294540405273,1.0665141344070435,0.46274295449256897,-0.09596570581197739,0.022524552419781685
18.8,1.4548897743225098,1.4070817232131958,0.6464723348617554,0.6878160238265991,-0.38434112071990967,0.19374634325504303
18.85,1.8158669471740723,0.646164059638977,0.7350180745124817,-0.0404997318983078,-0.09195147454738617,0.10051877796649933
18.9,-0.5464035272598267,-1.2183704376220703,0.47922688722610474,-1.2572358846664429,0.8587571382522583,0.29154711961746216
18.95,-1.8726905584335327,-0.9322139024734497,-0.1245478019118309,-1.0585036277770996,0.9589747190475464,0.4286942481994629
19.0,-1.840920090675354,0.31108370423316956,-1.089284062385559,-0.1477770209312439,0.34606868028640747,0.10052023082971573
19.05,-1.241174578666687,0.7392968535423279,-0.5961349606513977,-0.04478249326348305,-0.16451780498027802,-0.2139616310596466
19.1,-0.33153775334358215,0.01644609309732914,0.08190108090639114,-0.11701405048370361,-0.27100449800491333,-0.11576727032661438
19.15,0.5395852327346802,0.2793283760547638,0.26569220423698425,0.09670102596282959,-0.2973148226737976,-0.03213218227028847
19.2,0.6066961288452148,-0.1469268500804901,0.7289911508560181,0.014828730374574661,-0.13898217678070068,-0.03542795032262802
19.25,0.34660059213638306,0.09105874598026276,0.5791136026382446,0.12976589798927307,-0.0523904412984848,-0.07310810685157776
19.3,0.11033515632152557,0.5647439956665039,0.5578709840774536,0.15507641434669495,-0.0981801375746727,-0.0125987958163023
19.35,0.6685546636581421,0.9824733734130859,1.0399072170257568,0.1204490214586258,-0.26261261105537415,0.11183792352676392
19.4,2.3836889266967773,1.8357058763504028,1.8440672159194946,0.07347959280014038,-0.09222656488418579,0.10356362909078598
19.45,3.237604856491089,1.8835211992263794,0.9744288325309753,-0.06705348193645477,1.0155069828033447,-0.3089364469051361
19.5,1.3107484579086304,0.28791341185569763,-1.0040898323059082,-0.3526260256767273,2.3753647804260254,-0.7496765851974487
19.55,-1.5151857137680054,-0.9709082245826721,-2.698880672454834,-0.2668611705303192,3.1595077514648438,-0.4198038876056671
19.6,-4.784652233123779,-3.384782075881958,-2.2915804386138916,0.47352334856987,2.5897512435913086,0.11907418817281723
19.65,-4.979369163513184,-2.811732530593872,-1.4540921449661255,1.8075159788131714,0.7369245290756226,0.9186792969703674
19.7,-0.6948874592781067,-0.6431990265846252,0.5114597082138062,1.9795869588851929,-0.5755359530448914,2.007106065750122
19.75,-0.53724205493927,1.5167646408081055,1.5947908163070679,1.1530702114105225,-0.2890198230743408,0.8740023970603943
19.8,-0.22911334037780762,1.3892431259155273,1.764975666999817,0.15019606053829193,0.10884810984134674,0.49677595496177673
19.85,-0.6077404022216797,0.8781079649925232,1.1093471050262451,-0.21622702479362488,0.21552559733390808,-0.15806376934051514
19.9,-0.09123632311820984,-0.2723674774169922,0.32636404037475586,-0.2367669641971588,-0.1288631111383438,-0.1078733503818512
19.95,-0.17345693707466125,-0.19714738428592682,-0.14845167100429535,0.17048276960849762,-0.7154675722122192,-0.12445063889026642
20.0,0.8086941242218018,0.5444384217262268,-0.023752687498927116,0.10722443461418152,-1.1486403942108154,-0.10282566398382187
20.05,-0.15283451974391937,0.3878650665283203,0.0694129690527916,0.08082478493452072,-1.1010034084320068,-0.36692261695861816
20.1,0.5389739274978638,0.2006998360157013,0.4244137406349182,0.05650348961353302,-1.1831941604614258,-0.4225561320781708
20.15,0.003300212323665619,0.15309999883174896,0.5701572895050049,-0.021168939769268036,-0.6725746393203735,-0.29694196581840515
20.2,-0.31111371517181396,0.29482075572013855,-0.18868286907672882,-0.11341844499111176,-0.45090025663375854,0.029398471117019653
20.25,-0.07879801094532013,-0.2578306198120117,-0.07050908356904984,-0.4789898097515106,-0.4390611946582794,0.41390398144721985
20.3,-0.03430914133787155,-0.08268070220947266,0.023670310154557228,-0.35344523191452026,-0.23720099031925201,0.5013936161994934
20.35,0.19547483325004578,-0.00988578051328659,0.27507543563842773,-0.08123816549777985,-0.12268748134374619,0.3580534756183624
20.4,-0.15165379643440247,0.7705554962158203,-0.29680436849594116,0.22794124484062195,-0.013707814738154411,0.012206255458295345
20.45,0.35599085688591003,0.14754392206668854,0.1866086721420288,-0.09265746921300888,-0.23955482244491577,-0.024766284972429276
20.5,0.17637480795383453,0.5633668899536133,0.0821424052119255,-0.01561281830072403,-0.14629387855529785,-0.16726018488407135
20.55,-0.34961414337158203,0.06667230278253555,0.2149306833744049,-0.08089673519134521,-0.04366806149482727,-0.2807788550853729
20.6,-0.5250998139381409,-0.03161528706550598,0.05352618917822838,-0.05009589344263077,-0.059781625866889954,-0.18575556576251984
20.65,-0.5525107383728027,-0.044322043657302856,-0.08705936372280121,-0.03305138275027275,-0.16755259037017822,-0.06076997146010399
20.7,0.12168170511722565,0.47319889068603516,0.1574236899614334,-0.014618687331676483,-0.29943615198135376,0.14782892167568207
20.75,0.16769328713417053,-0.08147238940000534,0.3721542954444885,-0.07620204985141754,-0.2458651065826416,0.14950430393218994
20.8,-0.06805550307035446,0.09352778643369675,0.09993252903223038,0.05525072664022446,-0.10684719681739807,0.09065907448530197
20.85,-0.3001760244369507,0.12137697637081146,0.06491096317768097,0.047879401594400406,-0.026389505714178085,-0.008460359647870064
20.9,-0.2025303840637207,0.2999000549316406,0.10801176726818085,0.055073633790016174,-0.03990417346358299,-0.10666727274656296
20.95,0.27046871185302734,0.5795145034790039,0.18068349361419678,0.1081414520740509,-0.05900479480624199,-0.23896372318267822
21.0,0.29174405336380005,0.183473601937294,0.06981725245714188,0.019952844828367233,0.18018263578414917,-0.21152260899543762
21.05,-0.008873410522937775,0.1219797134399414,-0.154707670211792,-0.129450261592865,0.351028710603714,-0.177133247256279
21.1,-0.11248672008514404,0.10398387163877487,0.009695337153971195,-0.4548230767250061,0.5249392986297607,-0.007461762521415949
21.15,-0.3067147135734558,0.13411328196525574,0.38203856348991394,-0.5812215805053711,0.6227131485939026,0.0724746361374855
21.2,-0.6847406029701233,-0.0805683583021164,0.2720792889595032,-0.2918049097061157,0.554319441318512,0.19370906054973602
21.25,-0.5215742588043213,0.5364198088645935,0.06647118180990219,0.026873905211687088,0.23559468984603882,0.15415161848068237
21.3,-0.09723442792892456,0.40496826171875,0.11741311848163605,-0.06193564087152481,0.11497212201356888,0.17246054112911224
21.35,0.41372132301330566,0.373717337846756,-0.15549851953983307,0.03556440770626068,0.13940395414829254,0.1031169667840004
21.4,0.8354533910751343,0.9235716462135315,-0.41947120428085327,0.049209870398044586,0.24976471066474915,0.20621618628501892
21.45,1.6393623352050781,1.177003026008606,-0.1709974706172943,-0.054059647023677826,0.4720923602581024,0.3863396942615509
21.5,2.251676559448242,1.6563750505447388,-0.20230121910572052,-0.033683232963085175,0.8166707754135132,0.13021428883075714
21.55,1.4903188943862915,0.44917020201683044,-0.006753835361450911,-0.1358267068862915,1.2109110355377197,-0.5254455208778381
21.6,0.6077429056167603,-0.00988480169326067,0.20407912135124207,0.09804104268550873,1.2358423471450806,-0.8043050765991211
21.65,0.4665185213088989,-0.02603815123438835,0.6382481455802917,-0.012788072228431702,1.0008130073547363,-0.7984346747398376
21.7,0.22422195971012115,-0.6029157638549805,1.0481255054473877,-0.14212210476398468,0.9479713439941406,-0.8902966380119324
21.75,0.36947131156921387,-1.0480051040649414,0.99510258436203,-0.0177278071641922,0.9468393325805664,-0.7627482414245605
21.8,-0.09161573648452759,-1.415095329284668,0.9059323072433472,0.18333294987678528,1.062158465385437,-0.5226845741271973
21.85,-0.37981921434402466,-0.573185920715332,0.17276456952095032,0.44211965799331665,1.072542667388916,-0.44595345854759216
21.9,-0.7971304655075073,-0.5858984589576721,-0.28223830461502075,0.4300154447555542,1.0484166145324707,-0.4424554109573364
21.95,-1.5306198596954346,-0.3794766366481781,-0.16266661882400513,0.3754703402519226,0.9718838334083557,-0.6388835310935974
22.0,-1.694284439086914,0.17448414862155914,0.2786942422389984,0.33979547023773193,0.6646392345428467,-0.6471182703971863
22.05,-1.2910234928131104,0.7490567564964294,0.5152618885040283,0.22887000441551208,0.21008820831775665,-0.5521663427352905
22.1,-0.4473057985305786,1.6321849822998047,0.4802202880382538,0.22468158602714539,-0.22668443620204926,-0.5159209370613098
22.15,0.6433850526809692,1.466944694519043,0.20577004551887512,-0.0643257424235344,-0.4325408935546875,-0.33759069442749023
22.2,1.342657208442688,0.5691328644752502,-0.08357284218072891,-0.3625398874282837,-0.26542234420776367,-0.10966583341360092
22.25,1.2803744077682495,-0.46905604004859924,-0.4821881651878357,-0.42248839139938354,0.13022899627685547,-0.09753461927175522
22.3,0.4631083011627197,-0.7385491728782654,-1.1323963403701782,-0.3097967207431793,0.5357376933097839,-0.09363798052072525
22.35,-0.44474712014198303,-1.3183622360229492,-1.3234189748764038,-0.23897455632686615,0.7359621524810791,0.037782929837703705
22.4,-1.1480706930160522,-1.0648994445800781,-1.4002195596694946,0.031049776822328568,0.7586350440979004,0.04800724983215332
22.45,-1.6364728212356567,-0.5648594498634338,-1.09348726272583,0.3029487729072571,0.6618832349777222,0.002505349228158593
22.5,-1.6329659223556519,-0.08119305968284607,-0.48051080107688904,0.49908560514450073,0.4845885932445526,-0.09447750449180603
22.55,-1.3853338956832886,0.28293028473854065,0.16471192240715027,0.5450185537338257,0.25804367661476135,-0.077884241938591
22.6,-0.918976902961731,0.6692704558372498,0.5599291920661926,0.4783424735069275,0.05237473547458649,-0.0841212347149849
22.65,-0.42410534620285034,0.9711007475852966,0.6492144465446472,0.3535851240158081,-0.060711562633514404,-0.1356634795665741
22.7,0.043264709413051605,1.1477384567260742,0.5095609426498413,0.182989239692688,-0.09872440993785858,-0.18014171719551086
22.75,0.4538939297199249,0.7893829345703125,0.172556534409523,0.013877931982278824,-0.08812563121318817,-0.20469486713409424
22.8,0.5053851008415222,0.20824149250984192,-0.08852360397577286,-0.08017527312040329,-0.07076214998960495,-0.2099800705909729
22.85,0.5464777946472168,-0.13163277506828308,-0.32268959283828735,-0.051318734884262085,-0.10577824711799622,-0.158426433801651
22.9,0.5672404170036316,-0.09793754667043686,-0.3607262670993805,0.021593671292066574,-0.15918181836605072,-0.08712109178304672
22.95,0.6029006838798523,0.1284037083387375,-0.28887277841567993,0.06240251660346985,-0.1870093047618866,-0.050996724516153336
23.0,0.684508204460144,0.2818479835987091,-0.09967809170484543,0.06166638433933258,-0.1759275496006012,-0.03332670405507088
23.05,0.7827654480934143,0.11021237075328827,-0.0859883725643158,0.03714004531502724,-0.11324276030063629,-0.05942584574222565
23.1,0.622657060623169,-0.2402753382921219,-0.14225949347019196,0.025470837950706482,-0.010169140994548798,-0.06954258680343628
23.15,0.36706119775772095,-0.12409684807062149,-0.1164315715432167,0.13017159700393677,0.018383033573627472,-0.08527745306491852
23.2,0.33775952458381653,0.3686218559741974,-0.06674093008041382,0.1744999885559082,-0.023374687880277634,-0.044923439621925354
23.25,0.45955753326416016,0.40586379170417786,-0.018145067617297173,0.10582826286554337,-0.052099812775850296,-0.004624904599040747
23.3,0.6629929542541504,0.5068102478981018,0.0861346423625946,0.06877270340919495,-0.03203234449028969,-0.07116745412349701
23.35,0.7700591087341309,0.27009013295173645,0.10658040642738342,-0.0036620134487748146,-0.003986658062785864,-0.05946141108870506
23.4,0.7365524172782898,0.020278019830584526,0.05984091758728027,-0.02957705594599247,0.02141612209379673,-0.02481854148209095
23.45,0.4259900450706482,-0.10031507164239883,-0.06571570783853531,-0.025320477783679962,0.05803418904542923,0.03625376522541046
23.5,0.04338754713535309,0.021869663149118423,-0.10282301902770996,0.010245513170957565,0.07073934376239777,0.059914182871580124
23.55,-0.07094455510377884,0.20204925537109375,-0.11765073984861374,0.03850674629211426,0.01765444502234459,0.023409239947795868
23.6,0.029071252793073654,0.45758628845214844,-0.07274117320775986,0.04326120764017105,-0.0231880322098732,-0.04259803891181946
23.65,0.20413604378700256,0.655940055847168,-0.04028703644871712,0.00016923248767852783,-0.09031802415847778,-0.07419244945049286
23.7,0.5107369422912598,0.6822414398193359,0.024439122527837753,-0.08324074745178223,-0.15095293521881104,-0.09350568801164627
23.75,0.6789901852607727,0.5038414597511292,-0.03625653684139252,-0.15653003752231598,-0.15071798861026764,-0.14517763257026672
23.8,0.48193269968032837,0.12906363606452942,-0.18091626465320587,-0.22286225855350494,-0.09717512875795364,-0.15612095594406128
23.85,0.03010561317205429,0.2768535614013672,-0.41385579109191895,-0.20476612448692322,-0.11681561172008514,-0.1670295000076294
23.9,-0.29721590876579285,0.6692523956298828,-0.7047433257102966,-0.22369322180747986,-0.1815013736486435,-0.20044581592082977
23.95,-0.7248045206069946,0.679865837097168,-0.9897684454917908,-0.2775174677371979,-0.2916657030582428,-0.2358979433774948
24.0,-1.1505039930343628,0.2056874781847,-1.3727846145629883,-0.38456836342811584,-0.5049583911895752,-0.16725845634937286
24.05,-1.427689790725708,0.06208890676498413,-1.741147756576538,-0.4306927025318146,-0.844925045967102,-0.10544608533382416
24.1,-1.2666208744049072,-0.03522877395153046,-2.147951602935791,-0.5452165603637695,-1.3253883123397827,0.07073374092578888
24.15,-0.6679156422615051,-0.33098888397216797,-2.3034632205963135,-0.6963468194007874,-1.844633936882019,0.17205621302127838
24.2,0.27059683203697205,-0.7756938338279724,-2.088766574859619,-0.76458340883255,-2.317567825317383,0.3352188467979431
24.25,1.370004415512085,-1.1954392194747925,-1.1220875978469849,-1.0136798620224,-2.6287388801574707,0.8286868929862976
24.3,2.8177027702331543,-1.917509913444519,1.0211373567581177,-1.4994187355041504,-2.622129440307617,1.3655455112457275
24.35,3.1151797771453857,-1.747557520866394,3.4273183345794678,-1.9259490966796875,-1.9249818325042725,1.6536725759506226
24.4,3.4721202850341797,0.6612273454666138,4.167099952697754,-1.5167880058288574,-0.9840674996376038,1.8725775480270386
24.45,2.7062435150146484,1.1683064699172974,4.120837688446045,-1.467626929283142,-0.176333948969841,1.5064740180969238
24.5,2.124922275543213,1.4236069917678833,2.902449369430542,-1.2511528730392456,0.2989520728588104,1.1507021188735962
24.55,1.232990026473999,-0.11478514969348907,1.7650599479675293,-0.8438425660133362,0.5690978765487671,0.7636530995368958
24.6,1.1924774646759033,0.7803030610084534,1.1880007982254028,-0.2729666233062744,0.4192979633808136,0.771945595741272
24.65,-0.01771298050880432,0.10845659673213959,1.3047535419464111,-0.39263278245925903,0.12638109922409058,0.09179522842168808
24.7,-0.2110365927219391,0.390412300825119,0.4628310799598694,0.011609986424446106,-0.07671965658664703,0.07254733890295029
24.75,0.05104382708668709,1.4485368728637695,-0.008260462433099747,0.5822398066520691,-0.3423207998275757,0.2909083068370819
24.8,0.8110949993133545,0.38328462839126587,0.05811958760023117,0.5360122919082642,-0.471404105424881,0.34777772426605225
24.85,0.5810787677764893,-0.3196077048778534,0.20012085139751434,-0.021123185753822327,-0.39970117807388306,0.37670019268989563
24.9,0.1942308098077774,-0.9331722259521484,0.6250145435333252,-0.5165231227874756,-0.18118128180503845,0.3329656720161438
24.95,0.22509407997131348,0.056090373545885086,-0.42783424258232117,-0.510415256023407,0.18729287385940552,0.306365430355072
25.0,-0.17449431121349335,0.4530372619628906,-0.5763687491416931,-0.48488208651542664,0.4206099808216095,-0.010214013047516346
25.05,0.2984673082828522,0.4629574120044708,-0.4198403060436249,-0.04823313280940056,0.5730911493301392,-0.14625149965286255
25.1,-0.05415940284729004,-0.25472354888916016,0.6471062898635864,-0.06995503604412079,0.694236159324646,0.030604887753725052
25.15,-0.14568820595741272,0.08138177543878555,0.7939451336860657,-0.055678591132164,0.4238106608390808,0.0006473289104178548
25.2,-0.1968754678964615,0.48599717020988464,0.4343006908893585,-0.04596573859453201,0.1936284899711609,-0.13569697737693787
25.25,-0.1466374546289444,0.22395609319210052,0.14385387301445007,0.04189816489815712,0.13736030459403992,-0.062202438712120056
25.3,-0.18382835388183594,-0.135377898812294,0.3058862090110779,0.031167855486273766,0.030281124636530876,0.026126088574528694
25.35,0.4692460298538208,-0.0942535251379013,0.6503979563713074,0.005605699960142374,-0.20890554785728455,0.01193134393543005
25.4,-0.0527409128844738,0.43610095977783203,-0.2544654309749603,0.17992818355560303,-0.019699495285749435,-0.06951268017292023
25.45,-0.08601133525371552,0.5743474960327148,-0.33841031789779663,0.14299434423446655,0.030694015324115753,0.06552942097187042
25.5,0.17333698272705078,-0.008419031277298927,0.305968701839447,0.06582773476839066,0.016486337408423424,0.1432209014892578
25.55,-0.3089712858200073,0.18102167546749115,0.16598831117153168,0.14276114106178284,0.20611201226711273,0.15423405170440674
25.6,-0.4000299274921417,0.5415678024291992,-0.0658489316701889,0.1547211855649948,0.3147253692150116,0.21477839350700378
25.65,-0.27576112747192383,0.8089714050292969,-0.6516360640525818,0.2453955113887787,0.5012999773025513,0.0957130640745163
25.7,-0.36789870262145996,1.226576805114746,-0.7982595562934875,0.07058945298194885,0.5321707725524902,-0.5107543468475342
25.75,-1.2728737592697144,-0.10745340585708618,-0.9694861769676208,-0.5105034112930298,0.1317613571882248,-0.8077358603477478
25.8,-0.3841550350189209,-1.2300529479980469,-0.08786669373512268,-0.18166649341583252,-0.6626149415969849,-0.7887465357780457
25.85,0.18750125169754028,-0.8240060806274414,0.18351265788078308,0.38261181116104126,-1.0599149465560913,-0.5032294988632202
25.9,1.0060255527496338,-0.9466819167137146,1.175634741783142,-0.028683602809906006,-1.148809790611267,-0.07521509379148483
25.95,0.96811443567276,-0.48812195658683777,0.986234188079834,-0.0311724990606308,-0.871684193611145,0.11009705811738968
26.0,0.9480513334274292,0.4611101448535919,0.9417341947555542,-0.20429128408432007,-0.6922996044158936,0.2736421525478363
26.05,0.509818971157074,0.5652532577514648,1.7230478525161743,-0.46176931262016296,-0.44423431158065796,0.17921856045722961
26.1,-0.2856864929199219,2.1278295516967773,0.9559751749038696,-0.09288278222084045,0.06569112092256546,-0.05103624239563942
26.15,0.09749843925237656,-0.31866931915283203,0.8574839234352112,-0.3809834122657776,0.2280513048171997,-0.20066006481647491
26.2,-0.05360093712806702,-0.3887958526611328,0.48277249932289124,-0.06929601728916168,-0.012386518530547619,-0.10857519507408142
26.25,-0.27062076330184937,0.3524179458618164,-0.08819249272346497,0.2567497789859772,-0.18506024777889252,-0.05001845583319664
26.3,0.19015608727931976,-0.13634298741817474,-0.07253282517194748,0.20440523326396942,-0.1484847068786621,-0.01166963018476963
26.35,-0.010117936879396439,-0.05259228125214577,0.12057838588953018,0.27475863695144653,0.033019330352544785,0.07976311445236206
26.4,-0.3015991449356079,0.13780973851680756,-0.0359521210193634,0.39717409014701843,0.11645092070102692,0.16327929496765137
26.45,-0.0558817982673645,0.3110780715942383,0.3354228734970093,0.262503981590271,0.0277195256203413,0.17375917732715607
26.5,-0.21934036910533905,0.08840654790401459,0.33924955129623413,0.3358759582042694,0.18194331228733063,0.07494399696588516
26.55,-0.5851158499717712,0.38701435923576355,0.18043573200702667,0.4264991283416748,0.18774807453155518,0.06550701707601547
26.6,-0.4643787443637848,0.2883433997631073,0.4039157032966614,0.40331465005874634,0.0175447016954422,0.1278105080127716
26.65,-0.5482325553894043,0.43770119547843933,0.8393985033035278,0.4780970811843872,-0.009677830152213573,0.08147330582141876
26.7,-0.6944515705108643,0.8173570036888123,0.7275350093841553,0.4438864588737488,0.11390697211027145,0.014073125086724758
26.75,-0.5215356945991516,0.19971556961536407,0.6328756213188171,0.2522720694541931,0.14329762756824493,-0.06960766762495041
26.8,-0.48950663208961487,-0.23008158802986145,-0.23520217835903168,0.2544665038585663,0.2746718227863312,-0.07811247557401657
26.85,-0.03795444965362549,-1.0969963073730469,-0.41356849670410156,-0.08756978064775467,0.1585320085287094,0.10805808752775192
26.9,0.12398171424865723,-0.7172613143920898,-0.7445735931396484,0.02449331060051918,0.07494982331991196,0.2180728316307068
26.95,0.03912845253944397,0.34967041015625,-0.6969171762466431,0.31031978130340576,-0.07529646158218384,0.1497400850057602
27.0,-0.34802019596099854,0.98382568359375,-0.23330631852149963,0.16574637591838837,-0.0558687187731266,0.07644490897655487
27.05,-0.27573949098587036,0.30342671275138855,0.6239452362060547,-0.010364646092057228,-0.05340970680117607,-0.122046560049057
27.1,-0.31417983770370483,0.7279043197631836,0.8173092603683472,0.1047549843788147,0.068016417324543,-0.21626852452754974
27.15,-0.22641822695732117,0.9567937850952148,0.16590581834316254,0.23166386783123016,0.20229636132717133,-0.37184232473373413
27.2,-0.33321863412857056,0.08040139824151993,0.2029695212841034,0.07285884022712708,0.16914302110671997,-0.48946353793144226
27.25,-0.4231230914592743,-0.19947722554206848,0.20640678703784943,0.04851388931274414,0.05373790115118027,-0.32719606161117554
27.3,-0.48558977246284485,-0.0053263031877577305,0.2821553349494934,0.07005824148654938,-0.053193747997283936,-0.24757635593414307
27.35,-0.8851699233055115,-0.5096893906593323,0.5209922194480896,-0.04383278265595436,0.009826518595218658,-0.15493416786193848
27.4,-0.9633085131645203,0.252952516078949,0.32053348422050476,-0.001222269143909216,-0.04765696823596954,-0.03641226515173912
27.45,-0.7146133780479431,0.3186330497264862,0.2051301896572113,-0.19794104993343353,-0.12314896285533905,-0.04103057458996773
27.5,-0.307179719209671,-0.04136945679783821,0.17780618369579315,-0.3245762288570404,-0.23170095682144165,-0.046139463782310486
27.55,-0.08216111361980438,-0.2604045867919922,0.14021219313144684,-0.32696768641471863,-0.258937805891037,-0.009004519321024418
27.6,0.2341427356004715,0.04785443842411041,-0.147268608212471,-0.11516381800174713,-0.18722198903560638,0.08585511147975922
27.65,0.44799238443374634,0.8042125701904297,-0.26127371191978455,-0.08360058069229126,-0.13536454737186432,0.038917701691389084
27.7,0.5171061754226685,1.5487337112426758,-0.6212964057922363,-0.37771087884902954,0.09695467352867126,-0.20814788341522217
27.75,1.3180558681488037,2.5490427017211914,-2.002133369445801,-0.9422683119773865,0.5166593194007874,-0.6239458918571472
27.8,0.5280719995498657,0.4457712769508362,-1.914826512336731,-1.931877613067627,1.2972360849380493,-1.0051016807556152
27.85,-0.6961109638214111,-1.5750751495361328,-1.8921616077423096,-1.1094815731048584,1.2170512676239014,-1.0170730352401733
27.9,-0.8743534088134766,-3.2003817558288574,-0.12299239635467529,-0.1900712549686432,-0.08561044186353683,-0.34297579526901245
27.95,-0.9571833610534668,-2.83120059967041,3.0553810596466064,0.27400851249694824,-0.7760725021362305,1.1123371124267578
28.0,-0.9412376284599304,-0.2681361436843872,4.04049015045166,0.7552893161773682,-0.368158221244812,2.214350461959839
28.05,-2.3663058280944824,1.1793020963668823,2.7755937576293945,0.9706075191497803,0.29673388600349426,1.950702428817749
28.1,-2.6360456943511963,3.780595541000366,0.5632138252258301,0.9007694721221924,0.047872815281152725,1.3558796644210815
28.15,-0.7414715886116028,0.9976395964622498,1.1104881763458252,0.10047705471515656,-0.37160128355026245,0.24461843073368073
28.2,-0.8458467721939087,0.19093221426010132,0.2627973258495331,0.13981592655181885,-0.16518481075763702,-0.3416913151741028
28.25,-0.35731226205825806,-0.45038607716560364,-0.1946123242378235,-0.03796561062335968,-0.25559237599372864,-0.07940623909235
28.3,0.5116847157478333,-0.16817280650138855,-0.38901031017303467,-0.1758483350276947,-0.31760740280151367,0.23470191657543182
28.35,0.44184258580207825,0.08295539021492004,-0.5127168893814087,-0.12361498177051544,-0.2205587923526764,0.2172762155532837
28.4,-0.12760379910469055,0.3199310302734375,-0.23760323226451874,0.06599563360214233,-0.09904871135950089,0.18058577179908752
28.45,-0.26994144916534424,-0.29167941212654114,0.22560587525367737,0.06735990196466446,-0.07817647606134415,0.18176434934139252
28.5,-0.25517114996910095,0.2557162940502167,0.28786250948905945,0.17199823260307312,-0.1202939823269844,0.29040947556495667
28.55,-0.1823357492685318,0.7967758178710938,0.060038063675165176,0.0696348175406456,-0.1330280900001526,0.19752584397792816
28.6,0.18144743144512177,0.2085714489221573,-0.1364855319261551,0.10886579006910324,-0.038911156356334686,0.018307019025087357
28.65,0.23374229669570923,0.16906549036502838,-0.4873506724834442,0.06769733875989914,0.03826260194182396,-0.018679292872548103
28.7,0.10352946817874908,0.024241456761956215,-0.23217439651489258,-0.03475728631019592,0.05462181940674782,0.0037450254894793034
28.75,-0.39756882190704346,0.014072386547923088,0.6517956256866455,-0.08768542110919952,0.04634745046496391,0.01376874279230833
28.8,-0.8967116475105286,0.1980256289243698,1.2213239669799805,-0.06137215346097946,0.08332990109920502,-0.02943558432161808
28.85,-0.997697114944458,-0.2176695615053177,1.2240692377090454,0.016381127759814262,0.1607026606798172,-0.03132611885666847
28.9,-0.8834792971611023,0.06034749373793602,0.9229430556297302,0.20121043920516968,0.1994893103837967,0.06595204770565033
28.95,-0.569659948348999,0.3669070899486542,0.6119733452796936,0.25278350710868835,0.1785360723733902,0.19774430990219116
29.0,-0.262946754693985,0.11742684990167618,0.2529386878013611,0.2043052315711975,0.10591274499893188,0.2916256785392761
29.05,0.041234686970710754,-0.31828784942626953,0.09202492982149124,0.18793097138404846,0.017440862953662872,0.31438377499580383
29.1,-0.17797505855560303,-0.014770513400435448,-0.3431634306907654,0.26476550102233887,0.0048592654056847095,0.2768922448158264
29.15,0.015606708824634552,-0.004064557142555714,-0.12777934968471527,0.19621522724628448,-0.06484833359718323,0.29139813780784607
29.2,-0.037412963807582855,0.03299617022275925,0.384528785943985,0.08125811070203781,-0.148366779088974,0.3239431381225586
29.25,-0.24787454307079315,0.2813405692577362,0.4135895073413849,0.08037877827882767,-0.07941734790802002,0.25648218393325806
29.3,-0.17825543880462646,0.3022184371948242,0.022950440645217896,0.13745355606079102,-0.013518582098186016,0.21999500691890717
29.35,-0.05225754529237747,0.5440435409545898,-0.10215596109628677,0.2096274346113205,-0.03365986794233322,0.1867138296365738
29.4,0.14751200377941132,0.7665853500366211,-0.25083500146865845,0.17004507780075073,-0.06387373059988022,0.050510894507169724
29.45,0.3909928500652313,0.907221794128418,-0.3641940951347351,0.08436517417430878,-0.029888499528169632,-0.4206709861755371
29.5,0.8638767600059509,0.9198618531227112,-1.505149006843567,-0.27091434597969055,0.09987163543701172,-1.0448766946792603
29.55,-0.7513712048530579,0.2961120307445526,-0.7909513711929321,-0.8736551403999329,0.06266608834266663,-1.3923877477645874
29.6,-0.4614163637161255,-2.3854713439941406,1.2382029294967651,-1.042953610420227,-0.39134716987609863,-1.0313276052474976
29.65,-0.9104446172714233,-1.7805815935134888,2.020289897918701,0.08242028951644897,-0.27413952350616455,0.13173232972621918
29.7,-2.2963945865631104,2.8651750087738037,1.5670067071914673,0.04469512775540352,0.010313071310520172,-0.01744166575372219
29.75,-0.46200501918792725,-0.8946200013160706,0.4699479639530182,-1.1703593730926514,0.05762929469347,-1.2181793451309204
29.8,-0.5581162571907043,-1.5842294692993164,0.4534188508987427,-0.709332287311554,0.057158440351486206,-0.9298059940338135
29.85,-0.2842182517051697,0.4230489432811737,0.6467456817626953,-0.45922720432281494,-0.2668669521808624,-0.4286864101886749
29.9,-0.8675763607025146,-0.4428406357765198,0.2269788533449173,-0.3925204575061798,-0.16749386489391327,-0.43473657965660095
29.95,-0.2239711582660675,-0.21422864496707916,-0.023267516866326332,-0.24770691990852356,-0.045104920864105225,-0.09287387132644653
30.0,0.2015620917081833,-0.04958818852901459,-0.3477720320224762,-0.1267542988061905,-0.08771834522485733,0.064804308116436
30.05,0.20981518924236298,-0.011887524276971817,-1.0351146459579468,0.12724356353282928,-0.09985463321208954,0.26285141706466675
30.1,0.5860866904258728,-0.09204956144094467,-0.45463451743125916,0.011693745851516724,-0.29810869693756104,0.5730977058410645
30.15,0.2841217517852783,-0.3203620910644531,0.49254053831100464,-0.13466526567935944,-0.4837861955165863,0.5713130831718445
30.2,0.24418720602989197,-0.22061729431152344,0.5694258809089661,0.2516210377216339,-0.4607912302017212,0.3392098844051361
30.25,0.32271188497543335,-0.0025548827834427357,0.5925225615501404,0.8429399132728577,-0.2580631673336029,0.06147414445877075
30.3,-0.22278767824172974,0.13042162358760834,0.28520557284355164,1.2012138366699219,0.27237674593925476,0.022504793480038643
30.35,-0.10346861183643341,0.04269217699766159,0.06211858615279198,1.1793917417526245,0.35263630747795105,0.1247095987200737
30.4,-1.9055910110473633,0.9910878539085388,-1.7380270957946777,1.0947157144546509,0.44241225719451904,0.23354563117027283
30.45,-0.04729393124580383,0.22815608978271484,-0.556226909160614,0.23401865363121033,-0.17657998204231262,0.6191068291664124
30.5,0.13252533972263336,0.530756950378418,0.16527515649795532,-0.09202105551958084,-0.08202672004699707,0.5626100301742554
30.55,0.2956635355949402,0.44130614399909973,-0.3485250174999237,-0.2908669412136078,-0.029386183246970177,0.31607523560523987
30.6,-0.09995319694280624,0.85528564453125,-0.3114675283432007,-0.5798913240432739,0.057775530964136124,-0.04094287380576134
30.65,-0.5086238384246826,-0.006252315826714039,-0.1714724600315094,-0.731015145778656,0.2662354111671448,-0.29260748624801636
30.7,-0.2721515893936157,-0.01922513172030449,-0.3536565899848938,-0.7575235366821289,0.22530458867549896,-0.2049652338027954
30.75,-0.7109373807907104,0.9506282806396484,-1.068029522895813,-0.6763424873352051,0.12038865685462952,-0.6964074969291687
30.8,-0.3621833324432373,-0.26175788044929504,0.15765278041362762,-0.9781877994537354,-0.3750186264514923,-1.3076709508895874
30.85,-1.05585515499115,-1.513245701789856,1.4196513891220093,-0.518392026424408,-0.6430531144142151,-1.3546134233474731
30.9,-0.24951019883155823,-1.142958641052246,1.487045168876648,0.28133293986320496,-0.48228809237480164,-0.522541344165802
30.95,0.5095131993293762,0.3075141906738281,1.2601224184036255,0.29368191957473755,-0.15148134529590607,0.09654378890991211
31.0,-0.12678313255310059,1.7287817001342773,0.6374186873435974,-0.09172913432121277,0.09977495670318604,-0.26096126437187195
31.05,-0.5038674473762512,0.024505574256181717,0.8145163059234619,-0.32919904589653015,-0.037707939743995667,-0.21913839876651764
31.1,-0.26246753334999084,0.046534523367881775,-0.05730080604553223,0.06834243983030319,-0.20144806802272797,0.41823461651802063
31.15,-0.20355595648288727,0.2321786731481552,-0.10181618481874466,0.18089239299297333,-0.22968240082263947,0.6278490424156189
31.2,-0.012898065149784088,0.03544808179140091,-0.5449308156967163,0.012269705533981323,-0.18244746327400208,0.6250117421150208
31.25,0.2744527757167816,0.32793715596199036,0.007782024331390858,-0.07369241863489151,-0.19101782143115997,0.3282477557659149
31.3,-0.05224424600601196,0.10100460052490234,-0.25166451930999756,-0.10837511718273163,-0.20168223977088928,0.06357058882713318
31.35,0.14272335171699524,0.10148907452821732,0.05045461654663086,-0.14140456914901733,-0.10730358958244324,-0.09519252181053162
31.4,0.25857216119766235,0.20534516870975494,-0.36995112895965576,-0.07832872122526169,0.21536065638065338,-0.2697921097278595
31.45,0.5476444363594055,0.5754461884498596,-0.7516420483589172,-0.16983994841575623,0.3887762129306793,-0.47802913188934326
31.5,-0.1908242255449295,0.9251079559326172,-0.5703908801078796,-0.20731782913208008,0.34303227066993713,-1.0368266105651855
31.55,-1.4030566215515137,-0.9895754456520081,-0.4075373709201813,-0.08737128973007202,0.2691524028778076,-1.1026383638381958
31.6,-1.0453991889953613,-2.025399684906006,0.2469719648361206,0.31795933842658997,0.022020792588591576,-0.1648421287536621
31.65,0.4749203324317932,-0.7927913665771484,0.9276912808418274,0.5831403732299805,0.10943248122930527,1.0899845361709595
31.7,0.2493162602186203,1.5799198150634766,1.0000829696655273,0.5792086124420166,0.3935191333293915,1.0084140300750732
31.75,-1.031403660774231,2.1090774536132812,0.8452740907669067,0.1997762769460678,0.3541966676712036,0.38976022601127625
31.8,-0.8612051010131836,-0.8090391755104065,0.7228175401687622,0.11215271800756454,0.07002092897891998,0.36838871240615845
31.85,-0.14822453260421753,-1.1031684875488281,-0.06313829869031906,0.40550103783607483,-0.1266561597585678,0.9252963066101074
31.9,-0.058946624398231506,-0.3774118423461914,0.6779063940048218,0.5285152792930603,-0.38752809166908264,0.923385500907898
31.95,-0.8985133171081543,1.0374583005905151,1.3550899028778076,0.7144007086753845,-0.4281015694141388,0.3880898058414459
32.0,-0.9867910146713257,0.7961282134056091,1.4232743978500366,0.6230719089508057,-0.4188636839389801,0.2484545111656189
32.05,-0.8281461596488953,0.3361319899559021,0.5831825733184814,0.6215226054191589,-0.3339020311832428,0.1649036854505539
32.1,-0.5713991522789001,0.2811555564403534,-0.8284343481063843,0.5278388857841492,-0.3665892779827118,-0.03485940396785736
32.15,-0.6106707453727722,0.911259651184082,-0.8193356394767761,0.271950900554657,-0.49072521924972534,-0.0871308296918869
32.2,0.21445775032043457,0.5601472854614258,-1.1821014881134033,0.023115353658795357,-0.5038220882415771,-0.10031620413064957
32.25,0.6041562557220459,1.0459203720092773,-1.4586279392242432,-0.27405059337615967,-0.1108417958021164,-0.011373213492333889
32.3,0.4181476831436157,0.9083557724952698,-1.1308478116989136,-0.4268684983253479,0.5385242104530334,-0.47065606713294983
32.35,-0.616625964641571,-0.99945068359375,-0.6046953797340393,-0.40268343687057495,0.7944185137748718,-0.9201114773750305
32.4,-1.0137253999710083,-1.9211980104446411,0.7577337622642517,-0.25754350423812866,0.5112704038619995,-0.38023459911346436
32.45,-0.6616029739379883,-1.5895482301712036,1.6132153272628784,0.13835197687149048,0.03151381388306618,0.38039687275886536
32.5,0.5092547535896301,-0.4245414733886719,1.6737252473831177,0.2612650990486145,-0.12635520100593567,1.0054925680160522
32.55,-0.5038262009620667,0.5131577849388123,1.9330862760543823,-0.2954331040382385,-0.2465454638004303,0.507646918296814
32.6,-0.5050937533378601,1.1061525344848633,1.2274142503738403,0.1541963815689087,-0.34326910972595215,0.1719091683626175
32.65,-0.16966716945171356,1.0071725845336914,0.7236970663070679,0.31005266308784485,-0.3207985460758209,-0.03563833609223366
32.7,0.024831578135490417,1.1895475387573242,-0.35525572299957275,0.26896271109580994,-0.3312927782535553,-0.08973384648561478
32.75,-0.5478389263153076,-0.07099439948797226,-0.4765200614929199,0.3098621964454651,-0.14902286231517792,-0.1472713202238083
32.8,-0.666367769241333,-0.32031920552253723,-0.5233792066574097,0.2506203353404999,0.022139137610793114,0.04859388619661331
32.85,-0.2868649959564209,-0.15155889093875885,-0.24346423149108887,0.034290067851543427,0.024693213403224945,0.17961286008358002
32.9,0.06889321655035019,0.015222558751702309,-0.3786980211734772,0.024008773267269135,0.060938019305467606,0.2517482042312622
32.95,0.09136049449443817,0.5305089950561523,-0.5922211408615112,-0.153059720993042,0.07271389663219452,0.3529921770095825
33.0,0.6155855059623718,1.002854347229004,-0.7603517770767212,-0.3988695740699768,0.33995649218559265,0.12017106264829636
33.05,-0.3498985469341278,-0.696751594543457,-0.30661484599113464,-0.5850799679756165,0.5384042263031006,-0.5117425322532654
33.1,-0.9880272150039673,-1.510121464729309,1.2054617404937744,-0.35377442836761475,0.1479799598455429,-0.39974072575569153
33.15,-1.3008654117584229,-1.451748013496399,2.7646193504333496,0.0798993706703186,0.0030927148181945086,0.2548827528953552
33.2,-1.957735300064087,1.5143154859542847,2.692228317260742,0.15055856108665466,0.019330771639943123,0.491552472114563
33.25,-1.1060198545455933,1.0198601484298706,0.7070098519325256,-0.21314570307731628,0.0585072822868824,-0.10855293273925781
33.3,-0.30276522040367126,-0.4854002296924591,0.1581706404685974,0.01050106342881918,-0.011760838329792023,-0.0020612708758562803
33.35,-0.2724420428276062,0.17898081243038177,-0.04746270552277565,0.12151896953582764,-0.13233178853988647,0.21766799688339233
33.4,-0.3623234033584595,-0.1779051125049591,0.4446145296096802,0.1507812738418579,-0.18206970393657684,0.2563307583332062
33.45,-0.15189042687416077,-0.028516771271824837,-0.49348458647727966,0.3895408809185028,-0.16840825974941254,0.12061536312103271
33.5,0.045780815184116364,0.10592556744813919,-0.14523859322071075,0.19350668787956238,-0.23808705806732178,0.06185882166028023
33.55,-0.3101655840873718,0.3941487967967987,0.356793075799942,0.09061770886182785,-0.21795877814292908,0.055866990238428116
33.6,-0.6075630784034729,0.7298268675804138,0.35205593705177307,0.1480007916688919,-0.09782955795526505,0.08745632320642471
33.65,-0.31762880086898804,0.28798481822013855,0.09258662164211273,0.13935649394989014,-0.04751994088292122,0.06809664517641068
33.7,0.23227743804454803,0.36401084065437317,-0.20157955586910248,0.16490115225315094,-0.12815071642398834,-0.07584833353757858
33.75,0.7030453681945801,1.201613426208496,-0.6423589587211609,0.43554049730300903,-0.15374979376792908,-0.44970470666885376
33.8,1.1881346702575684,2.287137985229492,-1.5326663255691528,0.20250675082206726,0.13294482231140137,-1.1653388738632202
33.85,0.8236141800880432,0.5219278931617737,-1.4768292903900146,-1.357116937637329,0.6624057292938232,-2.1613070964813232
33.9,-1.44987952709198,-2.2278804779052734,0.7278786897659302,-2.463120460510254,1.2827390432357788,-2.2219016551971436
33.95,-2.2075488567352295,-1.9608460664749146,1.9612139463424683,-1.5071591138839722,1.0023833513259888,-1.0651123523712158
34.0,-0.004981100559234619,0.3468141257762909,1.2548573017120361,-0.06365308165550232,0.38674044609069824,0.16251932084560394
34.05,-0.7347245216369629,0.03499311953783035,0.6005249619483948,0.1317204236984253,0.1365627646446228,0.16633588075637817
34.1,0.14222076535224915,0.752467155456543,-0.8044227361679077,0.23179744184017181,-0.11578748375177383,0.6408105492591858
34.15,0.30513614416122437,0.44352057576179504,-1.3205974102020264,-0.16448421776294708,-0.5675077438354492,0.9197146892547607
34.2,1.8682831525802612,0.8456031084060669,-1.742590069770813,-0.09080669283866882,-0.9243477582931519,0.8202334046363831
34.25,1.1731096506118774,-0.25158873200416565,-0.9974488019943237,0.05775758996605873,-0.5724759101867676,0.15332823991775513
34.3,-0.182172492146492,-1.3541059494018555,0.09933958947658539,0.3305776119232178,-0.4246750771999359,-0.04520294442772865
34.35,-1.2022879123687744,-0.7603417038917542,0.0010174656054005027,0.4340799152851105,-0.35904762148857117,0.0910356342792511
34.4,-2.448622941970825,1.0620735883712769,-0.2036413550376892,0.13148507475852966,-0.12862879037857056,-0.051097314804792404
34.45,-0.12468713521957397,0.9028606414794922,0.8454488515853882,-0.4955309331417084,0.5310744643211365,-0.4596293270587921
34.5,0.6526950597763062,0.5756579041481018,-1.3296117782592773,-0.5156723260879517,0.9622194766998291,-0.5335108637809753
34.55,0.5235204696655273,0.11379342526197433,-1.3593709468841553,-0.5022525787353516,0.8699448108673096,-0.6616606116294861
34.6,-0.3121848702430725,-0.6081418991088867,-0.9872789978981018,0.03812944144010544,0.33897560834884644,-0.5743376016616821
34.65,-1.1198631525039673,-1.8366652727127075,0.5859136581420898,0.4901754856109619,-0.1943800002336502,0.17201238870620728
34.7,-1.2794556617736816,-1.27515709400177,2.8986988067626953,0.8708072900772095,-0.2976543605327606,1.3376126289367676
34.75,-0.4144601821899414,0.3371533751487732,3.363067865371704,1.126549482345581,-0.06854982674121857,1.7815625667572021
34.8,-0.5493655204772949,1.9546318054199219,1.8749547004699707,0.6616584062576294,0.15015500783920288,1.1103163957595825
34.85,0.03684724122285843,2.123053550720215,0.31117743253707886,-0.12349268049001694,-0.06661020219326019,0.3139267861843109
34.9,-0.12725745141506195,1.0384206771850586,-0.051023148000240326,-0.43469732999801636,-0.10282447189092636,-0.47067809104919434
34.95,-0.5799947381019592,-0.5130663514137268,-0.2274593859910965,-0.5974241495132446,0.004896617028862238,-0.8099641799926758
35.0,-0.09843041747808456,-0.5299100875854492,-0.1036282330751419,-0.4286922812461853,0.031842123717069626,-0.3304561972618103
35.05,0.25401702523231506,1.2292041778564453,0.24127280712127686,0.024637378752231598,0.0772523283958435,-0.1532248854637146
35.1,-0.4503886103630066,0.5552634596824646,0.9197563529014587,0.1712101697921753,0.15811587870121002,-0.8190398812294006
35.15,0.028408080339431763,-0.6055631637573242,1.934627652168274,-0.2195158153772354,0.23493565618991852,-0.8875993490219116
35.2,-1.0301642417907715,-0.1206246092915535,0.38508141040802,-0.038689859211444855,0.41251081228256226,-0.7293553352355957
35.25,-0.40096136927604675,-0.6369695663452148,0.21969927847385406,-0.19105134904384613,0.2005113810300827,-0.1305781751871109
35.3,0.07208617031574249,-0.8186054229736328,-0.022354869171977043,0.13442812860012054,-0.3158445954322815,0.017405929043889046
35.35,1.4550306797027588,1.6210814714431763,-0.37443313002586365,0.6464191675186157,-0.9503077864646912,-0.024418208748102188
35.4,0.34293919801712036,1.261876106262207,-1.017171025276184,0.4991323947906494,-0.8875721096992493,-0.14806240797042847
35.45,2.009852886199951,1.166509747505188,-1.7886983156204224,0.1844724863767624,-1.2034326791763306,0.11681795120239258
35.5,1.5702002048492432,-0.8598164319992065,-0.5363961458206177,-0.10181332379579544,-0.6669837832450867,0.4434831440448761
35.55,-0.25120487809181213,-0.8184127807617188,-0.30177178978919983,0.09580335766077042,-0.3781704902648926,0.369015634059906
35.6,-1.1966266632080078,0.7547025084495544,1.039363145828247,-0.2542630136013031,-0.1729508489370346,0.14788158237934113
35.65,-0.19624710083007812,1.0663881301879883,0.4355688691139221,-0.7128835320472717,0.21546311676502228,-0.03450203314423561
35.7,-0.06213752180337906,0.2602071762084961,0.5263654589653015,-1.1643038988113403,0.6257540583610535,-0.273788720369339
35.75,-0.2103693038225174,0.015415173023939133,0.44787171483039856,-1.140645146369934,0.6916326880455017,-0.37583836913108826
35.8,0.19536297023296356,0.5100946426391602,-0.08553491532802582,-0.7943930625915527,0.4407343864440918,-0.29601314663887024
35.85,-0.39531877636909485,0.7500371932983398,-0.01994796097278595,-0.4608765244483948,0.3787256181240082,-0.3020401895046234
35.9,0.5713376998901367,0.44738104939460754,0.4135820269584656,-0.18235516548156738,0.2847785949707031,-0.1504838466644287
35.95,0.7845988273620605,-0.4216918349266052,-0.7699297666549683,0.2813934087753296,0.46055740118026733,0.06571108847856522
36.0,-0.521904468536377,-0.44751453399658203,-1.8282779455184937,0.7229186296463013,0.46414628624916077,0.17125864326953888
36.05,-1.095683217048645,-0.8658486008644104,-0.27678510546684265,0.9495362639427185,0.03943242132663727,0.6389497518539429
36.1,-0.6631238460540771,-0.7094679474830627,1.9135855436325073,1.1529903411865234,-0.2734823524951935,1.2103486061096191
36.15,-0.24786776304244995,-0.2744923233985901,3.4149715900421143,1.1198375225067139,-0.00899482797831297,1.1423158645629883
36.2,-2.40413498878479,2.5982978343963623,0.8969570398330688,0.661684513092041,0.27731460332870483,0.6526387929916382
36.25,0.031962886452674866,1.2030611038208008,0.9035135507583618,-0.13595302402973175,-0.4172331690788269,0.06439635902643204
36.3,-0.4366489052772522,-0.7431803345680237,1.207761287689209,-0.0678054466843605,-0.34887948632240295,0.09275718778371811
36.35,-0.5420530438423157,-0.7109127640724182,1.5005638599395752,-0.08264937996864319,-0.5580121278762817,0.3530788719654083
36.4,-0.3752884268760681,0.21245858073234558,0.38829997181892395,0.2003789246082306,-0.4210127294063568,0.3969314992427826
36.45,-0.11405332386493683,0.17103862762451172,-0.33893153071403503,0.4570215940475464,-0.2386803776025772,0.24838583171367645
36.5,0.3347877264022827,-0.02685067243874073,-0.6986822485923767,0.41571515798568726,-0.20279398560523987,0.19774621725082397
36.55,0.38870933651924133,0.48208144307136536,-1.0962860584259033,0.22863176465034485,-0.1514832079410553,0.19504204392433167
36.6,1.1965543031692505,1.09919273853302,-1.5391052961349487,-0.2023882418870926,0.2071547657251358,0.21966978907585144
36.65,1.2004892826080322,0.617315411567688,-1.8003356456756592,-0.4616430997848511,0.7681005001068115,-0.4333985149860382
36.7,-0.37083715200424194,-1.1462984085083008,-0.7429515719413757,-0.49790793657302856,0.9585419297218323,-0.9433441758155823
36.75,-1.081765055656433,-2.1935086250305176,1.5442503690719604,-0.23650702834129333,0.688473641872406,-0.33632105588912964
36.8,-1.070371389389038,-1.1487723588943481,2.846907377243042,0.14286738634109497,0.33023327589035034,0.3934665322303772
36.85,-0.8054096698760986,2.297809600830078,1.7083522081375122,0.09238675236701965,-0.04533136263489723,0.24223414063453674
36.9,-0.8701309561729431,0.611233651638031,0.37593546509742737,0.15993966162204742,-0.13383977115154266,-0.39837440848350525
36.95,0.45740482211112976,-0.3436698615550995,0.37125369906425476,0.23674963414669037,-0.4199330806732178,-0.002872875891625881
37.0,0.2584843933582306,0.34124282002449036,-0.24286304414272308,0.2011951208114624,-0.39776045083999634,0.18652430176734924
37.05,0.04560945928096771,0.24830056726932526,-0.7414035797119141,0.22374838590621948,-0.3653147220611572,0.006501771975308657
37.1,0.22752290964126587,0.4229135811328888,-0.7000879049301147,0.28929170966148376,-0.2709488570690155,-0.19557268917560577
37.15,0.09479505568742752,0.4129772186279297,-0.4573189616203308,0.1056513711810112,-0.17749130725860596,-0.5445179343223572
37.2,-0.0911937952041626,0.6096220016479492,-0.1602778285741806,-0.11446117609739304,-0.02709084376692772,-0.8077654242515564
37.25,-0.5431602001190186,0.7517728805541992,-0.17663516104221344,-0.42910557985305786,0.23869530856609344,-0.9614676237106323
37.3,0.037796780467033386,0.2577352523803711,1.0057709217071533,-1.0477887392044067,0.49851077795028687,-0.6738321781158447
37.35,-0.38811394572257996,0.25711724162101746,0.5377637147903442,-0.78985196352005,0.7787711024284363,-0.6155425906181335
37.4,-0.01756124570965767,-0.37581348419189453,0.1277555525302887,-0.8933978080749512,0.7155808806419373,-0.16718396544456482
37.45,-0.44331103563308716,-0.903904914855957,-0.3357032239437103,-0.9094161987304688,0.3001898229122162,0.3076053559780121
37.5,0.5596340894699097,0.785761833190918,0.620472252368927,-0.3212013244628906,-0.4488590657711029,0.601186990737915
37.55,1.1081897020339966,0.7043390870094299,1.6057116985321045,0.5245320796966553,-0.3250451982021332,0.3209109604358673
37.6,0.2907772660255432,1.5202159881591797,0.27704551815986633,1.2638657093048096,-0.13639552891254425,-0.09819508343935013
37.65,-0.49533891677856445,-0.27393439412117004,0.5383889675140381,1.010123610496521,-0.504301130771637,-0.32368141412734985
37.7,0.12218326330184937,-1.9949283599853516,1.673621654510498,0.8407981395721436,-0.7564393281936646,-0.10851829499006271
37.75,-1.0373497009277344,-2.031100273132324,-1.0006064176559448,1.4629509449005127,-0.3490464687347412,0.3079379200935364
37.8,0.21157222986221313,0.6878805756568909,-1.9843744039535522,0.7273142337799072,-0.6985074281692505,0.5311502814292908
37.85,-0.046914294362068176,-0.45317745208740234,-1.0008283853530884,-0.43240150809288025,-0.6894863247871399,0.3982953727245331
37.9,0.5812801718711853,-0.3668803870677948,0.4838985800743103,-0.7946193814277649,-0.6604053378105164,0.31596019864082336
37.95,0.3568636178970337,0.26339244842529297,0.9555641412734985,-0.5711631178855896,-0.030442306771874428,-0.17987895011901855
38.0,-0.4180678725242615,0.3182058036327362,-0.003603022312745452,-0.14654871821403503,0.09954041242599487,-0.8361726999282837
38.05,0.06091223284602165,0.09185504913330078,0.13215583562850952,-0.02189871296286583,-0.13235628604888916,-0.22457318007946014
38.1,-0.5246391892433167,0.18040655553340912,-0.6965931057929993,0.1919420063495636,0.01913784258067608,-0.11737105250358582
38.15,0.3090745806694031,-0.3716726005077362,0.017592668533325195,0.06934355944395065,0.23715226352214813,0.24475638568401337
38.2,0.0344657301902771,-0.6527299880981445,0.5675862431526184,0.647660493850708,0.7452468276023865,0.02539314329624176
38.25,-0.4097135365009308,0.7623834609985352,-0.7772963047027588,1.3190126419067383,1.268377661705017,0.09460674226284027
38.3,0.30150306224823,0.8947582840919495,-1.00387442111969,0.13305070996284485,0.5633462071418762,0.4984900653362274
38.35,-0.04164351150393486,-0.10315799713134766,-0.1960131824016571,-0.31152912974357605,0.2586122751235962,0.3466438353061676
38.4,-0.7535619139671326,0.2966165244579315,-0.5787970423698425,0.4304555654525757,0.4076310694217682,0.009882504120469093
38.45,-0.5964834690093994,0.4833650290966034,-0.7319628000259399,0.44356951117515564,0.16349783539772034,0.08175306767225266
38.5,0.14661461114883423,0.5279140472412109,-0.40773487091064453,0.02592134289443493,0.13575416803359985,0.13424889743328094
38.55,0.9798640608787537,1.553604245185852,-0.927419126033783,-0.3323117792606354,0.5041685700416565,-0.06290604174137115
38.6,2.2814369201660156,1.7871333360671997,-1.2316702604293823,-1.0384445190429688,1.0751436948776245,-0.6148173213005066
38.65,-0.2573002576828003,-1.1471099853515625,-0.9666662812232971,-1.723082184791565,1.5666784048080444,-1.6454441547393799
38.7,-1.362830638885498,-2.4787797927856445,0.8369960188865662,-1.522458553314209,0.681024968624115,-0.9308643341064453
38.75,-0.9264042377471924,-1.9235669374465942,1.9566245079040527,-0.7810262441635132,-0.11506886035203934,0.6932108998298645
38.8,0.20529377460479736,1.7004594802856445,0.7699620723724365,-0.16694653034210205,-0.285824179649353,1.222775936126709
38.85,-0.2239302694797516,1.1207962036132812,0.991258978843689,-0.3536282479763031,-0.048728231340646744,0.47707557678222656
38.9,-0.7430407404899597,0.348384827375412,-0.3610052466392517,0.12784706056118011,0.254762202501297,0.07892921566963196
38.95,-0.6888221502304077,-0.044138938188552856,-0.8407332301139832,0.1990882158279419,-0.00722128851339221,0.26248589158058167
39.0,-0.4399840235710144,0.333400696516037,-0.49644240736961365,0.012833777815103531,-0.2914876639842987,0.3093670606613159
39.05,0.15725423395633698,0.2175913006067276,-0.1554698795080185,-0.13057318329811096,-0.3325740694999695,0.33196696639060974
39.1,0.15155327320098877,-0.19037342071533203,0.22169163823127747,-0.20182448625564575,-0.16306252777576447,0.41127365827560425
39.15,-0.43379896879196167,0.19126509130001068,-0.2692842185497284,-0.03641333431005478,-0.07891368120908737,0.3856039345264435
39.2,-0.863423228263855,-0.19901184737682343,0.10396097600460052,-0.02809622883796692,-0.22946102917194366,0.25508180260658264
39.25,-0.13109295070171356,0.19384191930294037,0.30774274468421936,0.021960780024528503,-0.3312750458717346,0.24534085392951965
39.3,0.9870628714561462,-0.26146310567855835,0.6540520191192627,0.21323497593402863,-0.31197813153266907,0.12595723569393158
39.35,0.598198652267456,0.7382774949073792,-1.0920783281326294,0.7689273953437805,-0.2806601822376251,-0.006768407300114632
39.4,-0.19056320190429688,-0.3573284149169922,-0.2709176242351532,0.12245297431945801,-0.4383620023727417,0.08763282001018524
39.45,-0.448739618062973,0.2893209159374237,-0.7166688442230225,0.022656351327896118,-0.5771007537841797,0.035553816705942154
39.5,-0.23088262975215912,-0.002466210164129734,-0.36939623951911926,-0.2886069416999817,-0.5988965630531311,-0.03350610285997391
39.55,-0.07110044360160828,-0.2257232666015625,-0.12344492226839066,-0.22433273494243622,-0.6567104458808899,-0.17618553340435028
39.6,0.1985626220703125,-0.04403303191065788,-0.39146360754966736,-0.0841284692287445,-0.6441298127174377,-0.26970160007476807
39.65,1.1992590427398682,0.04880625382065773,0.41011255979537964,-0.10225360095500946,-0.5687718391418457,-0.37026628851890564
39.7,1.2769423723220825,-0.006830153055489063,0.8868996500968933,0.06650543212890625,-0.1641116440296173,-0.5483352541923523
39.75,0.6128434538841248,0.030172381550073624,0.21461181342601776,0.4647652804851532,0.13490284979343414,-0.6283649802207947
39.8,-0.6066499948501587,0.23130986094474792,0.02985232137143612,0.636010468006134,0.2269938886165619,-0.7116155624389648
39.85,-0.9620763063430786,-0.6209574341773987,0.3117249310016632,0.6682193279266357,0.06283572316169739,-0.5423889756202698
39.9,0.41041243076324463,-0.14435480535030365,0.40991950035095215,0.5981530547142029,-0.2183762937784195,-0.2824196219444275
39.95,-0.12462063133716583,0.17222309112548828,-0.3929305076599121,0.6140265464782715,-0.30408570170402527,-0.12030129879713058
40.0,-2.025502920150757,0.8983296155929565,-1.514607310295105,0.4977443218231201,-0.1808992475271225,0.019319090992212296
40.05,0.5767072439193726,0.0958261787891388,0.2633819282054901,0.2256222665309906,-0.17862509191036224,0.06199656054377556
40.1,0.9475928544998169,0.15040020644664764,0.4363190829753876,0.1587338149547577,-0.084934763610363,0.04258923977613449
40.15,0.6834831833839417,0.27914145588874817,0.11779332160949707,0.08700390160083771,-0.018980253487825394,0.07424673438072205
40.2,0.187085822224617,-0.028758039698004723,0.1419985294342041,0.04470723122358322,-0.0434834249317646,0.06422505527734756
40.25,0.629086971282959,-0.3641299903392792,0.4290373623371124,0.00783693976700306,-0.12388037145137787,0.12916769087314606
40.3,0.2904472053050995,0.19292737543582916,-0.1264481544494629,0.039258167147636414,-0.07173408567905426,0.08993976563215256
40.35,0.3116438388824463,-0.6154375076293945,0.5773372054100037,0.03963390365242958,-0.03253557160496712,0.04129443317651749
40.4,0.7682409286499023,-0.1364392787218094,0.1532445251941681,-0.00543306116014719,0.06109713017940521,0.018269842490553856
40.45,0.21252447366714478,-0.046811096370220184,0.31913048028945923,-0.03999168053269386,0.14321938157081604,-0.12458674609661102
40.5,0.39292269945144653,-0.27660465240478516,0.805535614490509,-0.04769216105341911,0.09450150281190872,-0.14423982799053192
40.55,0.4889765679836273,0.13150981068611145,0.07621124386787415,-0.020839067175984383,0.10511733591556549,-0.16152456402778625
40.6,0.122504323720932,0.1341562271118164,0.08929524570703506,-0.015026137232780457,0.12762634456157684,-0.20585156977176666
40.65,-0.0724448710680008,-0.011405948549509048,-0.012949870899319649,0.016091391444206238,0.09000012278556824,-0.17321667075157166
40.7,0.008062712848186493,0.23798084259033203,-0.1112043559551239,0.05041789636015892,0.005638104863464832,-0.11643686890602112
40.75,0.3169352114200592,0.13500691950321198,-0.1987212747335434,0.05303746089339256,-0.04026039317250252,-0.0765593871474266
40.8,-0.4863301217556,-0.2829418480396271,0.29904451966285706,0.08871989697217941,0.0021940649021416903,-0.11857802420854568
40.85,-3.232820749282837,-1.6149799823760986,1.7901571989059448,0.25604957342147827,-0.014258567243814468,-0.24744823575019836
40.9,3.194995641708374,-2.5981967449188232,3.742642879486084,0.12778446078300476,0.011703934520483017,-0.2600145637989044
40.95,1.5435082912445068,-0.06578151136636734,0.39048758149147034,0.2337869107723236,0.26589733362197876,-0.413316935300827
41.0,-0.0889323502779007,0.20432281494140625,-0.13665132224559784,0.037694502621889114,0.1535039097070694,-0.1170717254281044
41.05,0.06929018348455429,0.16623210906982422,-0.14530272781848907,-0.021158887073397636,0.002831552177667618,0.050634246319532394
41.1,-0.07385939359664917,0.2961549758911133,0.18546953797340393,-0.003017803654074669,-0.09494847804307938,0.06906100362539291
41.15,-3.1406092643737793,3.00329852104187,-0.20250672101974487,0.11864868551492691,-0.20545895397663116,-0.010128567926585674
41.2,-8.886678695678711,9.420699119567871,-3.4792280197143555,0.27940815687179565,-0.18271486461162567,-0.20498354732990265
41.25,5.615987300872803,2.6751043796539307,-0.18445833027362823,-0.013779159635305405,0.022457102313637733,-0.21982711553573608
41.3,-0.3932613134384155,0.8662786483764648,-0.44530802965164185,0.08561679720878601,0.170586958527565,-0.14387832581996918
41.35,0.8434839248657227,-0.17290206253528595,0.12027611583471298,0.0026456695050001144,0.009278538636863232,0.07366440445184708
41.4,1.9831016063690186,-0.8190678358078003,0.9755147695541382,0.09613513201475143,-0.22604534029960632,-0.0070268199779093266
41.45,4.475298881530762,-2.1035821437835693,2.075010061264038,0.04208194464445114,0.04870786890387535,-0.10946360230445862
41.5,-0.24689450860023499,0.5594816207885742,-0.24381715059280396,0.06565524637699127,0.22451554238796234,-0.15163232386112213
41.55,0.5840421319007874,0.256957083940506,-0.09930205345153809,0.005424675531685352,-0.020635778084397316,0.0863267257809639
41.6,2.60896635055542,-0.9388455152511597,3.5634536743164062,0.23805397748947144,-0.5531590580940247,-0.03484613075852394
41.65,2.102811813354492,-3.732998847961426,8.648276329040527,0.5034452676773071,-0.19662398099899292,-0.3472405970096588
41.7,-0.44942110776901245,1.3442258834838867,-0.9179953336715698,0.34860166907310486,-0.17712824046611786,0.3088985085487366
41.75,1.533954381942749,-0.546263575553894,-0.8776366114616394,-0.4373703896999359,-0.49947261810302734,1.0517586469650269
41.8,1.6028622388839722,-1.0100678205490112,0.17611783742904663,-1.2249873876571655,-0.10601983219385147,0.9478790760040283
41.85,-0.5057607889175415,-0.3372173607349396,0.3702866733074188,-1.861487865447998,0.5765602588653564,1.1021828651428223
41.9,-0.03619168698787689,-0.20877934992313385,0.8882770538330078,-1.4159832000732422,0.4113234877586365,2.074023485183716
41.95,5.878352165222168,8.294339179992676,0.6774697303771973,0.024882137775421143,0.27323397994041443,2.892446756362915
42.0,1.8089406490325928,1.1857043504714966,0.8770259022712708,-0.23659276962280273,0.6537344455718994,1.3235268592834473
42.05,2.0748751163482666,-0.9853028059005737,0.5248329043388367,-0.30317413806915283,1.0342192649841309,1.1103607416152954
42.1,0.14537274837493896,-0.2304086536169052,-0.7403619885444641,0.16457237303256989,1.1491426229476929,0.588001549243927
42.15,-1.8376333713531494,0.7050437331199646,-1.8433785438537598,0.41900312900543213,0.8896748423576355,0.37918728590011597
42.2,-2.221259832382202,0.15231026709079742,-1.5333033800125122,0.40260690450668335,0.3115254044532776,0.0825967937707901
42.25,-0.620125412940979,0.31832024455070496,-0.29119643568992615,0.3593490421772003,0.05188482999801636,-0.24769988656044006
42.3,0.1992647349834442,1.035273551940918,-0.15895721316337585,0.4246867001056671,0.3531562387943268,-0.23643366992473602
42.35,-0.0758863091468811,3.10604190826416,-1.14579439163208,0.8416626453399658,0.6748601794242859,-0.23547236621379852
42.4,-0.9293719530105591,5.188803672790527,-3.248734712600708,0.9873390197753906,0.5384305119514465,-0.4615861773490906
42.45,-3.3850879669189453,-0.24766266345977783,-5.245344161987305,-0.2534886598587036,-0.2729823589324951,-1.642701268196106
42.5,-1.847125768661499,-5.62796688079834,-3.634783983230591,-1.7640197277069092,-1.966213583946228,-1.0223944187164307
42.55,1.0780773162841797,-5.360096454620361,0.36684104800224304,-0.7217023372650146,-2.604102373123169,-0.12762051820755005
42.6,2.550511360168457,-1.7338627576828003,3.5362541675567627,0.29560717940330505,-2.163820505142212,0.36370569467544556
42.65,4.630031585693359,0.8380119204521179,4.759974479675293,-0.11587577313184738,-1.3629714250564575,-0.015569317154586315
42.7,4.855412483215332,-0.8583458065986633,5.682961463928223,-0.24443455040454865,-0.5488182306289673,-0.7881594896316528
42.75,1.2080883979797363,-1.826970100402832,2.6172983646392822,-0.0022029131650924683,-0.8261004090309143,-0.9570623636245728
42.8,1.589098334312439,1.4458600282669067,-1.2935168743133545,0.4466634690761566,-0.9400262236595154,-0.18239162862300873
42.85,-0.882907509803772,0.7453803420066833,0.5296211838722229,-0.8673484921455383,-1.0233954191207886,-0.7497527003288269
42.9,-1.1196589469909668,1.1072359085083008,-1.7731828689575195,-0.7127847671508789,-0.9094605445861816,-1.0689160823822021
42.95,0.14467649161815643,-1.4398689270019531,1.7308728694915771,-0.8060879707336426,-1.0002113580703735,-1.0934807062149048
43.0,0.2614566683769226,0.2469187080860138,-0.7595333456993103,-0.07748906314373016,-0.9991037845611572,-1.0049175024032593
43.05,-0.43637770414352417,1.0376901626586914,-0.47356849908828735,-0.3013572692871094,-1.0017549991607666,-0.9913874864578247
43.1,0.6779987812042236,-0.614288330078125,1.3045268058776855,-0.39776691794395447,-0.893146276473999,-0.6647418737411499
43.15,4.741079807281494,-2.8521878719329834,5.572792053222656,-0.19234156608581543,-0.7695997953414917,-0.3367339074611664
43.2,0.1490962654352188,1.2067975997924805,0.48727139830589294,0.10376397520303726,-0.7946437001228333,-0.09210533648729324
43.25,0.15750053524971008,0.1553325653076172,0.24206475913524628,-0.04236556589603424,-0.6658382415771484,-0.1610093116760254
43.3,-0.0698063001036644,-0.33034515380859375,0.5134480595588684,-0.15429192781448364,-0.5653437972068787,-0.26743918657302856
43.35,0.07569576054811478,-0.06161975860595703,0.28637728095054626,-0.09229066222906113,-0.47498801350593567,-0.27125269174575806
43.4,1.1399080753326416,-1.845444679260254,4.59348726272583,-0.10348404943943024,-0.34412574768066406,-0.2360047996044159
43.45,4.2515363693237305,-6.130396366119385,17.10700225830078,-0.04603055864572525,0.3246783912181854,0.2476886659860611
43.5,1.765836238861084,3.6036159992218018,-3.822089195251465,0.3599482774734497,1.1018086671829224,1.151376485824585
43.55,-2.5316519737243652,2.9139490127563477,-2.8385186195373535,-0.3926244378089905,0.31796571612358093,0.5338431596755981
43.6,-2.1494226455688477,-0.5347243547439575,-0.0544949509203434,-0.7150033116340637,0.19659096002578735,0.375620573759079
43.65,0.09608416259288788,-1.8678126335144043,1.0299465656280518,-0.29161638021469116,0.6417376399040222,0.5636118054389954
43.7,-0.49964725971221924,-1.9152779579162598,-0.3595314025878906,0.26531970500946045,0.8863286972045898,0.4386553466320038
43.75,-0.8954106569290161,0.7040910720825195,-2.674221992492676,0.6314324736595154,1.192344307899475,0.8776788115501404
43.8,-2.495286226272583,0.4968642294406891,-3.7872302532196045,1.415217638015747,1.169124722480774,0.46806958317756653
43.85,-1.1499929428100586,0.057291947305202484,-2.1298036575317383,1.8288509845733643,1.0306638479232788,0.03713369369506836
43.9,0.32955634593963623,1.1592645645141602,-1.3181570768356323,1.938130259513855,0.8321158289909363,-0.2697557806968689
43.95,1.1255124807357788,-0.9478902220726013,1.1049354076385498,0.9097163677215576,0.3602972626686096,-0.3993000090122223
44.0,1.9421945810317993,-0.8264626860618591,2.197242259979248,0.4460499882698059,0.20448067784309387,0.19521605968475342
44.05,2.103118896484375,0.939616322517395,2.0853114128112793,0.3367500305175781,0.23672738671302795,0.29190802574157715
44.1,1.660466194152832,1.1560765504837036,2.6007070541381836,-0.1484834849834442,0.6338109970092773,-0.1445624977350235
44.15,1.5682282447814941,0.4179430603981018,1.9058042764663696,-0.19207629561424255,1.2084163427352905,-0.5857629776000977
44.2,0.7710902690887451,-0.332642525434494,0.07133983820676804,-0.15068797767162323,1.8893136978149414,-0.9417340755462646
44.25,-2.4771974086761475,0.3195151090621948,-1.7839128971099854,-0.22290125489234924,2.1737406253814697,-1.0104889869689941
44.3,-3.9466991424560547,0.13659265637397766,-1.9025003910064697,-0.7877237796783447,1.011030912399292,-0.5036140084266663
44.35,-2.6885697841644287,-0.9270106554031372,-0.7936984896659851,-0.895309567451477,-0.49767419695854187,0.16085416078567505
44.4,-0.6247093081474304,-0.43763354420661926,0.1395963579416275,-0.6365696787834167,-0.878714919090271,0.7394916415214539
44.45,1.5614911317825317,0.4773884415626526,1.222670078277588,-0.7753771543502808,-0.2638729512691498,0.7624846696853638
44.5,-0.025921542197465897,0.9995021820068359,-0.01373317465186119,-0.2787863612174988,0.29419195652008057,-0.2766234278678894
44.55,0.1502181738615036,0.05561162158846855,-0.24511511623859406,-0.2429308146238327,0.45472002029418945,-0.10660254210233688
44.6,0.46218231320381165,0.28939536213874817,0.11707659065723419,-0.013102816417813301,0.3374980688095093,0.13820898532867432
44.65,0.07733521610498428,0.4636220932006836,-0.19163881242275238,0.016822729259729385,0.19355180859565735,0.10316526889801025
44.7,0.051707178354263306,0.15392780303955078,-0.041547153145074844,-0.040660589933395386,-0.014527847059071064,0.15500400960445404
44.75,-0.3910626769065857,-0.6529083251953125,0.22564227879047394,0.005757242441177368,0.037288349121809006,0.38304683566093445
44.8,-0.27021247148513794,0.16418741643428802,0.1838972121477127,0.007985413074493408,0.10276692360639572,0.6523483991622925
44.85,-0.05952178314328194,0.570775032043457,0.1889115869998932,0.15732933580875397,0.10598819702863693,0.36508774757385254
44.9,-0.13645757734775543,0.3062896728515625,-0.1155998632311821,0.24484467506408691,0.1266283243894577,0.07038617879152298
44.95,0.5202888250350952,0.32283881306648254,0.35906895995140076,0.18855948746204376,0.08435691893100739,0.12134375423192978
45.0,0.6332151293754578,0.05386259779334068,0.865684986114502,0.3893169164657593,0.32449957728385925,-0.13345475494861603
45.05,0.47359389066696167,-0.12515448033809662,0.8132907748222351,1.1503016948699951,0.6250244975090027,-0.7099570631980896
45.1,-0.19221705198287964,-0.4193992614746094,0.21959924697875977,1.9420115947723389,0.9857678413391113,-0.9651959538459778
45.15,-0.41573235392570496,0.04156111553311348,-0.9371026754379272,1.9619287252426147,0.6137090921401978,-0.8190717101097107
45.2,-0.291226863861084,0.25381946563720703,-0.35005518794059753,1.3345516920089722,-0.023241763934493065,-0.6528195142745972
45.25,-0.5499072074890137,0.3598184287548065,0.34819820523262024,0.8623256683349609,-0.3257840871810913,-0.5606961846351624
45.3,0.18210414052009583,0.3959388732910156,0.5346031188964844,0.8663671016693115,-0.41515618562698364,-0.5205100178718567
45.35,-0.2864850163459778,0.1140279546380043,0.35196417570114136,0.8490815162658691,-0.13703103363513947,-0.43213605880737305
45.4,-0.1328541338443756,0.42806148529052734,0.3302019238471985,0.8195949196815491,-0.19928553700447083,-0.3546496033668518
45.45,0.029588863253593445,0.17386627197265625,0.5147162079811096,0.8811625838279724,-0.05557030066847801,-0.42881864309310913
45.5,0.41487205028533936,1.7173938751220703,0.6468071341514587,1.0750296115875244,0.1830504834651947,-0.7612851858139038
45.55,1.1515381336212158,1.9637346267700195,0.8067918419837952,0.4340061843395233,0.8041055798530579,-0.7677643299102783
45.6,1.2960983514785767,-1.0277069807052612,0.9141170382499695,-0.7551634311676025,1.679614782333374,-0.17285673320293427
45.65,-0.40668922662734985,-0.8627967834472656,0.23493216931819916,-0.6318253874778748,2.180178165435791,0.4732694625854492
45.7,-1.4125615358352661,0.14932529628276825,-0.21927379071712494,-0.5640533566474915,1.6879663467407227,1.365729808807373
45.75,-1.4919469356536865,0.1598605215549469,-0.3141772150993347,-0.9107201099395752,0.8366600871086121,1.4563851356506348
45.8,-1.7467128038406372,-0.3416062295436859,-0.23479126393795013,-0.5716533660888672,0.3439490795135498,1.4916627407073975
45.85,-1.1368556022644043,0.6379184126853943,-0.46034476161003113,-0.12443819642066956,-0.19440025091171265,1.5926908254623413
45.9,-1.1911873817443848,0.19653791189193726,-0.23569123446941376,-0.4219296872615814,-0.702942430973053,1.3039697408676147
45.95,-0.8086047768592834,-0.06486514955759048,-0.48387569189071655,-0.798366129398346,-1.2425040006637573,1.3173383474349976
46.0,-0.6596421003341675,-0.8091517090797424,-0.4532986283302307,-0.9496517777442932,-1.6671326160430908,1.2517046928405762
46.05,1.3075852394104004,-0.3628491759300232,0.2492494136095047,-0.8576779365539551,-1.7502413988113403,1.7168010473251343
46.1,-0.09121181070804596,1.2379236221313477,0.08214347064495087,-0.5559155941009521,-0.9627174735069275,1.0584793090820312
46.15,0.705115556716919,0.888674795627594,-0.2380441576242447,-0.8113007545471191,-0.5302553772926331,0.9459998607635498
46.2,-0.4253753423690796,0.2899312973022461,-1.4401922225952148,-0.874433696269989,-0.177964985370636,0.45860669016838074
46.25,0.46402138471603394,0.2924375832080841,-1.271028757095337,-1.0198146104812622,-0.7318264842033386,-0.12524938583374023
46.3,0.02097383141517639,-0.8551883697509766,0.3774610459804535,-0.9678106307983398,-1.04198157787323,-0.8330673575401306
46.35,-0.180417999625206,-1.9009852409362793,0.8638176918029785,-0.28242844343185425,-0.8627525568008423,-0.7035412788391113
46.4,0.3264959454536438,-0.6466045379638672,0.9642309546470642,0.11662214994430542,-0.5850178003311157,0.2745664119720459
46.45,0.2985026240348816,1.6197099685668945,0.9903237223625183,0.17006540298461914,-0.1317644566297531,0.5483788251876831
46.5,-0.030405422672629356,0.3353853225708008,0.1347639262676239,0.31894195079803467,0.06664673984050751,0.039811212569475174
46.55,0.2740885615348816,-0.3614082336425781,0.4263322055339813,0.6926715970039368,-0.059462420642375946,-0.15146824717521667
46.6,0.3878592252731323,0.7070169448852539,0.03194336220622063,1.2288768291473389,-0.026081308722496033,-0.2697526216506958
46.65,0.7370377779006958,0.7450160980224609,1.019489049911499,0.7651293873786926,0.019732946529984474,-0.2189742624759674
46.7,1.3220797777175903,0.7051993012428284,0.6850789785385132,0.9666481018066406,0.261567085981369,-0.494452565908432
46.75,1.004672646522522,0.8462458252906799,0.4444959759712219,0.5437950491905212,0.7251445651054382,-0.8227938413619995
46.8,0.1795882284641266,-0.5240278244018555,0.4644078314304352,-0.3981541395187378,1.1816799640655518,-0.6721449494361877
46.85,-0.5626001954078674,-0.04137614369392395,-0.26972857117652893,-0.3019377887248993,1.228528618812561,-0.2900655269622803
46.9,0.10200460255146027,1.420180320739746,-0.7124404311180115,-0.3396731913089752,0.8466769456863403,-0.06924363225698471
46.95,0.28971242904663086,1.1896867752075195,-0.6607289910316467,-0.8100045919418335,1.1622141599655151,-0.2772357761859894
47.0,-0.6617355346679688,-1.934190273284912,-0.10088717192411423,-0.4030877649784088,1.977049469947815,-0.3740004897117615
47.05,-2.4972198009490967,-3.389207124710083,-1.265078067779541,1.5685008764266968,2.151270866394043,0.13302816450595856
47.1,-1.5758318901062012,-0.5838385224342346,-1.7980830669403076,3.0116090774536133,1.013243317604065,0.7389234900474548
47.15,-1.0484954118728638,0.834073007106781,1.1320480108261108,2.299994707107544,0.3620147705078125,0.004841885529458523
47.2,-0.9099064469337463,2.4672327041625977,2.027303695678711,0.9545243978500366,0.4085451364517212,-0.24714155495166779
47.25,-0.4181472957134247,0.11757370829582214,0.6428367495536804,-0.16526353359222412,0.19472698867321014,-0.4057413935661316
47.3,-0.21660271286964417,0.16660211980342865,-0.020115243270993233,0.14152228832244873,-0.21544720232486725,-0.30077674984931946
47.35,0.21203257143497467,-0.04705237224698067,0.04581979662179947,0.2337159812450409,-0.7516167759895325,-0.5159937143325806
47.4,0.08512036502361298,0.3806600570678711,0.135074645280838,0.43926239013671875,-0.8588268160820007,-0.5112411975860596
47.45,0.34830552339553833,0.17949296534061432,0.33278077840805054,0.3120633661746979,-0.8519650101661682,-0.41576430201530457
47.5,0.5210000276565552,0.6359682679176331,-0.079117052257061,0.5983883738517761,-0.8313979506492615,-0.5039467215538025
47.55,0.021426629275083542,0.04231739416718483,-0.1046343743801117,0.35344433784484863,-0.8171957731246948,-0.32970112562179565
47.6,0.10727261006832123,0.6119832992553711,-0.17997631430625916,0.10171134024858475,-0.9725435376167297,-0.1839456558227539
