Time [s],Acc_x [m/s^2],Acc_y [m/s^2],Acc_z [m/s^2],Gyro_x [1/s],Gyro_y [1/s],Gyro_z [1/s]
0.0,-0.0011124331504106522,0.10122966766357422,0.0018570410320535302,0.0036935056559741497,0.012807543389499187,0.0020736318547278643
0.05,0.003288792911916971,0.10001373291015625,0.0052068582735955715,0.003691408084705472,0.011844616383314133,0.002336934907361865
0.1,0.035826753824949265,0.08625507354736328,0.01990967057645321,0.0034101952333003283,0.004307345952838659,0.0033803510013967752
0.15,0.05927526578307152,0.04127407446503639,0.03363959118723869,0.0028967983089387417,-0.0002911240153480321,-0.0019210276659578085
0.2,-0.00629454618319869,0.06381511688232422,0.02465943992137909,0.011833428405225277,0.0064974622800946236,5.586856423178688e-05
0.25,0.008555945940315723,0.11196708679199219,-0.0006078574224375188,0.008209656924009323,0.0036277135368436575,0.005064825061708689
0.3,0.036230310797691345,0.06194496527314186,0.006091966759413481,0.007929893210530281,-0.0026499154046177864,0.013043484650552273
0.35,0.007916582748293877,0.05935096740722656,-0.03195657581090927,0.014143280684947968,-0.006446807645261288,0.016417643055319786
0.4,0.02013038471341133,0.07984447479248047,-0.05760502815246582,0.012473502196371555,-0.0030945390462875366,0.0165104977786541
0.45,0.027365170419216156,0.09273242950439453,0.012694595381617546,0.004622944165021181,0.002243941416963935,0.017228689044713974
0.5,0.029158951714634895,0.0615997314453125,0.02879764884710312,0.004205671604722738,0.0032739199232310057,0.018511617556214333
0.55,0.02811126410961151,0.05226707458496094,-0.015050104819238186,0.01114610955119133,0.003990814555436373,0.014800529927015305
0.6,0.018768375739455223,0.021686555817723274,-0.009987390600144863,0.016024423763155937,0.007779864594340324,0.01792893558740616
0.65,0.029401853680610657,0.12515544891357422,-0.013647124171257019,0.02476198785007,0.001033659209497273,0.025110000744462013
0.7,0.05135651305317879,0.055517200380563736,0.0027100988663733006,0.013421107083559036,-0.01067348476499319,0.014871316961944103
0.75,0.030719032511115074,0.04103851318359375,0.02988271974027157,0.011617948301136494,-0.0037961925845593214,0.0055863261222839355
0.8,-0.03534472733736038,0.11109447479248047,0.013448650948703289,0.008778275921940804,0.0057080830447375774,0.004929497372359037
0.85,-0.02035614848136902,0.0944366455078125,-0.010502858087420464,0.004680846817791462,0.0012364299036562443,0.010858616791665554
0.9,0.04791048914194107,0.2841215133666992,0.0068802423775196075,0.0015335911884903908,-0.004007745534181595,0.01403484120965004
0.95,0.012265894562005997,1.1546030044555664,-0.209355890750885,-0.08139636367559433,-0.003733161138370633,0.032143138349056244
1.0,-0.10189594328403473,1.801823616027832,-0.6445198655128479,-0.5129812359809875,0.0013045233208686113,0.10582698881626129
1.05,-0.05347072333097458,0.3360557556152344,-0.5498978495597839,-1.089444637298584,-0.01688421703875065,0.21052318811416626
1.1,0.08984079957008362,-0.9143095016479492,0.2080688178539276,-1.1558253765106201,-0.03293425217270851,0.21259544789791107
1.15,0.15523545444011688,-1.422621726989746,0.8702288269996643,-0.7412688732147217,-0.07782834768295288,0.15858697891235352
1.2,-0.007586061954498291,-1.3008689880371094,1.057882308959961,-0.12993445992469788,-0.1693514585494995,0.07184392958879471
1.25,0.039138853549957275,-0.9687271118164062,0.8061022758483887,0.4318239092826843,-0.3318500816822052,0.04390319064259529
1.3,0.09160666167736053,-0.3957376480102539,0.32784387469291687,0.8602069020271301,-0.4509164094924927,0.052042607218027115
1.35,0.16947181522846222,0.6862688064575195,0.01596127822995186,0.9917402863502502,-0.4803897440433502,0.1308487355709076
1.4,0.3701544404029846,2.213076591491699,-0.2630261182785034,0.6733469367027283,-0.4163714349269867,0.2868930399417877
1.45,0.48789194226264954,1.6396894454956055,-0.5370769500732422,-0.1621984839439392,-0.26411446928977966,0.4338132441043854
1.5,0.3015105426311493,0.08620549738407135,-0.06807895749807358,-0.7255275249481201,-0.1151227205991745,0.43067049980163574
1.55,-0.11734791100025177,-0.7400074005126953,0.7578365206718445,-0.6975218057632446,-0.10096926987171173,0.3077473044395447
1.6,-1.0618888139724731,-1.1518069505691528,0.8507834076881409,-0.3337323069572449,-0.27952513098716736,0.1594206839799881
1.65,-2.5614757537841797,-1.549575924873352,0.3224509060382843,0.18669067323207855,-0.7965008020401001,0.15528526902198792
1.7,-2.7097830772399902,-1.3255473375320435,-0.621123194694519,0.7423369884490967,-1.7828749418258667,0.24564647674560547
1.75,-1.2557387351989746,-0.7574263215065002,-1.290136694908142,1.1489067077636719,-2.790931224822998,0.2802068293094635
1.8,0.5771275758743286,0.1830921620130539,-0.8090194463729858,1.3134926557540894,-3.257913827896118,0.24668382108211517
1.85,1.257440447807312,1.0426474809646606,-0.053938787430524826,1.223680853843689,-2.913191080093384,0.18417704105377197
1.9,0.8006294965744019,1.0990533828735352,0.26735633611679077,0.9036134481430054,-2.0847115516662598,0.10260962694883347
1.95,-0.10638561844825745,0.7458581924438477,0.05211370810866356,0.5526480674743652,-1.2672102451324463,0.042672574520111084
2.0,-0.7688456773757935,0.3773011863231659,-0.2509870231151581,0.2935827672481537,-0.7647053599357605,0.015742242336273193
2.05,-1.1085222959518433,0.20873349905014038,-0.20393194258213043,0.15492841601371765,-0.5625106692314148,0.0036835744976997375
2.1,-1.04445219039917,-0.10546785593032837,-0.0788319930434227,0.09873241186141968,-0.45325466990470886,0.001279274933040142
2.15,-0.983553409576416,-0.2898884415626526,-0.003064247313886881,0.09474314749240875,-0.31902825832366943,0.0572468601167202
2.2,-1.0464954376220703,-0.06770044565200806,0.10548093169927597,0.1010185033082962,-0.179367795586586,0.169968843460083
2.25,-0.8482483625411987,0.06041044741868973,0.21083195507526398,0.05792325362563133,-0.05394072085618973,0.23978081345558167
2.3,-0.8711791038513184,-0.005703981500118971,0.36528104543685913,0.0012014806270599365,0.12072068452835083,0.24202948808670044
2.35,-1.0646268129348755,0.05027669295668602,0.12607473134994507,-0.056867506355047226,0.2880280613899231,0.2500889003276825
2.4,-1.0702800750732422,0.00482076033949852,0.09342911839485168,-0.09519384801387787,0.38205981254577637,0.22624681890010834
2.45,-1.119048833847046,0.47876256704330444,0.5017931461334229,-0.07671801000833511,0.4589773416519165,0.1936129331588745
2.5,-1.0287305116653442,0.43729013204574585,0.695216178894043,-0.07953207194805145,0.5554532408714294,0.1666778177022934
2.55,-0.7851116061210632,-0.5609264969825745,0.5000869631767273,-0.11378098279237747,0.5945588946342468,0.17318207025527954
2.6,-0.3785611689090729,-0.748744010925293,0.5196430087089539,-0.07414909452199936,0.5191413760185242,0.24419963359832764
2.65,0.3734572231769562,-0.8983240127563477,0.3722444176673889,0.043303728103637695,0.4531112313270569,0.3112625479698181
2.7,0.8860110640525818,-0.16721053421497345,0.16632528603076935,0.22292983531951904,0.4096113443374634,0.5065217018127441
2.75,1.3369314670562744,0.4173927903175354,0.44616183638572693,0.26026859879493713,0.259172648191452,0.7228137850761414
2.8,1.6642656326293945,0.026820270344614983,0.608047604560852,0.22818103432655334,0.17021220922470093,0.6708657741546631
2.85,1.6882798671722412,-0.6148756742477417,0.4021259844303131,0.27524489164352417,0.21588310599327087,0.49838709831237793
2.9,1.4427958726882935,-0.18066684901714325,0.1407257467508316,0.3844833970069885,0.315106064081192,0.4569866955280304
2.95,0.8731769919395447,0.21466927230358124,0.033115025609731674,0.37887585163116455,0.3862375319004059,0.4488295614719391
3.0,0.43350064754486084,0.007891681045293808,-0.040649183094501495,0.2646086812019348,0.37306803464889526,0.3823198080062866
3.05,0.294129878282547,-0.04590604826807976,-0.05319419130682945,0.2195267677307129,0.26577380299568176,0.3448478579521179
3.1,0.11274360865354538,0.11168099194765091,0.09978226572275162,0.23266884684562683,0.1597408950328827,0.30006009340286255
3.15,-0.01415381208062172,-0.10712528228759766,0.2023959755897522,0.19236141443252563,0.06838144361972809,0.22526410222053528
3.2,0.03927599638700485,-0.32590293884277344,0.16290219128131866,0.1838972568511963,0.006558804772794247,0.15460462868213654
3.25,-0.042768944054841995,-0.07891274243593216,0.18132653832435608,0.2584723234176636,-0.005875322502106428,0.11328299343585968
3.3,-0.10634468495845795,-0.04038906842470169,0.11120332032442093,0.31925469636917114,0.014723065309226513,0.07694117724895477
3.35,-0.1749005913734436,0.007704723160713911,0.10297173261642456,0.3442189395427704,0.003810748690739274,0.08210933208465576
3.4,-0.20831675827503204,0.06879137456417084,0.23777934908866882,0.325586199760437,-0.06696045398712158,0.08227774500846863
3.45,-0.1004721075296402,-0.015057574957609177,0.41547396779060364,0.29753100872039795,-0.15895648300647736,0.03641320392489433
3.5,0.2364177405834198,-0.3319234848022461,0.34332963824272156,0.35697314143180847,-0.18110795319080353,-0.007699485402554274
3.55,0.4426555633544922,-0.4986543357372284,0.11390188336372375,0.4497208297252655,-0.0462123341858387,-0.044159550219774246
3.6,-0.11098538339138031,-0.04725170508027077,-0.08314619958400726,0.5276434421539307,0.18574368953704834,0.0025442130863666534
3.65,-0.4957498013973236,0.11744783073663712,-0.3798050880432129,0.4851091802120209,0.27707651257514954,0.021914223209023476
3.7,-0.6591698527336121,0.20329949259757996,-0.41277092695236206,0.4502321481704712,0.2535650134086609,0.02034757286310196
3.75,-0.6854940056800842,0.0583171509206295,-0.4335693120956421,0.3881447911262512,0.21237599849700928,-0.020343931391835213
3.8,-0.6210566759109497,-0.0999622642993927,-0.43133077025413513,0.3154146075248718,0.1498301774263382,-0.03281288221478462
3.85,-0.4820840656757355,-0.09391119331121445,-0.284645140171051,0.2748258113861084,0.07712124288082123,-0.008601359091699123
3.9,-0.2604912221431732,-0.00786687433719635,-0.031182512640953064,0.2552723288536072,0.028688590973615646,0.01288745366036892
3.95,-0.18965594470500946,0.03627394512295723,0.11335135996341705,0.2139405608177185,0.04269459471106529,0.028211181983351707
4.0,-0.20008152723312378,-0.1277456432580948,0.06037069112062454,0.1463579386472702,0.06483148038387299,0.04026813432574272
4.05,-0.12742090225219727,-0.1785726696252823,0.061150047928094864,0.11492062360048294,0.03320383280515671,0.04266435280442238
4.1,-0.09921153634786606,-0.14920520782470703,0.0941695049405098,0.13153691589832306,-0.006778633687645197,0.0343310721218586
4.15,-0.03131456300616264,-0.04349422827363014,0.12535381317138672,0.15640076994895935,-0.022539516910910606,0.037622835487127304
4.2,-0.04930943250656128,0.0732870027422905,0.1340063512325287,0.13225942850112915,-0.009021520614624023,0.041726429015398026
4.25,-0.03144366294145584,-0.03306293860077858,0.048995036631822586,0.07525835931301117,0.0031340664718300104,0.03493339195847511
4.3,-0.04033276066184044,-0.021450044587254524,0.006409483030438423,0.05749260634183884,0.007102121599018574,0.032431937754154205
4.35,-0.032079145312309265,0.009104725904762745,0.0347151942551136,0.05331891402602196,0.02022910676896572,0.03478860855102539
4.4,0.031017784029245377,0.10051250457763672,0.01782599277794361,0.04707976430654526,0.03652283549308777,0.03094632737338543
4.45,0.012274105101823807,0.16944122314453125,0.01489219069480896,0.028298642486333847,0.04047459363937378,0.013192554004490376
4.5,0.016244325786828995,0.002440451178699732,0.17756471037864685,-0.023442460224032402,0.04636682569980621,-0.012552080675959587
4.55,-0.018730979412794113,-0.22493267059326172,0.059876445680856705,-0.06716448068618774,0.09028009325265884,-0.024375522509217262
4.6,-0.1954469233751297,-0.22755147516727448,-0.11933550983667374,-0.05406712740659714,0.14319005608558655,-0.019494572654366493
4.65,-0.3666652739048004,-0.10847951471805573,-0.25858399271965027,-0.011469648219645023,0.13617870211601257,-0.03692547231912613
4.7,-0.29162272810935974,-0.08460523188114166,-0.09533333033323288,-0.0018793363124132156,0.040628448128700256,-0.08255977183580399
4.75,0.038508880883455276,-0.2787656784057617,0.012895718216896057,-0.030625462532043457,-0.06411410868167877,-0.11626871675252914
4.8,0.30159273743629456,-0.3104982078075409,0.004925113171339035,-0.03437703847885132,-0.0681476816534996,-0.08586711436510086
4.85,0.17920319736003876,-0.012652385979890823,-0.04024896025657654,-0.006986677646636963,0.0028766647446900606,-0.017688626423478127
4.9,-0.01610584557056427,0.18819046020507812,-0.027302335947752,-0.01497760508209467,0.0509825274348259,0.006736000534147024
4.95,-0.03311971202492714,0.11992549896240234,-0.01429150439798832,-0.04999508708715439,0.014973310753703117,-0.04471079260110855
5.0,-0.06492005288600922,-0.02542019449174404,0.11570858955383301,-0.06675124168395996,-0.023322921246290207,-0.10986683517694473
5.05,-0.03569868952035904,-0.37537384033203125,0.1021367684006691,-0.07446252554655075,-0.01868855394423008,-0.14140565693378448
5.1,0.01128990389406681,-0.5256452560424805,-0.00614034803584218,-0.03352496773004532,-0.005588718224316835,-0.10652168840169907
5.15,-0.038039565086364746,-0.3451957702636719,0.05132848769426346,0.03079209290444851,0.010982612147927284,-0.013304258696734905
5.2,-0.05521289259195328,-0.2767324447631836,-0.019227223470807076,0.0594923309981823,0.03680909797549248,0.04544675722718239
5.25,-0.09143512696027756,-0.13522815704345703,0.06826283782720566,0.06518696248531342,0.006914618890732527,0.0496482327580452
5.3,-0.01583566702902317,-0.23982620239257812,-0.0037731004413217306,0.03242440149188042,-0.025037208572030067,0.009228460490703583
5.35,0.018518369644880295,-0.23722076416015625,-0.022962519899010658,0.0339650921523571,-0.0606192909181118,-0.005254506599158049
5.4,0.03973982855677605,-0.10993194580078125,0.026326999068260193,0.05801574885845184,-0.09421052038669586,-0.004482371732592583
5.45,0.06955008953809738,0.03968334570527077,0.06733106821775436,0.057115714997053146,-0.0944998562335968,-0.00836755521595478
5.5,0.07455349713563919,0.06987857818603516,0.07917267084121704,0.029107673093676567,-0.07144322246313095,-0.019261352717876434
5.55,0.04422186687588692,0.05061245337128639,-0.025227831676602364,-0.006647504400461912,-0.03493146225810051,-0.026745149865746498
5.6,0.03695676848292351,0.03289986029267311,-0.03772489354014397,-0.02569766715168953,-0.035525523126125336,-0.04344094544649124
5.65,0.09850332140922546,0.06632328778505325,-0.021029045805335045,-0.02091347798705101,-0.060074858367443085,-0.10019659996032715
5.7,0.12201324105262756,0.08794403821229935,-0.012286664918065071,-0.01893644407391548,-0.09996411204338074,-0.1705329269170761
5.75,0.1996547430753708,0.09361840039491653,0.08799969404935837,-0.01254328340291977,-0.17976915836334229,-0.23605266213417053
5.8,0.2634824812412262,0.050668731331825256,0.1653323918581009,-0.012827221304178238,-0.19238516688346863,-0.2907838821411133
5.85,0.14896924793720245,-0.015330307185649872,0.06849750131368637,-0.04314860701560974,-0.11581417918205261,-0.29627496004104614
5.9,-0.1105363517999649,-0.11249066144227982,-0.06390130519866943,-0.07172687351703644,-0.048729486763477325,-0.30434566736221313
5.95,-0.2940394878387451,-0.27523040771484375,-0.20334652066230774,-0.08189523965120316,-0.027406394481658936,-0.34749603271484375
6.0,-0.35480281710624695,-0.42389681935310364,-0.16500522196292877,-0.08799504488706589,-0.053584299981594086,-0.3721937835216522
6.05,-0.4082687795162201,-0.41356948018074036,0.029721548780798912,-0.0695505440235138,-0.02509322017431259,-0.36275869607925415
6.1,-0.5398726463317871,-0.19556143879890442,0.17983828485012054,-0.02938656508922577,0.08203273266553879,-0.29288196563720703
6.15,-0.5158806443214417,-0.13947203755378723,0.10868115723133087,-0.046657662838697433,0.19681355357170105,-0.18322023749351501
6.2,-0.295722097158432,-0.36268237233161926,-0.16298247873783112,-0.14114844799041748,0.26506879925727844,-0.07428787648677826
6.25,-0.17850054800510406,-0.161958709359169,-0.05781060457229614,-0.18949982523918152,0.30428221821784973,-0.0016983342356979847
6.3,-0.27860093116760254,-0.15665246546268463,0.09062884747982025,-0.1808963567018509,0.3819693922996521,-0.0097188800573349
6.35,-0.24895432591438293,-0.5441503524780273,-0.3024972677230835,-0.16654285788536072,0.4589172303676605,0.01013942714780569
6.4,-0.04972638189792633,-0.35138607025146484,-0.5820769667625427,-0.12890781462192535,0.3377382755279541,0.1672108769416809
6.45,0.2241557538509369,0.050933852791786194,-0.1583767682313919,-0.11798681318759918,0.05349871143698692,0.2694823443889618
6.5,0.4443841278553009,-0.05284116417169571,0.22166278958320618,-0.13429534435272217,-0.09202715009450912,0.16139303147792816
6.55,0.5533963441848755,-0.28999611735343933,0.2220354825258255,-0.10643814504146576,-0.07744158059358597,0.03842674195766449
6.6,0.4705217480659485,-0.27440640330314636,0.12427713721990585,-0.04544331878423691,-0.04203635826706886,0.020862514153122902
6.65,0.21482665836811066,-0.1904458850622177,0.04076133668422699,0.0027772155590355396,0.03418197110295296,0.03150199353694916
6.7,-0.0105661666020751,-0.21968650817871094,-0.0036078018601983786,0.009310534223914146,0.0719434842467308,0.05824604257941246
6.75,-0.04757501184940338,-0.3053293228149414,-0.03067626804113388,0.021806849166750908,0.060115572065114975,0.10055987536907196
6.8,-0.0005687447264790535,-0.20502090454101562,-0.03619997575879097,0.07843756675720215,0.01209262665361166,0.1467488408088684
6.85,0.010098139755427837,0.025604248046875,0.03699374943971634,0.14886993169784546,-0.04376813769340515,0.1589372605085373
6.9,0.08391721546649933,0.1268930435180664,0.11517981439828873,0.16321630775928497,-0.07136394828557968,0.12743470072746277
6.95,0.051392123103141785,0.03950214758515358,0.06547610461711884,0.12488288432359695,-0.04072508215904236,0.09305016696453094
7.0,0.00950278714299202,0.002882957924157381,0.013135574758052826,0.0960807278752327,0.008105888031423092,0.08915277570486069
7.05,-0.013726899400353432,-0.06491565704345703,0.03256341442465782,0.08563319593667984,0.014024280942976475,0.09409152716398239
7.1,-0.055918674916028976,-0.10095883160829544,0.05751335993409157,0.07836964726448059,0.00451435474678874,0.08442708104848862
7.15,-0.0468904934823513,-0.18457508087158203,0.011543028056621552,0.07542760670185089,-0.01752791926264763,0.048528991639614105
7.2,-0.005745645146816969,-0.1137533187866211,0.036727771162986755,0.11208390444517136,-0.05404187738895416,0.010660854168236256
7.25,0.019871339201927185,0.032753944396972656,0.06802133470773697,0.13818831741809845,-0.062418363988399506,-0.011665310710668564
7.3,0.008106463588774204,-0.006610870826989412,0.08147314935922623,0.10931366682052612,-0.03420775383710861,-0.011979772709310055
7.35,-0.044355008751153946,-0.07120037078857422,0.03357439115643501,0.06552639603614807,-0.038755081593990326,0.009993291459977627
7.4,0.009744437411427498,-0.07542896270751953,0.0463997982442379,0.04533085227012634,-0.06867308914661407,0.0316607765853405
7.45,0.07586614787578583,-0.12901592254638672,0.12319836765527725,0.037218522280454636,-0.06154391169548035,0.05183280631899834
7.5,0.042194440960884094,-0.09034156799316406,0.11992330104112625,0.019948046654462814,-0.007720585912466049,0.09504668414592743
7.55,-0.0353243462741375,-0.03818989172577858,-0.005751692224293947,-0.0066154636442661285,0.036593448370695114,0.11792280524969101
7.6,-0.11958825588226318,-0.047801025211811066,-0.03675710782408714,-0.0013967184349894524,0.03132475167512894,0.06721030920743942
7.65,-0.05755046755075455,-0.09264469146728516,-0.0026903701946139336,0.026126984506845474,-0.004567687399685383,-0.016384856775403023
7.7,-0.014433149248361588,-0.12044811248779297,0.020359501242637634,0.05056290328502655,-0.03036060929298401,-0.061787914484739304
7.75,0.01646047830581665,-0.16652965545654297,0.06923467665910721,0.045318007469177246,-0.006210096646100283,-0.05211435258388519
7.8,0.03052680566906929,-0.14074420928955078,0.049651142209768295,0.028794223442673683,0.021754752844572067,-0.016524091362953186
7.85,-0.033425215631723404,-0.17056560516357422,0.005955084227025509,0.018637729808688164,0.007365070283412933,-0.004520646762102842
7.9,0.051904622465372086,-0.24829769134521484,0.03500818461179733,0.02192673087120056,-0.02802998200058937,0.005102680064737797
7.95,0.07837970554828644,-0.26633358001708984,0.0507570244371891,0.04581683874130249,-0.023202480748295784,0.0409248061478138
8.0,0.003061321098357439,-0.1570301055908203,0.026390932500362396,0.06954008340835571,0.008498520590364933,0.06845058500766754
8.05,-0.0014529654290527105,-0.059660911560058594,0.01383531466126442,0.07850675284862518,0.04564112797379494,0.060622211545705795
8.1,-0.00631164712831378,-0.053890228271484375,0.018819142132997513,0.06770790368318558,0.07405905425548553,0.04904450103640556
8.15,-0.029709650203585625,-0.16533946990966797,0.039953943341970444,0.04042740911245346,0.08022826164960861,0.04850326105952263
8.2,-0.03784364461898804,-0.26990604400634766,0.025930462405085564,0.025921082124114037,0.09409045428037643,0.061566658318042755
8.25,-0.022232921794056892,-0.15154552459716797,0.019815905019640923,0.03837156295776367,0.1062559112906456,0.09857731312513351
8.3,-0.08103976398706436,-0.04409504309296608,0.0142447454854846,0.03477517515420914,0.09558933973312378,0.11468701809644699
8.35,-0.07640958577394485,-0.04773617163300514,0.017745109274983406,0.02198304794728756,0.04540769383311272,0.08409035205841064
8.4,-0.03318016976118088,-0.10430622100830078,0.019569700583815575,0.030031515285372734,-0.01876193843781948,0.017817314714193344
8.45,0.050496507436037064,-0.1755685806274414,0.03007979691028595,0.041523076593875885,-0.053913846611976624,-0.03963645175099373
8.5,0.06196150928735733,-0.19553852081298828,0.0022365334443747997,0.043623071163892746,-0.0435955710709095,-0.041610393673181534
8.55,0.029284026473760605,-0.0963735580444336,0.0178376454859972,0.04875488206744194,-0.019833337515592575,-0.0208135899156332
8.6,-0.021085407584905624,0.008442876860499382,0.029601730406284332,0.042803045362234116,-0.020767712965607643,-0.018567940220236778
8.65,-0.009061651304364204,0.0075359339825809,0.009427440352737904,0.021366793662309647,-0.03507125750184059,-0.03484442085027695
8.7,0.020193912088871002,-0.07738971710205078,-0.01863187551498413,-0.003958540968596935,-0.04308316484093666,-0.03495262190699577
8.75,-0.015357853844761848,-0.16713333129882812,-0.020113397389650345,-0.02088366635143757,-0.02615782991051674,-0.022631430998444557
8.8,-0.006327404640614986,-0.22432994842529297,0.007056690286844969,-0.02509547583758831,-0.0025925820227712393,-0.019747182726860046
8.85,0.009795710444450378,-0.17913532257080078,0.014919132925570011,-0.00784938782453537,0.01059676893055439,-0.018558090552687645
8.9,0.06638458371162415,-0.08994197100400925,0.0016541306395083666,0.008944479748606682,0.011640358716249466,-0.03253299370408058
8.95,-0.022243356332182884,-0.12102127075195312,0.013555311597883701,0.0001141037791967392,0.00489457044750452,-0.07120963931083679
9.0,0.06887327879667282,-0.16505908966064453,-0.020675620064139366,-0.020708411931991577,0.007640603929758072,-0.09881403297185898
9.05,0.10612870752811432,-0.16775226593017578,0.06816940754652023,-0.03447217121720314,0.012749818153679371,-0.09813708811998367
9.1,0.12030857801437378,-0.1922626495361328,0.07667261362075806,-0.04726658761501312,0.028376441448926926,-0.08213701844215393
9.15,0.08046559989452362,-0.18027210235595703,-0.00799643062055111,-0.053100112825632095,0.06757298111915588,-0.05983124300837517
9.2,0.06282827258110046,-0.17618465423583984,-0.08330787718296051,-0.033208221197128296,0.10435198247432709,-0.044816967099905014
9.25,-0.07030290365219116,-0.051074981689453125,-0.19202715158462524,0.005651264451444149,0.1288832426071167,-0.0601445697247982
9.3,-0.07778279483318329,0.013780591078102589,-0.1535736471414566,0.029833011329174042,0.12154774367809296,-0.10741624236106873
9.35,0.04257289320230484,0.04360103979706764,0.010764878243207932,0.014823513105511665,0.09452934563159943,-0.13777172565460205
9.4,0.09014257043600082,-0.1314840316772461,-0.07668779045343399,-0.02917906641960144,0.10344187915325165,-0.12001914530992508
9.45,0.0162678062915802,-0.2655172348022461,-0.03118831105530262,-0.0446525402367115,0.12265211343765259,-0.04228682070970535
9.5,-0.03742840513586998,-0.32068729400634766,0.021546736359596252,-0.0503719300031662,0.11859142780303955,0.04455126076936722
9.55,-0.03926820680499077,-0.23038768768310547,-0.09104038774967194,-0.02047724835574627,0.09233816713094711,0.0894097089767456
9.6,-0.0414307527244091,0.26334381103515625,0.0226738303899765,0.05437745898962021,0.05109149217605591,0.08067318797111511
9.65,0.0544821172952652,0.7097015380859375,0.12817294895648956,0.035043708980083466,0.007645873818546534,0.02940448559820652
9.7,0.19222110509872437,0.6360883712768555,0.13443560898303986,-0.08773429691791534,0.012265386991202831,-0.023501265794038773
9.75,0.2470872402191162,0.28959086537361145,-0.07537690550088882,-0.1685916930437088,0.07481249421834946,-0.01292519923299551
9.8,0.0495818592607975,0.17293739318847656,-0.14532285928726196,-0.17288830876350403,0.1637917309999466,0.05639642849564552
9.85,-0.2596781253814697,-0.09981824457645416,0.08461634069681168,-0.20569074153900146,0.20860105752944946,0.12665720283985138
9.9,-0.508951723575592,-0.6149111390113831,0.38242262601852417,-0.2858998477458954,0.18116489052772522,0.15696923434734344
9.95,-0.5565387010574341,-0.9838247895240784,0.4186011254787445,-0.29758965969085693,0.12588940560817719,0.13144205510616302
10.0,-0.4059802293777466,-0.9391460418701172,0.1409962922334671,-0.18992844223976135,0.061655960977077484,0.08001068234443665
10.05,-0.17773056030273438,-0.33600902557373047,-0.05059860274195671,-0.020113399252295494,0.009291497990489006,0.04586097225546837
10.1,-0.04215371608734131,0.25460052490234375,-0.0141289122402668,0.05600081756711006,-0.04758771136403084,0.02903633937239647
10.15,-0.04947546869516373,0.20852184295654297,-0.0026633560191839933,0.007552423048764467,-0.0980011522769928,0.003687086747959256
10.2,-0.006681881844997406,-0.35353565216064453,-0.11131872981786728,-0.04694640263915062,-0.10537338256835938,-0.015438088215887547
10.25,-0.051260702311992645,-0.2529325485229492,-0.06711529940366745,0.030174151062965393,-0.13502931594848633,0.023068297654390335
10.3,0.049274567514657974,0.032874107360839844,0.14849525690078735,0.09160257875919342,-0.20601987838745117,0.05434584245085716
10.35,0.161769837141037,-0.1638174057006836,0.2758960425853729,0.03874955326318741,-0.1956670582294464,0.04498865082859993
10.4,0.10752300173044205,-0.5444364547729492,0.40999558568000793,-0.017991021275520325,-0.12219471484422684,0.06323175132274628
10.45,-0.01701797917485237,-0.7752647399902344,0.22733043134212494,-0.012286724522709846,-0.04662439599633217,0.12015774101018906
10.5,-0.0812670886516571,-0.5306358337402344,0.04188528656959534,0.07798083871603012,-0.027724040672183037,0.16952656209468842
10.55,-0.0040305424481630325,-0.12177276611328125,-0.03572029992938042,0.17185428738594055,-0.08200232684612274,0.15531215071678162
10.6,0.03353175148367882,0.10732364654541016,0.07783813774585724,0.21355220675468445,-0.1051747053861618,0.09002547711133957
10.65,0.012716289609670639,0.052597999572753906,0.07087238132953644,0.179293692111969,-0.06910569965839386,0.0332987904548645
10.7,0.014716314151883125,0.026534080505371094,0.08959927409887314,0.13715901970863342,-0.02646578475832939,0.04953158646821976
10.75,-0.03130089491605759,0.16370010375976562,-0.010289744473993778,0.11261793971061707,0.004778600297868252,0.08079656958580017
10.8,-0.0051124137826263905,0.2888050079345703,0.02030201628804207,0.0872403234243393,-0.0038702418096363544,0.054954901337623596
10.85,0.013648821972310543,0.27542781829833984,-0.00471196323633194,0.03696219250559807,-0.017815912142395973,0.003479096805676818
10.9,0.042653247714042664,0.14832496643066406,-0.0301454309374094,-0.03375452011823654,-0.02063102088868618,-0.025558294728398323
10.95,0.08938959985971451,0.0787658765912056,-0.06646200269460678,-0.090291827917099,0.002122773788869381,-0.04789373651146889
11.0,0.03290640562772751,0.04550362005829811,-0.039076242595911026,-0.11983766406774521,0.041298042982816696,-0.05777870491147041
11.05,-0.09781433641910553,-0.08215046674013138,-0.04503309354186058,-0.16073554754257202,0.06245673447847366,-0.05998293310403824
11.1,-0.1717064082622528,-0.2348499447107315,-0.05447207763791084,-0.17856237292289734,0.03628434240818024,-0.07124301791191101
11.15,-0.25077927112579346,-0.2955637276172638,0.14260946214199066,-0.15290234982967377,-0.009404212236404419,-0.09116081148386002
11.2,-0.23295916616916656,-0.5828237533569336,0.2039547562599182,-0.13946841657161713,-0.03411709889769554,-0.11923156678676605
11.25,0.004469732288271189,-0.8528957366943359,0.01785287633538246,-0.09453818202018738,-0.07400981336832047,-0.09267095476388931
11.3,0.39441341161727905,-0.47285744547843933,-0.23547878861427307,0.03456118330359459,-0.09125766158103943,0.016010217368602753
11.35,0.35454657673835754,0.425627738237381,-0.16596147418022156,0.14489249885082245,-0.027388595044612885,0.12273351848125458
11.4,0.001648416742682457,0.7380924224853516,0.0816664770245552,0.06701857596635818,0.027665602043271065,0.11635768413543701
11.45,-0.02072080411016941,-0.02526283450424671,-0.017060408368706703,-0.09075134247541428,0.03146016225218773,0.013632122427225113
11.5,0.006874449551105499,-0.4538908004760742,-0.03139861300587654,-0.08275454491376877,0.01828373596072197,-0.04541342705488205
11.55,-0.0015231757424771786,-0.3368072509765625,0.017466211691498756,0.00825625192373991,0.009674372151494026,-0.0695207267999649
11.6,-0.02247953787446022,-0.2859640121459961,0.03716379776597023,0.06354627013206482,0.005107221659272909,-0.09067594259977341
11.65,0.0434284582734108,-0.2459554672241211,0.032115496695041656,0.07210336625576019,0.02259802259504795,-0.0792800635099411
11.7,-0.021057704463601112,-0.13360595703125,0.039734333753585815,0.05946695804595947,0.06582793593406677,-0.032402053475379944
11.75,-0.06719138473272324,-0.00523662893101573,-0.032077256590127945,0.03691517561674118,0.08653241395950317,0.014686069451272488
11.8,-0.08765412867069244,0.12344454973936081,-0.04414597153663635,0.001308852806687355,0.06893245875835419,0.048541564494371414
11.85,-0.08172580599784851,0.096800796687603,-0.015223721042275429,-0.04421986639499664,0.030351022258400917,0.05085199326276779
11.9,-0.04717404395341873,-0.14545154571533203,-0.003501015016809106,-0.07322341203689575,-0.033517226576805115,0.01066472940146923
11.95,0.11099451780319214,-0.3071317672729492,0.05065421760082245,-0.06169222667813301,-0.08920204639434814,-0.030932867899537086
12.0,0.27289220690727234,-0.3164777457714081,0.06960021704435349,-0.03948193043470383,-0.08974495530128479,-0.029429297894239426
12.05,0.35764405131340027,-0.20656870305538177,0.04904397949576378,-0.025455676019191742,-0.05256252735853195,0.017203439027071
12.1,0.19972053170204163,0.02914334461092949,0.006099985912442207,-0.022510608658194542,0.02572321705520153,0.07794072479009628
12.15,-0.07698863744735718,0.06489372253417969,-0.0859980434179306,-0.06955897808074951,0.09168095886707306,0.09621483832597733
12.2,-0.21313045918941498,-0.13205434381961823,-0.12813177704811096,-0.09795932471752167,0.050448618829250336,0.0285372082144022
12.25,-0.11143075674772263,-0.34740734100341797,-0.027825135737657547,-0.03931208327412605,-0.03923472389578819,-0.08201009035110474
12.3,0.026561632752418518,-0.3777923583984375,0.044604696333408356,0.03987474739551544,-0.0792149007320404,-0.14320051670074463
12.35,0.022220030426979065,-0.18155670166015625,0.052564650774002075,0.08070053160190582,-0.060099538415670395,-0.11776428669691086
12.4,-0.006263662129640579,0.01648235134780407,0.04227045923471451,0.06879949569702148,-0.04088640958070755,-0.039180390536785126
12.45,0.013829383067786694,0.08565044403076172,0.014988967217504978,0.0008863601833581924,-0.03810707479715347,0.03829465061426163
12.5,0.4275466501712799,0.008173010312020779,0.2732588052749634,-0.13977260887622833,-0.016279730945825577,0.1773938536643982
12.55,0.4553462266921997,-0.12008378654718399,0.3237024247646332,-0.36645975708961487,0.13668331503868103,0.5086574554443359
12.6,-0.3252527117729187,-0.24239064753055573,-0.12983037531375885,-0.5260039567947388,0.3191649615764618,0.7979530096054077
12.65,-0.7891829013824463,-0.3551826775074005,-0.3584921360015869,-0.45128732919692993,0.3002176284790039,0.7191576957702637
12.7,-0.6838520169258118,-0.41799357533454895,-0.2960514724254608,-0.21856790781021118,0.10274730622768402,0.3839157819747925
12.75,-0.25910311937332153,-0.28021717071533203,-0.17282557487487793,0.04266265779733658,-0.09479797631502151,0.028125261887907982
12.8,0.054587140679359436,-0.030365940183401108,-0.09806887805461884,0.22172929346561432,-0.17719991505146027,-0.2011743038892746
12.85,0.173806831240654,0.1552438884973526,0.11283385008573532,0.2545214891433716,-0.21918417513370514,-0.254544198513031
12.9,0.2867974042892456,0.08950330317020416,0.26411306858062744,0.1696922332048416,-0.24325430393218994,-0.22675900161266327
12.95,0.2879648804664612,-0.1791229099035263,0.17017637193202972,0.0846511721611023,-0.16859270632266998,-0.2019379585981369
13.0,0.1594165563583374,-0.3104820251464844,0.05221331864595413,0.06787019222974777,-0.05216750502586365,-0.16386030614376068
13.05,0.07842136919498444,-0.2192239761352539,0.0012710224837064743,0.07627290487289429,0.039443254470825195,-0.11422818899154663
13.1,-0.029234718531370163,-0.1127157211303711,-0.03763546794652939,0.06483016163110733,0.08264455944299698,-0.07436081022024155
13.15,-0.10778748989105225,-0.130340576171875,-0.0305703803896904,0.04376222565770149,0.07305297255516052,-0.066318579018116
13.2,-0.1158149391412735,-0.20842552185058594,0.013965458609163761,0.04174701124429703,0.04478468745946884,-0.08941783010959625
13.25,0.012312688864767551,-0.3027687072753906,0.037767816334962845,0.05960490554571152,-0.007591309491544962,-0.10889794677495956
13.3,0.061846114695072174,-0.2880563735961914,0.050191860646009445,0.09218291938304901,-0.05982140451669693,-0.10152553021907806
13.35,0.05495874211192131,-0.18272686004638672,0.11794806271791458,0.11444887518882751,-0.06569699198007584,-0.07721585035324097
13.4,0.028216073289513588,-0.17188453674316406,0.08871221542358398,0.09679625183343887,-0.04673483967781067,-0.045686375349760056
13.45,-0.03278247267007828,-0.17232799530029297,0.018098339438438416,0.0689598023891449,-0.030961599200963974,-0.0037762420251965523
13.5,-0.008368471637368202,-0.16445350646972656,0.032496869564056396,0.05215170234441757,-0.011485854163765907,0.03343861550092697
13.55,-0.04105716198682785,-0.19392108917236328,0.025488130748271942,0.04992818832397461,-0.002874562982469797,0.050730008631944656
13.6,-0.06978929042816162,-0.13845443725585938,0.005843558348715305,0.07107161730527878,-0.027873093262314796,0.04304003715515137
13.65,0.013150705024600029,-0.040711402893066406,0.009449905715882778,0.08646554499864578,-0.039081376045942307,0.020571177825331688
13.7,-0.01580561324954033,-0.002434731461107731,0.009305949322879314,0.07140427827835083,-0.012811821885406971,0.009461453184485435
13.75,-0.07166765630245209,-0.07465077191591263,0.015283770859241486,0.04270032048225403,0.008381092920899391,0.003969954792410135
13.8,-0.03845786303281784,-0.22679424285888672,0.022486895322799683,0.02762957103550434,-0.011942136101424694,-0.011645602062344551
13.85,-0.0003346116282045841,-0.2646036148071289,0.030680930241942406,0.04734572023153305,-0.05412502959370613,-0.017038535326719284
13.9,-0.05529897287487984,-0.1749248504638672,0.03977007418870926,0.0660971850156784,-0.05921811982989311,-0.008339786902070045
13.95,-0.010367603041231632,-0.15665531158447266,0.009820082224905491,0.052692484110593796,-0.06632805615663528,0.002101862570270896
14.0,-0.009623694233596325,-0.20507335662841797,0.000491438084281981,0.04283019155263901,-0.09987111389636993,-0.015256322920322418
14.05,0.0336240753531456,-0.12004947662353516,0.02790668234229088,0.06198600307106972,-0.10681912302970886,-0.03925140202045441
14.1,0.08324289321899414,-0.02451133355498314,0.025079254060983658,0.08159337937831879,-0.07963671535253525,-0.0364777110517025
14.15,0.03900190070271492,-0.03032970242202282,-0.011482814326882362,0.07271824777126312,-0.053178343921899796,-0.04194116219878197
14.2,0.013801086694002151,-0.07587718963623047,0.06130291149020195,0.0540647879242897,-0.03841913491487503,-0.05864090472459793
14.25,0.048182304948568344,-0.16678905487060547,0.011793362908065319,0.04170482978224754,-0.02979135327041149,-0.06559343636035919
14.3,-0.03331400826573372,-0.3155994415283203,0.02582237496972084,0.029976043850183487,-0.022458508610725403,-0.05712701380252838
14.35,0.011084970086812973,-0.31566905975341797,-0.029349179938435555,0.04140328988432884,-0.005511428229510784,-0.02481694705784321
14.4,-0.020250216126441956,0.012948034331202507,0.043333783745765686,0.0838739275932312,-0.001188988913781941,0.02130056545138359
14.45,-0.029003120958805084,0.21581745147705078,0.09381701797246933,0.08063282817602158,-0.02361045777797699,0.00296533340588212
14.5,0.02270844578742981,0.021416665986180305,0.02564159594476223,0.03140312805771828,-0.03679637610912323,-0.06654801219701767
14.55,0.040036898106336594,-0.22567272186279297,0.006552742328494787,0.002507045865058899,-0.026736142113804817,-0.09214070439338684
14.6,0.0063226912170648575,-0.29965877532958984,0.0166655071079731,0.004267696291208267,-0.031242432072758675,-0.07545968890190125
14.65,-0.030393216758966446,-0.17570018768310547,0.03823991119861603,0.02280014008283615,-0.05967433750629425,-0.04404717683792114
14.7,0.059094734489917755,-0.056708335876464844,0.15474477410316467,0.023695236071944237,-0.08362280577421188,-0.002949280198663473
14.75,0.1102503091096878,-0.18033695220947266,0.08754068613052368,-0.0052996110171079636,-0.0747184306383133,0.013516811653971672
14.8,0.09742109477519989,-0.14409923553466797,-0.06413387507200241,0.012254307977855206,-0.046900831162929535,0.017083177343010902
14.85,0.02836483344435692,0.20348644256591797,-0.052287809550762177,0.06119436398148537,-0.025295710191130638,0.018689969554543495
14.9,0.014064367860555649,0.2687540054321289,-0.016199713572859764,0.030848242342472076,-0.014316733926534653,-0.036444082856178284
14.95,-0.02825300768017769,0.08964824676513672,-0.10071057081222534,-0.03290904313325882,-0.013318837620317936,-0.10372010618448257
15.0,0.003322102129459381,-0.007740972563624382,-0.11806076765060425,-0.055022045969963074,-0.035419151186943054,-0.1274215579032898
15.05,0.05525074154138565,-0.08564471453428268,-0.04171539098024368,-0.07880782335996628,-0.06618285179138184,-0.12364371865987778
15.1,0.1577221155166626,-0.18943308293819427,-0.07527478039264679,-0.11430233716964722,-0.07358834147453308,-0.09628360718488693
15.15,0.13711366057395935,0.07001020014286041,-0.258843332529068,-0.06741860508918762,-0.029586944729089737,-0.06658872216939926
15.2,0.0599651038646698,0.7446355819702148,-0.03401852771639824,-0.01723889634013176,-0.007875096052885056,-0.038356877863407135
15.25,-0.00848424807190895,0.5908041000366211,0.15335221588611603,-0.1578119397163391,0.000489172525703907,-0.056407660245895386
15.3,0.10477522760629654,-0.19789409637451172,0.4340600073337555,-0.3231601417064667,-0.028968052938580513,-0.11500385403633118
15.35,0.12504471838474274,-0.5617103576660156,0.5728495717048645,-0.3140295147895813,-0.017201339825987816,-0.1724487841129303
15.4,-0.23868601024150848,-0.6082744598388672,0.115378238260746,-0.22479140758514404,0.08560073375701904,-0.22122064232826233
15.45,-0.28748080134391785,-0.4073343276977539,-0.18663418292999268,-0.13696017861366272,0.06277043372392654,-0.22484374046325684
15.5,0.07487427443265915,-0.08275698870420456,-0.012445752508938313,-0.06925730407238007,-0.05971262976527214,-0.19982300698757172
15.55,0.31594645977020264,0.04856778681278229,0.285776287317276,-0.07664775848388672,-0.06182723864912987,-0.178034245967865
15.6,0.20534749329090118,-0.1622457355260849,0.2390020340681076,-0.16232362389564514,0.07890976965427399,-0.1513560712337494
15.65,-0.03723076358437538,-0.3630685806274414,-0.0630994662642479,-0.20824351906776428,0.230465367436409,-0.09836789965629578
15.7,-0.1564899981021881,-0.29193687438964844,-0.13076847791671753,-0.16638438403606415,0.25420084595680237,-0.050606030970811844
15.75,-0.01387745887041092,-0.20276737213134766,-0.027586335316300392,-0.10676541179418564,0.15874993801116943,-0.0699857771396637
15.8,0.49543675780296326,-0.27037522196769714,0.0778043270111084,-0.08117826282978058,0.047465529292821884,-0.1008775383234024
15.85,0.8842837810516357,-0.1460694819688797,0.1684849113225937,-0.04458661004900932,0.07150553166866302,-0.07349485158920288
15.9,0.460332989692688,0.15024760365486145,-0.013696787878870964,-0.028825262561440468,0.31177857518196106,-0.03461116552352905
15.95,-0.23934394121170044,0.07518290728330612,-0.24683654308319092,-0.10306839644908905,0.5027651786804199,-0.023299885913729668
16.0,-0.5886525511741638,-0.27997973561286926,-0.11799565702676773,-0.16957657039165497,0.46352943778038025,-0.07587471604347229
16.05,-0.4304004907608032,-0.6421012878417969,0.05679219588637352,-0.13482551276683807,0.34185054898262024,-0.20170754194259644
16.1,0.0997585654258728,-0.6573667526245117,0.04283865913748741,-0.013667169958353043,0.24770455062389374,-0.24949967861175537
16.15,0.34133899211883545,-0.31534668803215027,-0.11624910682439804,0.10757419466972351,0.27333080768585205,-0.16355934739112854
16.2,0.007487233728170395,0.2309885025024414,-0.2388535439968109,0.15977075695991516,0.3761031925678253,-0.07084556668996811
16.25,-0.17492783069610596,0.35613250732421875,-0.08864299207925797,0.07576721161603928,0.3557248115539551,-0.05157928913831711
16.3,-0.045913584530353546,-0.1006021499633789,0.06973214447498322,-0.058070387691259384,0.202840656042099,-0.06683075428009033
16.35,0.138320192694664,-0.3457345962524414,0.013099662959575653,-0.05626165494322777,0.0490967258810997,-0.060994941741228104
16.4,0.11635977774858475,-0.11157416552305222,-0.03080200031399727,0.04002990573644638,-0.0024179823230952024,-0.04835086315870285
16.45,0.033140428364276886,0.06106281653046608,-0.005994782783091068,0.05873733386397362,0.002287339884787798,-0.05369642376899719
16.5,0.040310829877853394,0.043943408876657486,0.017828499898314476,0.021043535321950912,-0.0339738167822361,-0.07377786934375763
16.55,-0.08375892788171768,-0.3059396743774414,0.22842887043952942,-0.021114781498908997,-0.045909103006124496,-0.13635443150997162
16.6,0.2461676448583603,-0.6036577224731445,0.07640930265188217,0.0006811413913965225,-0.08395735919475555,-0.13679151237010956
16.65,0.2909974455833435,0.1538419872522354,-0.16370154917240143,0.15596678853034973,-0.03439854085445404,-0.0028934089932590723
16.7,-0.2769130766391754,0.5683469772338867,-0.2129545509815216,0.1516088992357254,0.06930667161941528,0.04172119125723839
16.75,-0.2716444730758667,0.01114939246326685,-0.11478330194950104,0.016237106174230576,-0.002321103820577264,-0.04804351553320885
16.8,0.21565400063991547,-0.2029561847448349,0.09217315167188644,0.019282512366771698,-0.14276519417762756,-0.06885305047035217
16.85,0.2803030014038086,0.01948167383670807,0.04693286493420601,0.05666107311844826,-0.10543719679117203,0.010483012534677982
16.9,-0.05039830133318901,0.011374473571777344,-0.20460817217826843,0.024575375020503998,0.0008658375008963048,0.04265501722693443
16.95,-0.21429744362831116,0.11132907122373581,-0.3391836881637573,0.04488879442214966,-0.024368727579712868,-0.012750638648867607
17.0,0.08788688480854034,0.3069753646850586,0.013161933049559593,0.07691997289657593,-0.18127070367336273,-0.09833213686943054
17.05,0.4093230068683624,-0.060242634266614914,0.3962559700012207,0.011009164154529572,-0.2210046499967575,-0.17566680908203125
17.1,0.23451992869377136,-0.5113496780395508,0.2759076654911041,-0.06232418119907379,-0.04209229350090027,-0.13849082589149475
17.15,-0.1902017444372177,-0.4763669967651367,0.07538217306137085,-0.05339358001947403,0.12106029689311981,-0.0003242038656026125
17.2,-0.38148847222328186,-0.3280668556690216,0.1143319308757782,-0.04058719426393509,0.12329170107841492,0.09600178152322769
17.25,-0.2038034349679947,-0.4275331497192383,0.14337587356567383,-0.05068150907754898,0.033226754516363144,0.14787858724594116
17.3,0.19715726375579834,-0.3829841613769531,0.07954182475805283,-0.009443432092666626,-0.09668589383363724,0.2246193289756775
17.35,0.5368993282318115,0.03770163655281067,0.07963088899850845,0.07631094753742218,-0.20502227544784546,0.24095425009727478
17.4,0.5145132541656494,0.2623272240161896,0.12460707873106003,0.10900460928678513,-0.23317834734916687,0.13445791602134705
17.45,0.31007295846939087,0.09492780268192291,0.1419472098350525,0.08874908834695816,-0.19850708544254303,-0.01830187439918518
17.5,0.1726161241531372,-0.13735292851924896,0.019741106778383255,0.08545500040054321,-0.12301651388406754,-0.13105332851409912
17.55,0.1268363744020462,-0.08035659044981003,0.021823450922966003,0.12652872502803802,-0.04964437708258629,-0.20802488923072815
17.6,0.15958675742149353,0.030035026371479034,0.09356776624917984,0.14159542322158813,0.019697990268468857,-0.2725309431552887
17.65,0.15253008902072906,-0.10198401659727097,0.04506644606590271,0.11192557960748672,0.12776561081409454,-0.2819129526615143
17.7,-0.02160818874835968,-0.1431446075439453,0.06193990260362625,0.06519540399312973,0.23125165700912476,-0.2085953801870346
17.75,-0.08060478419065475,-0.2217721939086914,-0.02117301896214485,-0.007077372632920742,0.2554319500923157,-0.08518960326910019
17.8,-0.08344791829586029,-0.17894935607910156,0.005156786646693945,-0.03632807731628418,0.1768222451210022,0.034729406237602234
17.85,0.005388601217418909,-0.16559123992919922,0.04315691813826561,-0.01960192248225212,0.08192040026187897,0.061720047146081924
17.9,0.0796932727098465,-0.11313342303037643,0.04086432233452797,0.039629824459552765,0.029012734070420265,-0.0007842072518542409
17.95,0.07336798310279846,-0.017685886472463608,0.04100528359413147,0.0906248688697815,0.05848424881696701,-0.09090745449066162
18.0,0.05993924289941788,0.00712108938023448,0.009160616435110569,0.09585709869861603,0.1322605162858963,-0.13865754008293152
18.05,-0.04653163626790047,-0.007671358063817024,-0.06485716998577118,0.07423944026231766,0.1981719732284546,-0.13936877250671387
18.1,-0.1522487848997116,-0.042193420231342316,-0.11536286771297455,0.050150323659181595,0.2203710526227951,-0.1278756856918335
18.15,-0.10501300543546677,-0.0605325773358345,-0.03617250546813011,0.034891411662101746,0.18398457765579224,-0.10144583880901337
18.2,0.01156814955174923,-0.12349987030029297,0.02772923931479454,0.020417306572198868,0.13635975122451782,-0.06301572918891907
18.25,-0.05342273414134979,-0.128753662109375,0.012259645387530327,0.019254278391599655,0.1152275875210762,-0.022435065358877182
18.3,-0.0747646614909172,-0.08870793133974075,0.025360215455293655,0.034375324845314026,0.08052856475114822,-0.0062463125213980675
18.35,-0.038374535739421844,-0.1071329116821289,0.030370628461241722,0.04313681647181511,0.012961667031049728,-0.014579013921320438
18.4,0.21675564348697662,-0.11178968846797943,0.03421182557940483,0.034808460623025894,-0.03876793012022972,0.0035969745367765427
18.45,0.2599090337753296,0.007842078804969788,0.039047036319971085,0.032032761722803116,-0.0064387028105556965,0.04797402769327164
18.5,-0.013177269138395786,0.03940391540527344,-0.0068920389749109745,0.019007371738553047,0.06393585354089737,0.05537516251206398
18.55,-0.06526049971580505,-0.0709981918334961,-0.0615801066160202,-0.0014798804186284542,0.055025920271873474,0.022118067368865013
18.6,0.06764181703329086,-0.08109759539365768,0.007710292935371399,0.011881060898303986,-0.014353941194713116,-0.008761451579630375
18.65,0.11557367444038391,-0.02765941061079502,0.04955544322729111,0.031676214188337326,-0.04789894074201584,-0.027287397533655167
18.7,0.07225724309682846,-0.05150222405791283,0.005165707785636187,0.03845466673374176,-0.022716408595442772,-0.02914269082248211
18.75,0.029791906476020813,-0.06826400756835938,-0.0015351594192907214,0.03166941553354263,0.01669371873140335,-0.020617827773094177
18.8,-0.010185075923800468,-0.08123970031738281,-0.005625729449093342,0.027829891070723534,0.03445684164762497,-0.0052954391576349735
18.85,-0.0658213421702385,-0.11042214184999466,-0.006848759949207306,0.012020543217658997,0.04007472097873688,0.029170116409659386
18.9,0.1714283674955368,-0.1368856281042099,0.036768801510334015,-0.011694403365254402,-0.023626593872904778,0.08746175467967987
18.95,0.2838529944419861,0.05178453028202057,0.07828625291585922,0.0031427573412656784,-0.031803980469703674,0.12665694952011108
19.0,0.07557878643274307,0.09720898419618607,0.021273581311106682,-0.014639122411608696,0.013453153893351555,0.10619370639324188
19.05,0.01844954490661621,-0.07326126098632812,-0.015997759997844696,-0.03685589134693146,0.01564617268741131,0.03782263770699501
19.1,0.06491060554981232,-0.18463420867919922,-0.01499205082654953,-0.016600962728261948,-0.0026848516426980495,-0.04035583510994911
19.15,0.0615343376994133,-0.21331119537353516,0.030021095648407936,0.01609647274017334,0.015558701008558273,-0.08168332278728485
19.2,0.010652299970388412,-0.16873836517333984,0.0029649308416992426,0.04599638283252716,0.06144474819302559,-0.06260400265455246
19.25,-0.04748834669589996,-0.043801311403512955,0.022342747077345848,0.062148429453372955,0.08148976415395737,-0.017270095646381378
19.3,-0.03881114348769188,-0.02949715033173561,0.04128836467862129,0.04002261161804199,0.06151745095849037,0.021867353469133377
19.35,-0.06774841248989105,-0.10844898968935013,0.05223817005753517,0.008677068166434765,0.025838801637291908,0.05065936595201492
19.4,-0.06446868926286697,-0.13417720794677734,0.009979247115552425,0.010437371209263802,0.007063271012157202,0.07581048458814621
19.45,-0.08645647764205933,-0.11249542981386185,-0.003300243290141225,0.01993517205119133,-0.008478395640850067,0.10735777020454407
19.5,0.11114322394132614,-0.0817708894610405,0.04104068502783775,0.003494570031762123,-0.08162175118923187,0.13554857671260834
19.55,0.4006829261779785,0.01203443855047226,0.06358736753463745,-0.0010363385081291199,-0.10641351342201233,0.1486976593732834
19.6,0.4327453374862671,0.055863406509160995,-0.02380521222949028,-0.020783711224794388,-0.04168449714779854,0.1664859503507614
19.65,0.31909728050231934,0.055434245616197586,-0.11218045651912689,-0.04959620162844658,0.013844299130141735,0.16535907983779907
19.7,0.11405722796916962,0.05978012830018997,-0.06107993796467781,-0.05963093787431717,0.03998838737607002,0.11031454056501389
19.75,-0.05174003168940544,-0.07648086547851562,0.022075794637203217,-0.07205674797296524,0.044507671147584915,0.02008325420320034
19.8,-0.03523833304643631,-0.32796192169189453,0.009142346680164337,-0.058279991149902344,0.011874706484377384,-0.07096309214830399
19.85,0.12009380012750626,-0.28700923919677734,0.007060270290821791,0.011337365955114365,0.0017607681220397353,-0.11740104854106903
19.9,0.0517386868596077,-0.09004974365234375,-0.024341339245438576,0.0633682981133461,0.06007332727313042,-0.09433069825172424
19.95,-0.10226745158433914,0.08924102038145065,-0.031219180673360825,0.05944719538092613,0.12499022483825684,-0.03037894330918789
20.0,-0.20522336661815643,0.08537577092647552,-0.03594738990068436,-0.002055459190160036,0.12382339686155319,0.017681462690234184
20.05,-0.08411818742752075,-0.09602642804384232,-0.02034803107380867,-0.05925624445080757,0.033443618565797806,0.03673447296023369
20.1,0.14238396286964417,-0.16337871551513672,0.061054620891809464,-0.0644819512963295,-0.07005011290311813,0.035501230508089066
20.15,0.23798052966594696,-0.19008348882198334,0.14374907314777374,-0.04994741454720497,-0.09640982002019882,0.03456772491335869
20.2,0.23359227180480957,-0.16775701940059662,0.08714373409748077,-0.03533979877829552,-0.07240896672010422,0.0375165157020092
20.25,0.1391572654247284,-0.11940573900938034,0.022300338372588158,-0.012170154601335526,-0.03747110813856125,0.035778116434812546
20.3,0.04317696765065193,-0.08984851837158203,0.027030760422348976,0.010748079046607018,-0.006991568952798843,0.026669731363654137
20.35,0.05638078227639198,-0.07930469512939453,0.00693624559789896,0.019723612815141678,0.014465938322246075,0.012093755416572094
20.4,-0.007360892370343208,-0.10386085510253906,0.018351459875702858,0.018903404474258423,0.023050373420119286,0.007897544652223587
20.45,-0.026297537609934807,-0.1192474365234375,-0.004622810985893011,0.016817038878798485,0.009001273661851883,0.0018453971715644002
20.5,0.009592005051672459,-0.06382560729980469,-0.0036699464544653893,0.0250825397670269,0.01574278064072132,0.00043206149712204933
20.55,0.048337310552597046,-0.09900856018066406,-0.02492465078830719,0.022513076663017273,0.0585152842104435,0.00920022837817669
20.6,-0.00526124332100153,-0.11057567596435547,-0.033690132200717926,0.02351744845509529,0.10452066361904144,0.006021228618919849
20.65,0.02718762308359146,-0.07067584991455078,0.02294430322945118,0.03690238669514656,0.11649151146411896,-0.01814926415681839
20.7,-0.02294357866048813,-0.11242866516113281,0.013780093751847744,0.039239075034856796,0.11802021414041519,-0.04180585592985153
20.75,0.06584082543849945,-0.08364295959472656,0.02013973705470562,0.0394907221198082,0.12784434854984283,-0.028648212552070618
20.8,-0.01039139274507761,-0.013592720031738281,-0.04015295207500458,0.039324287325143814,0.15149444341659546,0.0023566221352666616
20.85,-0.067804716527462,0.09931373596191406,-0.032080408185720444,0.03562569618225098,0.1581239551305771,0.015074368566274643
20.9,-0.012227550148963928,0.0760049819946289,-0.007968133315443993,0.0035818414762616158,0.13089314103126526,0.0044736238196492195
20.95,-0.026538677513599396,-0.008428575471043587,-0.008234875276684761,-0.03168242424726486,0.1276232898235321,-0.0003427912888582796
21.0,-0.025767337530851364,0.027478216215968132,-0.025633474811911583,-0.04040081053972244,0.14688369631767273,0.024072347208857536
21.05,-0.05658794939517975,0.04328631982207298,0.010961749590933323,-0.05730016157031059,0.15205207467079163,0.04272491857409477
21.1,-0.03568709269165993,0.017584798857569695,-0.04439008608460426,-0.08230380713939667,0.15310508012771606,0.04040692374110222
21.15,-0.018289707601070404,-0.04946422576904297,-0.06573480367660522,-0.10924610495567322,0.16876842081546783,0.0388861782848835
21.2,0.2378365695476532,-0.0985708087682724,-0.033938825130462646,-0.13486669957637787,0.2439011186361313,0.05474779009819031
21.25,0.971637487411499,0.1454210877418518,0.2170519083738327,-0.17302179336547852,0.454535573720932,0.1399335116147995
21.3,1.2519809007644653,0.34399229288101196,0.16782210767269135,-0.3204122483730316,0.8941978812217712,0.37021833658218384
21.35,0.4699494242668152,0.3291330635547638,-0.27877137064933777,-0.5056807994842529,1.3654671907424927,0.66782546043396
21.4,-0.628389835357666,0.30277344584465027,-0.32384634017944336,-0.5297715067863464,1.5270501375198364,0.8261023759841919
21.45,-1.2649285793304443,0.11229030787944794,-0.09225588291883469,-0.4721634089946747,1.3258144855499268,0.7026230096817017
21.5,-1.120373010635376,-0.1038408949971199,0.21635830402374268,-0.40432849526405334,0.9410523772239685,0.4612257480621338
21.55,-0.44694486260414124,-0.2615499794483185,0.32017460465431213,-0.35336732864379883,0.5446739792823792,0.28463295102119446
21.6,0.27659979462623596,-0.2884101867675781,0.380141019821167,-0.29620736837387085,0.2481827288866043,0.22458381950855255
21.65,0.7779212594032288,-0.15219493210315704,0.47689390182495117,-0.2414165437221527,0.07734618335962296,0.2160186767578125
21.7,0.8703341484069824,-0.06303687393665314,0.5431286096572876,-0.2270081341266632,-0.010896668769419193,0.17057323455810547
21.75,0.7295445203781128,-0.22259041666984558,0.5769361257553101,-0.226814866065979,-0.06331510841846466,0.07625136524438858
21.8,0.5859487056732178,-0.49977490305900574,0.5997190475463867,-0.2288888692855835,-0.11119671911001205,-0.028284065425395966
21.85,0.5543369054794312,-0.713068962097168,0.5559561252593994,-0.1731080859899521,-0.18736478686332703,-0.1022888571023941
21.9,0.4856809973716736,-0.6645822525024414,0.33322152495384216,-0.05995011329650879,-0.24797219038009644,-0.14954759180545807
21.95,0.40584421157836914,0.050045982003211975,0.5324441194534302,0.07145659625530243,-0.3326100707054138,-0.15582530200481415
22.0,0.32360270619392395,-0.22010134160518646,0.1403583437204361,0.09185827523469925,-0.4707798659801483,-0.16809359192848206
22.05,0.42962703108787537,-0.23677536845207214,-0.13721193373203278,0.16858214139938354,-0.5676663517951965,-0.24084630608558655
22.1,0.005829509347677231,-0.09619998931884766,-0.24316751956939697,0.2539605498313904,-0.41529330611228943,-0.36237800121307373
22.15,-0.8751809000968933,-0.13663963973522186,-0.3333224952220917,0.26077836751937866,-0.28448793292045593,-0.42013129591941833
22.2,-0.9611989259719849,-0.14771847426891327,-0.286389023065567,0.2709190249443054,-0.3876713812351227,-0.44868767261505127
22.25,-0.8473732471466064,-0.315067321062088,-0.39756080508232117,0.24574819207191467,-0.42381203174591064,-0.4762016236782074
22.3,-0.7651132345199585,-0.3220978081226349,-0.5644424557685852,0.2313002347946167,-0.3887595534324646,-0.4310965836048126
22.35,-0.7276214957237244,-0.03226188197731972,-0.6781808733940125,0.2385227084159851,-0.3345353901386261,-0.38064250349998474
22.4,-0.5954055190086365,0.2619447410106659,-0.6209854483604431,0.21229057013988495,-0.3010927736759186,-0.35540828108787537
22.45,-0.4103982448577881,0.38579460978507996,-0.5676037073135376,0.16050559282302856,-0.2947712540626526,-0.339459091424942
22.5,-0.18214303255081177,0.2233266830444336,-0.4730893075466156,0.09010013192892075,-0.29002371430397034,-0.3423384428024292
22.55,0.07602746784687042,0.01837826520204544,-0.28572648763656616,0.037696950137615204,-0.2674092650413513,-0.33381205797195435
22.6,0.16989029943943024,-0.13568495213985443,-0.13597750663757324,0.010438203811645508,-0.2013043463230133,-0.29208722710609436
22.65,0.1655380129814148,-0.18233488500118256,-0.08022183924913406,0.03180103003978729,-0.11014004796743393,-0.24935656785964966
22.7,0.13710491359233856,-0.08557795733213425,-0.11981905251741409,0.07073371112346649,-0.03720250725746155,-0.19281359016895294
22.75,0.09845032542943954,0.08575726300477982,0.012220540083944798,0.08832036703824997,-0.03497186303138733,-0.11035865545272827
22.8,0.09157034009695053,0.20716285705566406,0.03065531514585018,0.06992550939321518,-0.04496892914175987,-0.0632050633430481
22.85,0.02533787116408348,0.10521411895751953,0.011900104582309723,0.03343303129076958,-0.07785672694444656,-0.046568017452955246
22.9,0.11764133721590042,-0.018042558804154396,0.04295908659696579,0.004838165361434221,-0.1212775707244873,-0.027852626517415047
22.95,0.30329933762550354,-0.18533800542354584,0.11208266019821167,-0.004477963782846928,-0.13852940499782562,-0.001565938931889832
23.0,0.4438493847846985,-0.21846291422843933,0.18885710835456848,0.004895960446447134,-0.11177688837051392,0.040822189301252365
23.05,0.29455044865608215,-0.12205217778682709,0.17212246358394623,0.023191746324300766,-0.04753127321600914,0.06547493487596512
23.1,0.014467500150203705,-0.10993480682373047,0.017695443704724312,0.027308929711580276,0.028932541608810425,0.03193105757236481
23.15,-0.026723647490143776,-0.049231529235839844,-0.007419815752655268,0.052501603960990906,0.011168100871145725,0.007598771248012781
23.2,0.07025779783725739,0.08465194702148438,0.027803707867860794,0.06845583021640778,-0.06204294040799141,0.018813148140907288
23.25,0.2646740972995758,0.19492818415164948,0.039378996938467026,0.0438627153635025,-0.10821983963251114,0.029454810544848442
23.3,0.24677984416484833,0.17237378656864166,0.007873515598475933,-0.002329133916646242,-0.08934877812862396,0.030495120212435722
23.35,0.10199867188930511,0.1302804946899414,-0.03493192791938782,-0.039038170129060745,-0.04903705045580864,0.023765716701745987
23.4,-0.09495417028665543,-0.07495404034852982,-0.04493248090147972,-0.07104569673538208,-0.024042289704084396,-0.0055899047292768955
23.45,-0.14718039333820343,-0.11353684216737747,-0.12863220274448395,-0.05748532712459564,-0.043747782707214355,-0.03333207592368126
23.5,-0.08966527134180069,-0.06139278784394264,-0.11746375262737274,-0.03688512369990349,-0.0997253805398941,-0.04299432784318924
23.55,-0.05028810352087021,-0.04652690887451172,-0.09068480134010315,-0.04853655397891998,-0.14984086155891418,-0.042606987059116364
23.6,0.008240330964326859,-0.0778055191040039,-0.012452203780412674,-0.050052493810653687,-0.19077005982398987,-0.030587375164031982
23.65,-0.02194944955408573,-0.0848245620727539,-0.003484162501990795,-0.012787018902599812,-0.2282208502292633,-0.0073840743862092495
23.7,-0.02769484370946884,-0.16700363159179688,-0.018950924277305603,0.06291304528713226,-0.3137775957584381,0.029358144849538803
23.75,-0.054215434938669205,-0.10472774505615234,-0.002991602523252368,0.17864911258220673,-0.44543761014938354,0.04868815466761589
23.8,-0.19033285975456238,-0.056056030094623566,-0.19116321206092834,0.3026975393295288,-0.6012990474700928,0.007280723657459021
23.85,-0.3142070174217224,0.07810018956661224,-0.24811722338199615,0.4405519962310791,-0.8088762164115906,-0.10559170693159103
23.9,-0.1360941231250763,0.22753141820430756,0.0394849069416523,0.5288271903991699,-1.0230557918548584,-0.23522543907165527
23.95,0.12627577781677246,0.17973613739013672,0.1716221272945404,0.502478301525116,-1.11794912815094,-0.3337141275405884
24.0,0.2872372269630432,0.43448543548583984,0.4438420832157135,0.457050085067749,-1.0261174440383911,-0.33916860818862915
24.05,0.24901257455348969,0.2217130810022354,0.3565240800380707,0.26335573196411133,-0.7691386938095093,-0.26177409291267395
24.1,-0.03870420902967453,0.08370207995176315,0.32721006870269775,0.06602314859628677,-0.49331092834472656,-0.09196817874908447
24.15,-0.43278372287750244,0.14647576212882996,0.15431392192840576,-0.10558577626943588,-0.24668259918689728,0.07086620479822159
24.2,-0.8443063497543335,0.3827781081199646,0.19935661554336548,-0.19800198078155518,-0.06340517103672028,0.17037726938724518
24.25,-1.140251874923706,0.006847318261861801,-0.20597830414772034,-0.26522091031074524,-0.024058226495981216,0.24973267316818237
24.3,-0.6693658828735352,-0.3975658714771271,-0.43166249990463257,-0.3069196045398712,-0.2120802104473114,0.32006558775901794
24.35,0.06755506992340088,-0.24919509887695312,0.11918635666370392,-0.2319769412279129,-0.44563958048820496,0.3548641502857208
24.4,0.6276564598083496,-0.29344460368156433,0.44721871614456177,-0.2533084750175476,-0.5198307037353516,0.33927327394485474
24.45,0.9523537158966064,-0.46587079763412476,0.7077397108078003,-0.30105966329574585,-0.4996491074562073,0.3349081575870514
24.5,1.0411484241485596,-0.5375270247459412,0.7814188003540039,-0.2913699448108673,-0.40819916129112244,0.35746172070503235
24.55,1.0478222370147705,-0.3994712233543396,0.8381363153457642,-0.2540365755558014,-0.2895463705062866,0.39689570665359497
24.6,1.075265645980835,-0.1903190165758133,0.8657606244087219,-0.2542639672756195,-0.1741236001253128,0.44804516434669495
24.65,1.062723159790039,-0.11633677780628204,1.0852844715118408,-0.3225935697555542,-0.13240422308444977,0.49128153920173645
24.7,0.9754647016525269,-0.08362289518117905,1.1676579713821411,-0.3660794794559479,-0.13118135929107666,0.4836912453174591
24.75,0.8586205244064331,-0.10856148600578308,1.250976324081421,-0.30194205045700073,-0.16487999260425568,0.38895243406295776
24.8,0.8972532153129578,-0.2634391486644745,1.2920888662338257,-0.18186402320861816,-0.1696128398180008,0.2579023241996765
24.85,0.8243663311004639,-0.4883517920970917,1.1372758150100708,-0.09184081852436066,-0.1014244481921196,0.18856464326381683
24.9,0.5957561135292053,-0.6461553573608398,0.6113103032112122,-0.03662220388650894,0.002866181544959545,0.18547651171684265
24.95,0.1832258403301239,-0.2223644256591797,0.45898860692977905,0.047309085726737976,-0.006185032427310944,0.19762900471687317
25.0,-0.04343779385089874,0.16295336186885834,0.6551434397697449,0.13433663547039032,-0.07842864841222763,0.15888451039791107
25.05,0.15590538084506989,-0.2819967269897461,0.17666122317314148,0.19785979390144348,-0.04480590298771858,0.062428805977106094
25.1,0.014218769967556,-0.23831844329833984,-0.29261091351509094,0.27761492133140564,0.10972777009010315,0.029394950717687607
25.15,-0.31399792432785034,0.06847093999385834,-0.47472408413887024,0.27290162444114685,0.2265181690454483,0.02276434563100338
25.2,-0.3953150808811188,0.07361315190792084,-0.38538485765457153,0.1870737373828888,0.23553256690502167,0.011026429943740368
25.25,-0.4573962092399597,0.005804992280900478,-0.2517454922199249,0.10520458966493607,0.2189977914094925,0.017419325187802315
25.3,-0.41635507345199585,0.00677583459764719,-0.20647302269935608,0.06105043366551399,0.18434742093086243,0.04609887674450874
25.35,-0.3262549042701721,-0.03304578736424446,-0.1313711404800415,0.046702805906534195,0.1470959484577179,0.04923450946807861
25.4,-0.25553375482559204,-0.010576262138783932,-0.030949510633945465,0.053805794566869736,0.12347842752933502,0.02191557176411152
25.45,-0.10783779621124268,-0.07771778851747513,0.05257074907422066,0.05219573155045509,0.09288585186004639,-0.016642633825540543
25.5,-0.0803191065788269,-0.08952904492616653,0.05077267810702324,0.050647392868995667,0.10218903422355652,-0.03109903633594513
25.55,-0.08724761009216309,-0.06970883160829544,0.0326724611222744,0.04230702668428421,0.1377539038658142,-0.02533543109893799
25.6,-0.08590100705623627,-0.01999378763139248,0.02236703783273697,0.022331679239869118,0.16177117824554443,-0.013191411271691322
25.65,-0.13128434121608734,-0.07959461957216263,0.022456282749772072,-0.019140837714076042,0.1485956907272339,-0.00016226943989749998
25.7,-0.09435096383094788,-0.22455883026123047,0.007277531083673239,-0.04069216921925545,0.11128519475460052,-0.01753508672118187
25.75,-0.02100338786840439,-0.2259807586669922,0.031522784382104874,-0.02406199648976326,0.06284778565168381,-0.024677708745002747
25.8,-0.041048578917980194,-0.10965442657470703,0.022490715608000755,-0.010835647583007812,0.07184798270463943,-0.011331276968121529
25.85,-0.07466783374547958,-0.0292663611471653,-0.042779549956321716,-0.01821570284664631,0.08036573976278305,-0.00787665881216526
25.9,-0.04801855608820915,-0.021025659516453743,-0.006505460012704134,-0.02823266014456749,0.03825406730175018,-0.0382741279900074
25.95,0.022083133459091187,-0.06299304962158203,0.07993657141923904,-0.040951669216156006,-0.018263882026076317,-0.08124715089797974
26.0,0.08191525191068649,-0.19760608673095703,0.14376713335514069,-0.04039900004863739,-0.047264453023672104,-0.10394259542226791
26.05,0.0875948816537857,-0.31252574920654297,0.17265012860298157,-0.03278340771794319,-0.04457598552107811,-0.09539257735013962
26.1,0.03969583660364151,-0.3237295150756836,0.03510761260986328,-0.010659852996468544,-0.010799771174788475,-0.06942342966794968
26.15,0.01181870885193348,-0.2149524688720703,-0.06222992017865181,0.023709043860435486,0.024531381204724312,-0.031878307461738586
26.2,-0.05616246163845062,0.006966588087379932,-0.0315653532743454,0.04176553338766098,0.04861673712730408,-0.009433271363377571
26.25,-0.03061555325984955,-0.033575061708688736,0.015169231221079826,0.01316588930785656,0.03291318565607071,-0.021031824871897697
26.3,0.005456272512674332,-0.18262958526611328,0.0009675697074271739,-0.01659351773560047,-0.002507427241653204,-0.03000279888510704
26.35,0.013852478004992008,-0.08349132537841797,0.03223026916384697,-0.010868909768760204,-0.014270900748670101,-0.010013100691139698
26.4,0.038495637476444244,-0.11051464080810547,0.019968245178461075,-0.025175228714942932,-0.00830843485891819,-0.009204104542732239
26.45,-0.036633554846048355,-0.09948062896728516,-0.009867219254374504,-0.030925780534744263,0.0006348498282022774,-0.015588345006108284
26.5,-0.011318202130496502,-0.14778804779052734,0.03038882277905941,-0.017137641087174416,-0.003269942943006754,-0.025973783805966377
26.55,0.007732877042144537,-0.2245159149169922,0.0012282251846045256,-0.0006910767406225204,0.0003636418841779232,-0.03826836124062538
26.6,0.011946241371333599,-0.17926788330078125,-0.01800820231437683,0.01420863252133131,0.016984211280941963,-0.04051142930984497
26.65,0.02558780461549759,-0.15322017669677734,0.022517157718539238,0.037865299731492996,0.013206207193434238,-0.0386776402592659
26.7,0.055791206657886505,-0.18946552276611328,0.012912312522530556,0.0509643480181694,0.008259482681751251,-0.05043160542845726
26.75,0.02115817554295063,-0.08768177032470703,0.042025234550237656,0.06956008821725845,0.01566813699901104,-0.04498787969350815
26.8,0.03474220633506775,0.0015020386781543493,0.029687846079468727,0.06705709546804428,0.01474085170775652,-0.050618208944797516
26.85,0.03939874470233917,0.0045976657420396805,0.031784117221832275,0.03570070490241051,0.02148299850523472,-0.06680375337600708
26.9,-0.0355161651968956,-0.07722187042236328,0.044522207230329514,0.0003778701648116112,0.053356241434812546,-0.06791522353887558
26.95,-0.18493810296058655,-0.24811460077762604,-0.10212423652410507,0.0019446015357971191,0.06683707982301712,-0.09090115875005722
27.0,-0.23386970162391663,-0.2476816326379776,-0.20963674783706665,0.046132031828165054,0.029817678034305573,-0.10519269853830338
27.05,-0.0745740532875061,-0.15059566497802734,-0.21226713061332703,0.08045350760221481,-0.06766995042562485,-0.09438727796077728
27.1,0.11753402650356293,0.03060055337846279,0.0745210200548172,0.09569154679775238,-0.1365758776664734,-0.09532943367958069
27.15,0.09512348473072052,-0.006087298505008221,0.07390670478343964,0.03640184551477432,-0.08485254645347595,-0.0711372122168541
27.2,-0.008002608083188534,-0.02241039276123047,-0.0029476790223270655,-0.01587156392633915,-0.05510042607784271,-0.02603478915989399
27.25,0.038145825266838074,0.08055496215820312,0.069559745490551,-0.005263293627649546,-0.07691597938537598,-0.04048008844256401
27.3,0.048501718789339066,-0.23423290252685547,-0.03766429424285889,-0.011302291415631771,-0.025661515071988106,-0.08833248168230057
27.35,-0.06455273181200027,-0.20480728149414062,-0.201877161860466,0.012866580858826637,0.0018731614109128714,-0.06693754345178604
27.4,-0.07288150489330292,-0.05139637365937233,-0.089931420981884,0.03340214863419533,-0.04597964510321617,-0.06809000670909882
27.45,0.03726845234632492,-0.018719671294093132,0.0035240359138697386,0.0069563258439302444,-0.08085775375366211,-0.09710459411144257
27.5,0.09270340204238892,-0.09424113482236862,0.05310656875371933,-0.03120787814259529,-0.07771085947751999,-0.10513044893741608
27.55,0.046771109104156494,-0.20312786102294922,0.013360717333853245,-0.06191728264093399,-0.02244146540760994,-0.07621347904205322
27.6,0.044482696801424026,-0.1875467300415039,-0.010086508467793465,-0.05613372102379799,0.019510511308908463,-0.03280608728528023
27.65,-0.009812713600695133,-0.2778806686401367,0.01733306609094143,-0.059606797993183136,0.04759034886956215,-0.006407509557902813
27.7,-0.0486941859126091,-0.2803678512573242,-0.05668787285685539,-0.07804202288389206,0.07041661441326141,0.05394454672932625
27.75,-0.028168044984340668,-0.04631233215332031,-0.009547258727252483,-0.04781188815832138,0.06816863268613815,0.09995251148939133
27.8,0.01870107650756836,0.03882121667265892,0.2281782180070877,-0.057943493127822876,0.08800270408391953,0.11834319680929184
27.85,0.010434932075440884,-0.06992149353027344,-0.004693624097853899,-0.12910926342010498,0.21211421489715576,0.1503070592880249
27.9,-0.10214243829250336,-0.2093648910522461,-0.23842719197273254,-0.17806240916252136,0.351896196603775,0.2161674201488495
27.95,-0.1954197883605957,-0.24521923065185547,-0.3976697623729706,-0.1996207982301712,0.3568178713321686,0.27117154002189636
28.0,-0.10121037811040878,-0.03773307800292969,-0.30368590354919434,-0.17992600798606873,0.2463057041168213,0.2799777686595917
28.05,-0.12628266215324402,0.1387462615966797,-0.10370022058486938,-0.13374146819114685,0.17020271718502045,0.21457935869693756
28.1,-0.02869032323360443,0.24859142303466797,-0.020741408690810204,-0.11339748650789261,0.10716000944375992,0.09654221683740616
28.15,-0.016299813985824585,0.04292011260986328,-0.02577250264585018,-0.11490864306688309,0.08996345847845078,-0.022299252450466156
28.2,-0.06378013640642166,-0.15279483795166016,-0.07784303277730942,-0.1260128766298294,0.08131673187017441,-0.07187151163816452
28.25,-0.16702255606651306,-0.28001880645751953,-0.15039990842342377,-0.13550661504268646,0.035210635513067245,-0.05834697559475899
28.3,-0.10762053728103638,-0.17736148834228516,-0.10048490017652512,-0.11131225526332855,-0.04182211309671402,-0.028793971985578537
28.35,0.004049064591526985,-0.13791179656982422,-0.03827936202287674,-0.07186171412467957,-0.12119819968938828,-0.03614814579486847
28.4,0.06117698922753334,-0.19839191436767578,0.014021303504705429,-0.06640055775642395,-0.16429385542869568,-0.029501674696803093
28.45,0.0684100091457367,-0.17424583435058594,-0.046984948217868805,-0.06952141970396042,-0.17161965370178223,0.011784323491156101
28.5,0.02764846757054329,-0.1175680160522461,-0.058635346591472626,-0.06089907884597778,-0.16626226902008057,0.050665345042943954
28.55,-0.014727115631103516,-0.006669045425951481,0.022011172026395798,-0.06182388961315155,-0.19662843644618988,0.06730043888092041
28.6,0.026647595688700676,-0.04641532897949219,0.023645658046007156,-0.09867337346076965,-0.22436627745628357,0.047785207629203796
28.65,0.04350771754980087,-0.0932321548461914,-0.01211157999932766,-0.11665413528680801,-0.20439457893371582,0.026408672332763672
28.7,0.016402963548898697,-0.1775197982788086,-0.05419284477829933,-0.1050705760717392,-0.1777220368385315,0.011238053441047668
28.75,0.049603380262851715,-0.1871938705444336,-0.04123041033744812,-0.08754358440637589,-0.14743345975875854,-0.004652499686926603
28.8,0.028011078014969826,-0.1143484115600586,-0.0693349838256836,-0.07671242207288742,-0.13219666481018066,-0.007241776678711176
28.85,0.006660863757133484,-0.024293899536132812,-0.03484327718615532,-0.07543794810771942,-0.11780238151550293,-0.002259786706417799
28.9,-0.030107710510492325,-0.012545586563646793,-0.0909772664308548,-0.10503657162189484,-0.10629508644342422,-0.010262981988489628
28.95,-0.03828667476773262,-0.10754108428955078,-0.05124172195792198,-0.1364510953426361,-0.13866670429706573,-0.006040272302925587
29.0,-0.008956761099398136,-0.18265819549560547,-0.04941171035170555,-0.1640956699848175,-0.17800040543079376,0.013260300271213055
29.05,0.015154089778661728,-0.1478891372680664,0.001993726473301649,-0.17915397882461548,-0.19808121025562286,0.049016278237104416
29.1,-0.009795249439775944,-0.03728771209716797,0.04654223099350929,-0.18519383668899536,-0.15459251403808594,0.05143260955810547
29.15,-0.010166365653276443,-0.21919631958007812,-0.1318972408771515,-0.16888831555843353,-0.09341683238744736,0.04316522181034088
29.2,-0.026715271174907684,-0.154571533203125,-0.04785528406500816,-0.11565154045820236,-0.07445693016052246,0.04468560591340065
29.25,-0.002464917954057455,-0.12101554870605469,-0.0356232188642025,-0.06713789701461792,-0.04679388925433159,0.0031142234802246094
29.3,0.026341227814555168,-0.02713584713637829,0.020877419039607048,-0.0031685861758887768,-0.015987202525138855,-0.04510614648461342
29.35,0.053084809333086014,-0.09257125854492188,0.0061045484617352486,0.02670353651046753,0.04603151977062225,-0.07866507768630981
29.4,-0.001976810395717621,0.028032302856445312,0.005465134046971798,0.011998559348285198,0.11586777120828629,-0.0716843456029892
29.45,-0.13628432154655457,-0.014146814122796059,0.09326879680156708,-0.011548815295100212,0.15263405442237854,-0.09148523956537247
29.5,-0.12330278009176254,-0.23502349853515625,0.01277437899261713,-0.052521687000989914,0.15075692534446716,-0.1269296407699585
29.55,-0.03281158208847046,-0.18872547149658203,-0.008660668507218361,-0.029979480430483818,0.10163648426532745,-0.12061765044927597
29.6,0.11554719507694244,-0.20537471771240234,0.012475908733904362,-0.009310414083302021,0.02299431338906288,-0.10568338632583618
29.65,0.18482598662376404,-0.24274633824825287,-0.08186249434947968,0.029368428513407707,0.05175846442580223,-0.10114052891731262
29.7,0.006336933001875877,0.013447760604321957,0.07120869308710098,0.056192547082901,0.07078062742948532,-0.05094005540013313
29.75,0.011512482538819313,-0.00875759031623602,0.01094802375882864,0.0333058200776577,0.0345487967133522,-0.03990190848708153
29.8,0.004960194695740938,-0.08939838409423828,0.01308855414390564,0.04594546929001808,0.0166238434612751,-0.06700564175844193
29.85,0.011242669075727463,0.021521568298339844,0.073045514523983,0.06121852248907089,0.0046968283131718636,-0.09593802690505981
29.9,0.06861187517642975,-0.09576129913330078,0.03705686330795288,0.03182821720838547,-0.017842572182416916,-0.12463777512311935
29.95,0.07856369763612747,-0.026834484189748764,0.013825243338942528,0.025057131424546242,-0.015046385116875172,-0.1270480453968048
30.0,0.05594148859381676,0.05501842871308327,0.07938413321971893,0.026206782087683678,0.017564378678798676,-0.13306617736816406
30.05,0.04831361770629883,-0.025122640654444695,0.030719371512532234,0.002947229892015457,0.04834951087832451,-0.1303160935640335
30.1,0.02405804954469204,-0.17655181884765625,0.010979498736560345,-0.025745995342731476,0.08624367415904999,-0.1070295050740242
30.15,-0.0077054426074028015,-0.1441793441772461,0.028807057067751884,-0.033682070672512054,0.08890537172555923,-0.057008083909749985
30.2,0.014524603262543678,-0.0718231201171875,-0.08638516068458557,-0.03189662843942642,0.06322962045669556,-0.028774185106158257
30.25,-0.03840581327676773,-0.12107467651367188,0.09324664622545242,-0.009549850597977638,0.025271054357290268,-0.051013074815273285
30.3,0.02064155973494053,-0.2579212188720703,0.011700994335114956,0.008315474726259708,0.007821912877261639,-0.06769227236509323
30.35,0.06869674474000931,-0.11650656908750534,-0.10204236209392548,0.04180198907852173,0.016629962250590324,-0.06265099346637726
30.4,0.04011987894773483,-0.08294010162353516,-0.009946122765541077,0.05499467998743057,0.025967851281166077,-0.052872125059366226
30.45,0.11943763494491577,-0.04036521166563034,0.039497677236795425,0.0589299201965332,0.03801897168159485,-0.044176820665597916
30.5,0.06659699231386185,-0.05525493249297142,0.031306102871894836,0.057677607983350754,0.11059167236089706,-0.035913433879613876
30.55,0.03875935822725296,-0.1402149200439453,0.04918075352907181,0.060825906693935394,0.20341593027114868,-0.01811176910996437
30.6,-0.012251904234290123,-0.16096210479736328,0.07159712165594101,0.07807504385709763,0.28440263867378235,-0.0014955492224544287
30.65,-0.07227223366498947,-0.19567394256591797,0.05962654575705528,0.1128212958574295,0.32066527009010315,0.006333368364721537
30.7,-0.047735027968883514,-0.1284494400024414,0.07864420861005783,0.1305088996887207,0.29472607374191284,0.011428791098296642
30.75,-0.034703578799963,-0.022608760744333267,0.06440088897943497,0.11210768669843674,0.2710926830768585,0.004605778958648443
30.8,0.021937258541584015,-0.1202859878540039,0.07444920390844345,0.0776117816567421,0.2362648844718933,-0.011398310773074627
30.85,0.050298310816287994,-0.06868934631347656,0.025509880855679512,0.07116599380970001,0.20510166883468628,-0.0312509723007679
30.9,0.0869881734251976,0.025141719728708267,0.029839178547263145,0.07754867523908615,0.20686182379722595,-0.04574612155556679
30.95,0.006918929982930422,0.15912628173828125,0.026792842894792557,0.05461116135120392,0.22969162464141846,-0.05768277868628502
31.0,-0.06341089308261871,0.00037097567110322416,-0.0029817363247275352,-0.0087928781285882,0.22185000777244568,-0.07875317335128784
31.05,0.025726819410920143,-0.1135244369506836,-0.006734887603670359,-0.018510814756155014,0.17166882753372192,-0.10411053150892258
31.1,0.044063128530979156,-0.005613324698060751,0.03207137808203697,-0.002072550356388092,0.12180966138839722,-0.10787393152713776
31.15,-0.08821600675582886,0.09508227556943893,-0.0674428716301918,-0.03521939739584923,0.09147156774997711,-0.09364250302314758
31.2,-0.0024120546877384186,-0.07177925109863281,-0.028226567432284355,-0.07018867135047913,-0.024953819811344147,-0.07402662932872772
31.25,0.08731038868427277,-0.24280738830566406,0.09836439788341522,-0.05023270100355148,-0.1456734836101532,-0.05147179588675499
31.3,0.19369453191757202,-0.23520086705684662,0.17660994827747345,-0.01915903203189373,-0.19903483986854553,-0.0328608937561512
31.35,0.2666980028152466,-0.1119680255651474,0.09066948294639587,0.02509389817714691,-0.15394815802574158,-0.023438988253474236
31.4,0.37137770652770996,0.10745146125555038,0.11083076149225235,0.023813260719180107,-0.09896218776702881,-0.019642803817987442
31.45,0.21169103682041168,0.1291208416223526,0.32328373193740845,-0.06886495649814606,-0.011229787021875381,-0.03026760369539261
31.5,0.2687913775444031,-0.21407602727413177,0.4000681936740875,-0.17223435640335083,0.09485835582017899,-0.024365799501538277
31.55,0.40453651547431946,-0.47557732462882996,0.018214592710137367,-0.20022700726985931,0.21233181655406952,0.10012421011924744
31.6,0.2174505740404129,-0.0057906960137188435,-0.1494419276714325,-0.1395585983991623,0.3186837434768677,0.29970067739486694
31.65,-0.1932482272386551,0.11394213885068893,-0.06686056405305862,-0.17064836621284485,0.37149643898010254,0.3982445299625397
31.7,-0.29681509733200073,-0.1968412548303604,-0.2184847891330719,-0.199144184589386,0.311551570892334,0.34808647632598877
31.75,-0.24716942012310028,-0.1326151043176651,-0.1354329138994217,-0.11955058574676514,0.13611365854740143,0.2040673941373825
31.8,0.019883934408426285,0.06025123596191406,0.04748997092247009,-0.008934525772929192,-0.022336604073643684,0.010923542082309723
31.85,0.15450254082679749,0.1230325773358345,0.002729117637500167,0.01767210103571415,-0.058575406670570374,-0.14407780766487122
31.9,-0.08036572486162186,-0.06543636322021484,-0.07793161273002625,-0.016015782952308655,-0.06585116684436798,-0.2073109745979309
31.95,-0.4256853461265564,-0.1410093456506729,-0.39684662222862244,-0.02883298508822918,-0.14424675703048706,-0.2592833638191223
32.0,-0.56805020570755,0.07242105156183243,-0.6058596968650818,0.0167318657040596,-0.42568615078926086,-0.33319973945617676
32.05,-0.05429978668689728,0.0787649154663086,-0.4140377342700958,0.06536207348108292,-0.8183902502059937,-0.5169761776924133
32.1,0.3560340106487274,0.010952970944344997,-0.06250999867916107,0.136135995388031,-1.0219086408615112,-0.6526885628700256
32.15,0.531462550163269,-0.2349548041820526,0.18698272109031677,0.1565822958946228,-1.0565296411514282,-0.6161937117576599
32.2,0.622719943523407,-0.2187471091747284,0.4577181935310364,0.14889594912528992,-0.9519712328910828,-0.47093749046325684
32.25,0.5295695066452026,-0.19335076212882996,0.4734831154346466,0.07310372591018677,-0.7532073259353638,-0.25656598806381226
32.3,0.19113768637180328,-0.10270976275205612,0.2761925160884857,-0.0686272531747818,-0.5452340841293335,-0.017688985913991928
32.35,-0.07050425559282303,-0.40024757385253906,-0.08815700560808182,-0.17923906445503235,-0.4192994236946106,0.14904314279556274
32.4,-0.05480754002928734,-0.4678325653076172,-0.1221427172422409,-0.19586245715618134,-0.4266766607761383,0.3258913457393646
32.45,-0.03842137008905411,0.016489025205373764,0.10020259767770767,-0.2595212459564209,-0.39587870240211487,0.4901963472366333
32.5,0.03966391459107399,-0.03489493951201439,-0.0371231734752655,-0.3259130120277405,-0.3053646683692932,0.486603707075119
32.55,-0.03841682896018028,0.25981998443603516,0.06263412535190582,-0.29556259512901306,-0.2207351177930832,0.40893059968948364
32.6,-0.1410539746284485,0.3524312973022461,-0.004206342156976461,-0.207890123128891,-0.15725459158420563,0.1439654678106308
32.65,-0.27144455909729004,0.19887827336788177,0.012748734094202518,-0.04636526480317116,-0.13797183334827423,-0.17723141610622406
32.7,-0.23859548568725586,-0.16491319239139557,-0.47423407435417175,0.06523647904396057,-0.14817751944065094,-0.37337952852249146
32.75,-0.2817833423614502,-0.1140279769897461,-1.043005108833313,0.19166481494903564,-0.30503949522972107,-0.4452623426914215
32.8,-0.21062317490577698,-0.18868637084960938,-0.41709694266319275,0.2697719633579254,-0.5731234550476074,-0.44512268900871277
32.85,0.3263682723045349,-0.6416511535644531,0.5614467263221741,0.17361021041870117,-0.619878351688385,-0.2706508934497833
32.9,0.541776716709137,-0.6399927139282227,0.7494499087333679,-0.1242419108748436,-0.2819947600364685,0.20797733962535858
32.95,0.10474570840597153,0.0733337476849556,0.17386648058891296,-0.4289909601211548,0.12442495673894882,0.6998591423034668
33.0,-0.735917329788208,0.495545357465744,-0.5425162315368652,-0.5332472324371338,0.2770301401615143,0.8042435050010681
33.05,-0.7685868144035339,0.46925923228263855,-0.6733901500701904,-0.28940537571907043,0.06805076450109482,0.36146080493927
33.1,0.12970753014087677,-0.3211946487426758,0.0038143261335790157,0.0964740514755249,-0.19650642573833466,-0.15556856989860535
33.15,0.31779468059539795,-0.25819969177246094,0.32271382212638855,0.2855275869369507,-0.15499283373355865,-0.195254847407341
33.2,0.15525007247924805,0.05224895849823952,0.28346994519233704,0.18400849401950836,-0.01978425309062004,-0.04764647036790848
33.25,-0.06127416715025902,0.12897872924804688,0.2360485941171646,-0.00021944381296634674,0.063934825360775,0.024280156940221786
33.3,-0.23843686282634735,-0.048535361886024475,0.04629848152399063,-0.03439002111554146,0.1189703419804573,-0.03289872780442238
33.35,-0.25888967514038086,-0.12572766840457916,-0.22440776228904724,0.02386266365647316,0.14698787033557892,-0.09848494082689285
33.4,-0.31127363443374634,-0.03437710925936699,-0.38747739791870117,0.06263285875320435,0.12370534241199493,-0.13605599105358124
33.45,-0.18078429996967316,0.13346385955810547,-0.22886167466640472,0.05261107534170151,0.05355311930179596,-0.15354841947555542
33.5,-0.21387724578380585,0.03852652385830879,-0.1199258416891098,-0.018561488017439842,0.050802744925022125,-0.1578030288219452
33.55,-0.24288934469223022,-0.08794881403446198,-0.16461433470249176,-0.09464119374752045,0.062236614525318146,-0.138703852891922
33.6,-0.20551687479019165,0.16862772405147552,-0.06784040480852127,-0.12670265138149261,0.009317183867096901,-0.143102765083313
33.65,0.09043041616678238,0.18026447296142578,0.02145635150372982,-0.1386747807264328,-0.0604105144739151,-0.2646677494049072
33.7,0.2722352147102356,-0.17662237584590912,0.2239617258310318,-0.12810629606246948,-0.07127673923969269,-0.33397161960601807
33.75,0.11608623713254929,-0.28047847747802734,0.23127202689647675,-0.12188329547643661,0.0494491308927536,-0.25150513648986816
33.8,-0.04097970575094223,-0.41764354705810547,0.08272301405668259,-0.12740252912044525,0.17155605554580688,-0.11058313399553299
33.85,0.028450192883610725,-0.4943656921386719,0.017424985766410828,-0.10802552849054337,0.2475331574678421,0.0274584349244833
33.9,0.22239316999912262,-0.5341835021972656,0.148300901055336,-0.12465567886829376,0.3591414988040924,0.2176896035671234
33.95,0.2423563301563263,-0.1193084567785263,-0.20385795831680298,-0.2436409741640091,0.5620883703231812,0.49552974104881287
34.0,-0.2913038730621338,0.49303627014160156,-0.37016022205352783,-0.3726333677768707,0.7021049857139587,0.7133398652076721
34.05,-0.5672826170921326,0.5892934799194336,-0.7266240119934082,-0.5572255253791809,0.6594971418380737,0.6938959956169128
34.1,-0.8025196194648743,0.6035193800926208,-0.7302263379096985,-0.5933362245559692,0.45775502920150757,0.5083389282226562
34.15,-0.9068521857261658,-0.045676276087760925,-0.4739845395088196,-0.39575326442718506,0.13740429282188416,0.09293519705533981
34.2,-0.19736716151237488,-0.49713611602783203,0.04854699969291687,0.023114006966352463,-0.193794846534729,-0.27761390805244446
34.25,0.16254599392414093,-0.28328990936279297,0.6349393129348755,0.3249228000640869,-0.2687624394893646,-0.3531269133090973
34.3,0.30141010880470276,-0.5761404037475586,0.3706774413585663,0.32823115587234497,-0.15202681720256805,-0.274762362241745
34.35,0.10265547037124634,-0.13840293884277344,0.10587751120328903,0.3739856779575348,0.04924238473176956,-0.10609277337789536
34.4,0.03735329210758209,0.26783275604248047,0.06971048563718796,0.29512786865234375,0.14240677654743195,0.026852549985051155
34.45,-0.06461705267429352,0.2764253616333008,0.2366178035736084,0.11861010640859604,0.1363217979669571,0.07307412475347519
34.5,-0.24626663327217102,0.34874340891838074,0.40904128551483154,-3.633747110143304e-05,0.13736172020435333,-0.0030692366417497396
34.55,-0.06794991344213486,0.05067538470029831,0.1535957008600235,0.008410409092903137,0.1821536123752594,-0.1116887778043747
34.6,-0.15473538637161255,-0.4320411682128906,0.16883745789527893,0.03379617631435394,0.22825443744659424,-0.17776614427566528
34.65,0.20190143585205078,-0.7369050979614258,-0.31618982553482056,0.11765437573194504,0.2457459717988968,-0.12840218842029572
34.7,0.09887007623910904,-0.19008444249629974,-0.40315747261047363,0.21396884322166443,0.266338974237442,0.015088711865246296
34.75,-0.15128359198570251,0.0035037926863878965,-0.15233385562896729,0.1887388974428177,0.2543255090713501,0.14639754593372345
34.8,-0.18109294772148132,0.0002527167380321771,-0.2640930414199829,0.1415862888097763,0.17269393801689148,0.23150254786014557
34.85,-0.06713169813156128,0.27073001861572266,-0.029861947521567345,0.1468091458082199,-0.019834736362099648,0.22133785486221313
34.9,-0.00718216598033905,0.13921451568603516,0.5183122158050537,0.1554432511329651,-0.14844314754009247,0.06897260993719101
34.95,0.3266570568084717,-0.24347685277462006,0.31421810388565063,0.13267774879932404,-0.1061597689986229,-0.03783116489648819
35.0,0.11962515115737915,-0.08985614776611328,0.25244733691215515,0.13098329305648804,0.021833937615156174,0.04590674489736557
35.05,-0.1475004404783249,-0.08102227002382278,0.10781634598970413,0.08664112538099289,0.09264200925827026,0.13968926668167114
35.1,-0.13456158339977264,-0.23855113983154297,-0.04396422207355499,0.09049092233181,0.04843040183186531,0.1295730024576187
35.15,0.009913912042975426,-0.19446659088134766,0.07645869255065918,0.17324990034103394,-0.03780091553926468,0.08580578118562698
35.2,0.02415241301059723,0.09491252899169922,0.07321209460496902,0.23453402519226074,-0.02509019710123539,0.0692068338394165
35.25,0.027030587196350098,0.2298116683959961,0.0825929343700409,0.1931440532207489,-0.0020882422104477882,0.07636521756649017
35.3,-0.015130138024687767,0.20860958099365234,0.09187129139900208,0.1179407387971878,0.02159707061946392,0.07992425560951233
35.35,-0.08912074565887451,0.0611572191119194,0.10582484304904938,0.06902685761451721,0.023478640243411064,0.04382050782442093
35.4,-0.13767512142658234,0.02039717510342598,0.17248350381851196,0.05156198889017105,0.02738169953227043,-0.007583504542708397
35.45,-0.25302040576934814,-0.12661458551883698,0.280144065618515,0.017340101301670074,0.031054118648171425,-0.021506493911147118
35.5,-0.17597907781600952,-0.3474721908569336,0.16822278499603271,-0.009713835082948208,0.014452502131462097,-0.009481479413807392
35.55,-0.03370138630270958,-0.3355436325073242,0.030024399980902672,0.03937852010130882,-0.007216956000775099,0.02481311373412609
35.6,-0.028291553258895874,-0.1390218734741211,-0.07566084712743759,0.07955949753522873,0.0031239017844200134,0.06041616573929787
35.65,0.0039770337752997875,0.20916271209716797,0.011845146305859089,0.08512427657842636,-0.011013207957148552,0.06165669485926628
35.7,0.016175230965018272,0.2796897888183594,0.15032722055912018,0.044942405074834824,-0.016322679817676544,0.0027308138087391853
35.75,0.03021765872836113,-0.1331167221069336,0.08986926823854446,-0.020421432331204414,-0.009446421638131142,-0.05966619402170181
35.8,0.049817848950624466,-0.25687503814697266,0.004355177748948336,0.017222924157977104,0.015047449618577957,-0.07456759363412857
35.85,0.021398529410362244,-0.22911548614501953,0.02993711270391941,0.059024617075920105,-0.0016530411085113883,-0.06906045973300934
35.9,0.032616518437862396,-0.17314815521240234,0.11385403573513031,0.08026549220085144,0.015883440151810646,-0.07188500463962555
35.95,-0.09551337361335754,-0.2218618392944336,0.1044035255908966,0.06822176277637482,0.08711668103933334,-0.05319708585739136
36.0,-0.11368447542190552,-0.2774629592895508,-0.09855722635984421,0.05195627361536026,0.1439872682094574,0.01427535805851221
36.05,-0.014085741713643074,-0.08526325225830078,-0.03409009054303169,0.05627159774303436,0.07495221495628357,0.10102529078722
36.1,0.1449093371629715,0.0048427642323076725,0.16996997594833374,0.06383371353149414,0.023470396175980568,0.1111011728644371
36.15,0.1111631840467453,-0.07941626757383347,0.10627076774835587,0.03576858714222908,0.06098489835858345,0.07856304198503494
36.2,0.011732479557394981,-0.18408870697021484,0.045719996094703674,0.030875107273459435,0.07677830755710602,0.05773083120584488
36.25,0.030041858553886414,-0.0774993896484375,0.020952753722667694,0.06509662419557571,0.04972261190414429,0.03138308227062225
36.3,0.02001451887190342,0.019125938415527344,0.0754697322845459,0.11220184713602066,0.07331795245409012,-0.017104141414165497
36.35,-0.010587617754936218,-0.12501239776611328,0.0523308664560318,0.09378255158662796,0.12511061131954193,-0.03463548421859741
36.4,-0.07551972568035126,-0.1869802474975586,-0.23455306887626648,0.08786874264478683,0.1987067013978958,-0.03589543700218201
36.45,-0.14223811030387878,0.02311229147017002,-0.1922999620437622,0.1320488452911377,0.19017070531845093,-0.023886682465672493
36.5,-0.056085675954818726,-0.04737759009003639,0.007831490598618984,0.10440933704376221,0.15023939311504364,-0.041794195771217346
36.55,-0.08624361455440521,-0.21992778778076172,0.025538818910717964,0.06660405546426773,0.1608790010213852,-0.029413701966404915
36.6,-0.15958091616630554,-0.16628362238407135,-0.007145895157009363,0.06801063567399979,0.14956459403038025,0.019036496058106422
36.65,-0.129861980676651,-0.05989933758974075,0.10117529332637787,0.06690443307161331,0.045700158923864365,0.03441973030567169
36.7,0.1683667004108429,-0.21410463750362396,0.1162843108177185,0.04699837788939476,-0.031866297125816345,0.024921903386712074
36.75,0.3321293294429779,-0.24321649968624115,0.022990688681602478,0.05364087224006653,-0.028528748080134392,0.06255553662776947
36.8,0.21821464598178864,-0.036999691277742386,0.029845749959349632,0.06999462097883224,-0.007015152834355831,0.09718821942806244
36.85,0.09228532016277313,0.06845570355653763,0.08361965417861938,0.056615665555000305,0.002119190525263548,0.06818918883800507
36.9,0.15666361153125763,-0.047037117183208466,0.09709124267101288,0.05147165060043335,-0.010338496416807175,0.002629852155223489
36.95,0.09986552596092224,0.03815365210175514,0.05057205632328987,0.06524643301963806,0.05316341295838356,-0.019147222861647606
37.0,-0.0557868666946888,0.036363597959280014,-0.03725782781839371,0.027541225776076317,0.1534063071012497,-0.0019459930481389165
37.05,-0.2151438593864441,-0.05939961597323418,-0.19035793840885162,0.0008935085497796535,0.1955222189426422,-0.024240097030997276
37.1,-0.2049642950296402,0.08366870135068893,-0.23618432879447937,0.009249542839825153,0.15152175724506378,-0.0538298562169075
37.15,-0.01175455842167139,0.1647777557373047,-0.00561910355463624,-0.03339271992444992,0.0708569884300232,-0.0688675045967102
37.2,0.13044996559619904,-0.12065982073545456,0.05777209997177124,-0.11418788880109787,0.04509678855538368,-0.08594401925802231
37.25,0.1200324296951294,-0.16999435424804688,0.02437746152281761,-0.1278230845928192,0.07590868324041367,-0.0791030079126358
37.3,0.0385235920548439,-0.08049869537353516,-0.050424329936504364,-0.10824485868215561,0.1098715290427208,-0.060409557074308395
37.35,-0.03748302534222603,-0.11865425109863281,-0.015550720505416393,-0.10694634914398193,0.12254388630390167,-0.05383151024580002
37.4,0.05681233108043671,-0.19569110870361328,-0.045155663043260574,-0.10374297201633453,0.10874295979738235,-0.07191920280456543
37.45,0.049533549696207047,-0.1848306655883789,-0.005352524574846029,-0.06370445340871811,0.09941324591636658,-0.09274476766586304
37.5,-0.03319967910647392,-0.1912393569946289,0.051124002784490585,-0.028060296550393105,0.10021428763866425,-0.11511820554733276
37.55,0.008477743715047836,-0.25446605682373047,-0.013104443438351154,-0.023999933153390884,0.09274281561374664,-0.11699521541595459
37.6,0.02390722557902336,-0.2269287109375,-0.0013590832240879536,0.007180728018283844,0.06273605674505234,-0.08897750824689865
37.65,0.13834184408187866,-0.15200327336788177,0.00883609987795353,0.027076350525021553,0.04599322751164436,-0.046231843531131744
37.7,0.12527525424957275,-0.015151969157159328,-0.06583302468061447,0.01778712123632431,0.0825883150100708,0.0023865369148552418
37.75,0.02612088806927204,0.22582244873046875,-0.02164626494050026,-0.015447502955794334,0.11907299607992172,0.02765532210469246
37.8,-0.0027205515652894974,0.14902782440185547,-0.05464838072657585,-0.09441579133272171,0.12244027107954025,-0.009911317378282547
37.85,0.02101729065179825,-0.03712654113769531,-0.005557645577937365,-0.1529347151517868,0.08781888335943222,-0.052052851766347885
37.9,0.11176112294197083,-0.1695089340209961,0.0034005690831691027,-0.16571173071861267,0.05402577668428421,-0.07238587737083435
37.95,0.03249344602227211,-0.3205270767211914,-0.026530347764492035,-0.15038812160491943,0.046208299696445465,-0.07769440114498138
38.0,0.025898173451423645,-0.41864871978759766,-0.06509531289339066,-0.10696832835674286,0.04652910307049751,-0.08163393288850784
38.05,0.01970994472503662,-0.32681846618652344,-0.007140511646866798,-0.04192570224404335,0.04430452734231949,-0.06031377241015434
38.1,0.016871130093932152,-0.17049121856689453,0.0036609701346606016,0.00022686459124088287,0.06358718872070312,-0.024010704830288887
38.15,-0.009086578153073788,-0.11656665802001953,-0.09339524805545807,0.014875557273626328,0.09947457164525986,0.010116489604115486
38.2,-0.047132909297943115,-0.08845901489257812,-0.03338627889752388,0.04054033011198044,0.10192149132490158,0.029139747843146324
38.25,0.0029853517189621925,-0.06235504150390625,0.014402607455849648,0.06746484339237213,0.05798713490366936,0.0348501019179821
38.3,0.00989839993417263,-0.05827522277832031,0.03644900396466255,0.08882971107959747,0.001203327439725399,0.03632533550262451
38.35,0.058783434331417084,-0.07444190979003906,0.06394156813621521,0.11194948852062225,-0.029131188988685608,0.028592286631464958
38.4,0.09517300128936768,-0.059823986142873764,-0.00045427479199133813,0.11935558915138245,-0.007496842183172703,0.030592866241931915
38.45,0.05323144793510437,-0.017922397702932358,0.013732525520026684,0.1196541041135788,0.026194803416728973,0.05154586583375931
38.5,-0.04058133438229561,0.06702232360839844,0.03769262507557869,0.11244656145572662,0.03679456561803818,0.051266614347696304
38.55,-0.11107052862644196,0.0453033372759819,0.06811175495386124,0.09459532797336578,0.03539656847715378,0.0286117997020483
38.6,-0.12355314940214157,-0.07111454755067825,0.03586364537477493,0.07167932391166687,0.02316126972436905,0.009960491210222244
38.65,-0.054135166108608246,-0.2542295455932617,0.020111288875341415,0.05801081657409668,-0.009357213973999023,0.00720263971015811
38.7,0.27798697352409363,-0.2554473578929901,0.052470773458480835,0.07257954776287079,-0.08994917571544647,0.020022133365273476
38.75,0.39013850688934326,-0.0454549565911293,0.1456204503774643,0.11131273955106735,-0.08181153237819672,0.038862161338329315
38.8,0.07967782020568848,0.08994483947753906,0.1964082419872284,0.1019975021481514,0.021946493536233902,0.04232380539178848
38.85,-0.1525248885154724,-0.122132308781147,-0.024760231375694275,0.05969063192605972,0.08223330974578857,0.022889522835612297
38.9,-0.10453544557094574,-0.06255627423524857,-0.02582555264234543,0.08857304602861404,0.02233033999800682,0.0045518348924815655
38.95,-0.054277919232845306,0.15602874755859375,0.038222718983888626,0.11024240404367447,-0.024026470258831978,-0.0034885178320109844
39.0,-0.07908564805984497,0.04838370531797409,0.09587430953979492,0.058918073773384094,-0.014933387748897076,-0.0020129838958382607
39.05,-0.04685936123132706,-0.1385345458984375,0.04979943111538887,0.008910134434700012,0.001172079355455935,-0.003178069833666086
39.1,-0.031651634722948074,-0.2583179473876953,0.07568786293268204,-0.0017680646851658821,-0.01100676879286766,0.01733330450952053
39.15,-0.04229625687003136,-0.2946758270263672,-0.0016633541090413928,-0.0082866121083498,-0.015914347022771835,0.08801303803920746
39.2,0.010362251661717892,-0.11536026000976562,0.008775124326348305,0.00433964841067791,-0.03497001528739929,0.1332101672887802
39.25,-0.026114918291568756,-0.07669925689697266,0.044285234063863754,0.026843100786209106,-0.029776262119412422,0.11506269872188568
39.3,-0.033692315220832825,-0.08246517181396484,0.005676096770912409,0.03623676300048828,-0.01784793846309185,0.06963127851486206
39.35,-0.04828471690416336,-0.16289806365966797,0.0034321858547627926,0.05516645312309265,-0.029841884970664978,0.01508508063852787
39.4,0.06538994610309601,-0.19158554077148438,0.04621144011616707,0.0850471779704094,-0.051551785320043564,-0.014215554110705853
39.45,0.036503035575151443,-0.1540536880493164,0.05734463781118393,0.09693078696727753,-0.012276401743292809,0.027788924053311348
39.5,-0.03218034654855728,-0.06923770904541016,0.0024186642840504646,0.075917549431324,0.06223655864596367,0.08874958008527756
39.55,-0.14307834208011627,-0.1789255291223526,-0.014574493281543255,0.03540531545877457,0.08073339611291885,0.0969545915722847
39.6,-0.08689316362142563,-0.3412971496582031,0.02503645233809948,0.03815554082393646,0.04359040409326553,0.06736309081315994
39.65,-0.05965166538953781,-0.35855579376220703,0.05778399109840393,0.08151580393314362,0.01259969174861908,0.0528525784611702
39.7,-0.07059179991483688,-0.30218982696533203,0.010704996064305305,0.12547528743743896,-0.004251225385814905,0.06855738162994385
39.75,-0.08016211539506912,-0.1404104232788086,0.04286773502826691,0.13608065247535706,-0.0208333320915699,0.09528259932994843
39.8,0.01403014361858368,-0.2320699691772461,0.032669246196746826,0.10914245247840881,-0.03293846920132637,0.09915252774953842
39.85,0.009886320680379868,-0.2151165008544922,-0.01961209438741207,0.11026418954133987,-0.04191480949521065,0.08510369062423706
39.9,-0.011858534067869186,0.025003431364893913,0.024913392961025238,0.15708798170089722,-0.045267436653375626,0.06901243329048157
39.95,-0.022582734003663063,0.2236042022705078,0.12196190655231476,0.16210807859897614,-0.039179518818855286,0.04364091530442238
40.0,-0.007997743785381317,0.09114742279052734,0.07725866138935089,0.10701631754636765,-0.035378798842430115,0.03225332871079445
40.05,0.019517580047249794,0.07866191864013672,0.053166359663009644,0.09742967784404755,-0.025637386366724968,0.02445312775671482
40.1,0.04079344496130943,0.1565704345703125,0.06951213628053665,0.09869574755430222,-0.03905821964144707,0.024353479966521263
40.15,-0.0008394033648073673,0.08773326873779297,0.0270242877304554,0.07253482937812805,-0.050782449543476105,0.020952504128217697
40.2,0.044793687760829926,-0.06953907012939453,0.029037967324256897,0.04861532151699066,-0.028689151629805565,0.007809620350599289
40.25,-0.03522005304694176,-0.1161355972290039,-0.029280908405780792,0.044561006128787994,-0.0031909276731312275,0.01851433701813221
40.3,-0.02345956675708294,-0.14243412017822266,0.0004894504090771079,0.03704246133565903,0.005706156138330698,0.01551106758415699
40.35,-0.0026018223725259304,-0.14141464233398438,0.02989189885556698,0.040267668664455414,0.015544283203780651,0.0061209676787257195
40.4,-0.046179547905921936,-0.13894939422607422,0.048611659556627274,0.020863352343440056,0.0283898264169693,0.02209053933620453
40.45,-0.031186047941446304,-0.20225238800048828,0.007956234738230705,0.015820549800992012,0.0375886932015419,0.017367035150527954
40.5,0.017728475853800774,-0.2150135040283203,0.08341043442487717,0.017977939918637276,0.018229341134428978,0.008587552234530449
40.55,0.05236094444990158,-0.33588504791259766,0.13521608710289001,-0.0036961697041988373,0.023562423884868622,0.030104294419288635
40.6,-0.02255822904407978,-0.3818092346191406,0.0067005702294409275,0.010137525387108326,0.0623086616396904,0.047964051365852356
40.65,-0.025770576670765877,-0.22905635833740234,-0.0693255215883255,0.09025371819734573,0.0665992796421051,0.05495481565594673
40.7,-0.05108208954334259,0.09790229797363281,-0.03525962308049202,0.16801318526268005,0.04323047026991844,0.039702508598566055
40.75,0.0437847301363945,0.4134511947631836,0.09576784074306488,0.1700116991996765,0.019822536036372185,0.0038299572188407183
40.8,0.04005081206560135,0.23032093048095703,0.08051919937133789,0.08638691157102585,0.011679986491799355,-0.052790358662605286
40.85,-0.0452776700258255,-0.03900624066591263,0.23671980202198029,0.021096713840961456,0.025637594982981682,-0.0832875594496727
40.9,-0.00698523223400116,-0.3113117218017578,0.07945293933153152,-0.006660541985183954,0.05130618438124657,-0.06171988323330879
40.95,-0.06344278901815414,-0.22698497772216797,0.03845943883061409,0.021999472752213478,0.0628594160079956,0.01647264137864113
41.0,-0.04851633682847023,-0.0799245834350586,-0.048444006592035294,0.03659016638994217,0.043705787509679794,0.040030933916568756
41.05,-0.02876577340066433,0.1411447525024414,-0.005567376501858234,0.049120914191007614,0.020029855892062187,0.01217737328261137
41.1,-0.05445324257016182,0.21093273162841797,0.1737792044878006,0.020966781303286552,-0.014022980816662312,-0.0338825024664402
41.15,0.011297129094600677,0.06270980089902878,0.3769993185997009,-0.03174177184700966,-0.02901797741651535,-0.07798293232917786
41.2,0.028873875737190247,-0.18477153778076172,0.15203100442886353,-0.06607302278280258,-0.0020815860480070114,-0.07098997384309769
41.25,-0.0427955724298954,-0.35095787048339844,-0.06838120520114899,-0.06490610539913177,0.030804434791207314,-0.06216689199209213
41.3,0.022096984088420868,-0.13933563232421875,-0.061648450791835785,0.0063415891490876675,0.010163766331970692,-0.03572673723101616
41.35,0.024730375036597252,0.24444103240966797,0.01581886038184166,0.03571624681353569,-0.02446349523961544,0.0011955973459407687
41.4,-0.08464646339416504,0.2773618698120117,0.05694172531366348,-0.044331323355436325,-0.009406396187841892,-0.010008065961301327
41.45,0.06428992748260498,-0.15424060821533203,-0.05921688675880432,-0.1339024156332016,-0.025697879493236542,-0.06319738179445267
41.5,0.26884007453918457,-0.1971568912267685,-0.2523808181285858,-0.09637047350406647,-0.04716397449374199,-0.06851562857627869
41.55,0.22460754215717316,0.46514037251472473,-0.30075815320014954,-0.03418094664812088,-0.048352278769016266,-0.022571850568056107
41.6,0.054809924215078354,0.7357406616210938,-0.2825174629688263,-0.0984695553779602,-0.052188534289598465,-0.06024867668747902
41.65,0.1112685278058052,0.4755887985229492,-0.12458302080631256,-0.21770529448986053,-0.08804679661989212,-0.1428719162940979
41.7,0.25603264570236206,0.4169731140136719,-0.0004097570781596005,-0.2534094452857971,-0.08111509680747986,-0.15809820592403412
41.75,0.004309527575969696,0.09086035937070847,0.5575624704360962,-0.38002872467041016,-0.02551395259797573,-0.1333349049091339
41.8,-0.25836142897605896,-1.0345134735107422,0.39192262291908264,-0.5128700733184814,0.05971373990178108,-0.1658117175102234
41.85,-0.19011841714382172,-1.2653169631958008,0.32407933473587036,-0.39074134826660156,0.014731606468558311,-0.1478254497051239
41.9,0.19937096536159515,-0.7792682647705078,0.17024260759353638,-0.16504524648189545,-0.05786876752972603,-0.13476291298866272
41.95,0.2193162739276886,-0.0165090449154377,0.0980781689286232,0.02103620581328869,-0.015821712091565132,-0.10436270385980606
42.0,0.031175874173641205,0.26836490631103516,-0.047494322061538696,0.007135072723031044,0.0854882225394249,-0.07674343883991241
42.05,-0.27466490864753723,0.031842220574617386,-0.2559300363063812,-0.0992322489619255,0.17257098853588104,-0.07768017053604126
42.1,-0.49296799302101135,-0.13739588856697083,-0.4375869631767273,-0.12468887865543365,0.17842444777488708,-0.08151557296514511
42.15,-0.17830201983451843,-0.03133488446474075,-0.20474621653556824,-0.09789767116308212,0.01084177941083908,-0.04987584054470062
42.2,0.1288716346025467,0.09803677350282669,-0.01613943837583065,-0.1045963317155838,-0.09543674439191818,-0.022117814049124718
42.25,0.0357905738055706,-0.007985113188624382,0.016193296760320663,-0.15521658957004547,-0.04783155769109726,-0.023776501417160034
42.3,-0.1770666241645813,-0.3640718460083008,-0.0663895457983017,-0.18019112944602966,0.003826869186013937,-0.05630042031407356
42.35,-0.28642117977142334,-0.3897447884082794,-0.1238466426730156,-0.10165560245513916,-0.01905561424791813,-0.10717843472957611
42.4,-0.024423645809292793,-0.4412879943847656,-0.0013820265885442495,-0.053521547466516495,-0.11132663488388062,-0.10781056433916092
42.45,0.600063145160675,-0.3866109549999237,0.055302076041698456,-0.03796263411641121,-0.18257740139961243,-0.0044670249335467815
42.5,0.8800268173217773,0.26503854990005493,-0.07871779054403305,0.02067442052066326,-0.058833539485931396,0.1065252423286438
42.55,0.2329850196838379,0.5881795883178711,-0.2736091911792755,-0.020158009603619576,0.22212156653404236,0.11747775226831436
42.6,-0.4289291501045227,-0.13534165918827057,-0.37298786640167236,-0.18816407024860382,0.30571621656417847,0.07480011880397797
42.65,-0.5648173689842224,-0.518773078918457,-0.22904087603092194,-0.19100536406040192,0.11722012609243393,0.005563500802963972
42.7,-0.15872107446193695,-0.5422391891479492,-0.044534243643283844,-0.0490209236741066,-0.10642518848180771,-0.1152675524353981
42.75,0.20229482650756836,-0.42690372467041016,0.029856573790311813,0.08586977422237396,-0.17041385173797607,-0.18237800896167755
42.8,0.17542116343975067,-0.15016840398311615,-0.12195736914873123,0.1387384533882141,-0.08210840076208115,-0.11843083053827286
42.85,0.055761270225048065,0.22988128662109375,-0.16361670196056366,0.13794974982738495,-0.024062342941761017,-0.020293762907385826
42.9,0.009059946984052658,0.1662912368774414,0.014875614084303379,0.043888479471206665,-0.07575583457946777,0.015088860876858234
42.95,0.06845571100711823,-0.02652740105986595,0.07100562751293182,-0.027582518756389618,-0.13036653399467468,0.014206998981535435
43.0,0.05003242939710617,0.08317089080810547,-0.020602460950613022,-0.010733070783317089,-0.13783174753189087,0.017857542261481285
43.05,0.00489234272390604,0.1874532699584961,0.06753207743167877,-0.011521986685693264,-0.1387067437171936,0.001156807062216103
43.1,0.09935122728347778,-0.14671611785888672,0.06857674568891525,-0.07192009687423706,-0.158993661403656,-0.019442014396190643
43.15,0.057458262890577316,-0.2327585220336914,-0.020363766700029373,-0.03972975164651871,-0.11457550525665283,-0.02974706143140793
43.2,-0.010825698263943195,-0.1596813201904297,-0.056177496910095215,0.025961074978113174,-0.06916658580303192,-0.056173648685216904
43.25,-0.009519536048173904,-0.14642047882080078,-0.038090262562036514,0.05630715191364288,-0.06737260520458221,-0.06706560403108597
43.3,-0.1069188043475151,0.07889842242002487,-0.03736399859189987,0.07956939190626144,-0.07020185142755508,-0.03521277382969856
43.35,-0.11072423309087753,-0.02041531354188919,0.010569095611572266,0.05431792885065079,-0.08047687262296677,-0.0826488509774208
43.4,-0.010684863664209843,-0.14995479583740234,0.056436244398355484,0.022113097831606865,-0.1313021034002304,-0.11870472878217697
43.45,0.015081940218806267,-0.19530582427978516,0.18849042057991028,0.022744419053196907,-0.13270777463912964,-0.10721874237060547
43.5,-0.07210110872983932,-0.4777050018310547,0.18488016724586487,0.022045854479074478,-0.07477797567844391,-0.10693419724702835
43.55,0.4080388844013214,-0.6586742401123047,-0.10714514553546906,0.0700569748878479,-0.07842747122049332,-0.038584478199481964
43.6,0.5290306210517883,0.7504330277442932,-0.10457602143287659,0.195811927318573,-0.04221285507082939,0.18294192850589752
43.65,0.07180143892765045,0.7101192474365234,-0.10260438174009323,0.008679330348968506,0.12374348193407059,0.134495809674263
43.7,-0.10087112337350845,-0.3521432876586914,-0.06124568730592728,-0.18494068086147308,0.15273930132389069,0.0016461813356727362
43.75,-0.017809690907597542,-0.38879871368408203,-0.05058974027633667,-0.09141653031110764,0.07879600673913956,0.0209728442132473
43.8,0.03595937043428421,0.14272212982177734,-0.044311217963695526,0.03844192251563072,0.02608754113316536,0.04367321729660034
43.85,0.06683257967233658,0.34798717498779297,-0.05767375975847244,0.03804333880543709,0.00010046442184830084,-0.03339848294854164
43.9,-0.0027057677507400513,0.001981734298169613,0.05027313530445099,-0.017367230728268623,-0.007877151481807232,-0.15101107954978943
43.95,0.0059099262580275536,-0.498199462890625,0.08008961379528046,-0.04104682803153992,0.02071918547153473,-0.20668697357177734
44.0,-0.013769946992397308,-0.3442230224609375,0.11930009722709656,-0.005498878657817841,0.07398582994937897,-0.10489756613969803
44.05,-0.059333302080631256,-0.19260406494140625,0.15618953108787537,-0.029089953750371933,0.12138639390468597,0.02840353362262249
44.1,-0.11565243452787399,-0.32924365997314453,0.1453184187412262,-0.07657584547996521,0.1691397875547409,0.09813384711742401
44.15,-0.12548990547657013,-0.19538021087646484,-0.0056173899210989475,-0.049383558332920074,0.1492110937833786,0.14822281897068024
44.2,0.1550469994544983,0.0922393873333931,0.18453571200370789,-0.004694007337093353,0.03278214856982231,0.1366693526506424
44.25,0.43009305000305176,-0.11043164879083633,0.2987769544124603,-0.02919144183397293,0.010437863878905773,0.05889878422021866
44.3,0.4272063076496124,-0.24860379099845886,0.13482841849327087,-0.009045418351888657,0.11137547343969345,0.012104198336601257
44.35,0.10306847095489502,-0.02452182024717331,-0.08076833933591843,0.07969058305025101,0.22124415636062622,-0.025565264746546745
44.4,-0.09515403211116791,0.19653701782226562,-0.18439200520515442,0.13934986293315887,0.2685152292251587,-0.11549605429172516
44.45,-0.23996330797672272,0.11638544499874115,-0.16967473924160004,0.12320706248283386,0.27324914932250977,-0.21494032442569733
44.5,-0.2096012830734253,-0.23540689051151276,-0.09141145646572113,0.0853816568851471,0.2532920837402344,-0.2730213403701782
44.55,-0.05965796113014221,-0.41899871826171875,-0.01896449737250805,0.09064938873052597,0.2675808370113373,-0.2314276546239853
44.6,-0.05473136901855469,-0.17839336395263672,-0.0004786117060575634,0.11034269630908966,0.3231910467147827,-0.0900222659111023
44.65,-0.18830904364585876,-0.07927418500185013,-0.03803178295493126,0.09593372046947479,0.3403562307357788,0.017346277832984924
44.7,-0.15761502087116241,-0.08487320691347122,-0.016601255163550377,0.08364515006542206,0.2623717784881592,0.04273311048746109
44.75,-0.012308424338698387,-0.01995849795639515,0.025244589895009995,0.09448103606700897,0.13483798503875732,0.013010921888053417
44.8,0.2503657937049866,0.032524120062589645,0.13429400324821472,0.09773871302604675,0.04453185945749283,-0.024623945355415344
44.85,0.2671512961387634,-0.07165144383907318,0.1913582682609558,0.06658314168453217,0.0702039822936058,-0.040760938078165054
44.9,0.10702680051326752,-0.14023685455322266,0.10154353827238083,0.05560597777366638,0.14963319897651672,-0.035886093974113464
44.95,0.0438263975083828,-0.0790567398071289,0.02783026359975338,0.07191269099712372,0.19753673672676086,-0.020221417769789696
45.0,-0.011702392250299454,-0.006566048599779606,0.017442822456359863,0.07081864774227142,0.19852516055107117,0.0004429274413269013
45.05,-0.015501981601119041,-0.03487110137939453,0.02838190831243992,0.05573481693863869,0.15889506042003632,0.006383784115314484
45.1,-0.02864454872906208,0.0636587142944336,0.03164949640631676,0.04694581776857376,0.10050635784864426,0.0018762642284855247
45.15,-0.01532506663352251,0.07678890228271484,-0.009264360181987286,0.0275670625269413,0.06022235006093979,-0.013203142210841179
45.2,0.053961414843797684,-0.07967376708984375,0.011169406585395336,-0.0028797280974686146,0.04850258305668831,-0.0163088608533144
45.25,-0.016308389604091644,-0.10198688507080078,-0.0025239449460059404,-0.002979440148919821,0.04484543576836586,0.003957267850637436
45.3,0.053255464881658554,-0.08428096771240234,-0.019966058433055878,0.015634596347808838,0.040840428322553635,0.01511104591190815
45.35,-0.015982791781425476,-0.020323755219578743,0.011219573207199574,0.023178845643997192,0.03204174339771271,0.017202140763401985
45.4,0.05808643624186516,0.007223132532089949,0.013412673957645893,0.014908564276993275,0.034037165343761444,0.013546370901167393
45.45,0.005115835927426815,-0.009518623352050781,0.03787911683320999,0.011916383169591427,0.058718256652355194,0.007030876353383064
45.5,-0.016010073944926262,-0.027840616181492805,0.009435347281396389,0.015424693003296852,0.07303179055452347,0.00632643373683095
45.55,-0.03565815091133118,-0.00535488361492753,0.015242566354572773,0.016730185598134995,0.05800292640924454,0.007860301993787289
45.6,-0.07450985908508301,-0.04419708624482155,0.0037139246705919504,0.012942086905241013,0.02247367426753044,0.008290015161037445
45.65,-0.015041815117001534,-0.07873725891113281,0.0020040711387991905,0.012361169792711735,-0.007319205440580845,0.020762290805578232
45.7,-0.0016620093956589699,0.004836082924157381,-0.0489952526986599,0.006976771634072065,0.004451695363968611,0.047844432294368744
45.75,-0.01954728737473488,0.0130119314417243,-0.011089825071394444,-0.019466299563646317,0.030377253890037537,0.06272558867931366
45.8,-0.01686118170619011,-0.12723827362060547,-0.04335401579737663,-0.041818324476480484,0.004297066945582628,0.06132374703884125
45.85,0.04443234205245972,-0.11563587188720703,0.007759466301649809,-0.0349666066467762,-0.049186646938323975,0.0633518248796463
45.9,0.028530068695545197,-0.0748758316040039,0.01848508045077324,-0.029558517038822174,-0.04940733313560486,0.05243993550539017
45.95,-0.026313964277505875,-0.09936237335205078,-0.026522662490606308,-0.022932464256882668,-0.028968455269932747,0.025972582399845123
46.0,0.012213708832859993,-0.08900737762451172,-0.01116793043911457,-0.002558619249612093,-0.009556544944643974,-4.5660988689633086e-05
46.05,-0.0008599174907431006,-0.07549762725830078,-0.011396356858313084,0.005663888528943062,0.011588825844228268,-0.01855119690299034
46.1,-0.053642719984054565,-0.0968170166015625,0.0004946326953358948,0.007605838123708963,0.01676389016211033,-0.03117484040558338
46.15,-0.04012385383248329,-0.22064876556396484,0.041271887719631195,0.009431958198547363,-0.0014713937416672707,-0.030637092888355255
46.2,-0.025714799761772156,-0.18178749084472656,0.019489150494337082,0.0319727286696434,-0.010415587574243546,-0.0004970172303728759
