Time [s],Acc_x [m/s^2],Acc_y [m/s^2],Acc_z [m/s^2],Gyro_x [1/s],Gyro_y [1/s],Gyro_z [1/s]
0.0,0.10376696288585663,-0.03183269128203392,0.047257326543331146,-0.0276779904961586,0.024422872811555862,0.008543616160750389
0.05,0.023490577936172485,-0.15640641748905182,0.020645810291171074,-0.032760314643383026,0.027587827295064926,0.014610148034989834
0.1,-0.045908376574516296,-0.09339142590761185,-0.04552773758769035,-0.02536163106560707,0.02249717339873314,-0.0004893185687251389
0.15,0.009463181719183922,-0.09157276898622513,-0.038414426147937775,-0.010285696014761925,0.00919212494045496,-0.007861440069973469
0.2,-0.015263363718986511,-0.09490109980106354,-0.07902595400810242,0.0047587063163518906,-0.0010591173777356744,-0.007857407443225384
0.25,-0.006259164772927761,-0.026899341493844986,-0.01163360383361578,0.010421684943139553,-0.009588896296918392,-0.01661994494497776
0.3,0.02657264843583107,-0.08456898480653763,0.0339808389544487,0.010939165018498898,-0.01854938082396984,-0.005494924262166023
0.35,-0.0017282550688832998,-0.1114063411951065,0.005725127179175615,0.008227577432990074,-0.014100267551839352,0.0018861155258491635
0.4,0.0009235125035047531,-0.09300995618104935,0.058467067778110504,0.008388894610106945,-0.007240882609039545,-0.001570021966472268
0.45,0.010107694193720818,-0.146303191781044,-0.06286507099866867,0.007699880283325911,-0.02151608280837536,-0.003694711020216346
0.5,-0.04461366683244705,-0.08028794080018997,-0.021216604858636856,0.015409916639328003,-0.01332002878189087,-0.001468749949708581
0.55,0.06719358265399933,-0.048048023134469986,-0.007799460086971521,0.01651451736688614,-0.01125138159841299,0.001388043980114162
0.6,0.09969314932823181,-0.062412261962890625,0.006642421707510948,0.022311203181743622,-0.009862826205790043,-0.003449471667408943
0.65,0.001962981652468443,-0.09279633313417435,0.00946433562785387,0.007437460124492645,-0.031590938568115234,-0.010675868950784206
0.7,-0.0012287162244319916,-0.020330434665083885,0.09183626621961594,0.01519602071493864,0.005741458851844072,-0.005581199657171965
0.75,-0.037214841693639755,-0.09089852124452591,-0.04481808841228485,0.0007790662930347025,-0.005539639387279749,0.00011749385157600045
0.8,-0.017678864300251007,-0.1430387645959854,-0.013576491735875607,-0.006600925233215094,-0.0034899027086794376,0.007820818573236465
0.85,-0.09786813706159592,-0.06861020624637604,0.00932996440678835,-0.0035699899308383465,-0.02028779499232769,-0.0018974621780216694
0.9,0.003560684621334076,-0.019701002165675163,-0.08398720622062683,-0.011608574539422989,-0.04875919222831726,0.012101405300199986
0.95,0.06821583956480026,-0.010027879849076271,-0.028025522828102112,-0.022990649566054344,-0.031594377011060715,0.03264237567782402
1.0,0.028156716376543045,-0.04145527631044388,0.13041779398918152,-0.024884700775146484,-0.028652619570493698,0.026494823396205902
1.05,0.08130975067615509,-0.13930512964725494,0.07831710577011108,-0.022319532930850983,-0.03674250841140747,0.03292304649949074
1.1,-0.010027363896369934,-0.08089161664247513,-0.005477112717926502,-0.012023026123642921,-0.0333225354552269,0.02183832786977291
1.15,-0.05295445770025253,-0.07399559766054153,-0.030209120362997055,-0.010132186114788055,-0.019830774515867233,0.02245696820318699
1.2,-0.047681450843811035,-0.09920121729373932,-0.05274691432714462,-0.007269487716257572,-0.004457940347492695,0.022936319932341576
1.25,-0.006407186388969421,-0.05334091931581497,-0.049024153500795364,-0.020079294219613075,-0.012490322813391685,0.05243031308054924
1.3,0.008064430207014084,-0.6716328263282776,-0.01044975221157074,-0.025403328239917755,0.02467169053852558,0.12873949110507965
1.35,-0.3745371997356415,-0.38987070322036743,-0.6435229182243347,-0.04289001226425171,-0.08389879763126373,0.13844901323318481
1.4,0.7562796473503113,0.271178275346756,1.0048125982284546,-0.06126483529806137,-0.14271900057792664,0.08240640163421631
1.45,0.05988682061433792,0.04774857312440872,0.06324964016675949,-0.07520335912704468,0.07929299026727676,0.09670554101467133
1.5,0.11177791655063629,-0.138643279671669,0.09119969606399536,-0.11776983737945557,0.08871771395206451,0.10568571090698242
1.55,-0.020672950893640518,-0.0970478281378746,0.09898003190755844,-0.14584213495254517,0.035799119621515274,0.07705742865800858
1.6,0.09460452198982239,0.12082768231630325,0.2582690119743347,-0.1403363049030304,0.07177232205867767,0.06003900617361069
1.65,-0.03324465453624725,-0.026746775954961777,0.4347715377807617,-0.16766539216041565,-0.019613398239016533,0.12099107354879379
1.7,-0.02356996387243271,-0.16622641682624817,0.256405770778656,-0.19583146274089813,-0.06256765872240067,0.12489121407270432
1.75,0.0522635355591774,-0.14636899530887604,0.022332455962896347,-0.12812650203704834,-0.0686386302113533,0.09704741090536118
1.8,0.0778389573097229,-0.2431192696094513,0.02281305566430092,-0.0794576108455658,-0.03717496991157532,0.05590762570500374
1.85,-0.17835339903831482,0.01536463014781475,0.11766591668128967,-0.040899693965911865,0.11310749500989914,-0.02673974446952343
1.9,-0.16551561653614044,-0.3820210099220276,0.047433819621801376,-0.018605142831802368,0.08182235807180405,-0.06098810210824013
1.95,-0.07309966534376144,-0.07999420911073685,-0.10341546684503555,0.10116638988256454,-0.07487912476062775,-0.01839737594127655
2.0,0.13261589407920837,-0.6912861466407776,-0.24329453706741333,0.17283815145492554,-0.10361899435520172,-0.027106834575533867
2.05,0.09300173819065094,-0.02327536977827549,0.003543464234098792,0.2786013185977936,-0.026371750980615616,-0.024101147428154945
2.1,-0.006864622235298157,0.006816842593252659,0.4706655740737915,0.28405308723449707,0.08034229278564453,-0.07906589657068253
2.15,-0.10657624155282974,-0.13610272109508514,0.33966922760009766,0.2544993758201599,0.019570492208003998,-0.06552623212337494
2.2,-0.07160165905952454,-0.039673812687397,-0.06836096942424774,0.2944522202014923,-0.1620962768793106,-0.042027659714221954
2.25,0.17266875505447388,0.03913022577762604,0.07798780500888824,0.31359001994132996,-0.08735575526952744,-0.10125242918729782
2.3,0.022716328501701355,0.03541659191250801,0.32563474774360657,0.253778874874115,0.06812325865030289,-0.10176098346710205
2.35,-0.06250755488872528,0.016103733330965042,0.19596385955810547,0.17691828310489655,-0.0012447983026504517,-0.03223950043320656
2.4,-0.06773358583450317,0.04059600457549095,0.038722433149814606,0.126693993806839,-0.07084387540817261,-0.0028059359174221754
2.45,-0.03539513424038887,-0.2214966118335724,-0.18489207327365875,0.1092817559838295,-0.07572518289089203,0.04391900449991226
2.5,-0.11691153049468994,-0.1938333809375763,-0.036840133368968964,0.1641148030757904,-0.10424204915761948,0.0724637359380722
2.55,-0.02446509525179863,-0.011008268222212791,0.07003030180931091,0.1824333518743515,-0.07990235835313797,0.036241479218006134
2.6,-0.15391486883163452,-0.06851483881473541,-0.0242264773696661,0.15798979997634888,-0.061220668256282806,0.009080762043595314
2.65,0.04572036862373352,0.06071377918124199,0.015834633260965347,0.15666204690933228,-0.10274998843669891,0.0007418153109028935
2.7,0.0913863480091095,0.005341541487723589,-0.092452771961689,0.10577118396759033,-0.1400521993637085,0.007908101193606853
2.75,0.0546356625854969,-0.11280537396669388,-0.12817154824733734,0.06487231701612473,-0.018157094717025757,0.03367114067077637
2.8,-0.020532777532935143,-0.10932447016239166,-0.023001275956630707,0.05098669230937958,-0.008811868727207184,0.023178352043032646
2.85,0.03469499945640564,-0.10004808008670807,0.08878061920404434,0.027501119300723076,-0.03774671629071236,0.021524004638195038
2.9,0.13704414665699005,-0.15465641021728516,-0.06451369822025299,0.01946190372109413,-0.051715120673179626,0.0011218106374144554
2.95,0.12030022591352463,-0.016142837703227997,0.015720674768090248,0.02943815290927887,-0.023130957037210464,-0.003427019575610757
3.0,0.02085910178720951,-0.11570455133914948,0.003071335144340992,0.026035111397504807,-0.008679241873323917,0.018244732171297073
3.05,0.0304649006575346,-0.1938486397266388,0.06972379982471466,0.027041489258408546,-0.01034662127494812,-0.0014077555388212204
3.1,0.04502882808446884,-0.11007500439882278,-0.006533245090395212,0.022981636226177216,-0.008377519436180592,-0.0029369553085416555
3.15,-0.040865764021873474,-0.03513050824403763,-0.01584376022219658,0.014942025765776634,-0.004306849557906389,-0.00900503434240818
3.2,-0.006291355937719345,-0.11285211145877838,0.0570283904671669,-0.00474014924839139,0.01793680526316166,0.006597329396754503
3.25,0.07563100010156631,-0.12514115869998932,0.08878762274980545,-0.01733243465423584,0.030323375016450882,0.014365270733833313
3.3,-0.04193226620554924,-0.11012747138738632,0.04186710715293884,-0.013968578539788723,0.022982729598879814,-0.0070225331000983715
3.35,-0.021167494356632233,-0.08604909479618073,0.11242063343524933,0.006702062673866749,0.024299977347254753,-0.03363361582159996
3.4,0.0009039752185344696,-0.07966519892215729,0.08845575898885727,-0.0008735321462154388,0.02948927693068981,-0.021547634154558182
3.45,-0.03184564411640167,-0.0985126718878746,0.0957552120089531,-0.0022687087766826153,0.01579870842397213,-0.01765326038002968
3.5,-0.04568709805607796,-0.09623720496892929,0.09989731013774872,-0.0012699766084551811,0.010771870613098145,-0.020868239924311638
3.55,-0.05129120871424675,-0.08147145807743073,0.124234139919281,-0.000458654947578907,-0.008745087310671806,-0.015601363964378834
3.6,0.010261211544275284,-0.140138640999794,0.05756445601582527,0.007232175674289465,-0.017160460352897644,-0.014247274026274681
3.65,0.017962686717510223,-0.0947885662317276,0.022573785856366158,0.0065431781113147736,-0.007943722419440746,-0.003344018943607807
3.7,-0.03821525350213051,-0.06058599054813385,0.05885419622063637,0.003325509140267968,-0.011211301200091839,-0.0020325712393969297
3.75,-0.06170757859945297,-0.1416483074426651,-0.0007552966708317399,0.004353811964392662,-0.019446341320872307,0.011243595741689205
3.8,0.016316596418619156,-0.1493406444787979,0.06348251551389694,0.0025416596326977015,-0.01622716523706913,0.011334577575325966
3.85,-0.007217094302177429,-0.11058428138494492,0.07775617390871048,0.0005720946937799454,-0.006178053095936775,0.017709892243146896
3.9,-0.005740541964769363,-0.05539704114198685,0.008963869884610176,0.00014285510405898094,0.003507638117298484,0.0165609922260046
3.95,-0.009604176506400108,-0.10409356653690338,0.06458137184381485,-0.005780755542218685,-0.016467595472931862,0.0005743563524447381
4.0,0.013549801893532276,-0.12612439692020416,0.04470163211226463,-0.0027072045486420393,0.007875615730881691,0.0030714180320501328
4.05,0.03115137480199337,-0.11078836023807526,0.0797654539346695,-0.015298688784241676,0.016409369185566902,-0.0029781037010252476
4.1,-0.016257818788290024,-0.12345029413700104,0.029423417523503304,-0.018601667135953903,0.020093698054552078,0.0015902448212727904
4.15,-0.0016449261456727982,-0.0961465984582901,-0.02505631558597088,-0.00828169658780098,0.006409280002117157,-0.010694650001823902
4.2,0.014004208147525787,-0.042641639709472656,-0.0820101648569107,-0.009186143055558205,0.004488539416342974,-0.010777279734611511
4.25,0.006424324586987495,-0.10411931574344635,-0.03974749520421028,-0.015864983201026917,0.02207799069583416,-0.017856063321232796
4.3,-0.010307153686881065,-0.1318998485803604,-0.00428761774674058,-0.008152969181537628,0.006626115180552006,-0.016705429181456566
4.35,0.026961326599121094,-0.07361889630556107,0.016126612201333046,-0.0007994398474693298,-0.027303511276841164,-0.0207004826515913
4.4,-0.06761046499013901,-0.08720017969608307,-0.004688231740146875,0.0023284333292394876,-0.027373161166906357,0.0004785483470186591
4.45,-0.008840769529342651,-0.064180389046669,0.09889770299196243,-0.0046595679596066475,-0.01733527146279812,0.0081990547478199
4.5,0.03096381388604641,-0.03912068158388138,0.09600040316581726,-0.0073766279965639114,-0.0019175203051418066,0.008633118122816086
4.55,-0.040673427283763885,-0.08765602856874466,-0.0029800781048834324,-0.004654234275221825,0.010921712964773178,0.009105690754950047
4.6,-0.026774100959300995,-0.08155537396669388,-0.02317699044942856,-0.007069140672683716,-0.008604236878454685,-0.0036270995624363422
4.65,0.06664152443408966,-0.028024673461914062,0.047628145664930344,0.006455979775637388,0.02019299939274788,0.00061763048870489
4.7,0.010515619069337845,-0.08775807172060013,0.029752612113952637,-0.007251356262713671,0.026516877114772797,0.0034921530168503523
4.75,-0.015772104263305664,-0.127107635140419,0.029996369034051895,-0.009004667401313782,0.02981763519346714,0.0005329671548679471
4.8,-0.09416618943214417,-0.05351926013827324,-0.06156757101416588,-0.01338519062846899,0.013315013609826565,-0.006074410863220692
4.85,0.03900942951440811,-0.09654808789491653,-0.03274013102054596,-0.00551564060151577,0.012255266308784485,-0.013475862331688404
4.9,0.002146368846297264,-0.09560300409793854,-0.04494177922606468,-0.0027919320855289698,0.010975460521876812,-0.013454756699502468
4.95,-0.03526044636964798,-0.1048746258020401,0.009503057226538658,-0.0059326160699129105,0.014878889545798302,-0.014906407333910465
5.0,-0.028521491214632988,-0.10416032373905182,-0.045594874769449234,-0.006039485335350037,0.014704575762152672,-0.008878521621227264
5.05,-0.0390910804271698,-0.11607839912176132,0.04277702420949936,-0.0014893892221152782,0.017256401479244232,-0.008723576553165913
5.1,-0.04782508313655853,-0.032615672796964645,0.055117152631282806,0.0036442666314542294,0.0174492746591568,-0.016177106648683548
5.15,-0.05079173296689987,-0.10572054237127304,0.1217513382434845,-0.000644688552711159,0.018997797742486,-0.002655941992998123
5.2,-0.14558711647987366,-0.06641294807195663,0.07085306197404861,0.0012175539741292596,0.022837180644273758,-0.0025329580530524254
5.25,0.058143023401498795,-0.17624379694461823,0.08013869822025299,-0.0011389593128114939,0.007480509579181671,-0.004501298535615206
5.3,-0.011780420318245888,-0.12553121149539948,0.061778243631124496,0.0034536453895270824,-0.0038718210998922586,-0.01378553919494152
5.35,-0.015856672078371048,-0.03523922339081764,-0.014423892833292484,0.0030700834468007088,0.026673931628465652,-0.0024235527962446213
5.4,0.022326648235321045,-0.12767411768436432,-0.012835590168833733,-0.002961939899250865,0.017605559900403023,0.001782217645086348
5.45,0.01412400882691145,-0.07987690716981888,-0.003872612025588751,0.003831378649920225,0.00740698492154479,-0.002934203250333667
5.5,0.032387472689151764,-0.09601784497499466,-0.04924492537975311,0.005581490229815245,-0.002874765545129776,-0.0031983237713575363
5.55,-0.03248395770788193,-0.06376553326845169,0.004737723618745804,0.004273649305105209,-0.002094988478347659,-0.007713225670158863
5.6,0.05393306910991669,-0.07249736785888672,-0.07552044838666916,0.015397447161376476,-0.02052614837884903,-0.03828125447034836
5.65,0.07802064716815948,0.001984604401513934,-0.0396338514983654,0.0020913840271532536,-0.0031171489972621202,-0.015309181064367294
5.7,-0.07355167716741562,-0.18854908645153046,0.1247294694185257,-0.008537357673048973,0.03363624960184097,0.026346925646066666
5.75,-0.11882773786783218,-0.06831934303045273,0.20406609773635864,0.013737276196479797,0.007064739242196083,0.006206912454217672
5.8,-0.023929214105010033,-0.047615062445402145,0.007981023751199245,-0.0019109105924144387,-0.02538251504302025,-0.00089476746506989
5.85,0.1078825294971466,0.013158806599676609,0.031948041170835495,-0.03654303029179573,0.031169923022389412,0.0078055597841739655
5.9,-0.012477610260248184,-0.06379415094852448,0.1299985647201538,-0.08691872656345367,0.06892135739326477,0.027765370905399323
5.95,-0.009400316514074802,-0.15038396418094635,0.002792221726849675,-0.12085693329572678,0.046643201261758804,0.05721239745616913
6.0,0.02637447789311409,-0.1412363201379776,-0.09556660801172256,-0.12034329771995544,-0.011949361301958561,0.015743741765618324
6.05,0.14451579749584198,-0.08722781389951706,-0.08564207702875137,-0.10485026240348816,0.006602708250284195,0.0069265891797840595
6.1,0.0786403939127922,-0.05114268511533737,-0.2202717363834381,-0.12155981361865997,-0.00431467592716217,-0.01277092844247818
6.15,0.0963674858212471,-0.05256937816739082,-0.23950672149658203,-0.13006290793418884,0.016211694106459618,-0.044455863535404205
6.2,-0.03316781297326088,0.020333295688033104,-0.12822909653186798,-0.11580555140972137,0.03544854745268822,-0.07313840836286545
6.25,-0.09485283493995667,-0.1631479412317276,-0.17979305982589722,-0.10396233201026917,0.03973168879747391,-0.04900891333818436
6.3,0.02762375958263874,-0.14773370325565338,-0.03239115700125694,-0.07717756927013397,0.03615904971957207,-0.05649526044726372
6.35,-0.01349731907248497,-0.12714578211307526,0.08512967824935913,-0.06674502044916153,0.03339894115924835,-0.05800643190741539
6.4,-0.06497256457805634,-0.14922145009040833,0.10714076459407806,-0.04358267784118652,0.029401356354355812,-0.04747582599520683
6.45,-0.07634672522544861,-0.025336282327771187,0.15524990856647491,-0.02553543820977211,0.02470988593995571,-0.06254880130290985
6.5,0.005994163453578949,-0.0484476238489151,0.16779875755310059,-0.025612473487854004,0.0009995129657909274,-0.05731865391135216
6.55,-0.013371970504522324,-0.0990152582526207,0.1264798492193222,-0.039619091898202896,-0.013353788293898106,-0.05372502654790878
6.6,0.051428090780973434,-0.055895812809467316,0.09050306677818298,-0.04524168744683266,0.02556716464459896,-0.0475945770740509
6.65,-0.028842058032751083,-0.020279889926314354,0.023678774014115334,-0.0409957617521286,0.04091985896229744,-0.030156906694173813
6.7,-0.047686103731393814,-0.13636113703250885,0.03354749083518982,-0.044863130897283554,0.007025596220046282,-0.028700916096568108
6.75,-0.13064047694206238,-0.04068566858768463,0.03362501412630081,-0.03576274961233139,-0.004902738146483898,-0.02976016327738762
6.8,-0.017081845551729202,0.010837550275027752,0.09717478603124619,-0.05131733790040016,-0.014305727556347847,0.00402201758697629
6.85,0.053020574152469635,-0.13412094116210938,-0.07855626940727234,-0.09425858408212662,-0.050577562302351,0.03335176035761833
6.9,-0.09174711257219315,-0.1367502361536026,-0.03726668283343315,-0.08624208718538284,-0.07033120840787888,0.053979258984327316
6.95,-0.16115827858448029,-0.019449248909950256,0.026594964787364006,-0.06435254216194153,-0.09343987703323364,0.05531543493270874
7.0,-0.004440354183316231,-0.11655904352664948,0.03927386924624443,-0.06154936924576759,-0.07860160619020462,0.04689368978142738
7.05,-0.019267503172159195,-0.12799836695194244,-0.020390141755342484,-0.05701924115419388,-0.033518679440021515,0.039436571300029755
7.1,0.03996168076992035,-0.04823780432343483,-0.0006916566053405404,-0.03359541669487953,-0.015905087813735008,0.01425359770655632
7.15,0.1777799129486084,0.013649950735270977,0.11575203388929367,-0.028606273233890533,-0.02427257038652897,-0.00170819868799299
7.2,0.09999888390302658,-0.055087096989154816,0.16263623535633087,-0.06463786214590073,5.1965642342111096e-05,0.02034953236579895
7.25,0.002844458445906639,-0.07293511182069778,0.07511221617460251,-0.07335102558135986,0.00015435936802532524,0.027816858142614365
7.3,-0.03386165201663971,-0.06639958918094635,0.047761864960193634,-0.07284915447235107,0.005021728575229645,0.031962327659130096
7.35,-0.002597522921860218,0.03956985846161842,-0.035230331122875214,-0.06570397317409515,0.01461852714419365,0.017599372193217278
7.4,-0.040112726390361786,-0.103699691593647,-0.18003623187541962,-0.06784898042678833,-0.019703011959791183,-0.006622122600674629
7.45,0.053658317774534225,-0.20197106897830963,-0.15981368720531464,-0.030719788745045662,0.004495321772992611,-0.0386819988489151
7.5,0.051809851080179214,-0.04308605566620827,0.08403395116329193,0.009886132553219795,0.07138901948928833,-0.02473278157413006
7.55,-0.024118930101394653,-0.04600335285067558,0.11037326604127884,-0.00723181152716279,0.038250770419836044,-0.009763811714947224
7.6,0.052780866622924805,0.022176748141646385,-0.008292272686958313,-0.027021102607250214,-0.018442748114466667,-0.006141753867268562
7.65,5.0912145525217056e-05,-0.1362171322107315,-0.014099929481744766,-0.043782852590084076,4.997449286747724e-05,-0.02610095776617527
7.7,-0.05638784542679787,-0.12446024268865585,0.09393010288476944,-0.0293691735714674,0.061087898910045624,-0.012241361662745476
7.75,-0.05182977393269539,-0.027951249852776527,0.04242411628365517,0.011197157204151154,0.00920628011226654,0.008029642514884472
7.8,-0.07982873171567917,-0.06916333734989166,0.054372940212488174,0.012960031628608704,0.0044968752190470695,-0.006648953538388014
7.85,0.05995423346757889,-0.06564236432313919,0.09183769673109055,0.012396953999996185,0.00047573194024153054,-0.0017177239060401917
7.9,-0.12864123284816742,-0.05034162849187851,0.09016550332307816,0.009868680499494076,0.009424117393791676,0.0034587359987199306
7.95,-0.0035641007125377655,-0.08699990063905716,-0.04916758835315704,0.03660154715180397,-0.05016057938337326,0.021338708698749542
8.0,-0.06201551482081413,0.005393022671341896,0.027341671288013458,0.0416165366768837,-0.0104103684425354,0.013037551194429398
8.05,0.04613850638270378,-0.09003353118896484,-0.032869067043066025,0.030636120587587357,-0.01069449819624424,0.028149452060461044
8.1,-0.01827922835946083,0.0007152604521252215,-0.13156664371490479,0.0472615510225296,-0.021971922367811203,0.021634645760059357
8.15,0.05369053781032562,-0.06755257397890091,0.07057055085897446,0.038896411657333374,-0.017598040401935577,-0.004491375293582678
8.2,0.02495192177593708,-0.062116630375385284,0.008990962989628315,0.04468681290745735,0.009948437102138996,0.01739788055419922
8.25,0.008599471300840378,0.04422665387392044,-0.056023869663476944,0.03154938295483589,0.005615533329546452,0.0010574362240731716
8.3,-0.08155256509780884,-0.16918183863162994,-0.01088990643620491,0.022263288497924805,0.02565598301589489,0.016032962128520012
8.35,-0.03027433715760708,-0.16610242426395416,-0.04447077214717865,0.019532818347215652,0.01805134303867817,-0.007543799001723528
8.4,0.03004193678498268,-0.12061596661806107,-0.03580157086253166,0.05144861713051796,-0.0026650214567780495,-0.010388003662228584
8.45,0.0680290088057518,-0.003293034853413701,0.048013556748628616,0.0896400660276413,-0.02211236022412777,0.01381882093846798
8.5,0.04312896728515625,-0.010924347676336765,0.22755654156208038,0.1076461523771286,0.011448873206973076,-0.027715684846043587
8.55,0.015593554824590683,0.01380062010139227,0.08795380592346191,0.056859422475099564,0.017613528296351433,-0.025277545675635338
8.6,-0.02995692379772663,-0.018975263461470604,0.024711813777685165,0.05761266499757767,-0.032729264348745346,0.014120086096227169
8.65,-0.027701668441295624,-0.0274973027408123,0.10106708109378815,0.058003801852464676,-0.011755494400858879,0.00984863843768835
8.7,-0.10271346569061279,-0.14172175526618958,0.008762979879975319,0.03157979995012283,-0.009639273397624493,0.027705132961273193
8.75,-0.01882985047996044,-0.08327390253543854,0.05536302924156189,0.017004990950226784,-0.01195010170340538,0.027761630713939667
8.8,0.020740743726491928,-0.03785133734345436,0.04594675824046135,0.0021904800087213516,0.002822448732331395,0.034393712878227234
8.85,0.0022946931421756744,-0.00043869129149243236,0.026745105162262917,-0.015457158908247948,-0.03450951352715492,0.01828761212527752
8.9,0.11049152910709381,-0.029817577451467514,0.023527400568127632,-0.0234433114528656,-0.023699581623077393,0.014597016386687756
8.95,0.018112901598215103,0.015386582352221012,0.046192292124032974,-0.04588846117258072,0.013970683328807354,0.02726827934384346
9.0,-0.00926525704562664,-0.11634160578250885,-0.05357442423701286,-0.061263784766197205,-0.005688560660928488,0.05098545178771019
9.05,-0.040496718138456345,-0.15382863581180573,-0.10170532763004303,-0.05635328218340874,-0.019941335543990135,0.05041975528001785
9.1,-0.05816050246357918,-0.04175759106874466,-0.016138482838869095,-0.04857100173830986,-0.02898862585425377,0.04053015634417534
9.15,-0.08570366352796555,-0.04442692548036575,-0.0656810849905014,-0.04906979203224182,-0.03336282819509506,0.042325153946876526
9.2,-0.047763653099536896,-0.09323597699403763,-0.02084963582456112,-0.054500218480825424,-0.01669096201658249,0.0410742461681366
9.25,-0.04822838306427002,-0.03201676532626152,0.0802631676197052,-0.05466855317354202,-0.015768256038427353,0.05310727655887604
9.3,-0.08772259950637817,-0.08642007410526276,0.006804354023188353,-0.06290870159864426,-0.011673731729388237,0.0556967630982399
9.35,0.032657451927661896,-0.03554821014404297,-0.00820139516144991,-0.0644073560833931,-0.016997165977954865,0.037968654185533524
9.4,0.10546453297138214,-0.006644243374466896,0.033447470515966415,-0.06496738642454147,0.013205507770180702,-0.0008608463685959578
9.45,0.04836367815732956,-0.04308796301484108,0.06502190232276917,-0.07300553470849991,0.08977796882390976,-0.001721549197100103
9.5,-0.0178749468177557,-0.08036423474550247,0.02171814814209938,-0.07130962610244751,0.07474987208843231,0.023854797706007957
9.55,-0.08614397048950195,-0.09316254407167435,-0.10141072422266006,-0.05555194616317749,0.022986074909567833,0.00022113900922704488
9.6,0.014782639220356941,-0.041914939880371094,-0.05318077281117439,-0.019781071692705154,0.038616202771663666,-0.008615351282060146
9.65,-0.058697182685136795,-0.10019685328006744,-0.03103836067020893,-0.03923758119344711,0.023729896172881126,0.012438048608601093
9.7,-0.0470627024769783,-0.15467549860477448,-0.052194904536008835,-0.04642550274729729,0.01565813273191452,0.016255460679531097
9.75,0.03169688209891319,-0.04861641302704811,0.008583069778978825,-0.030530568212270737,0.021545957773923874,-0.016101425513625145
9.8,0.032683439552783966,-0.07520294934511185,0.004513151943683624,-0.02435346134006977,0.04049075394868851,-0.03321478143334389
9.85,-0.008591283112764359,-0.06922341138124466,0.05165755748748779,-0.011193233542144299,0.04172541946172714,-0.05306350439786911
9.9,-0.017603721469640732,-0.107179656624794,-0.05866805836558342,-0.0034560132771730423,0.031430933624506,-0.07166136801242828
9.95,0.05161716043949127,-0.09079360961914062,-0.0676574856042862,0.01876141130924225,0.039347559213638306,-0.07711540162563324
10.0,-0.10473160445690155,-0.04849816858768463,-0.006342269945889711,0.03529857099056244,0.047566112130880356,-0.05989290028810501
10.05,-0.06384922564029694,-0.02491951920092106,0.012527503073215485,0.04777940362691879,-0.0027283993549644947,-0.05184277147054672
10.1,-0.06470596790313721,-0.0011921016266569495,0.07914365828037262,0.03202409669756889,-0.002882607514038682,-0.03502204641699791
10.15,-0.057949136942625046,-0.10217192023992538,0.11046075075864792,0.014180389232933521,0.016391130164265633,-0.024648699909448624
10.2,-0.05717005580663681,-0.14800168573856354,-0.01757928915321827,0.04854545369744301,0.016687486320734024,-0.0432157963514328
10.25,0.016949860379099846,-0.13406850397586823,0.08043688535690308,0.09390372782945633,-0.010727698914706707,-0.0926109105348587
10.3,0.04390185698866844,-0.013995176181197166,0.15984520316123962,0.13346067070960999,0.03192666918039322,-0.08944349735975266
10.35,0.08519088476896286,0.004094121977686882,0.19519348442554474,0.12995758652687073,0.02641105093061924,-0.06476012617349625
10.4,-0.04844234511256218,-0.05858708918094635,0.11423710733652115,0.0922098383307457,0.02054487355053425,-0.021391231566667557
10.45,-0.06043252348899841,-0.05887223407626152,-0.04262857884168625,0.08010376244783401,-0.023121001198887825,-0.014891199767589569
10.5,0.008046185597777367,-0.09664060175418854,0.03990473225712776,0.09080274403095245,-0.028776325285434723,-0.017689773812890053
10.55,-0.01688196323812008,-0.08753014355897903,-0.04722435399889946,0.0989793986082077,-0.02622135542333126,-0.024044809862971306
10.6,-0.013848421163856983,-0.0854644849896431,-0.04702352359890938,0.10145209729671478,-0.018227573484182358,-0.029102038592100143
10.65,0.00313689187169075,-0.1218719631433487,-0.04530564695596695,0.10319683700799942,-0.03148195147514343,-0.035997021943330765
10.7,-0.04635249823331833,-0.16148091852664948,-0.03694307431578636,0.12598496675491333,-0.02694692090153694,-0.045553114265203476
10.75,0.025295957922935486,-0.07340336591005325,0.002688830718398094,0.15247996151447296,-0.031758297234773636,-0.06224614754319191
10.8,0.11303968727588654,0.04710770770907402,0.1169089749455452,0.14632487297058105,-0.004437538329511881,-0.06305743753910065
10.85,-0.05660698190331459,-0.08421231806278229,0.08436920493841171,0.09719085693359375,0.03175273910164833,-0.03642641380429268
10.9,0.13073648512363434,-0.16240501403808594,0.033951714634895325,0.07818541675806046,0.03463710471987724,-0.03629240393638611
10.95,0.022849274799227715,-0.0998840481042862,0.0025302269496023655,0.06609392911195755,0.031218210235238075,-0.04513450711965561
11.0,-0.036280564963817596,-0.18100549280643463,0.002311111893504858,0.07703539729118347,0.09323911368846893,-0.032435428351163864
11.05,-0.014445553533732891,-0.24343112111091614,-0.05761328339576721,0.07823554426431656,0.09251463413238525,-0.03986356407403946
11.1,-0.11449924856424332,-0.27853015065193176,-0.18221347033977509,0.10384082049131393,0.11497703939676285,-0.05216747149825096
11.15,-0.13809481263160706,-0.13060952723026276,-0.08248375356197357,0.1509297788143158,0.11818920075893402,-0.09091119468212128
11.2,0.001127239316701889,-0.0952921137213707,0.09135434031486511,0.17195343971252441,0.10658175498247147,-0.09482739120721817
11.25,-0.019029539078474045,-0.046852122992277145,0.13719430565834045,0.17634540796279907,0.07966979593038559,-0.08818451315164566
11.3,0.12300828099250793,-0.12856484949588776,0.31193065643310547,0.1821974366903305,0.08866356313228607,-0.10189390182495117
11.35,0.01879183202981949,-0.08345319330692291,0.2579886317253113,0.15265953540802002,0.10274209082126617,-0.09402723610401154
11.4,0.015049174427986145,-0.048735637217760086,0.28588199615478516,0.15730616450309753,0.11715605109930038,-0.09682125598192215
11.45,0.09670752286911011,-0.12253286689519882,0.358094185590744,0.14453917741775513,0.08006159961223602,-0.09675289690494537
11.5,-0.00271422415971756,-0.19884876906871796,0.2781815826892853,0.09584181010723114,0.0681488886475563,-0.05823991820216179
11.55,-0.1412188708782196,-0.05325796827673912,0.189417764544487,0.07737010717391968,0.0015357499942183495,-0.027868490666151047
11.6,0.135056734085083,-0.1395416408777237,0.1077357828617096,0.08518014848232269,-0.04513447359204292,-0.025346029549837112
11.65,-0.02317884750664234,-0.19477370381355286,-0.002386310836300254,0.08350467681884766,-0.05166482552886009,-0.021214559674263
11.7,-0.16410799324512482,-0.08771993219852448,-0.03417797386646271,0.1057359054684639,-0.006423958111554384,0.0019228527089580894
11.75,-0.08376031368970871,-0.22133544087409973,-0.020006706938147545,0.10468107461929321,0.020105861127376556,-0.02312050387263298
11.8,0.02680198848247528,-0.2104339897632599,0.08803580701351166,0.11518650501966476,0.042384468019008636,-0.04609503224492073
11.85,0.05246543139219284,-0.10776617377996445,0.18409037590026855,0.10920363664627075,0.008680291473865509,-0.045846521854400635
11.9,0.02365921065211296,-0.11959554255008698,0.02296256646513939,0.0942261591553688,-0.008122503757476807,-0.028342196717858315
11.95,0.04388279467821121,-0.10204412043094635,0.04216345399618149,0.09823071956634521,-0.02323976531624794,-0.02261447347700596
12.0,0.034312330186367035,-0.11407090723514557,0.10620132088661194,0.09328389167785645,-0.024942217394709587,-0.02554067224264145
12.05,-0.08361271768808365,-0.2134399712085724,-0.05342607945203781,0.0674515813589096,-0.011696613393723965,-0.02701071836054325
12.1,-0.09724666178226471,-0.010083203203976154,-0.07202539592981339,0.05932462960481644,-0.015294122509658337,-0.04521242901682854
12.15,0.02834116667509079,-0.023926738649606705,0.06693747639656067,0.06760001927614212,0.01077269297093153,-0.08662290126085281
12.2,0.004005815833806992,-0.19798949360847473,0.144735187292099,0.05257083475589752,0.03732868656516075,-0.05498584732413292
12.25,0.03484185039997101,-0.004210470709949732,0.01625247485935688,0.0425197072327137,0.028214342892169952,-0.02356984280049801
12.3,-0.1527162492275238,0.12180423736572266,-0.0052776155062019825,0.044511500746011734,0.04371802136301994,-0.014017883688211441
12.35,-0.15975156426429749,0.2710933983325958,0.035337649285793304,0.029571756720542908,0.1463748663663864,0.013034533709287643
12.4,-0.022683531045913696,0.6449366211891174,0.1827373057603836,-0.06328292936086655,0.2380787879228592,0.0869438573718071
12.45,0.19634191691875458,0.5755529999732971,0.47755852341651917,-0.2408159077167511,0.19886863231658936,0.12704122066497803
12.5,0.04038917273283005,0.024310102686285973,0.3421381413936615,-0.4373096227645874,0.10461188107728958,0.2449062317609787
12.55,-0.15108300745487213,-0.46364694833755493,-0.08248768001794815,-0.5078533291816711,0.03177674487233162,0.28086212277412415
12.6,-0.17461802065372467,-0.13547900319099426,0.10140051692724228,-0.4693618416786194,0.005578415468335152,0.15519148111343384
12.65,0.045622557401657104,-0.08262350410223007,0.4183787703514099,-0.4224141240119934,-0.01290115062147379,0.08579550683498383
12.7,0.1487640142440796,-0.17620564997196198,0.35991597175598145,-0.3878130614757538,-0.1739252656698227,0.0814516544342041
12.75,0.05523832142353058,-0.21300795674324036,0.041293878108263016,-0.35738468170166016,-0.33429986238479614,0.11638639122247696
12.8,0.271249920129776,-0.6340466141700745,-0.11258044093847275,-0.29325756430625916,-0.34178900718688965,0.004227741621434689
12.85,0.3131847381591797,-0.33607006072998047,-0.050136715173721313,-0.23132222890853882,-0.17158780992031097,-0.05211289972066879
12.9,0.40893155336380005,0.06783583760261536,0.17599265277385712,-0.16176186501979828,-0.12459907680749893,-0.026974927634000778
12.95,0.11718124151229858,0.1720876842737198,0.29292914271354675,-0.16746443510055542,-0.060118064284324646,0.005103277042508125
13.0,-0.020847924053668976,-0.23888114094734192,0.1215294599533081,-0.1724102646112442,-0.06292174756526947,-0.00039432759513147175
13.05,0.15985651314258575,-0.19696620106697083,0.24160179495811462,-0.1541041135787964,-0.12785257399082184,-0.011492345482110977
13.1,0.08714661002159119,-0.026647577062249184,0.27189621329307556,-0.11075620353221893,-0.03173315152525902,-0.009335718117654324
13.15,-0.14545577764511108,-0.37868982553482056,0.05301648750901222,-0.12505680322647095,-0.006323685869574547,0.012652515433728695
13.2,-0.29460158944129944,-0.644198477268219,-0.31364762783050537,-0.07389084994792938,-0.0060511138290166855,0.01988994888961315
13.25,-0.1476244032382965,-0.027372369542717934,-0.11953188478946686,0.05133043974637985,-0.03443627431988716,-0.0435808002948761
13.3,-0.15199729800224304,0.10279178619384766,0.030031686648726463,0.06515306234359741,0.025683289393782616,-0.031117279082536697
13.35,-0.2632216215133667,0.061586372554302216,-0.1399378478527069,0.09255589544773102,0.03205908089876175,0.06275864690542221
13.4,-0.1812564730644226,-0.21914677321910858,0.021355891600251198,0.11647148430347443,0.0041418131440877914,0.0843469575047493
13.45,-0.02815738320350647,-0.20104603469371796,0.16747863590717316,0.21580801904201508,0.016519010066986084,0.09152743220329285
13.5,-0.04778129979968071,0.06698417663574219,0.021696360781788826,0.31191354990005493,-0.08136388659477234,0.09436755627393723
13.55,-0.42703676223754883,-0.17443375289440155,-0.14476609230041504,0.23795680701732635,-0.057778891175985336,0.1538122147321701
13.6,-0.25467121601104736,0.0760345309972763,0.021110959351062775,0.24668952822685242,-0.050845567137002945,0.08514626324176788
13.65,0.17192772030830383,0.31128886342048645,0.13602277636528015,0.22110231220722198,-0.0982649028301239,0.018292350694537163
13.7,-0.18392963707447052,-0.14446832239627838,-0.2580869793891907,0.07623497396707535,-0.11664719879627228,0.08807295560836792
13.75,-0.31746959686279297,-0.33344462513923645,-0.39383116364479065,0.041464317589998245,-0.001048958394676447,0.07744426280260086
13.8,-0.19006213545799255,-0.17159844934940338,-0.25961336493492126,0.07982230931520462,0.03774070739746094,0.023728903383016586
13.85,-0.08600778877735138,-0.129823699593544,-0.20237073302268982,0.08176745474338531,0.0580856092274189,0.01023956574499607
13.9,-0.026984548196196556,-0.07473469525575638,0.0032465315889567137,0.08767672628164291,0.09578875452280045,0.00429107341915369
13.95,0.053196389228105545,-0.067475326359272,0.11489885300397873,0.055702466517686844,0.03797240927815437,0.0001099665169022046
14.0,0.1636577844619751,-0.15387725830078125,0.10015518963336945,0.04479704797267914,-0.01626718044281006,0.008876049891114235
14.05,0.12596194446086884,0.03002071939408779,0.17013272643089294,0.055306561291217804,-0.002436932409182191,0.008741876110434532
14.1,0.07957020401954651,-0.04941273853182793,0.22862277925014496,0.014010556042194366,0.061991285532712936,0.013770698569715023
14.15,-0.006387539207935333,-0.12992671132087708,0.27352026104927063,-0.010449206456542015,0.07943195849657059,0.02667679637670517
14.2,0.019618071615695953,-0.07331182062625885,0.19014210999011993,-0.011814950034022331,0.05595792829990387,-0.0022592416498810053
14.25,0.011756356805562973,-0.14803029596805573,0.143406942486763,-0.018427593633532524,0.05477393791079521,0.016010206192731857
14.3,0.0023895353078842163,-0.11259271949529648,0.18220511078834534,-0.0205979123711586,0.027220437303185463,0.01740419864654541
14.35,-0.029041964560747147,-0.1331787258386612,0.05269147828221321,-0.007392982020974159,0.03456931188702583,0.0017610915238037705
14.4,-0.046192657202482224,-0.06600095331668854,0.0741041973233223,-0.00014868564903736115,-0.015121974982321262,-0.02582552842795849
14.45,0.050125088542699814,-0.053596507757902145,0.1991572231054306,0.017071515321731567,0.02415400743484497,-0.014475482515990734
14.5,0.03509698063135147,-0.12567616999149323,0.10040578246116638,0.008751275017857552,0.007071705535054207,-0.005081261973828077
14.55,-0.000502273440361023,-0.09522058069705963,0.04273220896720886,0.012201182544231415,-0.0020352753344923258,-0.012791736051440239
14.6,0.12682078778743744,-0.027091026306152344,0.11308030039072037,0.021822499111294746,-0.009400816634297371,-0.016255484893918037
14.65,0.030147738754749298,-0.08882904797792435,0.12795192003250122,0.026006385684013367,0.012309342622756958,-0.01942840777337551
14.7,0.030331702902913094,-0.14017201960086823,0.07590071111917496,0.029441500082612038,0.02247576415538788,-0.021083295345306396
14.75,-0.017349258065223694,-0.09648516029119492,0.1238548532128334,0.028139127418398857,0.02765159122645855,-0.033095937222242355
14.8,0.040466830134391785,-0.07419682294130325,0.09040810912847519,0.023887459188699722,0.03229295834898949,-0.02987201325595379
14.85,0.046720314770936966,-0.10750104486942291,0.048344362527132034,0.03356017917394638,0.013272196054458618,-0.013860507868230343
14.9,-0.06348077952861786,-0.09557154029607773,-0.016282549127936363,0.02753160521388054,0.023721875622868538,-0.0059412685222923756
14.95,0.026806659996509552,-0.08718682080507278,0.061038389801979065,0.010687267407774925,0.04177364706993103,-0.018516430631279945
15.0,0.0006313375197350979,4.482319491216913e-05,-0.00971749797463417,0.008626500144600868,0.030905721709132195,-0.015471719205379486
15.05,0.10381436347961426,-0.058800701051950455,0.10471228510141373,0.0043551865965127945,0.004115162417292595,-0.024519409984350204
15.1,-0.01570233330130577,-0.04587460309267044,0.058928560465574265,0.01335923746228218,0.030732393264770508,-0.020295534282922745
15.15,0.003977932035923004,-0.12303830683231354,0.08167891204357147,0.004603818524628878,0.025875702500343323,-0.010792788118124008
15.2,-0.005432065576314926,-0.06345082074403763,0.057669755071401596,0.003488693153485656,0.007265868596732616,-0.00937082339078188
15.25,-0.038521815091371536,-0.08945180475711823,0.05223337560892105,-0.00016056187450885773,0.006765532772988081,-0.009160730987787247
15.3,0.032632868736982346,-0.12824632227420807,-0.008803301490843296,0.0035323873162269592,0.026007309556007385,-0.028852611780166626
15.35,0.012923359870910645,-0.19464686512947083,0.0693262442946434,0.0341343879699707,0.04594486206769943,-0.033604178577661514
15.4,-0.07329004257917404,-0.06584646552801132,0.19452902674674988,0.06588248163461685,0.07726083695888519,-0.03694285452365875
15.45,-0.09517364203929901,-0.009408011101186275,0.12974010407924652,0.058046888560056686,0.03366668522357941,-0.015795741230249405
15.5,-0.0751023143529892,-0.11091234534978867,0.041798897087574005,0.029313135892152786,-0.01798364706337452,0.012674148194491863
15.55,-0.06492119282484055,-0.10998441278934479,-0.09939182549715042,-0.001947677694261074,0.0012950394302606583,0.028681717813014984
15.6,-0.03436547890305519,-0.11522771418094635,-0.040085211396217346,0.007819896563887596,0.017650967463850975,0.020733891054987907
15.65,0.06605437397956848,-0.06713104248046875,0.01173035241663456,0.011796894483268261,0.036957383155822754,0.007191777694970369
15.7,-0.021660415455698967,-0.093812957406044,0.018132394179701805,0.01033584214746952,0.008776728063821793,0.00378247513435781
15.75,0.06352929025888443,-0.06883525848388672,0.006597226019948721,0.010873481631278992,-0.015623108483850956,0.0002833660691976547
15.8,0.016885846853256226,-0.09693719446659088,0.05063418671488762,0.00027666776441037655,0.0020885951817035675,0.007404780481010675
15.85,-0.09972422569990158,-0.12576104700565338,-0.050053920596838,-0.007650211453437805,-0.01051125768572092,0.01226546335965395
15.9,0.014642976224422455,-0.12837602198123932,-0.0594303272664547,-0.001174632110632956,-0.011807569302618504,-0.004839056171476841
15.95,0.04551522433757782,-0.10235311090946198,0.046388834714889526,0.005467659328132868,-0.00815321784466505,-0.00976482778787613
16.0,-0.014739885926246643,-0.10599520057439804,0.07924273610115051,0.017762426286935806,0.011882549151778221,-0.008738869801163673
16.05,0.0011829622089862823,-0.0928802639245987,0.10798130929470062,0.017817799001932144,-0.004910134710371494,-0.004531968850642443
16.1,0.03180155158042908,-0.06694317609071732,0.04512353986501694,0.004332643002271652,-0.012156280688941479,0.0023204658646136522
16.15,-0.04493963345885277,-0.1334705650806427,0.08885040879249573,0.0012762630358338356,-0.010308321565389633,0.016170786693692207
16.2,-0.046729106456041336,-0.10603144019842148,0.08636585623025894,0.009293898940086365,-0.016989815980196,0.010975058190524578
16.25,0.01619645021855831,-0.07592392712831497,0.025908656418323517,0.010664056986570358,-0.0009251843439415097,0.008150560781359673
16.3,-0.1028842031955719,-0.09061624109745026,-0.028533946722745895,0.007273470982909203,0.008128605782985687,0.013082560151815414
16.35,0.022780872881412506,-0.18068505823612213,0.0013914793962612748,0.002637806348502636,0.0057432386092841625,0.01335584931075573
16.4,-0.059255171567201614,-0.06720162183046341,-0.024170033633708954,0.006565614137798548,-0.010926175862550735,0.0006747685256414115
16.45,-0.0363042876124382,-0.033140189945697784,-0.012066476047039032,0.0009964192286133766,0.018623175099492073,0.015246579423546791
16.5,-0.0444926880300045,-0.12253095209598541,-0.008224958553910255,-0.006026970222592354,0.0032508668955415487,0.027508320286870003
16.55,-0.034136638045310974,-0.13230229914188385,-0.015030371025204659,-0.0008245669305324554,-0.004448810126632452,0.014905688352882862
16.6,0.09660273045301437,-0.1368246227502823,0.09146025776863098,-0.00248198420740664,-0.022891292348504066,0.007110270205885172
16.65,0.01696835085749626,-0.11672307550907135,0.06212657317519188,0.00466364249587059,-0.01468422170728445,0.0007449255208484828
16.7,-0.0703078955411911,-0.09755613654851913,0.04303336143493652,0.006147352978587151,-0.008287557400763035,-0.0007402091869153082
16.75,-0.02226428873836994,-0.07481671869754791,0.06540755182504654,-0.0013513969024643302,-0.01887385919690132,-0.004958862438797951
16.8,-0.03269078582525253,-0.12171747535467148,0.06862858682870865,0.0022953487932682037,-0.00874889176338911,-0.0034968263935297728
16.85,-0.015587195754051208,-0.08257009088993073,0.08230899274349213,0.006979791447520256,-0.008851687423884869,-0.008334492333233356
16.9,-0.026701048016548157,-0.08640862256288528,0.010825145989656448,0.006988025736063719,0.0007657377864234149,-0.006652630865573883
16.95,-0.15922704339027405,-0.06905462592840195,-0.015531844459474087,0.004798158537596464,0.009149640798568726,-0.0033296234905719757
17.0,0.01467938907444477,-0.1337614208459854,0.06905890256166458,0.00816576648503542,0.0025951885618269444,-0.003680175170302391
17.05,-0.006846308708190918,-0.1464262157678604,0.04169125854969025,0.013355490751564503,-0.02434666082262993,-0.019644076004624367
17.1,0.004470959305763245,-0.11678124964237213,0.032131221145391464,0.009180056862533092,0.0140983946621418,-0.002001542132347822
17.15,-0.01669170707464218,-0.14253808557987213,0.07028479874134064,0.0018308116123080254,0.015590209513902664,0.003037583315744996
17.2,-0.04203318804502487,-0.09907247871160507,0.030200395733118057,0.0008204133482649922,0.0040851496160030365,0.0013684581499546766
17.25,0.0345742292702198,-0.0880432203412056,0.04120665788650513,0.005895874463021755,-0.017861703410744667,-0.005437230225652456
17.3,-0.022861327975988388,-0.03874874860048294,0.0252632275223732,0.007888334803283215,-0.004463324788957834,-0.0037992550060153008
17.35,-0.0302116721868515,-0.07482529431581497,0.010355223901569843,0.0038840509951114655,0.0025767977349460125,0.0071780504658818245
17.4,-0.02776000089943409,-0.05122185871005058,0.06654874235391617,1.4802208170294762e-05,-0.007479887921363115,0.0027046450413763523
17.45,-0.011886987835168839,-0.11260510981082916,0.007501081097871065,0.0019042801577597857,-0.010816569440066814,0.005532491020858288
17.5,-0.01536986418068409,-0.15004827082157135,0.054329611361026764,0.007057249546051025,-0.003909175284206867,0.00382221769541502
17.55,-0.01908479444682598,-0.08254148066043854,0.06680725514888763,0.0034094983711838722,-0.004415437113493681,0.0040543535724282265
17.6,0.0273677296936512,-0.13352490961551666,0.05338386073708534,-0.0012749666348099709,-0.004317707382142544,0.008895366452634335
17.65,0.017969779670238495,-0.05011368170380592,-0.04462522268295288,0.00021920772269368172,0.011691431514918804,0.009107450023293495
17.7,-0.09095966070890427,-0.060605064034461975,0.004915637895464897,0.00034779339330270886,-0.0029145549051463604,-0.0017560262931510806
17.75,0.03186691552400589,-0.05986786633729935,0.04784505441784859,0.009399104863405228,-0.007657825481146574,-0.006974261719733477
17.8,0.00026673683896660805,-0.07655812054872513,-0.015497253276407719,0.002042903797701001,0.013040115125477314,0.0014702682383358479
17.85,-0.06754633039236069,-0.14834119379520416,-0.03454679250717163,-0.00022780243307352066,0.004682909697294235,0.005986274220049381
17.9,-0.03646627068519592,-0.09159088879823685,-0.018199265003204346,0.001524068764410913,-0.0010818721493706107,0.0012198511976748705
17.95,-0.02369583211839199,-0.1349334865808487,0.020645366981625557,0.0038512067403644323,-0.004825932905077934,-0.009584786370396614
18.0,0.006560182198882103,-0.020023349672555923,0.05314789339900017,0.00833465252071619,-0.0048539601266384125,-0.01743170991539955
18.05,0.05864747613668442,-0.040850646793842316,0.14948244392871857,0.006333488970994949,0.0034500588662922382,-0.011086531914770603
18.1,-3.1692907214164734e-05,-0.06400013715028763,0.05287037789821625,-0.0013769504148513079,-0.018866993486881256,-0.004977909382432699
18.15,-0.049715764820575714,-0.11511709541082382,0.05713045969605446,-0.0006779187824577093,-0.02403753064572811,-0.0051146564073860645
18.2,-0.02499644085764885,-0.0976257473230362,0.01793220266699791,0.0008960603736341,-0.02014099434018135,-0.011178999207913876
18.25,-0.029583103954792023,-0.06699181348085403,0.0055840821005403996,0.006122850347310305,-0.0083079244941473,-0.0007145284325815737
18.3,-0.048116087913513184,-0.1206369623541832,0.07108008861541748,0.016718784347176552,0.002923819702118635,-0.005690875928848982
18.35,-0.12189128994941711,-0.04108525440096855,-0.07628264278173447,0.021002911031246185,0.0007262354483827949,-0.0014754858566448092
18.4,-0.011971184983849525,-0.08331204205751419,0.0073051792569458485,0.013303124345839024,-0.02182798460125923,-0.015092565678060055
18.45,-0.022041140124201775,-0.07838346064090729,0.0701126679778099,0.018807802349328995,0.02118891291320324,0.00820671021938324
18.5,-0.011918487027287483,-0.09139157086610794,0.029394039884209633,-0.0003443886525928974,0.009626930579543114,0.015181250870227814
18.55,-0.0525566041469574,-0.14777661859989166,-0.01202353648841381,0.0006036115810275078,0.0019055261509492993,0.013430312275886536
18.6,-0.01665029674768448,-0.09109783917665482,0.015443658456206322,0.003390147816389799,-0.004441286437213421,0.004042328335344791
18.65,-0.00012443773448467255,-0.07730294018983841,-0.037652309983968735,0.0028534645680338144,-0.008953163400292397,0.005475147627294064
18.7,0.08684073388576508,-0.07749080657958984,0.035481613129377365,0.0033756771590560675,-0.014045128598809242,0.002302862936630845
18.75,0.034279342740774155,-0.08564663678407669,0.06736035645008087,-0.006194704212248325,-0.004206168465316296,0.010692138224840164
18.8,-0.0558105930685997,-0.11623860895633698,-0.018177099525928497,-0.016467809677124023,-0.01314767450094223,0.026222893968224525
18.85,-0.04575829207897186,-0.12754060328006744,0.009595222771167755,-0.009735438041388988,-0.002307657618075609,0.01850299723446369
18.9,-0.10759545862674713,-0.07460404932498932,0.007967540062963963,-0.012335242703557014,0.006205406039953232,0.015833834186196327
18.95,-0.0488412044942379,-0.06168939173221588,0.07593118399381638,-0.008418779820203781,0.004180106800049543,0.014034608379006386
19.0,0.10090456902980804,-0.04134845733642578,0.06398722529411316,0.00016631511971354485,0.011685583740472794,0.009116067551076412
19.05,0.0012966524809598923,-0.11134244501590729,0.038434844464063644,-0.001416920917108655,-0.011692028492689133,-0.010875842534005642
19.1,-0.03341230750083923,-0.07839489728212357,-0.0041144541464746,0.015624203719198704,-0.001305073732510209,-0.013250818476080894
19.15,-0.11317305266857147,-0.09129907935857773,0.05673309415578842,0.002811892656609416,0.01499710138887167,-0.0015451128128916025
19.2,-0.09127422422170639,-0.10941030830144882,-0.029410263523459435,0.004455970600247383,-0.005012486129999161,-0.0005552241345867515
19.25,-0.049799226224422455,-0.03962040692567825,-0.032615985721349716,0.011170701123774052,-0.04445364698767662,-0.001851844135671854
19.3,0.07155026495456696,0.12763787806034088,0.05777673050761223,0.04055759310722351,-0.061827030032873154,0.011066016741096973
19.35,0.09138032793998718,-0.17939090728759766,-0.03311151638627052,0.09820879995822906,-0.12928615510463715,0.06631651520729065
19.4,0.2228875607252121,0.22649674117565155,-0.09713932126760483,0.07953152805566788,-0.005028063431382179,0.08458597958087921
19.45,0.5414861440658569,0.3925953805446625,0.3796308934688568,-0.04480719566345215,0.002161097712814808,0.11392265558242798
19.5,0.6575983166694641,0.3544226288795471,0.7114412188529968,-0.29002097249031067,-0.03500938042998314,0.1288571059703827
19.55,0.394786536693573,0.03857996687293053,0.15079255402088165,-0.4863554835319519,0.015878750011324883,0.18163606524467468
19.6,-0.27432942390441895,-0.16390325129032135,-0.6049622297286987,-0.5072526931762695,0.05345148220658302,0.21859943866729736
19.65,-0.9221455454826355,-0.32736021280288696,-0.9400204420089722,-0.5186906456947327,0.16274437308311462,0.17989768087863922
19.7,-1.001349925994873,-0.23563963174819946,-1.0762420892715454,-0.4590056538581848,0.11562145501375198,0.09969406574964523
19.75,-0.08505260944366455,0.1531973034143448,-0.19513848423957825,-0.34953343868255615,0.11618628352880478,-0.05150619521737099
19.8,-0.05201852321624756,0.06243419274687767,0.18549439311027527,-0.5287872552871704,0.27802106738090515,-0.005050604697316885
19.85,-0.14047585427761078,-0.01661399006843567,0.3774071931838989,-0.5154479146003723,0.42075201869010925,0.04666183143854141
19.9,0.08680233359336853,0.1708526909351349,-0.10051363706588745,-0.4411669969558716,0.34026309847831726,0.18518313765525818
