Time [s],Acc_x [m/s^2],Acc_y [m/s^2],Acc_z [m/s^2],Gyro_x [1/s],Gyro_y [1/s],Gyro_z [1/s]
0.0,0.09262412041425705,-0.03824806958436966,-0.08168448507785797,0.0025546662509441376,-0.017203262075781822,0.01641116477549076
0.05,0.07107443362474442,0.005249022971838713,-0.038197796791791916,0.0006552296690642834,-0.01962490752339363,0.020054180175065994
0.1,0.04666433855891228,-0.025797851383686066,-0.04553784802556038,-0.0027004540897905827,-0.025533603504300117,0.02255290374159813
0.15,0.0905519425868988,-0.03494644910097122,-0.06687217205762863,-0.006516887806355953,-0.025869224220514297,0.022066878154873848
0.2,0.08746924996376038,-0.05297471210360527,-0.07963906973600388,-0.007741448935121298,-0.02221754379570484,0.022382793948054314
0.25,-0.01133747398853302,-0.023902900516986847,-0.032210998237133026,-0.01574394293129444,-0.023904724046587944,0.02150322124361992
0.3,-0.010888688266277313,-0.039571765810251236,-0.006277931854128838,-0.01364528015255928,-0.0027859110850840807,0.023991353809833527
0.35,-0.025164194405078888,-0.05644417926669121,-0.013204026035964489,-0.026249438524246216,0.013179972767829895,0.016131797805428505
0.4,-0.0004223017022013664,-0.09698774665594101,-0.03451698273420334,-0.03554162755608559,0.019775213673710823,0.008363061584532261
0.45,-0.07475589960813522,-0.07182885706424713,-0.06344840675592422,-0.03099745698273182,0.031438667327165604,0.010205844417214394
0.5,-0.07602152228355408,-0.07941915094852448,-0.06567811220884323,-0.0211859792470932,0.06399499624967575,0.015244824811816216
0.55,-0.09929997473955154,-0.13845732808113098,-0.04256541654467583,-0.017637282609939575,0.09257278591394424,0.019068636000156403
0.6,-0.17504218220710754,-0.23961451649665833,0.06585148721933365,-0.022112712264060974,0.1055469736456871,0.020786387845873833
0.65,-0.3152543604373932,-0.20635510981082916,0.2309204787015915,-0.05021797865629196,0.14229610562324524,0.02812151052057743
0.7,-0.4889804720878601,-0.07794185727834702,0.5836650133132935,-0.09512597322463989,0.2985322177410126,0.023486901074647903
0.75,-0.4497440755367279,-0.10081098228693008,0.5235802531242371,-0.1292063444852829,0.5331395864486694,-0.01950918138027191
0.8,-0.5787991881370544,-0.13257215917110443,0.5026850700378418,-0.1956094354391098,0.5231559872627258,-0.09837932884693146
0.85,-0.42326438426971436,-0.10655686259269714,0.577528178691864,-0.2893601953983307,0.4389791190624237,-0.17366357147693634
0.9,-0.353141725063324,0.20782285928726196,0.34609711170196533,-0.34001779556274414,0.5200656652450562,-0.17968010902404785
0.95,0.16568633913993835,0.08957962691783905,0.29995784163475037,-0.33385878801345825,0.8335239887237549,-0.1519305408000946
1.0,0.931418776512146,-0.35411253571510315,0.8095124363899231,-0.3505514860153198,1.2836216688156128,-0.13977262377738953
1.05,1.0726346969604492,-0.5798006057739258,0.002471824875101447,-0.4151262938976288,1.697277307510376,-0.11495461314916611
1.1,1.1001108884811401,-0.009870447218418121,0.317264586687088,-0.5209704637527466,1.776998519897461,-0.05866001173853874
1.15,1.3294684886932373,0.13648514449596405,-0.2774854302406311,-0.5048900842666626,1.8456807136535645,-0.030361685901880264
1.2,1.2702795267105103,0.11420723050832748,-0.9433402419090271,-0.5156447291374207,1.706120252609253,0.07805383950471878
1.25,0.8352338075637817,0.1289442777633667,-1.547441005706787,-0.49194222688674927,1.4631190299987793,0.23505482077598572
1.3,-0.3067408800125122,0.792840838432312,-1.9525760412216187,-0.43992921710014343,1.3018218278884888,0.3809448778629303
1.35,-1.3996628522872925,0.5443064570426941,-2.6331570148468018,-0.3068971335887909,1.3071609735488892,0.35200411081314087
1.4,-1.4280040264129639,-0.2973073720932007,-2.337043046951294,-0.0980132669210434,0.796077311038971,0.3906112015247345
1.45,-0.1239318698644638,-0.06529907882213593,-0.30190420150756836,0.10220228135585785,0.24721845984458923,0.4590322971343994
1.5,-0.5708617568016052,0.024451132863759995,-0.9238361120223999,0.08805236220359802,0.15486600995063782,0.36690783500671387
1.55,-0.41111063957214355,0.30020901560783386,-0.45645081996917725,-0.023037388920783997,-0.5219295024871826,0.4223887622356415
1.6,-0.061805859208106995,0.8090878129005432,-0.5620876550674438,-0.15768946707248688,-0.7513818740844727,0.42247921228408813
1.65,0.017533496022224426,0.7597790360450745,-0.7269421219825745,-0.39932188391685486,-1.0660598278045654,0.6384098529815674
1.7,-0.47973379492759705,0.5132493376731873,-0.788379967212677,-0.6782606840133667,-1.4374308586120605,0.8480044007301331
1.75,-0.5312496423721313,0.4993419647216797,-0.20485921204090118,-0.7862948775291443,-1.5549206733703613,0.7634072303771973
1.8,-0.6364580988883972,0.6310043334960938,-0.07040004432201385,-0.7923874258995056,-1.1481584310531616,0.3849017024040222
1.85,-0.5825221538543701,0.7426444292068481,0.571621835231781,-0.6543854475021362,-0.7363899946212769,-0.05661402642726898
1.9,-0.2711883783340454,0.004858956206589937,-0.028804734349250793,-0.45298171043395996,-0.47037482261657715,-0.5452317595481873
1.95,-0.02508336305618286,0.13169479370117188,-0.13373339176177979,-0.22920556366443634,-0.6242126822471619,-0.5623588562011719
2.0,-0.02486744523048401,0.5723124146461487,0.2629534602165222,-0.12672992050647736,-0.7723223567008972,-0.535189151763916
2.05,0.08899615705013275,0.8238756060600281,0.5700367093086243,-0.11476659774780273,-0.8474775552749634,-0.6814852952957153
2.1,0.5291249752044678,1.3900091648101807,0.9635701179504395,-0.2486889809370041,-1.0755293369293213,-0.8030768632888794
2.15,0.44175419211387634,0.7022812962532043,1.9934415817260742,-0.4162881374359131,-0.9705805778503418,-1.133405089378357
2.2,0.012476801872253418,-1.7803831100463867,2.541309118270874,-0.2061191201210022,-0.40308064222335815,-1.6114459037780762
2.25,-0.1873818039894104,-2.275515079498291,2.485257387161255,0.1748482584953308,0.04967903345823288,-1.469272255897522
2.3,-0.3759075999259949,-1.3285846710205078,0.87688148021698,0.7200015187263489,0.6245510578155518,-1.177396535873413
2.35,-0.02265789732336998,0.07107160985469818,-0.19679543375968933,1.0744609832763672,0.7732718586921692,-0.9915543794631958
2.4,0.7133026123046875,-0.0170822162181139,-0.27602699398994446,0.9056394696235657,0.47912898659706116,-0.8585695624351501
2.45,1.1640849113464355,-0.37159445881843567,-0.5445727705955505,0.721045732498169,0.19750569760799408,-0.584752082824707
2.5,0.6907468438148499,-0.5265856981277466,-0.7931323051452637,0.6811108589172363,0.17962870001792908,-0.2823731303215027
2.55,-0.11439187824726105,0.022167153656482697,-0.43621084094047546,0.7043663263320923,0.23204286396503448,-0.0824725478887558
2.6,-0.6136830449104309,0.1390942931175232,-0.4804200828075409,0.621746838092804,0.2576683759689331,-0.010641350410878658
2.65,-0.9456499814987183,0.3625726103782654,-0.5036577582359314,0.5197215676307678,0.12909479439258575,0.011649222113192081
2.7,-0.882128119468689,0.4022779166698456,-0.32794544100761414,0.4334854781627655,-0.008534776978194714,-0.052090227603912354
2.75,-0.33638525009155273,-0.004918128717690706,-0.13613003492355347,0.43412700295448303,-0.004890007432550192,-0.14605523645877838
2.8,0.12865576148033142,-0.28485777974128723,-0.11953698098659515,0.4305795729160309,-0.036638982594013214,-0.18984338641166687
2.85,0.2862136662006378,-0.2281809002161026,-0.019608890637755394,0.3324483036994934,-0.2079584300518036,-0.1814747154712677
2.9,0.21776971220970154,-0.4198179543018341,0.31506550312042236,0.16205275058746338,-0.32335931062698364,-0.1694585084915161
2.95,0.15559475123882294,-0.1412457972764969,0.4957916736602783,0.044969938695430756,-0.255506306886673,-0.201494961977005
3.0,0.1736697256565094,0.2411547303199768,0.2621963918209076,0.07999724894762039,-0.1294894516468048,-0.2249508500099182
3.05,0.15371073782444,0.1829366832971573,-0.08237136155366898,0.11156164854764938,-0.06368336826562881,-0.2512242794036865
3.1,0.7885188460350037,-1.0005083084106445,0.23918186128139496,0.08764700591564178,0.10472095757722855,-0.2643078565597534
3.15,0.22867351770401,-1.3705265522003174,-1.4020065069198608,0.6036980152130127,0.8588176369667053,-0.337970495223999
3.2,-0.4178304672241211,0.05507940426468849,-0.3913494944572449,0.7401445508003235,0.6641367077827454,-0.2073521912097931
3.25,-0.5237140655517578,0.47754016518592834,1.024166226387024,0.35462725162506104,0.04142457991838455,0.03715712949633598
3.3,-0.4990806579589844,0.6706153154373169,0.6080629825592041,0.3793361485004425,-0.1845291703939438,0.07280121743679047
3.35,-0.8514105677604675,0.6881218552589417,0.28260698914527893,0.22292867302894592,-0.5510547757148743,0.13331803679466248
3.4,-0.8678897619247437,0.5129605531692505,0.8949156403541565,0.10643301904201508,-0.6023542881011963,0.13128988444805145
3.45,-0.2927362620830536,0.3075505495071411,0.9391039609909058,0.3402955234050751,0.03316358104348183,0.0058136992156505585
3.5,0.3411940336227417,-0.16622065007686615,0.10449421405792236,0.507002592086792,0.5769403576850891,-0.04371681064367294
3.55,0.5830702781677246,-0.43835172057151794,-0.6218543648719788,0.4925636947154999,0.5444596409797668,0.0023776644375175238
3.6,0.14942187070846558,-0.13575653731822968,-0.28440943360328674,0.28629618883132935,0.20094570517539978,0.09462206065654755
3.65,-0.10499519109725952,0.21123413741588593,0.14804106950759888,0.21784590184688568,0.19571267068386078,0.11641905456781387
3.7,-0.12515868246555328,0.3461609482765198,0.28830400109291077,0.24030852317810059,0.2840929627418518,0.1278279721736908
3.75,-0.17110684514045715,0.3674374222755432,0.42977169156074524,0.20271044969558716,0.17086000740528107,0.11688373237848282
3.8,-0.2966157793998718,0.2237425297498703,0.2935255467891693,0.18002115190029144,0.06474203616380692,0.054185010492801666
3.85,-0.24594484269618988,0.07223320752382278,0.10906173288822174,0.10975629091262817,-0.019687382504343987,0.011445802636444569
3.9,0.09399474412202835,0.19890695810317993,0.17489556968212128,0.023396342992782593,-0.02434605546295643,-0.01873590424656868
3.95,0.4288998544216156,0.13039308786392212,0.25088629126548767,0.021708248183131218,-0.0027623570058494806,0.008084691129624844
4.0,0.583662748336792,-0.2306966930627823,-0.06473450362682343,0.03965204209089279,0.0029851116705685854,0.032499298453330994
4.05,0.5196691751480103,-0.3185119926929474,-0.27488973736763,-0.036095019429922104,-0.0801113173365593,0.06813713908195496
4.1,0.2863337993621826,-0.277983695268631,-0.16070221364498138,-0.1589803844690323,-0.20254072546958923,0.1183881014585495
4.15,0.04034657031297684,0.034963615238666534,0.01780422404408455,-0.2371196299791336,-0.23480361700057983,0.15018343925476074
4.2,-8.59387218952179e-05,0.3122396767139435,0.04314885661005974,-0.24471412599086761,-0.20776955783367157,0.11185621470212936
4.25,0.19419410824775696,0.03965093195438385,0.03858661651611328,-0.3051367998123169,-0.31866219639778137,0.06430410593748093
4.3,0.19662125408649445,0.0009966026991605759,0.039159804582595825,-0.2926851212978363,-0.5052394270896912,0.030836381018161774
4.35,-0.06509503722190857,0.45063790678977966,0.3013615012168884,-0.2829601764678955,-0.6937426328659058,0.00025434716371819377
4.4,-1.3407038450241089,0.8601285219192505,0.7544390559196472,-0.7995194792747498,-1.0228497982025146,0.23118731379508972
4.45,1.7899425029754639,-1.498693585395813,-0.9197838306427002,-1.5808359384536743,-1.1786119937896729,0.3601662814617157
4.5,1.9063467979431152,-0.9478752613067627,-1.8822849988937378,-1.5639649629592896,-0.4967125952243805,-0.0023843045346438885
4.55,-0.8752353191375732,1.3233243227005005,0.8301683068275452,-1.9383082389831543,-0.6575924754142761,-0.3379184901714325
4.6,-2.3249599933624268,0.5278292894363403,1.4129678010940552,-1.5057313442230225,-0.11424539983272552,-0.747553288936615
4.65,-2.049942970275879,-2.078772783279419,0.3578237295150757,-0.46102526783943176,0.7807965278625488,-0.7588725090026855
4.7,-1.0487085580825806,-3.150585651397705,0.09727741777896881,0.4751608371734619,1.1316752433776855,-0.35183751583099365
4.75,0.06370535492897034,-2.282623529434204,0.9256564974784851,1.3670111894607544,1.2138381004333496,-0.009372358210384846
4.8,-0.5773528814315796,3.3634493350982666,-1.906349539756775,1.5811713933944702,1.3700000047683716,0.00584356440231204
4.85,-0.8770639896392822,3.323216676712036,-0.8640468716621399,0.47232818603515625,0.5121102929115295,-0.17111563682556152
4.9,0.10204422473907471,0.25165286660194397,1.1202572584152222,-0.19970518350601196,0.008915110491216183,-0.0732138380408287
4.95,0.13571949303150177,-0.2274790108203888,-0.11862829327583313,0.2023247331380844,0.5200431942939758,-0.24429717659950256
5.0,0.08250950276851654,-0.5129424333572388,-0.5489899516105652,0.2253257930278778,0.2911474406719208,-0.18941569328308105
5.05,0.1597837507724762,-0.2515850365161896,-0.10851343721151352,0.08827248215675354,-0.14849865436553955,0.03378977254033089
5.1,-0.12969914078712463,-0.0701465904712677,-0.17322219908237457,0.1531546711921692,-0.043925248086452484,-0.0028510182164609432
5.15,-0.3389047086238861,0.1636190116405487,-0.2119748741388321,0.12395082414150238,0.05609649419784546,0.04216345399618149
5.2,-0.35253074765205383,0.112671859562397,0.05356592684984207,0.08850270509719849,0.09837731719017029,0.027216311544179916
5.25,-0.36622902750968933,0.11250784248113632,0.18304482102394104,0.14738844335079193,0.1755286604166031,-0.03985053300857544
5.3,-0.32540279626846313,0.12312033772468567,0.23405291140079498,0.16054552793502808,0.15126773715019226,-0.02852155826985836
5.35,-0.2456640899181366,0.03924563527107239,0.31750786304473877,0.12478522956371307,0.10228175669908524,-0.031982313841581345
5.4,-0.2159663289785385,0.1319437325000763,0.2569545805454254,0.10939432680606842,0.12203988432884216,-0.05985617637634277
5.45,-0.10465630888938904,0.12789252400398254,0.1772988885641098,0.0796380490064621,0.13069230318069458,-0.04122871905565262
5.5,-0.029867656528949738,0.0011100932024419308,0.15791812539100647,0.06148868426680565,0.12833014130592346,-0.02252432517707348
5.55,-0.046471595764160156,-0.02000521309673786,0.16007931530475616,0.04659005254507065,0.10738809406757355,-0.0063348752446472645
5.6,-0.07328550517559052,0.02840426005423069,0.2058233916759491,0.027496006339788437,0.06292843073606491,0.024202469736337662
5.65,-0.17586897313594818,0.06721118092536926,0.2583349645137787,0.01629328727722168,0.03638739883899689,0.05410376936197281
5.7,-0.26929110288619995,0.11646464467048645,0.2449810951948166,0.008978968486189842,0.08100439608097076,0.05310102552175522
5.75,-0.30475351214408875,0.05652238056063652,0.15044479072093964,0.00646810932084918,0.15347500145435333,0.027886299416422844
5.8,-0.2727930545806885,0.06661320477724075,0.0831209123134613,-0.00710140960291028,0.14717160165309906,0.01930909976363182
5.85,-0.18499942123889923,0.1361694484949112,0.07974553853273392,-0.015566058456897736,0.08810079097747803,0.007173905614763498
5.9,-0.04045584052801132,0.1311493068933487,-0.04338757321238518,-0.01247280091047287,0.05301357060670853,-0.008311903104186058
5.95,0.1514875292778015,-0.046512626111507416,-0.24301794171333313,-0.009655572474002838,0.08067550510168076,-0.009718447923660278
6.0,0.09631811827421188,-0.008217835798859596,-0.24632027745246887,0.016821857541799545,0.10765454173088074,0.02387872338294983
6.05,-0.21285593509674072,0.07552431523799896,-0.1511564403772354,0.06071729212999344,0.04987258091568947,0.050513047724962234
6.1,-0.47847193479537964,0.12443827837705612,-0.017650112509727478,0.07356822490692139,-0.01664094068109989,0.05948953330516815
6.15,-0.5662293434143066,0.1778421252965927,0.017073607072234154,0.07474575936794281,-0.013520341366529465,0.03545698896050453
6.2,-0.49168071150779724,-0.016129540279507637,-0.2131797820329666,0.011773664504289627,-0.11863724887371063,0.0011455424828454852
6.25,-0.45094120502471924,0.10968867689371109,-0.7062280178070068,-0.2526659369468689,-0.4520863890647888,0.11221875995397568
6.3,-0.0635283887386322,0.6106376051902771,-0.9860491156578064,-0.9251526594161987,-0.9864798784255981,0.42309504747390747
6.35,0.4736480712890625,0.5499802231788635,-0.2645072042942047,-1.4727423191070557,-1.3374834060668945,0.4773373603820801
6.4,0.7731648087501526,-0.51268470287323,1.3743239641189575,-1.0533912181854248,-1.0308804512023926,0.19087523221969604
6.45,0.10287743806838989,-1.5091315507888794,1.3894016742706299,-0.10749447345733643,-0.16035711765289307,-0.07965457439422607
6.5,-0.6431963443756104,-1.0774718523025513,0.4644511640071869,0.6466655731201172,0.35782700777053833,-0.11042013019323349
6.55,-0.8230358362197876,1.2361937761306763,0.01202148012816906,1.0023137331008911,0.2716282308101654,-0.013289091177284718
6.6,-1.1392343044281006,1.3242560625076294,0.27732405066490173,0.713821291923523,-0.009949901141226292,-0.08198480308055878
6.65,-0.5961438417434692,0.3498440980911255,1.1686491966247559,0.2871566414833069,-0.1970769315958023,-0.04632282629609108
6.7,-0.010466843843460083,0.1524897813796997,0.9029858708381653,0.40923893451690674,0.20812204480171204,-0.10058597475290298
6.75,0.04039482772350311,-0.2731723487377167,0.39937469363212585,0.4612697660923004,0.42171186208724976,-0.09351605176925659
6.8,0.22389182448387146,0.07717619091272354,0.7086701989173889,0.2715713679790497,0.18993516266345978,0.05200263857841492
6.85,0.1544124335050583,-0.014183002524077892,0.3359808921813965,0.19765342772006989,0.2741822898387909,-0.020529497414827347
6.9,0.17781251668930054,-0.007380466442555189,0.10964326560497284,0.05713323876261711,0.26396042108535767,0.01564759947359562
6.95,0.19366243481636047,0.07067681849002838,-0.0076628392562270164,-0.02239983342587948,0.18149088323116302,0.011749069206416607
7.0,0.03455900400876999,-0.0787668526172638,-0.21543745696544647,-0.04207383096218109,0.06993063539266586,-0.028333324939012527
7.05,-0.09985078871250153,0.07263945043087006,-0.16822388768196106,-0.08591461926698685,-0.060500115156173706,0.00964503362774849
7.1,-0.241182342171669,0.19739055633544922,-0.21615031361579895,-0.06063290312886238,-0.006133851129561663,0.00997679028660059
7.15,-0.2770673632621765,0.16809463500976562,-0.03533193841576576,0.020964523777365685,0.07336115092039108,0.03324652463197708
7.2,-0.3590414226055145,0.12432575970888138,0.04571542143821716,0.13133525848388672,0.1833943873643875,0.020486436784267426
7.25,-0.3431129455566406,0.08023357391357422,0.07691729813814163,0.142659530043602,0.23544228076934814,0.003910118713974953
7.3,-0.07405848801136017,0.1545887291431427,0.17549823224544525,0.09463641792535782,0.2471030056476593,-0.03325071558356285
7.35,0.173007994890213,0.20635132491588593,0.0404752641916275,0.11767050623893738,0.29776495695114136,-0.15055525302886963
7.4,0.3279501497745514,0.10355377942323685,-0.1667175441980362,0.12372834235429764,0.21275700628757477,-0.2119843065738678
7.45,0.32272064685821533,0.07966232299804688,-0.19667254388332367,0.1006069928407669,0.03522462025284767,-0.18011364340782166
7.5,0.054653920233249664,-0.07199577242136002,-0.28038299083709717,0.1309579461812973,-0.01444227248430252,-0.13652239739894867
7.55,-0.444318950176239,-0.3909875452518463,-0.627675473690033,0.15037931501865387,-0.008100617676973343,-0.08238710463047028
7.6,-0.9289789199829102,-0.26108089089393616,-0.7661262154579163,-0.014883555471897125,-0.13602034747600555,0.011957461945712566
7.65,-1.0565944910049438,-0.05040561035275459,-0.50164395570755,-0.24804624915122986,-0.2951924800872803,0.0808555856347084
7.7,-0.9588823318481445,-0.17147934436798096,-0.5085387229919434,-0.2540452778339386,-0.3079349994659424,0.05161747708916664
7.75,-0.881705105304718,-0.05514347553253174,-0.6773571372032166,-0.20114544034004211,-0.38806673884391785,0.05079304054379463
7.8,-0.5706168413162231,0.014987895265221596,-0.24488528072834015,-0.27094200253486633,-0.5647227764129639,0.14648132026195526
7.85,-0.21172311902046204,0.0013847544323652983,0.25618815422058105,-0.28946763277053833,-0.43169090151786804,0.19333530962467194
7.9,-0.13120172917842865,0.15003114938735962,0.468070924282074,-0.24540288746356964,-0.10420197993516922,0.22063864767551422
7.95,-0.3186979293823242,0.137517049908638,0.6545510292053223,-0.17903810739517212,0.08991929143667221,0.31215518712997437
8.0,-0.5387227535247803,-0.16002081334590912,0.5256309509277344,-0.14077018201351166,0.20588712394237518,0.38891085982322693
8.05,-0.6754536628723145,-0.10898968577384949,0.6709169745445251,-0.21929143369197845,0.23596563935279846,0.4636301100254059
8.1,-0.7130666971206665,0.04168136417865753,0.9296847581863403,-0.327950119972229,0.24431173503398895,0.5250030159950256
8.15,-0.6364606618881226,0.14477166533470154,0.9553314447402954,-0.39573997259140015,0.25088486075401306,0.6234531402587891
8.2,-0.5528450012207031,0.15146265923976898,0.9891728758811951,-0.41322416067123413,0.2663428783416748,0.7370272278785706
8.25,-0.5381064414978027,-1.477156639099121,1.417566180229187,-0.24622134864330292,0.3360194265842438,0.8265419602394104
8.3,-0.4893586337566376,-2.1893234252929688,1.439789056777954,0.026350021362304688,0.4526580274105072,0.8468320965766907
8.35,0.14929497241973877,0.08064087480306625,0.6382389068603516,0.05899287760257721,0.605779767036438,0.7416898608207703
8.4,1.057675838470459,0.5627614259719849,0.09253550320863724,-0.04841072857379913,0.6779676675796509,0.5408787131309509
8.45,1.5851341485977173,-1.1711732149124146,-0.3929170072078705,0.00755937397480011,0.33544760942459106,0.39714035391807556
8.5,1.41743004322052,-2.1550400257110596,-0.8627198934555054,0.4434998333454132,-0.24295030534267426,0.3114246428012848
8.55,1.0345849990844727,-1.9575046300888062,-1.3153910636901855,1.1248408555984497,-0.6622127294540405,0.21158914268016815
8.6,0.740865170955658,-0.3390124440193176,-2.6082658767700195,1.795389175415039,-0.7163233757019043,0.2250581681728363
8.65,0.33398962020874023,2.010303258895874,-3.5581068992614746,2.255497932434082,-0.6390917301177979,0.5629457235336304
8.7,0.10557559132575989,2.2003583908081055,-1.2521376609802246,1.7711702585220337,-0.41262853145599365,0.5036842226982117
8.75,0.6005909442901611,0.81934654712677,0.02220100909471512,0.13697251677513123,0.42363566160202026,0.05672997236251831
8.8,1.515760064125061,0.4907475709915161,-0.03212857246398926,-1.061205267906189,0.29787617921829224,0.09115970879793167
8.85,1.1161199808120728,-0.2375936508178711,-0.22354313731193542,-1.0843384265899658,-0.14966213703155518,0.013966036029160023
8.9,0.4223812222480774,-0.8764764666557312,-0.7368953824043274,-0.7440324425697327,-0.405030757188797,-0.19224444031715393
8.95,0.6995774507522583,-0.357660174369812,1.0656107664108276,-0.32891660928726196,-1.0122023820877075,-0.05799388140439987
9.0,0.23338493704795837,-0.34469395875930786,1.8090882301330566,-0.06470842659473419,-0.8342214226722717,0.058426383882761
9.05,-0.6234899759292603,-0.9387359023094177,1.8283730745315552,-0.06058958172798157,-0.660962700843811,0.21433380246162415
9.1,-1.1686677932739258,-1.531657338142395,1.6325793266296387,-0.18274801969528198,-0.5317628383636475,0.3258415460586548
9.15,-1.5720138549804688,-2.965712308883667,0.35866761207580566,-0.27418580651283264,-0.257416307926178,0.25439009070396423
9.2,-2.4361183643341064,-4.178800106048584,0.15104453265666962,-0.24168919026851654,-0.44430360198020935,0.33618342876434326
9.25,-3.369389057159424,-4.975716590881348,0.2578112483024597,-0.218239888548851,-0.48816147446632385,0.3914971649646759
9.3,-2.69869327545166,-4.158308982849121,-0.038594502955675125,-0.3347775340080261,-0.22799289226531982,0.44702431559562683
9.35,-0.2050381451845169,-1.2536393404006958,-0.44212958216667175,-0.3392561674118042,0.08721444010734558,0.48069310188293457
9.4,2.173382043838501,1.727378010749817,-1.7589848041534424,0.12293718755245209,0.24399131536483765,0.4395149350166321
9.45,1.975685715675354,4.6939005851745605,-1.9388095140457153,0.7104694843292236,-0.039070844650268555,0.6262814402580261
9.5,0.5219481587409973,6.76365852355957,-2.1704418659210205,0.45853132009506226,-0.6132768988609314,0.7831891775131226
9.55,-6.462811470031738,4.731560230255127,-5.948881149291992,-0.19690430164337158,-0.663027822971344,1.0238051414489746
9.6,-12.643784523010254,5.629218101501465,-0.7114599347114563,0.4048665463924408,0.04069416597485542,0.7934659719467163
9.65,-6.729402542114258,7.977644443511963,8.095419883728027,0.7748641967773438,0.9198274612426758,-0.059448789805173874
9.7,-1.5795507431030273,2.054211139678955,2.1380841732025146,-0.18274733424186707,1.3475044965744019,-0.406630277633667
9.75,1.0085887908935547,-1.9282317161560059,1.2222216129302979,-0.47944605350494385,0.1551448553800583,-0.4937743842601776
9.8,0.21599575877189636,-5.8027143478393555,1.1639679670333862,-0.47360312938690186,-0.04977869614958763,-0.5193840265274048
9.85,0.290458619594574,-5.010930061340332,1.9632600545883179,-0.3952866494655609,-0.037129975855350494,-0.4816316068172455
9.9,1.042752981185913,0.48086270689964294,-0.057933125644922256,-0.03998936712741852,0.0159018412232399,-0.2642959952354431
9.95,1.7640700340270996,9.025089263916016,-3.319000005722046,0.05962735414505005,-0.9044589400291443,0.3730224668979645
10.0,-0.5964312553405762,4.295032978057861,-8.319509506225586,-0.7110965251922607,-1.4627416133880615,0.9980340600013733
10.05,-9.101052284240723,3.0064473152160645,-5.847202777862549,0.14609214663505554,-0.6272006034851074,0.9500178098678589
10.1,-10.701884269714355,10.736551284790039,3.686704158782959,1.2076040506362915,0.7114400267601013,-0.07649219781160355
10.15,-2.080704927444458,-0.9933501482009888,1.016884684562683,0.28766483068466187,1.140870213508606,-0.6118980646133423
10.2,-0.830562949180603,-4.223363399505615,3.081782341003418,0.0469159334897995,-0.010691327042877674,-0.41283944249153137
10.25,-1.424745798110962,-7.053893566131592,3.8408524990081787,-0.4213888645172119,0.11630848050117493,-0.5092199444770813
10.3,-0.8768287897109985,-5.4707207679748535,4.282557010650635,-1.0305440425872803,0.0037631364539265633,-0.4308193027973175
10.35,1.3942723274230957,-1.1616504192352295,2.4721083641052246,-1.405701994895935,-0.04585668072104454,-0.3373512029647827
10.4,4.509254455566406,5.705509662628174,-3.3639111518859863,-0.9064182639122009,-0.3449692726135254,-0.09898839890956879
10.45,5.071104049682617,8.186732292175293,-8.989216804504395,-0.6437078714370728,-1.1171581745147705,0.45051127672195435
10.5,3.163024425506592,2.848740339279175,-4.633410453796387,-0.139430433511734,-1.0143157243728638,0.8545287251472473
10.55,-0.281812846660614,0.6252625584602356,2.1550726890563965,0.978682279586792,0.03800586238503456,0.4303710162639618
10.6,-2.8102126121520996,2.2964117527008057,2.021038770675659,0.2564920485019684,0.4039328098297119,-0.04581697657704353
10.65,0.9874695539474487,-1.6230708360671997,0.6089566349983215,-0.07681241631507874,0.6372412443161011,-0.03809826076030731
10.7,-0.2571825683116913,-5.707314968109131,0.1273699849843979,0.3221551775932312,0.2219662368297577,-0.08356747776269913
10.75,-2.1802284717559814,-5.840817451477051,2.6267213821411133,0.3633500039577484,0.06386789679527283,-0.04427412897348404
10.8,-2.35650372505188,-4.692781448364258,3.280439853668213,-0.1593586951494217,0.3518134355545044,-0.21569398045539856
10.85,-1.3081169128417969,-2.9194722175598145,2.518646478652954,-0.6502630710601807,0.3560106158256531,-0.30715563893318176
10.9,0.7130706310272217,0.1097804456949234,0.7967894077301025,-0.4074552059173584,0.1221429854631424,-0.35198453068733215
10.95,2.0614306926727295,7.820155620574951,-4.000506401062012,0.29016777873039246,-0.21289463341236115,-0.21471162140369415
11.0,1.4822030067443848,12.738580703735352,-8.253110885620117,-0.022119008004665375,-0.789519190788269,0.20741447806358337
11.05,3.105433225631714,-0.9193728566169739,-11.428693771362305,-0.5505737662315369,-0.922290027141571,0.8000662922859192
11.1,-0.42105913162231445,-3.502872943878174,-8.018183708190918,1.0757989883422852,-0.5474288463592529,1.031477451324463
11.15,-6.922549724578857,6.065711498260498,6.862001895904541,1.9994795322418213,-0.15344351530075073,0.3960969150066376
11.2,0.35220861434936523,-5.962146282196045,2.9063494205474854,0.7390708923339844,1.189133644104004,-0.07450390607118607
11.25,-0.7990485429763794,-7.3963518142700195,4.413681507110596,0.5812089443206787,0.64339679479599,0.28581899404525757
11.3,-1.303640365600586,-7.143606662750244,2.9706647396087646,0.023473259061574936,0.6220775246620178,-0.13697503507137299
11.35,-1.1827952861785889,-4.016059398651123,2.7365384101867676,-0.5152915120124817,0.1854802668094635,-0.18783192336559296
11.4,0.27761003375053406,-0.7526026368141174,0.5244544148445129,-0.6236599683761597,0.08217630535364151,-0.42623698711395264
11.45,2.089520215988159,2.99639892578125,-3.380038022994995,-0.17512430250644684,-0.19418519735336304,-0.4483339190483093
11.5,2.443699836730957,7.626988410949707,-7.906881809234619,0.40503251552581787,-0.4000290334224701,-0.0973554402589798
11.55,0.9207170009613037,11.913378715515137,-6.44992733001709,0.35164105892181396,-0.6296369433403015,0.6812537312507629
11.6,-0.36616092920303345,4.065862655639648,-3.269484281539917,0.13455846905708313,-0.7602217793464661,1.6790810823440552
11.65,-8.033098220825195,3.6159188747406006,-3.7645676136016846,0.8330613374710083,-0.4913507401943207,1.3585004806518555
11.7,-11.671616554260254,14.057677268981934,5.087170124053955,1.597537636756897,0.153608500957489,-0.18617530167102814
11.75,4.408445835113525,-4.936147689819336,-2.2566561698913574,1.3181085586547852,2.136786937713623,-1.108686923980713
11.8,1.4373865127563477,-8.500916481018066,2.129594564437866,0.455102801322937,0.3083055913448334,-0.4939543902873993
11.85,-0.32753145694732666,-8.052160263061523,3.1755824089050293,0.028330311179161072,0.4646680951118469,-0.5949922800064087
11.9,-0.6825236082077026,-6.209997177124023,3.9657583236694336,-0.7751705646514893,0.11091581732034683,-0.6823199987411499
11.95,-0.51216059923172,-3.380769968032837,2.6320414543151855,-1.3323638439178467,0.251132994890213,-0.6813029646873474
12.0,0.8422461152076721,1.614529013633728,0.2395011931657791,-0.9379347562789917,-0.04399586841464043,-0.5856773853302002
12.05,2.861384391784668,9.932474136352539,-5.177934169769287,-0.21964222192764282,-0.7493655681610107,-0.2074105143547058
12.1,4.865081787109375,9.763873100280762,-13.552084922790527,-0.7498127222061157,-1.4132375717163086,0.5829253792762756
12.15,6.165406703948975,-2.24440860748291,-8.420269012451172,-0.6678123474121094,-1.0714815855026245,0.9389328956604004
12.2,2.9114956855773926,-2.9965386390686035,4.997498989105225,0.9054542183876038,0.1301056295633316,0.8278027176856995
12.25,0.6175460815429688,-2.8884084224700928,0.7998443841934204,-0.4531469941139221,0.8285288214683533,0.5295687317848206
12.3,0.06988541781902313,-4.642329216003418,-0.7094438076019287,-0.3505095839500427,0.49179399013519287,0.019514841958880424
12.35,-1.8430297374725342,-6.487949848175049,1.4553446769714355,0.20752963423728943,0.30981671810150146,-0.3459933400154114
12.4,-2.4195094108581543,-5.127122402191162,2.670794725418091,0.170988067984581,0.22110706567764282,-0.6523634195327759
12.45,-0.25023746490478516,0.16905806958675385,1.9183614253997803,0.1873348355293274,0.12998180091381073,-0.6347967386245728
12.5,3.521540880203247,10.067619323730469,-2.24772572517395,0.20057031512260437,-0.405585378408432,-0.2817010283470154
12.55,2.6390156745910645,7.252659320831299,-13.88737964630127,-0.7416430115699768,-1.2388991117477417,0.16596552729606628
12.6,-1.7447128295898438,-11.416868209838867,-13.541606903076172,-0.12380847334861755,-1.2582916021347046,0.5952483415603638
12.65,-3.6391067504882812,-7.330618381500244,6.369565486907959,2.099687099456787,-0.05340201035141945,0.5586671233177185
12.7,-0.5720325112342834,-1.913252353668213,2.088137149810791,0.6085429191589355,1.3595079183578491,-0.21144355833530426
12.75,0.863940954208374,-5.285773277282715,1.6570411920547485,0.15112900733947754,0.9315683245658875,-0.2603725790977478
12.8,-0.7107149958610535,-6.74867057800293,2.260798931121826,-0.0021788552403450012,0.3710648715496063,-0.3434367775917053
12.85,-1.2544833421707153,-5.007415294647217,2.840646982192993,-0.36561739444732666,0.05342972278594971,-0.40931791067123413
12.9,-0.13425058126449585,-0.6545304656028748,1.2889155149459839,-0.47899460792541504,0.09836122393608093,-0.5083947777748108
12.95,2.801375150680542,7.178998947143555,-3.1426916122436523,-0.16241955757141113,-0.17515623569488525,-0.3592716157436371
13.0,4.5827836990356445,13.923873901367188,-6.346866130828857,-0.32815709710121155,-0.8302456140518188,0.24958793818950653
13.05,-3.032573699951172,10.080187797546387,7.88134241104126,-0.16710664331912994,-1.3788772821426392,0.7254466414451599
13.1,-12.05414867401123,1.4054839611053467,18.44219207763672,1.5113885402679443,-0.7583791017532349,0.6635977029800415
13.15,-5.179524898529053,1.8031944036483765,3.4790220260620117,1.4970455169677734,0.6055642366409302,0.20586620271205902
13.2,-0.9302801489830017,-1.067600131034851,2.5495657920837402,1.4523003101348877,1.9060070514678955,0.06887127459049225
13.25,1.5452238321304321,-6.755617618560791,2.896960735321045,0.9863607287406921,0.850656270980835,-0.305945485830307
13.3,-0.18758589029312134,-8.01478099822998,2.864969253540039,0.4377487897872925,0.16122859716415405,-0.4769911766052246
13.35,-1.345362901687622,-6.269773483276367,3.967254400253296,-0.5736474990844727,-0.36220893263816833,-0.5879067182540894
13.4,-1.2474892139434814,-3.3044164180755615,2.239468574523926,-1.352070927619934,0.019577234983444214,-0.6308040618896484
13.45,0.6047623157501221,1.1049327850341797,-1.0793540477752686,-1.2947715520858765,-0.05308741703629494,-0.532473087310791
13.5,3.1968002319335938,10.625428199768066,-7.10187292098999,-0.7149176001548767,-0.4734906256198883,-0.20614475011825562
13.55,3.8669636249542236,20.120092391967773,-9.188652038574219,-0.5756701827049255,-0.9530145525932312,0.3272799849510193
13.6,7.013695240020752,4.789107799530029,-4.138988971710205,-0.20651501417160034,-0.8148108124732971,0.5084102749824524
13.65,5.463558197021484,-7.896738052368164,-6.830724239349365,1.4068946838378906,0.1075640395283699,1.1560614109039307
13.7,-4.351332664489746,-4.890992164611816,2.8543295860290527,1.1648948192596436,0.34117645025253296,1.8518160581588745
13.75,-2.820803165435791,-4.98607873916626,0.8817081451416016,1.1016186475753784,1.1871976852416992,0.37430068850517273
13.8,-1.9212669134140015,-7.244237422943115,1.6432056427001953,0.9147292375564575,0.4079665541648865,-0.15394164621829987
13.85,-3.3526253700256348,-6.842920780181885,3.3546149730682373,0.18753790855407715,-0.14012810587882996,-0.5459809303283691
13.9,-2.95353364944458,-4.226210594177246,3.482740879058838,-0.7465626001358032,0.01637023687362671,-0.9321364164352417
13.95,0.8017268180847168,0.25972768664360046,1.2327864170074463,-1.2138946056365967,0.23469990491867065,-1.1125857830047607
14.0,5.449090480804443,8.462427139282227,-4.2666425704956055,-0.973979651927948,-0.1344374269247055,-0.7822099924087524
14.05,5.840450763702393,16.998952865600586,-6.603176116943359,-0.689128577709198,-1.1000561714172363,-0.12088555097579956
14.1,2.9159164428710938,7.426200866699219,-1.437686562538147,-0.35022327303886414,-0.8598960638046265,0.2814575731754303
14.15,-10.656171798706055,3.0483875274658203,8.528358459472656,0.7143929600715637,-0.5727465748786926,1.5696474313735962
14.2,-9.311616897583008,2.8312113285064697,12.954645156860352,0.5595119595527649,0.21532759070396423,1.2910284996032715
14.25,-8.976465225219727,-3.9366390705108643,4.85444974899292,0.6257989406585693,1.6345239877700806,0.5854385495185852
14.3,-2.3277313709259033,-3.4790167808532715,1.9353771209716797,0.732067883014679,0.23871354758739471,-0.6487434506416321
14.35,-2.685750961303711,-7.185246467590332,2.7245655059814453,0.21209940314292908,0.2422996461391449,-0.9100818037986755
14.4,-2.3133535385131836,-3.9175198078155518,2.5483851432800293,-0.3896212875843048,0.3385672867298126,-0.9959037899971008
14.45,1.0539945363998413,1.3181191682815552,-0.27301543951034546,-0.6637976765632629,0.20541676878929138,-1.034182071685791
14.5,6.549413204193115,9.58234977722168,-6.096628189086914,-0.6576666831970215,-0.6006929874420166,-0.6507383584976196
14.55,4.712770462036133,5.6764235496521,-18.636159896850586,-1.1057924032211304,-0.9521531462669373,-0.15655264258384705
14.6,-4.821224212646484,-16.408061981201172,-23.2296085357666,-0.7793837785720825,-0.8902342915534973,0.7476030588150024
14.65,8.856255531311035,-11.642136573791504,-1.5103281736373901,1.7057462930679321,-0.12823797762393951,1.1745492219924927
14.7,-0.7662375569343567,-2.2895984649658203,3.0069997310638428,0.5569412708282471,0.9513594508171082,1.476481556892395
14.75,-2.383997678756714,-3.718851327896118,2.3999123573303223,0.049642227590084076,1.1103163957595825,0.36271804571151733
14.8,-1.2417582273483276,-7.156853675842285,0.6599582433700562,0.12240347266197205,0.6050960421562195,-0.4594269394874573
14.85,-1.4088574647903442,-4.5952067375183105,1.78013014793396,0.015854567289352417,0.05455365404486656,-1.0006078481674194
14.9,0.4478350877761841,1.1294327974319458,-0.0563889741897583,0.0380190908908844,0.0010659153340384364,-1.3134148120880127
14.95,5.926680088043213,8.385372161865234,-4.0353498458862305,0.1526966691017151,-0.607550323009491,-0.9939591288566589
15.0,8.024640083312988,7.6337409019470215,-8.207453727722168,-0.28034988045692444,-0.8677286505699158,0.11236953735351562
15.05,-0.5070743560791016,-4.681727886199951,-3.6251533031463623,-0.2528836131095886,-0.750825047492981,1.1742727756500244
15.1,-8.166057586669922,-4.419712066650391,9.148894309997559,1.1597023010253906,-0.6126452684402466,1.2856978178024292
15.15,-24.60624122619629,-6.936346530914307,5.015625476837158,0.8635046482086182,0.2604641914367676,1.5290664434432983
15.2,-4.859094619750977,3.6500203609466553,3.0212135314941406,1.2000333070755005,0.47173771262168884,-0.5019745230674744
15.25,-2.0899226665496826,-6.4147443771362305,0.39260968565940857,0.06495103985071182,0.650100588798523,-0.280876487493515
15.3,-1.4444613456726074,-5.520833969116211,1.9715054035186768,-0.6459224820137024,0.5133618116378784,-0.11460341513156891
15.35,-0.502014696598053,-2.9574036598205566,1.9305564165115356,-0.8514858484268188,0.8646799325942993,-0.5895452499389648
15.4,2.0459673404693604,1.5534908771514893,-0.9078478217124939,-0.5679258108139038,0.7345947027206421,-1.093975305557251
15.45,6.210474014282227,8.796049118041992,-5.575431823730469,0.09459537267684937,-0.1149849072098732,-1.097131609916687
15.5,8.618924140930176,14.135581016540527,-5.839107513427734,0.010133489966392517,-1.0564243793487549,-0.6267020106315613
15.55,8.456331253051758,2.555047035217285,-4.840510368347168,-0.6869609355926514,-0.552882969379425,0.06642221659421921
15.6,4.053587436676025,-13.846986770629883,-6.746140480041504,0.47510963678359985,-0.4674231708049774,0.5709444880485535
15.65,-4.385655403137207,-4.956569194793701,-0.4290013313293457,1.0747910737991333,-0.9645101428031921,0.68004310131073
15.7,-1.8954102993011475,-1.6965326070785522,-0.11458899825811386,0.08900677412748337,0.5862584710121155,-0.0932045578956604
15.75,-0.4959465563297272,-4.926059722900391,0.11033152788877487,-0.3371047377586365,0.4941941499710083,-0.0765305906534195
15.8,0.07512247562408447,-5.6655778884887695,1.3263661861419678,-0.6442022323608398,0.13370908796787262,-0.030232666060328484
15.85,0.21068906784057617,-4.519332408905029,2.0270376205444336,-0.8533502221107483,0.014548850245773792,-0.009609995409846306
15.9,0.7912536263465881,-2.7220773696899414,1.724846601486206,-1.0235967636108398,-0.12027834355831146,-0.020855441689491272
15.95,2.7662389278411865,1.3376363515853882,0.9779098629951477,-1.1060949563980103,-0.39047011733055115,0.292278915643692
16.0,3.74764084815979,6.94694709777832,-2.377500534057617,-0.8152085542678833,0.10368000715970993,0.7785460948944092
16.05,3.639775514602661,11.284710884094238,-8.45041561126709,-0.9489737153053284,0.2756762206554413,1.0623321533203125
16.1,5.542207717895508,6.342696189880371,-10.967629432678223,-1.608181357383728,-1.122653603553772,1.6657780408859253
16.15,2.9199624061584473,-7.235362529754639,-16.382768630981445,-0.6675335168838501,-0.36658772826194763,1.348601222038269
16.2,-11.076654434204102,8.93797492980957,3.176729440689087,1.3247660398483276,-1.0986005067825317,0.6068325042724609
16.25,0.6797556281089783,-5.971209526062012,0.3033074140548706,0.7061458230018616,1.7830290794372559,-1.4118515253067017
16.3,-1.0776538848876953,-8.963850021362305,3.1922714710235596,0.6460363864898682,1.3104075193405151,-0.48157480359077454
16.35,-1.0196747779846191,-8.791274070739746,2.425916910171509,0.3791816234588623,1.5760911703109741,-0.809303343296051
16.4,-1.0976285934448242,-5.354645252227783,2.9212801456451416,-0.12410542368888855,0.8681523203849792,-1.0304088592529297
16.45,-0.16527247428894043,-3.15567946434021,1.9654027223587036,-0.5905122756958008,0.4347653090953827,-1.2216523885726929
16.5,0.7836725115776062,1.3350192308425903,-0.7372587323188782,-0.45466652512550354,0.15685796737670898,-1.1127091646194458
16.55,4.0840349197387695,6.712783336639404,-4.84876823425293,0.011081740260124207,-0.3523402512073517,-0.5285881161689758
16.6,6.996485233306885,13.27499771118164,-9.103509902954102,0.06418237090110779,-0.35143834352493286,0.24790999293327332
16.65,5.941011428833008,11.07841968536377,-7.57975959777832,-0.603807270526886,-0.7407658696174622,1.0103356838226318
16.7,-0.04094827175140381,4.711890697479248,-1.897065281867981,-0.49189674854278564,-1.3895076513290405,1.675771951675415
16.75,-2.814314365386963,1.9287371635437012,3.053947687149048,2.4118618965148926,-0.3342955708503723,0.46875903010368347
16.8,-2.4789814949035645,-3.5542385578155518,2.3974132537841797,0.5378293395042419,-0.17542743682861328,-0.3339669108390808
16.85,-0.7317274808883667,-9.569839477539062,-0.072337307035923,0.2840147614479065,1.671046257019043,-0.6651987433433533
16.9,-1.5513249635696411,-7.8260674476623535,2.096440315246582,-0.012420952320098877,0.8780552744865417,-0.379075825214386
16.95,-1.5262413024902344,-4.4898786544799805,2.1477887630462646,-0.2542097866535187,0.916537344455719,-0.9235559105873108
17.0,0.23686513304710388,-1.3966150283813477,0.6131553053855896,-0.34726691246032715,0.4911178648471832,-1.185086727142334
17.05,2.608718156814575,3.2050843238830566,-1.650933861732483,0.07868126034736633,-0.24608057737350464,-0.982265830039978
17.1,6.927879333496094,9.459083557128906,-6.511622428894043,0.17755326628684998,-0.8829309344291687,-0.3925815224647522
17.15,8.988059997558594,11.634076118469238,-10.485249519348145,-0.4897875487804413,-1.0994399785995483,0.49796396493911743
17.2,4.805215835571289,4.250692844390869,-8.67741870880127,-0.859443724155426,-1.302612066268921,1.4515923261642456
17.25,-3.558608055114746,-0.7401561141014099,2.4769487380981445,1.160401701927185,-1.259561538696289,1.9338840246200562
17.3,-8.808769226074219,-1.1835840940475464,5.624503135681152,0.356110155582428,-0.3397824466228485,0.9545379877090454
17.35,-2.881187677383423,-5.510554313659668,0.2011963129043579,-0.2448127567768097,1.1516709327697754,-0.18893666565418243
17.4,-1.2287375926971436,-7.0721940994262695,-0.26752516627311707,-0.34262746572494507,1.0124549865722656,-0.39332863688468933
17.45,-1.406224250793457,-4.899985313415527,0.535639226436615,-0.09965212643146515,0.9408588409423828,-0.7558597922325134
17.5,0.33369889855384827,-0.33125022053718567,-0.015487359836697578,0.3816227912902832,0.48265722393989563,-1.1296693086624146
17.55,6.151410102844238,8.16411018371582,-1.350904941558838,0.6263919472694397,-0.5834353566169739,-1.1133300065994263
17.6,10.602835655212402,14.0401029586792,-5.0091328620910645,-0.21720609068870544,-1.370822548866272,-0.2871149182319641
17.65,8.332228660583496,3.534055471420288,-1.3572614192962646,-1.376478910446167,-1.0472979545593262,0.9600299000740051
17.7,5.596479415893555,-4.043354034423828,-5.440887928009033,0.10194838047027588,-0.322723388671875,1.4758074283599854
17.75,-3.628527879714966,-6.13417387008667,-0.7600706815719604,0.2523652911186218,-1.2219462394714355,1.532904028892517
17.8,-2.4340341091156006,-2.7384538650512695,-1.8594467639923096,1.0177323818206787,0.27171146869659424,-0.14980588853359222
17.85,-3.2093257904052734,-5.2448201179504395,0.4688931405544281,0.6359963417053223,0.01947045885026455,0.15786036849021912
17.9,-2.166705846786499,-6.071118354797363,1.7858469486236572,0.21917951107025146,0.40665897727012634,0.184170663356781
17.95,-1.3750832080841064,-4.7395853996276855,3.346012592315674,-0.49368947744369507,0.33470213413238525,-0.006231759674847126
18.0,0.3934858441352844,-2.3166086673736572,3.1020865440368652,-0.9524334669113159,0.19619779288768768,-0.37117069959640503
18.05,2.1254169940948486,1.5110384225845337,1.9502002000808716,-1.142530918121338,0.045312244445085526,-0.3580634295940399
18.1,4.966829299926758,7.825572967529297,-3.486570358276367,-1.1011656522750854,-0.2631661295890808,-0.009603025391697884
18.15,1.9695360660552979,14.124286651611328,-7.781639099121094,-1.1369282007217407,-0.45460256934165955,0.4691314399242401
18.2,-2.4629030227661133,9.609881401062012,-4.7453742027282715,-1.02692449092865,-0.5831019282341003,0.7115125060081482
18.25,13.094176292419434,-12.297418594360352,-8.401754379272461,-0.3403744101524353,-0.5639951229095459,0.9217254519462585
18.3,1.2496881484985352,-7.97801399230957,0.21577072143554688,2.213247299194336,0.5686367154121399,0.5948240756988525
18.35,0.16416513919830322,-5.857708930969238,2.077831506729126,0.7041972875595093,0.08158490061759949,-0.38510939478874207
18.4,-0.06182771921157837,-10.536381721496582,2.087567090988159,0.6148701906204224,1.1823800802230835,-0.768724262714386
18.45,-0.3959413170814514,-8.472314834594727,2.7532873153686523,-0.23598992824554443,0.7704804539680481,-0.2593543827533722
18.5,-0.4334893822669983,-5.634582042694092,2.50970721244812,-0.716441810131073,0.5639643669128418,-0.16289786994457245
18.55,0.45193856954574585,-3.0218424797058105,3.3513293266296387,-1.186973214149475,-0.2442845106124878,-0.061632633209228516
18.6,2.8406643867492676,1.292970061302185,1.2829234600067139,-1.219721794128418,0.06993243843317032,-0.028965555131435394
18.65,1.602865219116211,9.228527069091797,-2.0023961067199707,-0.8512926697731018,0.11734645813703537,0.5349932909011841
18.7,1.9578003883361816,13.560483932495117,-11.64277458190918,-0.7823035717010498,-0.2688235640525818,0.6299048066139221
18.75,7.011208534240723,2.55073618888855,-15.315964698791504,-1.2609144449234009,-0.4166235625743866,0.5196903944015503
18.8,21.166786193847656,-13.06029987335205,-18.911428451538086,-0.7149345278739929,-0.05311502888798714,0.7001146078109741
18.85,-4.003386497497559,4.0035200119018555,6.500230312347412,2.0421676635742188,-0.7597630620002747,0.701183557510376
18.9,-4.866606712341309,10.66008472442627,-5.548296928405762,0.8031750917434692,0.13797108829021454,-1.6022906303405762
18.95,2.417323112487793,-5.934755802154541,0.2238108068704605,0.17558985948562622,1.2693854570388794,-2.2858405113220215
19.0,2.0136821269989014,-7.2901291847229,2.7181358337402344,-0.2005826085805893,1.3177106380462646,-0.7698301672935486
19.05,0.9066470265388489,-5.513780117034912,2.3537003993988037,-0.13989987969398499,1.5755107402801514,-0.14772073924541473
19.1,0.6530849933624268,-2.9703726768493652,2.2613284587860107,-0.2655794620513916,1.0136299133300781,0.29405325651168823
19.15,0.03693544864654541,-0.07837672531604767,0.4494902789592743,0.08431605994701385,0.5327362418174744,0.12587206065654755
19.2,0.05066150426864624,5.3605427742004395,-1.728588342666626,0.5364784002304077,0.34280285239219666,0.12021786719560623
19.25,-1.0616798400878906,6.2613019943237305,-6.792516708374023,0.47162649035453796,0.943453848361969,-0.26243945956230164
19.3,-0.5375418663024902,3.09883451461792,-7.613239288330078,-0.2775724530220032,0.11753662675619125,0.1722351461648941
19.35,-0.2702310085296631,0.7342294454574585,-5.780337810516357,-0.6044132709503174,-1.0945520401000977,0.7052032947540283
19.4,2.1582510471343994,-4.916628360748291,-7.772955417633057,-0.5393019318580627,-0.5148290991783142,-0.03382644057273865
19.45,-0.7032268047332764,-1.6167775392532349,1.0835893154144287,-0.31370073556900024,-0.5781859159469604,-0.21767765283584595
19.5,0.715416669845581,-4.217066764831543,0.325962632894516,-0.41007018089294434,0.5766792297363281,-1.046554684638977
19.55,0.730398952960968,-0.7748440504074097,2.121746778488159,-0.17293137311935425,0.6586980223655701,-0.8412972092628479
19.6,1.2361526489257812,-1.088775634765625,0.4139377474784851,0.030602216720581055,1.092028260231018,-1.0880569219589233
19.65,0.7579029202461243,-0.44736480712890625,0.12146954983472824,0.06322787702083588,0.5559160113334656,-0.7222515940666199
19.7,0.7010210156440735,0.641768753528595,1.7780847549438477,-0.1665484458208084,0.17427846789360046,-0.42840734124183655
19.75,0.4243180751800537,1.5091423988342285,2.2917556762695312,-0.20422622561454773,0.033770009875297546,-0.2156490981578827
19.8,-0.03227400779724121,1.742855429649353,1.306437611579895,-0.07419797778129578,0.19139604270458221,-0.21933995187282562
19.85,-0.4534405469894409,1.2948493957519531,-0.443299800157547,-0.019651025533676147,0.4867481589317322,-0.49645480513572693
19.9,-0.705603837966919,0.6523626446723938,-1.9258238077163696,-0.07599075138568878,0.6969492435455322,-0.836800754070282
19.95,-0.266027569770813,0.5246847867965698,-1.32956063747406,-0.13769131898880005,0.2869451344013214,-0.7227765321731567
20.0,0.03845101594924927,0.4575413465499878,-1.4976403713226318,-0.08535921573638916,0.31079375743865967,-0.7532085180282593
20.05,-0.032498717308044434,0.4817398190498352,-2.0681002140045166,0.035740405321121216,0.4808162450790405,-0.7536278367042542
20.1,-0.18307489156723022,0.21532133221626282,-2.012493848800659,-0.02911725640296936,0.3433767259120941,-0.5929128527641296
20.15,-0.7363285422325134,-0.14322301745414734,-1.4386801719665527,-0.26988494396209717,0.1542917788028717,-0.48561057448387146
20.2,-1.3244580030441284,-1.05417001247406,-1.7253671884536743,-0.4261595606803894,0.19411306083202362,-0.6015530824661255
20.25,-1.5125865936279297,-1.0989869832992554,-1.2144805192947388,-0.5404344797134399,0.11041431128978729,-0.49798479676246643
20.3,-1.4025062322616577,-1.356823205947876,-0.951151430606842,-0.443168967962265,0.18702808022499084,-0.5046479105949402
20.35,-1.359057903289795,-1.1934216022491455,-0.639443039894104,-0.3081096410751343,0.362420916557312,-0.3487134873867035
20.4,-1.2170941829681396,-1.5932706594467163,-0.34590786695480347,-0.21562090516090393,0.5612043142318726,-0.1488131284713745
20.45,-1.2232314348220825,-1.8521993160247803,-0.027445657178759575,-0.08600418269634247,0.7207075357437134,0.020002052187919617
20.5,-1.3591850996017456,-1.762635588645935,-0.05330890417098999,0.013950929045677185,0.808631956577301,0.22926312685012817
20.55,-1.260947585105896,-1.7256271839141846,0.1413627564907074,0.025779247283935547,0.7467886209487915,0.5002582669258118
20.6,-1.4213272333145142,-1.4908868074417114,0.4752359390258789,0.03708307445049286,0.8965676426887512,0.5819058418273926
20.65,-1.4143930673599243,-1.732555627822876,0.5905392169952393,-0.019048437476158142,1.1335039138793945,0.6193326711654663
20.7,-1.117644190788269,-1.7406656742095947,0.8660174012184143,-0.06253421306610107,1.3038158416748047,0.7677290439605713
20.75,0.22694751620292664,0.8704807758331299,0.9623441696166992,0.2058902382850647,1.396332859992981,0.8910062909126282
20.8,0.7087198495864868,2.502359628677368,-1.0763593912124634,0.6566023826599121,1.5244855880737305,0.6606618762016296
20.85,1.3973101377487183,2.079771041870117,-2.0857391357421875,0.4854828417301178,1.563236117362976,0.6578672528266907
20.9,1.8652291297912598,1.5897274017333984,-3.172614812850952,0.24534346163272858,1.5565131902694702,0.44749560952186584
20.95,2.001807689666748,1.4790781736373901,-3.4298949241638184,0.2619750201702118,1.0798420906066895,0.30516666173934937
21.0,2.289156198501587,1.4430454969406128,-3.2324039936065674,0.42615973949432373,0.41422954201698303,0.4439176917076111
21.05,2.0064711570739746,0.5361641645431519,-2.435502529144287,0.3890596628189087,0.16570062935352325,0.5623706579208374
21.1,1.0129426717758179,-0.5944244265556335,-1.4029043912887573,0.30973199009895325,0.19780229032039642,0.6109695434570312
21.15,0.8459910750389099,-0.04155068099498749,-0.7001721858978271,0.37002214789390564,-0.0078089600428938866,0.6587181091308594
21.2,0.4049510359764099,0.2713289260864258,-0.3738178312778473,0.04798959940671921,0.010041817091405392,0.36434927582740784
21.25,-0.27128124237060547,-0.5120536088943481,-0.38533544540405273,-0.1917184442281723,-0.1424933820962906,0.08877948671579361
21.3,0.3210163712501526,-0.18638800084590912,0.079770028591156,-0.1165635734796524,-0.4573162794113159,0.08195584267377853
21.35,0.14488688111305237,-0.36816316843032837,-0.21694298088550568,-0.39426887035369873,-0.1081022098660469,-0.2024083286523819
21.4,-0.6332834959030151,-0.163765087723732,-0.8253481388092041,-0.1878197342157364,-0.14758627116680145,-0.3849215507507324
21.45,-0.46044814586639404,0.2413225769996643,0.48701566457748413,0.13793212175369263,-0.6576820611953735,-0.1452219933271408
21.5,-1.5288574695587158,-2.400956392288208,1.4033565521240234,-0.1633164882659912,-0.8726685643196106,-0.052698392421007156
21.55,-2.0650224685668945,-2.4211599826812744,1.1627287864685059,-0.1868889033794403,-0.8396754264831543,0.060661595314741135
21.6,-1.3338618278503418,-1.751373529434204,0.4705641269683838,-0.18164685368537903,-0.2601657211780548,0.2797607183456421
21.65,-1.4929802417755127,-2.1473798751831055,-0.8114215135574341,-0.053762227296829224,0.6627917289733887,-0.013537363149225712
21.7,-1.324103832244873,-0.539824903011322,-2.963826894760132,0.5622879862785339,1.0636317729949951,-0.232472226023674
21.75,-0.8343340158462524,0.33285775780677795,-2.7963013648986816,1.3625013828277588,1.0771178007125854,-0.17237652838230133
21.8,-2.663809061050415,1.8864456415176392,-4.1128668785095215,1.5988742113113403,0.8427333831787109,-0.34102413058280945
21.85,-3.976048469543457,6.517657279968262,-5.541170120239258,1.5155168771743774,-0.0023578815162181854,-0.022689014673233032
21.9,-2.9896368980407715,2.6370365619659424,0.999477207660675,0.9826034307479858,-0.7951006293296814,1.0202993154525757
21.95,-10.868199348449707,-16.384904861450195,1.384209394454956,1.2802708148956299,-0.33986371755599976,0.24386273324489594
22.0,4.718536853790283,14.645748138427734,24.658287048339844,1.8402389287948608,-0.8854286670684814,-1.4429515600204468
22.05,4.644573211669922,-1.980694055557251,2.2146682739257812,-1.0870146751403809,0.7268955707550049,-1.348657250404358
22.1,2.9896700382232666,-3.8119466304779053,0.4302729070186615,-0.8866345882415771,-0.1805248111486435,0.49694061279296875
22.15,-1.2010133266448975,-3.072591781616211,-0.5325835347175598,-0.880785346031189,-0.11873864382505417,0.9700793623924255
22.2,-1.8732411861419678,-2.633234977722168,-1.126894474029541,-0.5970504283905029,-0.26836806535720825,0.26120704412460327
22.25,-1.2342396974563599,-1.5583631992340088,0.3159254491329193,-0.1596091240644455,-0.3215809166431427,-0.3106539845466614
22.3,-1.259070873260498,1.934854507446289,-1.4633550643920898,0.12672415375709534,0.16636811196804047,-0.6637043356895447
22.35,-6.076297760009766,6.734389305114746,-8.15987491607666,0.7914820313453674,-0.01851220615208149,-0.31646889448165894
22.4,-1.3243680000305176,12.155522346496582,-3.45858097076416,1.2990797758102417,-1.2994376420974731,0.8342546820640564
22.45,-3.4206933975219727,-5.229711532592773,-13.53686809539795,0.2100561559200287,-1.1539642810821533,1.7338056564331055
22.5,3.5645503997802734,-9.08480453491211,-7.7335968017578125,0.6297386884689331,0.9662192463874817,-2.4544239044189453
22.55,5.335498332977295,-4.399714946746826,1.5716239213943481,-0.6080992221832275,0.08033894747495651,-0.4068373441696167
22.6,4.072024822235107,-6.516152381896973,0.20690792798995972,-0.9798364639282227,0.8092819452285767,-0.17875343561172485
22.65,1.637873649597168,-7.3687663078308105,-0.2354515641927719,-0.40814775228500366,0.6166875958442688,0.3844584822654724
22.7,0.38256126642227173,-3.856907606124878,1.6514452695846558,-0.35356998443603516,0.42195603251457214,0.4277647137641907
22.75,0.40741246938705444,-1.9667143821716309,2.306286334991455,-0.4850291609764099,0.048557769507169724,0.17288795113563538
22.8,0.36771827936172485,-1.0660744905471802,-0.10927730798721313,-0.6237570643424988,-0.14188338816165924,-0.39759010076522827
22.85,0.017572641372680664,3.5855391025543213,-2.3339693546295166,-0.22058311104774475,-0.2853197455406189,-0.7487052083015442
22.9,-4.0921549797058105,10.329081535339355,-5.894433975219727,0.4794958829879761,-0.30241936445236206,-0.42584195733070374
22.95,-1.568315029144287,11.81485366821289,-2.3496837615966797,0.7641311883926392,-1.1632182598114014,1.3252995014190674
23.0,2.0050148963928223,-0.18286974728107452,0.8077919483184814,0.5035281181335449,-0.9183990955352783,1.9834227561950684
23.05,-3.645634174346924,-14.826087951660156,-0.2716415822505951,1.4619168043136597,0.8323448896408081,-1.9900106191635132
23.1,2.8866920471191406,3.686802625656128,10.024496078491211,0.7469639182090759,-0.5666621327400208,-1.5682295560836792
23.15,3.819805383682251,-6.531440258026123,1.9539566040039062,-0.8411532044410706,1.4672386646270752,-0.9944617748260498
23.2,2.2508692741394043,-6.217519760131836,0.5289996266365051,-0.5024216771125793,0.9692586660385132,0.4302208721637726
23.25,2.1214842796325684,-3.7081458568573,1.36112642288208,-0.6198287606239319,0.7077076435089111,0.8788333535194397
23.3,0.896736204624176,-2.6942384243011475,0.0032447942066937685,-0.6263103485107422,0.4084841012954712,0.6648895144462585
23.35,0.4728078246116638,-0.1885719746351242,-0.2735415995121002,-0.447983980178833,-0.2343788892030716,0.23290017247200012
23.4,-0.8395863175392151,2.0300512313842773,-2.6579391956329346,-0.39706718921661377,-0.7679412364959717,-0.20375755429267883
23.45,-3.61600923538208,5.784358024597168,-2.9183237552642822,0.10644733905792236,-1.0007221698760986,-0.13576261699199677
23.5,-6.857371807098389,9.048640251159668,-5.455268383026123,0.717076301574707,-0.6817245483398438,0.38234782218933105
23.55,-4.647287368774414,6.914590358734131,-1.8781826496124268,1.1082000732421875,-0.9005327820777893,1.4622669219970703
23.6,-37.093284606933594,-30.80113983154297,-18.411245346069336,0.31982964277267456,-0.11669734865427017,1.31532883644104
23.65,10.713472366333008,-10.307125091552734,9.26008415222168,2.4096076488494873,0.17024821043014526,-2.1711697578430176
23.7,2.4749557971954346,-3.7000975608825684,-0.3102504312992096,-1.2335387468338013,0.8972359299659729,-0.6731082201004028
23.75,3.1712546348571777,-6.861069679260254,0.8199270963668823,-0.5628262162208557,0.4126322865486145,0.2381587028503418
23.8,1.2420949935913086,-6.822090148925781,0.41104352474212646,-0.721902072429657,0.5111829042434692,0.44596827030181885
23.85,0.7788571715354919,-4.228796482086182,2.1319644451141357,-0.6742464900016785,-0.11895017325878143,0.39600229263305664
23.9,0.37791478633880615,-2.569265127182007,0.7639090418815613,-0.6231874227523804,-0.2515789866447449,-0.17950963973999023
23.95,-0.3319048285484314,2.8686506748199463,-0.027046233415603638,-0.2041139453649521,-0.45863038301467896,-0.319212406873703
24.0,-3.3875112533569336,5.908266067504883,-4.591781139373779,0.08544684946537018,0.16208060085773468,-0.1869012862443924
24.05,-6.260538578033447,11.871464729309082,-6.986196994781494,0.7566961050033569,-0.06682729721069336,-0.07103010267019272
24.1,-1.5214046239852905,12.172850608825684,-0.5739246010780334,1.1219717264175415,-1.1327621936798096,1.1672338247299194
24.15,1.382045030593872,-0.7930206060409546,-2.4343276023864746,0.573651134967804,-0.5698550343513489,1.6031190156936646
24.2,3.3749680519104004,-9.388251304626465,-5.9703369140625,2.820286989212036,1.4126825332641602,-1.6463639736175537
24.25,5.077296257019043,-5.7903900146484375,0.04895224794745445,0.37974241375923157,0.41785895824432373,-1.2114005088806152
24.3,2.2755279541015625,-6.5578083992004395,4.1988935470581055,0.1615021973848343,0.9055066108703613,-0.4429895877838135
24.35,1.0953538417816162,-6.803773880004883,1.7790799140930176,-0.33942410349845886,0.8554347157478333,0.1047581285238266
24.4,1.1300609111785889,-5.288219928741455,2.141735315322876,-0.7320233583450317,0.40839892625808716,0.26735472679138184
24.45,0.419461190700531,-2.8019633293151855,1.6787174940109253,-1.0108940601348877,-0.05175749957561493,0.20635636150836945
24.5,0.7914544343948364,-1.8687207698822021,-0.021085038781166077,-1.1659902334213257,-0.4044785499572754,-0.09905968606472015
24.55,-0.33471667766571045,3.344481945037842,-0.659052848815918,-0.836610734462738,-0.32274115085601807,-0.2677282989025116
24.6,-4.0574631690979,9.410872459411621,-3.6253585815429688,-0.3212118148803711,-0.24851611256599426,-0.3773643672466278
24.65,-4.220829486846924,12.706644058227539,-4.572842121124268,0.0594312846660614,-1.3376463651657104,1.2992076873779297
24.7,-3.0613131523132324,1.222619652748108,-3.3763601779937744,-0.5651527047157288,-0.38630911707878113,1.779714584350586
24.75,-14.45268440246582,11.621017456054688,26.471681594848633,2.105257511138916,0.2579895257949829,0.3921045958995819
24.8,-1.039747714996338,13.112357139587402,19.375110626220703,1.0180259943008423,-0.046112656593322754,-1.4383165836334229
24.85,0.8799681067466736,-3.8259596824645996,3.7556869983673096,0.014978140592575073,0.9754616022109985,-0.9227207899093628
24.9,1.8007066249847412,-6.062623500823975,5.101086616516113,0.3298589885234833,-0.049568865448236465,0.07621454447507858
24.95,1.2273598909378052,-7.401549339294434,2.8453683853149414,-0.47868233919143677,0.2521389126777649,0.152584046125412
25.0,0.9967045783996582,-5.519717693328857,2.7396256923675537,-0.8013063073158264,-0.05996084585785866,0.490227073431015
25.05,1.143717885017395,-3.55912184715271,0.9065060019493103,-1.074644684791565,0.06170079857110977,0.149503692984581
25.1,-0.7445147037506104,2.9422225952148438,-1.5670231580734253,-0.6697938442230225,-0.12749072909355164,-0.3185851275920868
25.15,-3.625938892364502,7.103555202484131,-2.4811766147613525,0.09223797917366028,-0.32229071855545044,-0.3918638229370117
25.2,-5.878361225128174,8.56194019317627,-5.2885026931762695,-0.41647130250930786,0.18715159595012665,0.1380031853914261
25.25,-3.137277364730835,9.56721019744873,-3.2818052768707275,-0.24186906218528748,-0.6752240657806396,1.1269261837005615
25.3,0.7648535966873169,-1.2455297708511353,-4.879926681518555,-0.46167171001434326,-0.5956768989562988,1.4911638498306274
25.35,-0.2627655267715454,-5.380013465881348,-4.906660556793213,1.183388352394104,0.4264239966869354,-0.3949655592441559
25.4,-2.5980801582336426,8.451972007751465,12.822713851928711,1.5779966115951538,-0.6541315317153931,-0.5396569967269897
25.45,2.357029676437378,-3.723565101623535,3.563563585281372,-0.5005908608436584,0.5201331377029419,-1.0821350812911987
25.5,1.5407099723815918,-6.502884387969971,2.0395655632019043,-0.36297181248664856,-0.019931597635149956,0.0006713321781717241
25.55,0.7900038957595825,-5.5485358238220215,2.244088888168335,-0.44005393981933594,0.01244712807238102,0.10232150554656982
25.6,0.5115571022033691,-4.283314228057861,1.8994309902191162,-0.4321273863315582,-0.03397450968623161,0.22638720273971558
25.65,0.8025789260864258,-0.9983186721801758,0.7290360927581787,-0.3402477204799652,-0.02442164532840252,0.1763683259487152
25.7,-1.410507321357727,4.989409446716309,-2.933234691619873,0.08763161301612854,-0.012828845530748367,0.002667315537109971
25.75,-6.264460563659668,11.152976036071777,-6.136716842651367,0.1832999736070633,-0.1812259703874588,-0.04848676919937134
25.8,-4.228026390075684,7.806909084320068,-1.907731056213379,-0.270690381526947,-1.1630204916000366,1.43294358253479
25.85,8.62716293334961,-15.778776168823242,-23.90308952331543,-0.7968875169754028,-0.37965044379234314,1.138614296913147
25.9,4.800452709197998,-7.738202095031738,-3.0269649028778076,2.1689631938934326,0.4686056673526764,-0.5931649208068848
25.95,3.687100887298584,-3.8431599140167236,1.2734934091567993,0.000738099217414856,0.07853251695632935,-0.34756171703338623
26.0,1.8896143436431885,-5.640579700469971,0.8515181541442871,0.03675280883908272,0.4537186026573181,0.015474453568458557
26.05,1.0163246393203735,-5.201404571533203,2.4518966674804688,0.18123863637447357,0.26481518149375916,0.04321804642677307
26.1,0.6745237708091736,-3.1744301319122314,1.702940583229065,-0.08130312711000443,-0.059770070016384125,-0.17205101251602173
26.15,0.13228681683540344,-0.4145147204399109,-1.0686075687408447,-0.22825422883033752,-0.3417156934738159,-0.15699893236160278
26.2,-2.397256851196289,4.117033958435059,-3.584304094314575,-0.11500712484121323,-0.3969583809375763,0.2798084318637848
26.25,-6.555716037750244,6.174675464630127,-2.1550333499908447,0.4982820153236389,-0.41879990696907043,0.996608316898346
26.3,-3.280794382095337,4.9258856773376465,1.3718398809432983,0.619867205619812,-0.47859129309654236,1.113738775253296
26.35,2.0481600761413574,-6.561086654663086,-16.507688522338867,-0.202633798122406,0.28379759192466736,0.3739243745803833
26.4,0.32838499546051025,-4.859112739562988,-4.504026412963867,1.3124417066574097,1.255743384361267,-1.515044093132019
26.45,1.6242811679840088,-2.855051279067993,0.2584361732006073,-0.061502307653427124,0.11220575869083405,-0.9008681774139404
26.5,1.2936187982559204,-5.496704578399658,2.699981212615967,-0.4597955048084259,-0.01875367946922779,-0.288090318441391
26.55,0.9139783382415771,-6.832494735717773,0.8546152114868164,-0.8158332109451294,0.2765839099884033,0.023113224655389786
26.6,1.0417723655700684,-4.4937825202941895,0.4424290359020233,-0.7636625170707703,0.3329002261161804,0.15777604281902313
26.65,0.9711904525756836,-1.8569767475128174,-0.36588254570961,-0.3506835997104645,0.13608956336975098,-0.024698620662093163
26.7,-1.6447346210479736,1.8994197845458984,-1.1051709651947021,-0.04692345857620239,0.3117644190788269,-0.38052263855934143
26.75,-6.06998348236084,8.910073280334473,-4.512381553649902,0.39583057165145874,0.31920182704925537,-0.48515740036964417
26.8,-6.017093181610107,11.150367736816406,-0.5282198190689087,0.9932175874710083,-0.4807765483856201,0.7160086035728455
26.85,-2.4287068843841553,2.9771695137023926,2.5732345581054688,0.2968386113643646,-0.4105865955352783,1.4407167434692383
26.9,-8.382322311401367,-22.001684188842773,3.048963785171509,1.6465517282485962,1.0540119409561157,-0.5855458974838257
26.95,-0.6369004249572754,4.34108304977417,16.551441192626953,0.822512686252594,-0.2709874212741852,-1.805389165878296
27.0,2.180849313735962,-3.290346384048462,6.239012241363525,-0.5602295994758606,0.0007583169499412179,-1.1521865129470825
27.05,1.5471044778823853,-7.847198486328125,1.330773115158081,-0.5099968910217285,-0.10253097862005234,-0.035690855234861374
27.1,1.5142185688018799,-6.593206405639648,0.9654269814491272,-0.5225820541381836,0.32330507040023804,0.5978116393089294
27.15,1.2339441776275635,-2.9842092990875244,-0.016292719170451164,-0.5188192129135132,0.34187042713165283,0.4548099935054779
27.2,-1.3642971515655518,0.9922303557395935,-1.021774172782898,-0.489706814289093,0.08132454752922058,-0.08173195272684097
27.25,-4.703460693359375,7.044078350067139,-2.9786691665649414,-0.14118534326553345,-0.07985711097717285,-0.2559727728366852
27.3,-7.9306864738464355,9.54183292388916,-4.695167064666748,0.31110864877700806,-0.0951513797044754,0.5790745615959167
27.35,-3.185391426086426,5.05896520614624,0.564232587814331,0.3312305808067322,-1.1884257793426514,1.515452265739441
27.4,-13.910935401916504,1.2595857381820679,7.7989959716796875,0.7252250909805298,-0.0780528336763382,0.6594460010528564
27.45,-6.348458290100098,16.263294219970703,16.32720947265625,1.4367977380752563,0.25148308277130127,-1.0862170457839966
27.5,-0.6407061815261841,-1.5025975704193115,4.27617883682251,-0.08265271782875061,1.1399224996566772,-1.3003010749816895
27.55,0.8584029674530029,-5.462204933166504,3.54227352142334,0.004639223217964172,0.1824822574853897,-0.32746535539627075
27.6,0.6392641067504883,-5.8185577392578125,1.2364808320999146,-0.6536111831665039,0.429516464471817,-0.04638046771287918
27.65,0.6222904920578003,-3.965768814086914,0.5938831567764282,-0.7221675515174866,0.10939930379390717,0.14856074750423431
27.7,0.26141852140426636,-2.141282796859741,0.5956207513809204,-0.7687955498695374,-0.0864323154091835,0.0250084288418293
27.75,-0.09565538167953491,-0.8333971500396729,-1.0295428037643433,-0.8682267665863037,-0.24567459523677826,-0.28279149532318115
27.8,-1.315560221672058,3.826220750808716,-1.6751518249511719,-0.5303286910057068,-0.16522566974163055,-0.2725158631801605
27.85,-2.8774819374084473,7.4928812980651855,-5.130156517028809,-0.1392209380865097,0.11804012209177017,0.11953720450401306
27.9,-5.606500625610352,8.7907075881958,-3.922834634780884,0.5105676054954529,-0.4759339690208435,1.106177568435669
27.95,-1.1809120178222656,3.251351833343506,-0.1750372350215912,0.3802245855331421,-0.8620821237564087,1.592404842376709
28.0,4.7653398513793945,-19.302108764648438,-17.434682846069336,0.8861559629440308,0.5601239800453186,0.7517863512039185
28.05,-0.46090853214263916,-1.5407251119613647,-0.570793092250824,1.890975832939148,0.029708456248044968,-1.2079541683197021
28.1,2.031672954559326,-5.678444862365723,2.207573890686035,0.09329727292060852,0.1402846872806549,-1.3890836238861084
28.15,1.7268869876861572,-8.437633514404297,1.766663670539856,-0.014760322868824005,0.0029006642289459705,-0.3269563317298889
28.2,3.0291361808776855,-6.867276668548584,2.2766027450561523,0.019607052206993103,-0.08619958162307739,0.4253379702568054
28.25,2.846153736114502,-4.0656914710998535,-0.8065776824951172,-0.3572622239589691,0.2754863202571869,0.5723367929458618
28.3,-0.002148240804672241,0.9622755646705627,-0.5018761157989502,-0.41471242904663086,-0.27386966347694397,0.3793259859085083
28.35,-6.038692474365234,8.211628913879395,-3.521062135696411,-0.4261054992675781,-0.0417947843670845,0.002960989950224757
28.4,-11.289729118347168,10.510405540466309,-1.7865239381790161,0.35131075978279114,-0.2376643419265747,0.6939903497695923
28.45,-22.939777374267578,-21.6995906829834,51.606754302978516,1.7401005029678345,-0.7022825479507446,1.142792820930481
28.5,-5.687617301940918,-8.380912780761719,10.576592445373535,0.5883519053459167,-0.7959338426589966,-0.3022596836090088
28.55,0.20633432269096375,-4.949859619140625,0.8910804390907288,0.24519935250282288,0.026841506361961365,-1.0780421495437622
28.6,1.7339551448822021,-6.899294376373291,2.348684787750244,-0.5962730050086975,-0.07547632604837418,-0.3178199529647827
28.65,1.967631220817566,-7.382172584533691,1.0125826597213745,-0.7433842420578003,-0.011433564126491547,0.3710688650608063
28.7,2.5441322326660156,-3.4208528995513916,0.798545777797699,-0.6805561780929565,-0.23306170105934143,0.49761632084846497
28.75,-0.026716619729995728,1.0408782958984375,-0.5724481344223022,-0.5452805161476135,-0.04195021465420723,0.20147855579853058
28.8,-8.310379028320312,10.609908103942871,-3.810436487197876,0.05899477005004883,0.3718487620353699,0.052463531494140625
28.85,-8.942191123962402,10.946596145629883,0.4964834451675415,-0.15286874771118164,-0.09841729700565338,0.857603132724762
28.9,-11.63928508758545,-9.641922950744629,6.56873893737793,-0.27583611011505127,-0.16104330122470856,1.1793376207351685
28.95,-8.566327095031738,-0.7873559594154358,7.940741539001465,0.9452674388885498,-0.08958899229764938,-0.4858654737472534
29.0,-0.06527996063232422,-4.919252872467041,1.3151978254318237,0.034935176372528076,0.14323359727859497,-1.2840521335601807
29.05,1.3735966682434082,-6.619337558746338,1.6763086318969727,0.024017810821533203,0.18241511285305023,-0.5641593933105469
29.1,0.921351432800293,-6.224205493927002,1.9133992195129395,-0.14917223155498505,0.4412311017513275,0.16297318041324615
29.15,1.0620373487472534,-3.224590539932251,1.1682840585708618,-0.2236785888671875,0.27395275235176086,0.023939795792102814
29.2,-1.2907613515853882,1.3459300994873047,-0.3822902739048004,-0.3122641444206238,0.21008455753326416,-0.24392393231391907
29.25,-5.474882125854492,6.163278102874756,-4.044780254364014,-0.269944965839386,0.17099778354167938,-0.27190008759498596
29.3,-6.083575248718262,5.727950096130371,-3.428912878036499,-0.010649669915437698,0.14613108336925507,-0.024873441085219383
29.35,-1.8894561529159546,3.2345163822174072,-0.3674248158931732,-0.004108354449272156,-0.11784778535366058,0.11984917521476746
29.4,1.6292048692703247,1.8294014930725098,2.0216219425201416,-0.22399277985095978,0.11174261569976807,-0.023554788902401924
29.45,-4.611696243286133,9.999845504760742,17.550416946411133,1.019675374031067,1.6067050695419312,-0.3584306836128235
29.5,-0.07668304443359375,8.454449653625488,12.31515884399414,0.10668006539344788,0.1925991326570511,-0.996897280216217
29.55,-0.6524253487586975,-3.9815890789031982,2.5539445877075195,-0.5997065305709839,0.18263307213783264,-0.13468573987483978
29.6,-0.5505780577659607,-6.3789777755737305,2.005396604537964,-0.3430156707763672,0.40627825260162354,0.3111046552658081
29.65,-0.6850879788398743,-6.409159183502197,0.7511500120162964,-0.601707935333252,0.9476295113563538,0.5343629121780396
29.7,0.2459782361984253,-3.0709292888641357,2.1936216354370117,-0.5467928647994995,0.17523550987243652,0.2508934736251831
29.75,0.924443781375885,-2.4564099311828613,1.0795460939407349,-0.8983545899391174,0.12063167244195938,0.4070555567741394
29.8,0.9653698205947876,-1.2020150423049927,-0.771215558052063,-0.6704287528991699,0.30828747153282166,0.6687779426574707
29.85,0.19578611850738525,1.484459638595581,-2.894469976425171,0.17506855726242065,0.11481954157352448,0.7592800855636597
29.9,-0.4227445125579834,5.717060089111328,-3.916398286819458,0.5061211585998535,0.06870964914560318,0.21595211327075958
29.95,-6.695535659790039,8.634812355041504,-7.17008113861084,-0.03909426927566528,0.9725376963615417,-0.5881845355033875
30.0,-6.3571977615356445,9.461441993713379,-4.462100028991699,0.4721226692199707,-0.26663869619369507,0.5279759764671326
30.05,7.086841583251953,-6.724433898925781,-37.52693176269531,-0.47015073895454407,-0.3239482641220093,0.96244877576828
30.1,10.036982536315918,-15.338446617126465,-8.456823348999023,1.9389965534210205,0.1944538950920105,-1.0814520120620728
30.15,0.7828230857849121,-7.210941314697266,2.6040537357330322,0.21135234832763672,-0.8878231048583984,-0.9241164922714233
30.2,3.22402286529541,-3.985807418823242,3.8263213634490967,-0.5473536252975464,0.35157647728919983,-0.5577812194824219
30.25,3.2943115234375,-5.94134521484375,0.20302808284759521,-0.9795852303504944,1.5029737949371338,-0.1426311433315277
30.3,3.1195781230926514,-2.5818557739257812,0.8581773042678833,-0.5218111276626587,0.7096371650695801,0.34337761998176575
30.35,0.9661625623703003,0.5491626858711243,-2.3874635696411133,-0.5754690766334534,0.1731002926826477,0.40165987610816956
30.4,-2.5673999786376953,5.697195529937744,-5.489488124847412,-0.19688904285430908,-0.46367597579956055,0.2239130139350891
30.45,-9.9270601272583,9.112095832824707,-6.089417457580566,-0.40240734815597534,-0.12548303604125977,-0.2457224577665329
30.5,-4.266412734985352,3.812779426574707,-2.853144645690918,-0.2530212998390198,-1.0515053272247314,0.9404281377792358
30.55,-6.764769077301025,-0.3931357264518738,-11.189369201660156,0.38724055886268616,0.5920810699462891,-0.23705936968326569
30.6,-1.6397154331207275,7.127531051635742,2.7753794193267822,2.170536518096924,-1.0446414947509766,-0.6572040915489197
30.65,0.7078816294670105,-4.550504684448242,-1.047684907913208,-0.6070427894592285,0.5326485633850098,-1.5194697380065918
30.7,2.3486227989196777,-6.487020015716553,0.2815227508544922,-0.5447827577590942,0.4644324779510498,-0.4171699285507202
30.75,2.9302115440368652,-6.015144348144531,0.19679290056228638,-0.5483413338661194,0.8208600282669067,0.22357971966266632
30.8,2.683835983276367,-3.0129005908966064,0.023278353735804558,-0.21493209898471832,0.4000667631626129,0.6859084963798523
30.85,1.7714715003967285,0.9718693494796753,-3.0577590465545654,-0.18708346784114838,0.21884764730930328,0.6014086604118347
30.9,-4.600211143493652,5.8374810218811035,-5.934865951538086,0.03360825777053833,0.26756584644317627,0.1899043321609497
30.95,-10.610400199890137,10.151631355285645,-3.8808653354644775,0.24414825439453125,0.12763650715351105,-0.2402186542749405
31.0,-4.20347785949707,4.802083492279053,1.2754614353179932,0.3237033486366272,-1.0940569639205933,0.9248973727226257
31.05,-8.150934219360352,17.820438385009766,27.698471069335938,1.5555942058563232,0.6225244998931885,-0.262900173664093
31.1,-0.9355521202087402,8.17375373840332,16.60230255126953,1.0662896633148193,0.07060626149177551,-1.8225910663604736
31.15,1.129591464996338,-3.3854055404663086,3.8488845825195312,-0.2732699513435364,0.8529471755027771,-1.4063950777053833
31.2,2.619685173034668,-5.513638496398926,2.6878247261047363,-0.18528254330158234,0.6930112838745117,-0.3308109641075134
31.25,2.8701980113983154,-5.411454200744629,1.3364862203598022,-0.49861228466033936,0.7182394862174988,0.31517037749290466
31.3,2.6287105083465576,-3.194427251815796,0.5956514477729797,-0.6959438920021057,0.42079803347587585,0.7371333241462708
31.35,1.5481457710266113,-0.6685706377029419,-1.1988009214401245,-0.7261952757835388,0.09378708899021149,0.8337857723236084
31.4,-1.618175745010376,2.9183719158172607,-4.113276958465576,-0.552843451499939,-0.2298877090215683,0.43596094846725464
31.45,-8.464743614196777,6.388731956481934,-7.1688337326049805,-0.17127269506454468,-0.3360961377620697,-0.14535953104496002
31.5,-11.34524154663086,7.098441123962402,-4.432526588439941,0.1489730179309845,-0.18617601692676544,0.08739092946052551
31.55,-3.3232128620147705,4.782933712005615,0.275469571352005,0.30401816964149475,-0.9342767000198364,1.24079167842865
31.6,-6.589452743530273,31.841554641723633,28.25064468383789,1.5782487392425537,0.5324011445045471,-0.49272534251213074
31.65,0.2831687927246094,19.407054901123047,23.89990234375,0.7001044154167175,-0.4826994836330414,-1.3343746662139893
31.7,2.665067195892334,-1.7914443016052246,5.880918979644775,-0.7319355010986328,0.8251009583473206,-0.7604181170463562
31.75,2.7929883003234863,-6.404796123504639,1.4444527626037598,-0.3006203770637512,0.8353084921836853,0.12102023512125015
31.8,2.346313953399658,-5.516081809997559,1.4210180044174194,-0.22836878895759583,0.40760180354118347,0.5088922381401062
31.85,1.3399245738983154,-2.8858795166015625,1.0706493854522705,-0.4132135510444641,-0.07655294984579086,0.6720702648162842
31.9,0.40989556908607483,-0.5390483736991882,-0.9902297854423523,-0.6548395752906799,-0.3256557881832123,0.5054444670677185
31.95,0.15811151266098022,3.1399872303009033,-2.667555570602417,-0.5028136968612671,-0.624092161655426,0.2609444558620453
32.0,-8.030176162719727,4.773437976837158,-7.05900239944458,-0.7241910696029663,0.14369232952594757,-0.24484656751155853
32.05,-14.403043746948242,7.232508182525635,-8.253327369689941,-0.05178459733724594,0.47123458981513977,-0.34321749210357666
32.1,-6.777490139007568,9.009077072143555,1.830741047859192,1.3214101791381836,-1.1149086952209473,1.2307161092758179
32.15,-5.526429176330566,7.678772926330566,28.900362014770508,2.209794759750366,0.49174532294273376,-0.0804520845413208
32.2,-0.5665073394775391,1.2853456735610962,12.839388847351074,0.630516767501831,-0.1141592413187027,-1.3087880611419678
32.25,1.3398370742797852,-5.685422420501709,2.136643648147583,-0.3173409402370453,0.39787304401397705,-0.9400731921195984
32.3,2.3910858631134033,-7.643968105316162,1.571944236755371,-0.2606596350669861,0.49370554089546204,-0.3654082417488098
32.35,2.0606400966644287,-7.3738932609558105,1.8967406749725342,-0.310946524143219,0.2346547394990921,-0.09314630180597305
32.4,1.4467507600784302,-5.428586006164551,2.3582262992858887,-0.47596290707588196,-0.08969579637050629,0.263428270816803
32.45,1.6039433479309082,-2.5484619140625,0.5299397110939026,-0.7124146819114685,-0.22663412988185883,0.45027855038642883
32.5,-0.6493090987205505,3.4605178833007812,-3.176213502883911,-0.741693377494812,-0.07827115058898926,0.4601333737373352
32.55,-7.622190475463867,6.591709613800049,-9.772153854370117,-0.40591269731521606,0.37833547592163086,0.32291892170906067
32.6,-16.455764770507812,9.527467727661133,-9.20194149017334,-0.130079448223114,0.7429153323173523,-0.08110544085502625
32.65,-3.2259764671325684,7.61801290512085,-1.4399659633636475,0.7521939277648926,-1.3655558824539185,0.9787756204605103
32.7,0.9753092527389526,4.245913982391357,-1.6357176303863525,1.2462655305862427,0.41408270597457886,-0.029925206676125526
32.75,1.625781536102295,-0.8172767758369446,1.9024327993392944,0.6226230263710022,-0.35188135504722595,-0.8821192383766174
32.8,1.9311645030975342,-4.890061378479004,2.404722213745117,-0.06181500852108002,0.11816031485795975,-0.6697084903717041
32.85,1.6609911918640137,-6.582777976989746,1.1047899723052979,-0.03740005940198898,0.43088090419769287,-0.4120320677757263
32.9,1.8778923749923706,-6.681840896606445,1.380844235420227,-0.12052386999130249,0.36673590540885925,-0.10156845301389694
32.95,1.9579346179962158,-5.172311305999756,2.248505115509033,-0.35492560267448425,0.25762954354286194,0.3732931613922119
33.0,1.6789522171020508,-3.356445550918579,1.9819120168685913,-0.6785104870796204,0.08255701512098312,0.6537245512008667
33.05,0.37798964977264404,-1.3199462890625,0.5240222215652466,-0.8694521188735962,-0.20620004832744598,0.5288148522377014
33.1,-2.420006275177002,3.3122024536132812,-3.0432586669921875,-0.5668668746948242,-0.596290647983551,0.0694797933101654
33.15,-9.680976867675781,8.346192359924316,-7.54556941986084,0.22334882616996765,-0.39152830839157104,0.09312254935503006
33.2,-16.49939727783203,3.6300530433654785,-9.956151008605957,-0.5873663425445557,0.3392685651779175,0.3215771019458771
33.25,-3.172680377960205,2.9259612560272217,-3.1931779384613037,0.57632976770401,-2.005786418914795,2.0353105068206787
33.3,5.209506034851074,-8.343836784362793,-8.628674507141113,1.128506064414978,0.06686270236968994,-0.7877966165542603
33.35,0.1382535994052887,-5.4951558113098145,-1.4710646867752075,0.47603821754455566,-0.4027514159679413,-0.7913896441459656
33.4,-0.546160101890564,-2.603091239929199,1.873916506767273,-0.2688118517398834,0.20038709044456482,-0.4498763382434845
33.45,-0.07553892582654953,-5.030123233795166,0.07171818614006042,-0.34132593870162964,0.9593128561973572,-0.36132603883743286
33.5,1.3097984790802002,-4.934056282043457,1.8262078762054443,-0.1580517441034317,0.6511567831039429,-0.09712612628936768
33.55,2.1631996631622314,-4.037163257598877,2.8249361515045166,-0.3569614887237549,0.4251280725002289,0.2815825343132019
33.6,1.7200791835784912,-2.089052438735962,2.901500940322876,-0.3082108497619629,0.2829233407974243,0.9801047444343567
33.65,0.096660315990448,0.08353833109140396,2.3499443531036377,-0.011473745107650757,0.09350689500570297,1.4547038078308105
33.7,1.0958077907562256,3.1673026084899902,-0.02448917366564274,-0.030688583850860596,-0.08820541948080063,1.4838910102844238
33.75,-0.5573256611824036,3.658050775527954,-1.677274227142334,-1.1963727474212646,0.7029582262039185,1.026548981666565
33.8,-3.2000997066497803,-0.21064059436321259,-4.2587504386901855,-1.972734808921814,1.1442890167236328,0.6048414707183838
33.85,-3.037212371826172,-2.2122604846954346,-3.5637338161468506,-0.9886866807937622,0.44026240706443787,0.47403329610824585
33.9,-3.143604278564453,-2.366236448287964,-3.798522710800171,-0.5054299235343933,0.016361776739358902,0.07690845429897308
33.95,-2.6736884117126465,-1.0780988931655884,-3.700913906097412,0.05294714868068695,-0.21498848497867584,-0.4153240919113159
34.0,-4.124141693115234,0.4625658690929413,-3.510791301727295,0.6490720510482788,-0.25777384638786316,-0.9671187996864319
34.05,-6.170353412628174,3.814438581466675,-5.06427526473999,1.2114388942718506,-0.14086845517158508,-1.4715896844863892
34.1,-8.800180435180664,10.08902645111084,-2.936086893081665,1.437515377998352,-0.4311619997024536,-0.6885602474212646
34.15,-0.5854741334915161,9.208066940307617,4.452840328216553,0.6376926898956299,-1.8266723155975342,0.3621480166912079
34.2,-2.2283363342285156,22.734718322753906,22.525320053100586,0.8946059346199036,-0.7322604656219482,-1.0380408763885498
34.25,1.2397236824035645,14.74938678741455,19.026470184326172,0.7663933634757996,-1.1893702745437622,-2.212289571762085
34.3,1.5966668128967285,-1.0572036504745483,6.029685974121094,-0.3957764506340027,-0.0054109119810163975,-2.0084989070892334
34.35,1.929171085357666,-4.228677749633789,3.9474291801452637,-0.290571928024292,0.29084888100624084,-1.009730339050293
34.4,0.9424700140953064,-3.3148739337921143,2.5841472148895264,-0.7878323197364807,0.4182286560535431,-0.40752196311950684
34.45,0.47609013319015503,-3.1964805126190186,1.1758604049682617,-1.114040732383728,0.03481633961200714,-0.5467913150787354
34.5,0.7552562952041626,-3.2258903980255127,0.8485172390937805,-0.618968665599823,-0.6606577038764954,-0.34961310029029846
34.55,0.10146038234233856,-1.8203603029251099,0.6898161172866821,-0.33222606778144836,-0.5656927227973938,0.3598157465457916
34.6,-0.8322550058364868,0.13501253724098206,-0.5637175440788269,-0.21485456824302673,-0.13149213790893555,0.8154352903366089
34.65,-2.7443466186523438,1.8859833478927612,-2.643162727355957,-0.06944432854652405,0.3071925938129425,0.560053825378418
34.7,-5.423334121704102,5.332139492034912,-4.839293956756592,0.26887932419776917,0.03696789592504501,-0.026761163026094437
34.75,-9.337544441223145,8.730448722839355,-6.530406951904297,0.5864557027816772,0.05523541197180748,-0.044818975031375885
34.8,-6.211405277252197,7.39313268661499,-2.439603805541992,0.6562801003456116,-0.489988774061203,1.3507108688354492
34.85,-0.4381732940673828,-12.272098541259766,-28.81575584411621,0.08465954661369324,-0.3682766556739807,1.4036883115768433
34.9,-0.20240545272827148,-9.418606758117676,-14.13103199005127,1.4724048376083374,0.19054478406906128,-1.0641180276870728
34.95,0.9419451355934143,-5.759934425354004,1.5732208490371704,1.1947828531265259,-0.3208685517311096,-0.9344944357872009
35.0,1.0723580121994019,-5.7182159423828125,4.3743767738342285,0.1591501086950302,0.06291022896766663,-0.1623918116092682
35.05,0.43442824482917786,-6.43638801574707,1.386618733406067,-0.4647544026374817,0.5618225932121277,0.1862991750240326
35.1,0.7288013696670532,-4.820195198059082,0.19776242971420288,-0.541962742805481,0.52265864610672,0.49646541476249695
35.15,0.5576379299163818,-3.366403102874756,0.506324291229248,-0.38431641459465027,0.411018967628479,0.5765511989593506
35.2,0.21797335147857666,-2.4041802883148193,0.20571665465831757,-0.25975343585014343,0.11622228473424911,0.4668208360671997
35.25,0.5319837927818298,-1.0119620561599731,-0.6456831693649292,-0.1695443093776703,-0.18748527765274048,0.2222035676240921
35.3,-0.6327556371688843,2.863430976867676,-2.8973629474639893,-0.11570258438587189,-0.2587977349758148,-0.12063291668891907
35.35,-5.439664840698242,6.9665117263793945,-5.794551849365234,-0.09582514315843582,-0.20802950859069824,-0.5596901774406433
35.4,-6.192802429199219,10.964753150939941,-4.499759197235107,0.4175433814525604,-1.0092085599899292,-0.15590442717075348
35.45,-2.1848883628845215,7.296316146850586,-0.9547576308250427,0.3175334930419922,-1.2468665838241577,0.6227343082427979
35.5,-5.920881748199463,10.160629272460938,19.735872268676758,1.2230280637741089,-0.2202654629945755,0.3320336937904358
35.55,-3.4649157524108887,8.532554626464844,20.874839782714844,1.046644687652588,-0.6241191625595093,-0.797371506690979
35.6,-0.13128232955932617,-2.6467084884643555,7.107694149017334,-0.2582497298717499,0.15804508328437805,-1.1012378931045532
35.65,1.1927894353866577,-6.955905437469482,3.302672863006592,-0.5315889120101929,0.7282288670539856,-0.5492229461669922
35.7,1.4902663230895996,-6.193258285522461,2.0800232887268066,-0.6192916035652161,1.0447962284088135,-0.18214747309684753
35.75,1.4763493537902832,-3.5323736667633057,1.0095393657684326,-0.5538558959960938,0.8228225708007812,0.2123774141073227
35.8,-0.09500817954540253,-1.2831346988677979,-0.6309269666671753,-0.6776953935623169,0.5869672298431396,0.2758929133415222
35.85,-2.5689144134521484,2.639362096786499,-2.4368221759796143,-0.5953453183174133,0.10289711505174637,0.3279453217983246
35.9,-4.749564170837402,5.646552085876465,-4.243525505065918,-0.35544466972351074,-0.23590217530727386,0.2509075999259949
35.95,-6.896677017211914,6.554883003234863,-3.927643060684204,0.04415685310959816,-0.3116360604763031,0.24238921701908112
36.0,-3.5726280212402344,6.362199306488037,-1.945859432220459,0.29753804206848145,-0.837311327457428,0.7579094767570496
36.05,-4.9546799659729,-5.3698320388793945,-9.110369682312012,0.020977899432182312,-0.19881488382816315,0.5974943041801453
36.1,-3.165954113006592,-6.198451995849609,-6.343915939331055,0.7726061344146729,0.00587069196626544,-1.1898900270462036
36.15,0.812734067440033,-3.2367231845855713,2.0274744033813477,0.7829493284225464,-0.687349259853363,-1.2513006925582886
36.2,0.8768880367279053,-5.9661641120910645,3.621326208114624,-0.008895963430404663,0.1640651375055313,-0.7572234869003296
36.25,0.7693394422531128,-6.67125129699707,3.386427402496338,-0.2224666327238083,0.41315025091171265,0.02665673941373825
36.3,0.9749767780303955,-5.889678955078125,3.017306327819824,-0.513235330581665,0.4647109806537628,0.46218061447143555
36.35,1.1988439559936523,-3.6166751384735107,2.0804173946380615,-0.6767699718475342,0.23414987325668335,0.6007646322250366
36.4,0.1505192667245865,-0.3128518760204315,0.5341218709945679,-0.7564620971679688,0.17683914303779602,0.4907548725605011
36.45,-2.078078269958496,2.355401039123535,-2.3540098667144775,-0.6220797300338745,0.024904288351535797,0.04053867235779762
36.5,-4.263718605041504,6.401320934295654,-3.761708974838257,-0.06584737449884415,-0.3172990381717682,-0.15790978074073792
36.55,-7.3764238357543945,9.025843620300293,-7.843329429626465,0.0678822323679924,0.024787411093711853,-0.09153126180171967
36.6,-4.735520839691162,8.07401180267334,-6.533921241760254,0.2366381585597992,-0.551764190196991,0.9824680089950562
36.65,-0.9649195671081543,-13.400537490844727,-21.975507736206055,0.2687947154045105,-0.23850806057453156,0.7915244698524475
36.7,-1.8775136470794678,-8.585273742675781,-11.662866592407227,1.7843084335327148,-0.5427806973457336,-0.8868927955627441
36.75,0.17147952318191528,-2.979663848876953,2.826850175857544,1.1145057678222656,-1.0660268068313599,-1.5630327463150024
36.8,1.365453839302063,-6.3925089836120605,3.768150806427002,0.10860514640808105,-0.21915726363658905,-1.3375740051269531
36.85,0.9553574919700623,-7.427206516265869,2.4852774143218994,0.07697510719299316,0.408239483833313,-0.8207764029502869
36.9,0.6613179445266724,-6.169536590576172,2.532841444015503,0.03958336263895035,0.5345406532287598,-0.21087972819805145
36.95,0.9835816621780396,-4.761295318603516,2.3453526496887207,-0.23110604286193848,0.37862715125083923,0.34458327293395996
37.0,1.1329222917556763,-2.0443549156188965,2.0819265842437744,-0.4975541830062866,0.14532914757728577,0.810376763343811
37.05,-0.6536005735397339,1.6867562532424927,-0.8836345672607422,-0.7858195900917053,0.15699909627437592,0.7195019721984863
37.1,-1.8908966779708862,4.17751407623291,-4.523818492889404,-0.5155562162399292,-0.07557330280542374,0.41781294345855713
37.15,-6.349351406097412,9.627625465393066,-7.677862167358398,-0.011798903346061707,-0.07803061604499817,0.28374776244163513
37.2,-4.577696800231934,12.649835586547852,-3.740777015686035,0.014238178730010986,-0.814687967300415,0.5689859390258789
37.25,-11.935419082641602,22.514183044433594,23.95632553100586,0.30324235558509827,0.02382959984242916,0.3680102229118347
37.3,-5.660946846008301,17.114944458007812,22.31882667541504,0.256905734539032,-0.9792073965072632,-0.24132061004638672
37.35,-0.1643984317779541,-1.5151652097702026,3.7368078231811523,-0.21274709701538086,-0.12103766202926636,-1.0091266632080078
37.4,-0.10328951478004456,-6.291051387786865,0.8110795617103577,0.5470839738845825,0.5202291011810303,-0.8881221413612366
37.45,0.23225277662277222,-4.151362895965576,2.1404433250427246,0.9315703511238098,0.632681667804718,-0.7196877598762512
37.5,0.0037158727645874023,-2.649622917175293,2.7433931827545166,0.43078935146331787,0.25214725732803345,-0.3377625048160553
37.55,-0.23362106084823608,-2.916287899017334,2.8056793212890625,-0.22680605947971344,-0.2205352634191513,0.10693173855543137
37.6,-0.15754914283752441,-1.5323162078857422,2.4109408855438232,-0.6731778979301453,-0.2405865490436554,0.5017478466033936
37.65,0.2285270094871521,-0.4048117995262146,0.9026765823364258,-1.133325219154358,0.3363663852214813,0.5793872475624084
37.7,0.11446596682071686,0.030734039843082428,-0.2747989892959595,-1.5748904943466187,0.9736694097518921,0.37765368819236755
37.75,-0.6227105855941772,0.3025341331958771,0.12197238206863403,-1.7035653591156006,1.1402133703231812,0.02447994239628315
37.8,-0.5365525484085083,0.17947570979595184,-0.6289646625518799,-1.6408435106277466,0.7814216613769531,-0.3275119364261627
37.85,-0.11718925088644028,-0.16209985315799713,-0.0055592660792171955,-1.2048211097717285,0.30513256788253784,-0.38486984372138977
37.9,-0.25213369727134705,0.4531249701976776,-0.5810656547546387,-0.8514799475669861,0.15313012897968292,-0.3170333206653595
37.95,-1.2692232131958008,0.9443138837814331,-1.8566495180130005,-0.5858522057533264,0.5085269808769226,-0.441924512386322
38.0,-3.5707669258117676,4.601844787597656,-3.7235236167907715,-0.2969432473182678,0.5648667216300964,-0.28658777475357056
38.05,-1.7024785280227661,2.5362558364868164,-1.8543556928634644,-0.41092315316200256,0.18051087856292725,0.12932188808918
38.1,-0.8178951740264893,-1.5178951025009155,-0.48763349652290344,-0.42039960622787476,0.28974440693855286,0.11786483228206635
38.15,-2.2578885555267334,-1.508171558380127,-1.238985300064087,-0.14067193865776062,0.5334363579750061,-0.06537964195013046
38.2,-3.369157314300537,-0.6907351613044739,-0.9297228455543518,0.02434101514518261,0.5160892009735107,-0.0025124717503786087
38.25,-3.1360325813293457,-0.4544088542461395,-0.231733500957489,-0.04638834297657013,0.5264108180999756,0.23849931359291077
38.3,-2.4805312156677246,-0.4379388689994812,-0.03536152094602585,-0.2902786135673523,0.6300708055496216,0.4346718490123749
38.35,-2.6290059089660645,-0.40245646238327026,0.016246270388364792,-0.6069585084915161,0.45176148414611816,0.5663614869117737
38.4,-2.6553616523742676,-0.40805545449256897,0.24455489218235016,-0.8611356616020203,0.03983040153980255,0.6926960349082947
38.45,-2.432050943374634,-0.33601200580596924,0.09160443395376205,-0.9625822305679321,0.06268749386072159,0.6731410622596741
38.5,-1.755753517150879,0.3746269941329956,-0.6540495157241821,-0.7864521741867065,0.5267961621284485,0.4903692603111267
38.55,-0.9648312926292419,0.3765667974948883,-1.0893778800964355,-0.215351402759552,0.8274492025375366,0.2921823263168335
38.6,0.037183597683906555,0.021777082234621048,-0.6731579899787903,0.5311535596847534,0.8737934827804565,0.1958303451538086
38.65,1.0154342651367188,0.22361475229263306,-0.06901094317436218,0.9147279262542725,0.9978533387184143,0.04465922713279724
38.7,1.4906038045883179,0.3022509515285492,0.026292061433196068,0.7395516037940979,1.1974104642868042,-0.11203732341527939
38.75,1.6282869577407837,0.5759698152542114,-0.26707327365875244,0.366970032453537,1.1398051977157593,-0.08417681604623795
38.8,1.5025368928909302,0.9932519197463989,-0.5944346785545349,0.16148683428764343,0.7746288180351257,-0.0008310348493978381
38.85,1.1124964952468872,0.9557591080665588,-0.832137942314148,0.11884552240371704,0.34337493777275085,0.00899454951286316
38.9,0.227088063955307,0.5956763625144958,-0.9682387113571167,0.16808409988880157,0.060378652065992355,-0.09368020296096802
38.95,-0.3653830885887146,0.11560142040252686,-1.059540033340454,0.3530173599720001,-0.12486675381660461,-0.23914025723934174
39.0,-0.3392983078956604,-0.011267769150435925,-0.8227124214172363,0.5170202255249023,-0.1522255837917328,-0.37213942408561707
39.05,-0.25539058446884155,0.14563266932964325,-0.7022099494934082,0.41306161880493164,0.13890621066093445,-0.5204347968101501
39.1,-0.6952601671218872,-0.15109267830848694,-0.9813323020935059,0.09817120432853699,0.4752886891365051,-0.6656068563461304
39.15,-1.1189277172088623,-0.3752252757549286,-1.0270637273788452,-0.10752680897712708,0.3511018753051758,-0.7027550339698792
39.2,-0.8789581656455994,-0.021780164912343025,-0.9970362782478333,-0.05084662139415741,-0.19044767320156097,-0.7051123976707458
39.25,-0.8788143396377563,0.34950342774391174,-0.7623751759529114,0.23816242814064026,-0.7941979765892029,-0.7602548599243164
39.3,-0.6027057766914368,1.071004033088684,-0.09222834557294846,0.4648638069629669,-1.1449401378631592,-0.8272664546966553
39.35,-0.5885448455810547,0.7454013824462891,-0.07874825596809387,0.2678739130496979,-0.8710598945617676,-0.9679495692253113
39.4,-0.061671026051044464,1.0793009996414185,-0.2014845758676529,0.07306841015815735,-0.4634456932544708,-0.9874340295791626
39.45,-0.3627232313156128,1.2605935335159302,0.044817909598350525,-0.04108186066150665,-0.6038178205490112,-0.5224111080169678
39.5,-1.3609684705734253,0.09053411334753036,-0.37347841262817383,-0.1251002848148346,-0.9715948104858398,0.11007335782051086
39.55,-1.4948272705078125,-0.8793509006500244,-0.6301469802856445,-0.1527063399553299,-1.0948469638824463,0.4596050977706909
39.6,-1.8251999616622925,-1.3183872699737549,-0.17217175662517548,-0.20786477625370026,-0.8203873634338379,0.4697735011577606
39.65,-1.876645803451538,-1.4652796983718872,0.25135692954063416,-0.14192411303520203,-0.6193201541900635,0.4810602068901062
39.7,-1.660770297050476,-1.6631767749786377,0.6838203072547913,-0.04622112214565277,-0.5693931579589844,0.5391560792922974
39.75,-1.4142026901245117,-1.8152304887771606,1.1079602241516113,-0.060653939843177795,-0.46667978167533875,0.5481680631637573
39.8,-1.396750569343567,-1.5864269733428955,0.9406480193138123,-0.1742677390575409,-0.4031689167022705,0.6923021078109741
39.85,-1.127009391784668,0.06968400627374649,0.20223136246204376,-0.22929805517196655,-0.43525487184524536,1.039163589477539
39.9,-0.9191056489944458,1.574997067451477,-0.6819998621940613,-0.2502652108669281,-0.17230935394763947,1.0034257173538208
39.95,-0.7649781703948975,0.6818246245384216,-0.788614809513092,-0.2562395930290222,0.218703955411911,0.6576326489448547
40.0,0.38737523555755615,-0.3486366271972656,0.2069564312696457,-0.039939746260643005,0.2629651725292206,0.5782773494720459
40.05,1.942338466644287,-0.046411339193582535,0.842805027961731,0.31054407358169556,0.16781023144721985,0.49192410707473755
40.1,2.7673287391662598,0.8827747106552124,1.0516302585601807,0.5061740875244141,0.2321537882089615,0.24394011497497559
40.15,2.7024800777435303,1.0593599081039429,0.6490482091903687,0.41991618275642395,0.3948959410190582,0.06999769806861877
40.2,2.2861170768737793,0.6531916856765747,-0.12703077495098114,0.276614785194397,0.36337217688560486,0.12275233864784241
40.25,1.5068397521972656,0.22587300837039948,-0.7380940318107605,0.07777222245931625,0.21705296635627747,0.16558781266212463
40.3,0.6248384714126587,0.02171887829899788,-1.1656628847122192,0.02328456938266754,-0.06146837770938873,0.19932863116264343
40.35,-0.11628064513206482,0.25444406270980835,-0.7999697327613831,0.28150349855422974,-0.4162932336330414,0.27935895323753357
40.4,-1.0057389736175537,0.5438498854637146,-0.4455837607383728,0.4044913649559021,-0.4519898593425751,0.22548465430736542
40.45,-1.4402360916137695,0.2723931670188904,-0.28603753447532654,0.384477436542511,-0.3706017732620239,0.1581462174654007
40.5,-1.3209524154663086,-0.7040692567825317,0.14721646904945374,0.38722676038742065,-0.3491298258304596,0.15989582240581512
40.55,-0.9156954288482666,-2.0945169925689697,0.6032319068908691,0.45415422320365906,-0.32361072301864624,0.15538887679576874
40.6,-0.41979682445526123,-2.6899921894073486,1.015604853630066,0.6137535572052002,-0.23153766989707947,0.13731136918067932
40.65,-0.3079655170440674,-3.1164824962615967,2.1625070571899414,0.6784889698028564,0.07115496695041656,0.07756002992391586
40.7,-0.10877013206481934,-2.7785658836364746,2.4622488021850586,0.522377610206604,0.3141813576221466,-0.08969911932945251
40.75,-0.336993008852005,-2.4144234657287598,1.457431435585022,0.2613140046596527,0.2992251217365265,-0.18324509263038635
40.8,-0.3044757843017578,-1.7764322757720947,0.36931994557380676,0.1585198938846588,0.08306782692670822,-0.2236325889825821
40.85,-0.6819975972175598,-0.39493975043296814,-2.198885202407837,0.22233816981315613,0.09302347898483276,-0.41139304637908936
40.9,-1.4394829273223877,2.0251002311706543,-5.672108173370361,0.5322291851043701,0.24245032668113708,-0.4771438241004944
40.95,-3.5198779106140137,5.1668572425842285,-6.694998264312744,1.0492955446243286,0.12678241729736328,-0.41775965690612793
41.0,-3.216923713684082,10.354463577270508,-0.3148059546947479,1.6600821018218994,-0.92335045337677,-0.010286500677466393
41.05,-16.814498901367188,11.848566055297852,22.005699157714844,2.2407567501068115,-0.8996522426605225,0.43519508838653564
41.1,-12.472393035888672,3.9795126914978027,22.024818420410156,1.3583050966262817,-0.616849422454834,-0.1800156682729721
41.15,2.0727639198303223,-2.7071738243103027,4.722493648529053,-0.28966546058654785,0.28178226947784424,-0.9266759753227234
41.2,1.7123650312423706,-4.238348484039307,-0.6861352920532227,-0.8811084032058716,1.0956884622573853,-1.1525801420211792
41.25,1.9833978414535522,-3.6833271980285645,-1.1045982837677002,-0.7985196113586426,0.6594909429550171,-1.2035744190216064
41.3,2.125659465789795,-4.255691051483154,-0.396984726190567,-0.4895670413970947,0.3916374146938324,-0.5647746324539185
41.35,2.4248383045196533,-4.489047527313232,1.306161880493164,-0.1958709955215454,0.3289712965488434,0.19679829478263855
41.4,2.551560878753662,-3.9809062480926514,2.13946533203125,-0.31278613209724426,0.2153753638267517,0.35492995381355286
41.45,1.8535571098327637,-1.400302767753601,1.2541170120239258,-0.5159384608268738,-0.34056901931762695,0.3557092845439911
41.5,-0.5823760628700256,3.475139856338501,-2.5657079219818115,-0.39149248600006104,-0.5652279257774353,0.3952195346355438
41.55,-5.00797700881958,9.330632209777832,-7.190479278564453,0.08518379181623459,-0.04866866394877434,0.45735540986061096
41.6,-4.040136337280273,11.36827564239502,-3.637924909591675,0.4110599458217621,-0.4859119951725006,1.0686476230621338
41.65,-4.326625823974609,14.241851806640625,10.314796447753906,1.0927574634552002,-0.4830045998096466,0.6778264045715332
41.7,1.5131362676620483,-0.5206936597824097,1.1986192464828491,1.3105987310409546,-0.07763544470071793,-0.7850891351699829
41.75,3.5716824531555176,-10.418481826782227,-7.043442249298096,0.42647820711135864,0.21245218813419342,-0.9879893660545349
41.8,0.3749195635318756,-5.5128631591796875,0.9749855995178223,-0.25304871797561646,0.6615204215049744,-0.4708802103996277
41.85,1.43955397605896,-5.436068534851074,0.4530293047428131,-0.45170629024505615,0.5960928797721863,-0.26715677976608276
41.9,1.5611279010772705,-4.273040771484375,0.47014692425727844,-0.4911247789859772,0.2815532386302948,0.007832158356904984
41.95,1.898352026939392,-3.0298564434051514,0.7024985551834106,-0.5578740835189819,-0.014357540756464005,0.20321300625801086
42.0,1.2912766933441162,0.22146697342395782,-1.1946039199829102,-0.4110479950904846,-0.0373050831258297,0.17103351652622223
42.05,-5.412509441375732,11.815918922424316,-5.270970821380615,0.11844959855079651,0.018465938046574593,0.05005799978971481
42.1,-6.779202938079834,13.625675201416016,-2.3457701206207275,0.08683362603187561,-0.7800015807151794,0.6891522407531738
42.15,-4.984592914581299,7.021168231964111,8.28685188293457,0.5711074471473694,-0.6461280584335327,0.5816968083381653
42.2,-4.78397798538208,8.191158294677734,20.79703712463379,1.7821235656738281,-0.16962939500808716,-0.6313592195510864
42.25,-1.0152978897094727,5.452208995819092,17.0994815826416,0.844506025314331,0.4998699426651001,-1.48623788356781
42.3,-0.31961047649383545,0.20111516118049622,4.355129241943359,-0.5010170340538025,0.9631615281105042,-1.4321736097335815
42.35,-0.001086503267288208,-2.1316096782684326,0.9768713116645813,-0.9514143466949463,0.12490085512399673,-1.014609932899475
42.4,0.4560709595680237,-2.902672052383423,0.23920908570289612,-1.299044132232666,0.03218580037355423,-0.8086402416229248
42.45,1.0922396183013916,-2.149127721786499,-0.06487186253070831,-1.3008077144622803,0.2500208020210266,-0.6895654797554016
42.5,0.6638913750648499,-0.22213561832904816,-0.6983014345169067,-1.0534229278564453,0.394722044467926,-0.38237497210502625
42.55,-0.6960065960884094,0.8726377487182617,-1.0603680610656738,-1.0632994174957275,0.29054486751556396,-0.09201761335134506
42.6,-1.6304941177368164,-0.2946780323982239,-1.6860188245773315,-1.2912852764129639,-0.06055023521184921,0.09733077138662338
42.65,-1.4975298643112183,-1.053489089012146,-1.5352383852005005,-1.156809687614441,-0.40997636318206787,0.3992842137813568
42.7,-1.4290001392364502,-1.3431227207183838,-0.8138287663459778,-1.0501245260238647,-0.29552212357521057,0.3280441164970398
42.75,-1.3243868350982666,-2.400190591812134,0.24573270976543427,-1.0883015394210815,-0.2072214037179947,0.0934462919831276
42.8,-0.8503468632698059,-2.94779109954834,1.5887038707733154,-0.9812760353088379,-0.4013915956020355,0.20450159907341003
42.85,-0.20498543977737427,-2.6110787391662598,2.4978244304656982,-0.8602777123451233,-0.47155654430389404,0.46080833673477173
42.9,-0.04610300064086914,-2.0858335494995117,3.197498083114624,-0.7902913093566895,-0.2039785385131836,0.6233389377593994
42.95,-0.08352816104888916,-0.5089184641838074,3.26173996925354,-0.5475346446037292,0.39214009046554565,0.5865339636802673
43.0,0.01468193531036377,0.8795130848884583,1.532157063484192,-0.19622695446014404,1.3171035051345825,0.34375348687171936
43.05,-1.0080318450927734,2.9692392349243164,-1.8885746002197266,-0.10191527009010315,2.1638333797454834,0.015504925511777401
43.1,-2.3801403045654297,0.6703917384147644,-2.4911398887634277,-0.6331663131713867,2.450535774230957,-0.0112080629914999
43.15,-1.3081135749816895,-2.2270665168762207,-1.006463646888733,-0.811424195766449,1.919100046157837,0.46076107025146484
43.2,-0.259102463722229,0.12175918370485306,-2.130610942840576,-0.5317798852920532,1.2729347944259644,0.43064919114112854
43.25,-0.37662965059280396,-0.11648496985435486,-2.668363571166992,-0.558803379535675,0.8875810503959656,0.039361730217933655
43.3,-0.09829741716384888,0.040732115507125854,-2.4033334255218506,-0.24121496081352234,0.25010251998901367,-0.015102699398994446
43.35,-0.05241435766220093,0.12494830787181854,-1.8382946252822876,-0.11480633169412613,-0.05002260208129883,-0.13442674279212952
43.4,-0.4358268678188324,-0.0313226692378521,-1.5047545433044434,-0.1300675868988037,-0.01237903069704771,-0.2910468578338623
43.45,-0.5912723541259766,-0.24171660840511322,-1.5037333965301514,-0.05562511086463928,-0.03240499645471573,-0.33577093482017517
43.5,-0.638031005859375,-0.6964972019195557,-1.3585848808288574,0.050370022654533386,-0.12720277905464172,-0.38943418860435486
43.55,-0.6216822266578674,-0.4833003878593445,-0.91822350025177,0.30605632066726685,-0.3472294807434082,-0.4939761459827423
43.6,-0.6826892495155334,-0.21023951470851898,-0.4685961604118347,0.6513049602508545,-0.7101237773895264,-0.6051164269447327
43.65,-0.8299806118011475,0.6442813873291016,-0.46675917506217957,0.9623733162879944,-0.9899021983146667,-0.6886577010154724
43.7,0.014376357197761536,2.477067232131958,-0.7131022810935974,0.9743488430976868,-1.001268744468689,-0.7529517412185669
43.75,1.0639362335205078,3.0121188163757324,-0.48540693521499634,0.46613359451293945,-0.9323545694351196,-0.5833937525749207
43.8,1.1135135889053345,1.4396239519119263,-0.494574636220932,-0.034723591059446335,-1.2630552053451538,-0.07491504400968552
43.85,0.8720851540565491,0.13537314534187317,-0.24789167940616608,-0.18481102585792542,-1.4649416208267212,0.17099672555923462
43.9,0.355378121137619,-0.21159270405769348,-0.08372468501329422,-0.25715768337249756,-1.066787600517273,-0.06909993290901184
43.95,0.11811433732509613,-0.16942507028579712,-0.38221147656440735,-0.27644240856170654,-0.9161075353622437,-0.21989791095256805
44.0,0.2119254767894745,0.014307929202914238,-0.5164841413497925,-0.2939103841781616,-1.18789803981781,-0.16015249490737915
44.05,0.41980043053627014,0.027901653200387955,-0.17067895829677582,-0.2952324151992798,-1.4209442138671875,-0.13451938331127167
44.1,0.14779306948184967,-0.10273070633411407,0.4539068639278412,-0.24075087904930115,-1.3711930513381958,-0.20891420543193817
44.15,-0.3117305636405945,-0.34524908661842346,1.1457631587982178,-0.11257782578468323,-1.240077018737793,-0.17408384382724762
44.2,-0.8122597932815552,-0.385517954826355,1.8357937335968018,0.018734803423285484,-1.1630018949508667,-0.03658631816506386
44.25,-1.6745951175689697,-0.3452986180782318,2.199475049972534,0.08480923622846603,-0.9859398007392883,0.004213364794850349
44.3,-2.3245081901550293,-0.5415515303611755,1.9004579782485962,0.06445229053497314,-0.7006230354309082,-0.05808629095554352
44.35,-2.6065235137939453,-0.7436370849609375,1.487772822380066,-0.07056036591529846,-0.5330151319503784,-0.08747639507055283
44.4,-2.625173568725586,-0.9090319275856018,1.6488841772079468,-0.15932977199554443,-0.5211975574493408,-0.05272496119141579
44.45,-2.3828179836273193,-0.9628438949584961,1.8728053569793701,-0.09885933250188828,-0.4295412600040436,-0.028192415833473206
44.5,-1.8339139223098755,-0.6032999753952026,2.112522602081299,0.02229137346148491,-0.2541801631450653,0.042540282011032104
44.55,-1.2407766580581665,-0.5122135877609253,2.2612788677215576,0.10261757671833038,-0.04246727377176285,0.09577209502458572
44.6,-0.9499497413635254,-0.4821995496749878,2.0086562633514404,0.1365196406841278,0.1840224266052246,0.14301040768623352
44.65,-0.5418556928634644,0.17553916573524475,1.4481542110443115,0.18522092700004578,0.40444597601890564,0.18002738058567047
44.7,-0.26930004358291626,0.6094351410865784,0.35244160890579224,0.25689101219177246,0.6973909139633179,0.140483558177948
44.75,-0.1566842794418335,0.06291289627552032,-0.43906646966934204,0.2505790889263153,0.910798192024231,0.12669776380062103
44.8,-0.16262705624103546,-0.8443490862846375,-0.6872984170913696,0.16854867339134216,1.0665346384048462,0.1690821796655655
44.85,-0.17175306379795074,-1.3608677387237549,-0.7606756091117859,0.18053752183914185,1.0995402336120605,0.23911963403224945
44.9,0.2110626995563507,-0.03530798479914665,-0.9434909224510193,0.3387201428413391,0.8243176937103271,0.3416740298271179
44.95,0.6260412931442261,0.8481103181838989,-0.3802555501461029,0.38717520236968994,0.5131949782371521,0.3581317365169525
45.0,1.0886082649230957,0.2391148954629898,0.48761698603630066,0.3272974491119385,0.2855431139469147,0.2749667465686798
45.05,1.0213518142700195,0.9780532717704773,0.21131810545921326,0.2978874146938324,0.1789565533399582,0.20164166390895844
45.1,0.4583972990512848,0.7369080185890198,-0.3856908977031708,0.1168537512421608,0.32407107949256897,0.18301479518413544
45.15,0.4294824004173279,0.6232395172119141,-0.5896713137626648,-0.0775100588798523,0.40539276599884033,0.18276962637901306
45.2,0.3745727241039276,0.2904338538646698,-0.8116685748100281,-0.3017023801803589,0.38724157214164734,0.06614628434181213
45.25,0.013700693845748901,0.22426027059555054,-0.8711544871330261,-0.48653507232666016,0.29878512024879456,-0.04674827307462692
45.3,0.18784870207309723,0.43560123443603516,-0.7258595824241638,-0.5004615783691406,0.09597953408956528,-0.07944248616695404
45.35,-0.1664021909236908,0.2179153710603714,-1.7279504537582397,-0.35594454407691956,-0.06370721012353897,-0.15936432778835297
45.4,-0.8461699485778809,0.13243550062179565,-2.5114285945892334,-0.18360337615013123,-0.4852530360221863,-0.05278483405709267
45.45,-1.2962977886199951,0.4402616322040558,-1.9839489459991455,-0.27985966205596924,-1.0550698041915894,0.17974251508712769
45.5,-1.2148692607879639,0.2989957630634308,-1.6513139009475708,-0.5268058776855469,-1.297347068786621,0.30401086807250977
45.55,-0.953860878944397,0.021517643705010414,-0.6264126300811768,-0.4987180233001709,-1.1604855060577393,0.3017377257347107
45.6,-0.6594571471214294,0.03761768341064453,0.20914311707019806,-0.25073906779289246,-0.8382267355918884,0.1447056084871292
45.65,-0.2355663776397705,0.48971670866012573,1.0507211685180664,-0.05373741313815117,-0.6632215976715088,0.1871405988931656
45.7,0.08586636185646057,0.998864471912384,1.6372146606445312,-0.06441336870193481,-0.48737865686416626,0.31654253602027893
45.75,0.11182230710983276,0.9345945119857788,1.9644843339920044,-0.22539404034614563,-0.1660221368074417,0.41297969222068787
45.8,-0.43087559938430786,0.23091721534729004,2.0244925022125244,-0.3777286112308502,0.22368203103542328,0.34040698409080505
45.85,-0.8929251432418823,-0.033927761018276215,1.7992238998413086,-0.4862172305583954,0.44901221990585327,0.3109824061393738
45.9,-1.0873334407806396,0.03256809711456299,1.4631396532058716,-0.5946118831634521,0.5507599115371704,0.3450338840484619
45.95,-1.3568565845489502,0.14758974313735962,0.9085239171981812,-0.6875540614128113,0.6543093323707581,0.2933812439441681
46.0,-1.500771164894104,0.3897714614868164,0.14117716252803802,-0.7304416298866272,0.7350369095802307,0.18648448586463928
46.05,-1.4003541469573975,0.446225106716156,-0.44234052300453186,-0.7219234704971313,0.6155768036842346,0.22935129702091217
46.1,-1.171521544456482,0.286216676235199,-0.39598873257637024,-0.6726078987121582,0.4139365255832672,0.27349427342414856
46.15,-0.9441234469413757,-0.026455005630850792,-0.31540659070014954,-0.589792788028717,0.3594560921192169,0.14515314996242523
46.2,-0.8154992461204529,-0.5186015367507935,-0.23611775040626526,-0.4703916609287262,0.3649342656135559,0.11755193769931793
46.25,-0.827028751373291,-1.0095683336257935,0.08412671089172363,-0.32515576481819153,0.34978964924812317,0.0842377096414566
46.3,-0.6382202506065369,-1.5489399433135986,0.2356281876564026,-0.17984917759895325,0.30652695894241333,-0.15227535367012024
46.35,-0.3922611176967621,-2.1294362545013428,0.4933551847934723,-0.04996279627084732,0.20871645212173462,-0.3973264694213867
46.4,0.06862509250640869,-1.5262757539749146,1.023842692375183,0.10594262182712555,-0.01788424141705036,-0.4436797499656677
46.45,0.5134965777397156,-0.3012542128562927,0.7290929555892944,0.05794978141784668,-0.16596174240112305,-0.5605234503746033
46.5,0.2522181272506714,0.08621791005134583,0.13571837544441223,-0.17301467061042786,-0.11140340566635132,-0.6728233098983765
46.55,0.1542208343744278,-0.22248364984989166,0.010532081127166748,-0.2143436223268509,-0.08872707188129425,-0.4010263681411743
46.6,-0.036788590252399445,0.16048911213874817,0.20030000805854797,-0.07584884017705917,-0.05100557580590248,-0.0011026361025869846
46.65,0.13210374116897583,0.46081364154815674,0.4804081618785858,-0.03434160724282265,0.02237790822982788,0.08480747044086456
46.7,-0.13292323052883148,0.35859018564224243,0.3556309938430786,-0.043696433305740356,0.21089398860931396,0.07281907647848129
46.75,-0.22430458664894104,0.09212496131658554,0.2029159963130951,0.026802511885762215,0.517388641834259,-0.016555272042751312
46.8,0.40202128887176514,-0.1291780322790146,0.13711734116077423,0.07269344478845596,0.7143135666847229,-0.22914206981658936
46.85,0.9278916120529175,0.1641264110803604,-0.36875590682029724,-0.02371358871459961,0.7485841512680054,-0.4254215657711029
46.9,1.0103083848953247,0.10594078153371811,-0.8632891178131104,-0.17556114494800568,0.6740192174911499,-0.46004751324653625
46.95,1.0155742168426514,-0.16331490874290466,-1.0164029598236084,-0.2087632268667221,0.4897937476634979,-0.3011235296726227
47.0,1.1166232824325562,-0.121830053627491,-0.9269030094146729,-0.09924118220806122,0.2528718411922455,-0.010741133242845535
47.05,0.8384616374969482,0.45160388946533203,-0.8295196294784546,0.11774687469005585,0.10018020868301392,0.2555103003978729
47.1,-0.2759998142719269,-0.8765184283256531,-0.6485201716423035,0.3566364645957947,0.08791515231132507,0.2718203663825989
47.15,-0.8798606991767883,-0.6123020052909851,-0.656324028968811,0.8965989351272583,0.15494652092456818,0.20239727199077606
47.2,-1.3436557054519653,0.7380647659301758,-0.181071937084198,1.2183897495269775,0.3337221145629883,0.015789488330483437
47.25,-0.9390436410903931,0.31239137053489685,0.9829314351081848,1.377020001411438,0.3063739240169525,-0.07062407582998276
47.3,0.5662099123001099,-0.6238401532173157,1.9156534671783447,1.64871084690094,0.10806135833263397,-0.10776098072528839
47.35,0.053523480892181396,-3.6947319507598877,1.7157115936279297,1.7165454626083374,0.29143261909484863,-0.3588666319847107
47.4,0.14912530779838562,-4.632567882537842,1.1157840490341187,2.03524112701416,0.6093655228614807,-0.5249919295310974
47.45,0.26987114548683167,-1.87717866897583,1.5307884216308594,2.0268259048461914,1.0051137208938599,-0.6496815085411072
47.5,1.0211060047149658,0.1389181911945343,1.8337806463241577,1.5346662998199463,1.056918740272522,-0.47842293977737427
47.55,1.0675064325332642,0.44140946865081787,2.218798875808716,1.0058201551437378,0.5152318477630615,0.04308879375457764
47.6,-1.8076457977294922,-1.7209255695343018,0.2849157154560089,0.41048818826675415,-0.6256817579269409,0.7584030032157898
47.65,1.6948776245117188,-1.6796553134918213,-0.6735654473304749,0.7311546802520752,-2.0716264247894287,1.3071576356887817
47.7,3.8598034381866455,1.4802237749099731,-1.2040387392044067,0.4052426218986511,-1.2377568483352661,1.2636536359786987
47.75,-0.8094825148582458,-2.0099575519561768,-3.8142073154449463,-0.9994251728057861,0.782596230506897,0.8370507955551147
47.8,-2.591789484024048,-1.515583872795105,-4.451923370361328,-0.3909246325492859,0.7842205762863159,0.5689871311187744
47.85,-4.409251689910889,5.059110164642334,-5.970487117767334,0.8105133771896362,0.4493933320045471,-0.06933135539293289
47.9,-8.561871528625488,8.610835075378418,-4.2147955894470215,1.3545063734054565,0.3998907208442688,-0.5664083361625671
47.95,-9.56120777130127,2.372267961502075,-5.36315393447876,1.5474333763122559,0.03374603018164635,-0.3963339626789093
48.0,3.4913744926452637,-7.204133033752441,-7.275423049926758,1.9236465692520142,0.10219927877187729,-0.7064076066017151
48.05,9.049548149108887,-10.184526443481445,3.8712406158447266,1.4727966785430908,1.1624681949615479,-1.436440348625183
48.1,5.072704315185547,-3.1813747882843018,4.277093410491943,-0.28363072872161865,0.3839976191520691,-0.32804471254348755
48.15,4.290164947509766,-4.363723278045654,1.5973455905914307,-0.784540593624115,0.615719735622406,-0.3187137842178345
48.2,2.149733304977417,-5.292886734008789,-0.3016635775566101,-0.8675795793533325,0.4844749867916107,0.042856365442276
