Time [s],Acc_x [m/s^2],Acc_y [m/s^2],Acc_z [m/s^2],Gyro_x [1/s],Gyro_y [1/s],Gyro_z [1/s]
0.0,0.04747803509235382,0.1754141002893448,-0.023140083998441696,-0.006540648173540831,-0.0007778868894092739,-0.0020776893943548203
0.05,0.012785444967448711,0.17409326136112213,0.03600456938147545,-0.006540730129927397,-0.0007766729104332626,-0.0020778831094503403
0.1,-0.005091434344649315,0.19199851155281067,0.05857095867395401,-0.006932694930583239,-0.0010711802169680595,-0.0006570330588147044
0.15,-0.019745681434869766,0.15980054438114166,0.03727595508098602,-0.007096302229911089,-0.0011939338874071836,-6.499342271126807e-05
0.2,0.0188150592148304,0.16475774347782135,0.006675139535218477,-0.006705279462039471,-0.0009000928839668632,-0.0014820069773122668
0.25,0.012021073140203953,0.1306753307580948,0.016441619023680687,-0.005459272302687168,-0.0018061111913993955,-0.0035777792800217867
0.3,0.006582292262464762,0.11964704096317291,0.020498167723417282,-0.00295461667701602,-0.0010302661685273051,-0.006555456202477217
0.35,0.03835991397500038,0.1246805414557457,0.019933056086301804,-0.0025620190426707268,-0.002705443650484085,-0.003413354279473424
0.4,0.011761708185076714,0.1470194011926651,0.012406694702804089,-0.0031593237072229385,-0.0039379228837788105,-0.00022801791783422232
0.45,8.132986840792e-05,0.19480040669441223,-0.0012850260827690363,-0.002363754902034998,-0.001832587760873139,-0.00046397600090131164
0.5,0.014984820038080215,0.1925382912158966,0.015924062579870224,-0.004366818815469742,-0.00235556997358799,0.002895705634728074
0.55,0.009853241965174675,0.1973295509815216,0.01260400377213955,-0.004170614760369062,-0.0023841385263949633,0.00500181270763278
0.6,0.033380404114723206,0.15679647028446198,0.022089406847953796,-0.0032315095886588097,-0.001822112244553864,0.0038153096102178097
0.65,0.04782726243138313,0.13765527307987213,0.008774991147220135,-0.002379343146458268,-0.0030011788476258516,0.003117552725598216
0.7,0.004667686298489571,0.13567735254764557,-0.06890030205249786,-0.0035279805306345224,-0.002853225916624069,0.005943756550550461
0.75,-0.005723260343074799,0.1648712307214737,-0.06456247717142105,-0.004177398048341274,-0.002528388984501362,0.007223773747682571
0.8,0.010830072686076164,0.1452341228723526,0.01039164699614048,-0.004562017507851124,-0.002814194420352578,0.008610162883996964
0.85,-0.005104514304548502,0.16633035242557526,0.007666807156056166,-0.0032903961837291718,-0.0036685578525066376,0.006390767637640238
0.9,0.007646329700946808,0.1709585338830948,-0.03305208310484886,-0.0014811058063060045,-0.0031451359391212463,0.0009513526456430554
0.95,0.014500734396278858,0.15348340570926666,-8.07203832664527e-05,-0.0005712700076401234,-0.0024706493131816387,-0.002323945751413703
1.0,0.003568231128156185,0.16419126093387604,0.02257699891924858,0.003419869113713503,-0.0036829221062362194,-0.002174805151298642
1.05,-0.03034096583724022,0.19028761982917786,-0.027006616815924644,0.008822986856102943,-0.005179874133318663,-0.01021143700927496
1.1,0.0001611711923032999,0.18867018818855286,0.011153100989758968,0.005601833108812571,-0.008041945286095142,-0.015995141118764877
1.15,-0.015727760270237923,0.14188481867313385,-0.033029936254024506,0.0032051079906523228,-0.011034504510462284,-0.014216170646250248
1.2,0.006091155111789703,0.21884921193122864,-0.058479193598032,0.0021101031452417374,-0.01090316940099001,-0.011523406021296978
1.25,0.04523681104183197,0.24231436848640442,-0.07825886458158493,0.00029323436319828033,-0.012877277098596096,-0.008664046414196491
1.3,0.07747801393270493,0.1510629802942276,0.01186275389045477,-0.0073419902473688126,-0.011558148078620434,-0.0014525779988616705
1.35,0.05850381404161453,0.18512631952762604,0.03412780538201332,-0.006513667292892933,-0.014344491995871067,-0.004232977516949177
1.4,0.053425103425979614,1.288102388381958,0.6995193362236023,0.0012480068253353238,-0.02639876678586006,-0.004353499971330166
1.45,0.03109251707792282,0.68714439868927,0.3161332309246063,0.013069153763353825,-0.03015444613993168,0.0027776414062827826
1.5,-0.018009521067142487,0.11013603955507278,-0.0823785662651062,0.02406137064099312,-0.027407454326748848,-0.0011510327458381653
1.55,-0.06226252391934395,0.15468883514404297,-0.09099425375461578,0.024446500465273857,-0.022637026384472847,-0.01057968009263277
1.6,-0.004845764487981796,0.1373281478881836,-0.09869138896465302,0.016383137553930283,-0.01759393885731697,-0.017879560589790344
1.65,-0.01932867243885994,0.11330699920654297,-0.15295149385929108,0.012866251170635223,-0.012146380729973316,-0.03286776691675186
1.7,0.007199056446552277,0.11575794965028763,-0.09975354373455048,-0.0031862352043390274,-0.0007777148275636137,-0.0404268279671669
1.75,0.012759683653712273,0.09764862805604935,-0.09500689059495926,-0.027518274262547493,0.008473549969494343,-0.04332878440618515
1.8,-0.05290846899151802,0.1526355743408203,-0.1394537389278412,-0.041233159601688385,0.012559552676975727,-0.04121553152799606
1.85,-0.03320959210395813,0.2354612499475479,-0.05699991062283516,-0.042153775691986084,0.010077022947371006,-0.018729770556092262
1.9,-0.024917971342802048,0.17962171137332916,-0.016128234565258026,-0.02208520472049713,0.0046129534021019936,-0.02277456596493721
1.95,0.0010409168899059296,0.20284846425056458,-0.04777485877275467,0.002901962958276272,0.0015426401514559984,-0.04248359799385071
2.0,-0.05816987156867981,0.15968608856201172,-0.14276525378227234,0.013597403652966022,-0.0009261242812499404,-0.04533136636018753
2.05,-0.09159247577190399,0.15127086639404297,-0.08140112459659576,0.0027293190360069275,0.0033162645995616913,-0.02231752499938011
2.1,-0.12944117188453674,0.13835430145263672,-0.14825597405433655,-0.014901550486683846,0.006971742957830429,0.01236042845994234
2.15,-0.03612368553876877,0.18357372283935547,-0.07320848852396011,-0.03144608438014984,0.010830304585397243,0.06523454189300537
2.2,0.024979494512081146,0.1903572380542755,-0.06871414184570312,-0.031708113849163055,0.008587948977947235,0.09466274082660675
2.25,0.031696051359176636,0.16156579554080963,-0.02186712622642517,-0.019229579716920853,0.007162691093981266,0.09007783234119415
2.3,-0.007175922393798828,0.12153339385986328,-0.1470261663198471,-0.0007067862898111343,0.00799871888011694,0.058403320610523224
2.35,-0.05844162404537201,0.09076879918575287,-0.1536211520433426,-0.0013841679319739342,0.009246616624295712,0.037569910287857056
2.4,-0.03598491847515106,0.14240360260009766,-0.054256416857242584,-0.00979445781558752,0.009445886127650738,0.02845984511077404
2.45,-0.056672126054763794,0.14887237548828125,-0.07323727011680603,-0.00818557571619749,0.0065001072362065315,0.027413979172706604
2.5,-0.02693473920226097,0.17681695520877838,-0.05389724299311638,0.002310066483914852,-0.0017337031895294785,0.03243331238627434
2.55,-0.0450172945857048,0.15074443817138672,-0.0532645545899868,0.016649728640913963,-0.012799686752259731,0.03583328798413277
2.6,-0.025926752015948296,0.1432323455810547,-0.06279410421848297,0.024293694645166397,-0.020231932401657104,0.03501853719353676
2.65,0.015665460377931595,0.11224079877138138,-0.0811370462179184,0.035255640745162964,-0.022509902715682983,0.022322220727801323
2.7,-0.01745128631591797,0.1221761703491211,-0.15117749571800232,0.04863252118229866,-0.02072666771709919,0.0010244002332910895
2.75,-0.09637673199176788,0.21445371210575104,-0.07396253943443298,0.05046076327562332,-0.02350630983710289,0.008636471815407276
2.8,0.0435565821826458,0.9718657732009888,-0.04820697009563446,0.06488387286663055,-0.028613008558750153,0.07502099871635437
2.85,0.022298920899629593,0.6669979691505432,0.09584668278694153,0.0608782134950161,-0.031182540580630302,0.15704867243766785
2.9,0.12442974746227264,0.7908545732498169,-0.006525370292365551,0.0565001517534256,-0.021696167066693306,0.196933776140213
2.95,-0.041129905730485916,0.5079908967018127,-0.20525699853897095,0.06922826915979385,-0.013673669658601284,0.21320228278636932
3.0,-0.24764448404312134,0.10686202347278595,-0.4443671405315399,0.09882842004299164,-0.014603161253035069,0.2753884792327881
3.05,-0.269298255443573,0.4708804786205292,-0.6395156383514404,0.09141375869512558,-0.019306780770421028,0.4342299699783325
3.1,-0.6107398271560669,1.4424848556518555,-0.5851554870605469,0.18739637732505798,0.046418607234954834,0.6064574122428894
3.15,-0.04026050865650177,1.05878746509552,0.13369330763816833,0.4055671691894531,0.12533244490623474,0.7014939785003662
3.2,0.22806254029273987,-0.0343618206679821,0.11182983964681625,0.745816707611084,0.13962799310684204,0.6280859112739563
3.25,-0.06369710713624954,-0.17636778950691223,-0.1376018077135086,0.8135932683944702,0.09437747299671173,0.4555153250694275
3.3,-0.1018604263663292,0.36821749806404114,0.11549247801303864,0.6961459517478943,0.07212544977664948,0.3490443527698517
3.35,0.6914203763008118,3.49568510055542,0.6169759631156921,0.8770930171012878,0.19188345968723297,0.27723291516304016
3.4,1.4756299257278442,3.051363706588745,0.9016011953353882,1.0412585735321045,0.46686291694641113,-0.19356897473335266
3.45,0.5392757654190063,0.8437930941581726,0.3995211124420166,0.4014577269554138,1.5261197090148926,-0.38633763790130615
3.5,-1.3001307249069214,0.4713982939720154,-0.46967968344688416,-0.28729528188705444,2.0800106525421143,0.13825125992298126
3.55,-1.8298614025115967,-0.48352158069610596,0.10044628381729126,-0.13376842439174652,1.4821919202804565,0.18042367696762085
3.6,-2.2993786334991455,-1.5842058658599854,0.7804802656173706,0.10652706027030945,0.8595301508903503,-0.12514826655387878
3.65,-2.7646706104278564,-2.1488916873931885,0.7969355583190918,0.02240331470966339,0.6280485391616821,-0.3487739861011505
3.7,-2.4084153175354004,-2.8057873249053955,1.1595642566680908,-0.17538955807685852,0.4453747570514679,-0.7570162415504456
3.75,-1.3027335405349731,-3.1502459049224854,1.7058699131011963,-0.5022367835044861,0.3096294403076172,-1.075422763824463
3.8,0.37739846110343933,-3.452200174331665,2.127695322036743,-0.9519343376159668,0.44050270318984985,-0.9286227226257324
3.85,1.560097098350525,-1.992707371711731,-4.130504608154297,-1.2981934547424316,1.0271518230438232,-0.3645841181278229
3.9,-0.0779675841331482,-0.9447606801986694,-1.981760859489441,-1.2269976139068604,0.9969210624694824,-0.5011208057403564
3.95,-2.1018218994140625,0.35917016863822937,2.4505534172058105,-0.7393599152565002,0.38858625292778015,-0.4286119043827057
4.0,-1.0064935684204102,0.3871232569217682,1.1452709436416626,-0.9111083745956421,0.20528870820999146,-0.6680488586425781
4.05,0.3043087124824524,0.45166122913360596,0.5176608562469482,-1.0726828575134277,0.13119135797023773,-0.8871934413909912
4.1,0.06626906991004944,0.7135286927223206,0.20519152283668518,-0.8039160966873169,0.0034356196410954,-0.7578465938568115
4.15,0.002961409278213978,0.35611823201179504,-0.033058371394872665,-0.5866542458534241,0.012433517724275589,-0.5944614410400391
4.2,0.15662643313407898,0.3220415413379669,-0.18234701454639435,-0.49489304423332214,0.0516892671585083,-0.4682964086532593
4.25,0.13851532340049744,0.48224547505378723,-0.24848666787147522,-0.4323796331882477,0.029150962829589844,-0.35379159450531006
4.3,0.13717351853847504,0.4107123017311096,0.024441614747047424,-0.33389148116111755,0.010909452103078365,-0.2197667956352234
4.35,0.14419957995414734,0.327971488237381,0.01100846566259861,-0.2170148640871048,0.0014520057011395693,-0.12393273413181305
4.4,0.15944083034992218,0.1569090187549591,0.008645370602607727,-0.12218157947063446,-0.008064204826951027,-0.06393127143383026
4.45,0.15936699509620667,0.12271787971258163,-0.013053212314844131,-0.05191325396299362,-0.01844625174999237,-0.03139089047908783
4.5,0.13160771131515503,0.1624441295862198,-0.08030354231595993,0.007875987328588963,-0.0310929324477911,-0.009071441367268562
4.55,0.1641382873058319,0.18634989857673645,0.029161058366298676,0.07496214658021927,-0.050009869039058685,0.03761012852191925
4.6,0.08654435724020004,0.33987048268318176,0.005716770421713591,0.15086808800697327,-0.07943963259458542,0.10686933249235153
4.65,-0.06682620197534561,0.4567566514015198,-0.010628417134284973,0.2463301420211792,-0.09926304966211319,0.2255317121744156
4.7,-0.08601968735456467,0.21286579966545105,-0.44944027066230774,0.40233510732650757,-0.1134491115808487,0.3984887897968292
4.75,0.36747196316719055,0.12423708289861679,-0.065077044069767,0.5012801885604858,-0.11319088935852051,0.48437830805778503
4.8,0.5784763097763062,0.16465862095355988,0.2701708972454071,0.4404323101043701,-0.12509821355342865,0.3613071143627167
4.85,0.38329070806503296,0.06474019587039948,-0.05325855314731598,0.3060365319252014,-0.11702734231948853,0.1291932910680771
4.9,0.19070562720298767,0.06269167363643646,-0.25667229294776917,0.19949834048748016,-0.06733023375272751,-0.0447700172662735
4.95,0.0605446882545948,0.17499542236328125,-0.1920386701822281,0.13892772793769836,-0.01826583594083786,-0.10086607933044434
5.0,-0.10299205780029297,0.29143431782722473,-0.08965322375297546,0.12621727585792542,0.002976088784635067,-0.04536105692386627
5.05,-0.12746937572956085,0.31913188099861145,0.05002005770802498,0.1930893212556839,-0.0017921559046953917,0.0911128968000412
5.1,0.0692804679274559,0.1588611900806427,0.14218834042549133,0.3314216732978821,-0.051146477460861206,0.25413066148757935
5.15,0.29918766021728516,-0.1188974529504776,-0.1335805505514145,0.3989756107330322,-0.10898149013519287,0.2946806848049164
5.2,0.2848568558692932,-0.2612181603908539,-0.5251722931861877,0.2695217728614807,-0.10447108745574951,0.1675443798303604
5.25,0.1278073489665985,-0.1463509202003479,-0.4169563949108124,0.010872719809412956,-0.029736628755927086,-0.009087770245969296
5.3,0.03888937830924988,0.09820272028446198,-0.0060648671351373196,-0.1727694571018219,0.05503035709261894,-0.11368333548307419
5.35,-0.04769860953092575,0.33381372690200806,0.2843741774559021,-0.17496506869792938,0.05817467346787453,-0.09878618270158768
5.4,-0.03312239795923233,0.3831873834133148,0.3111622631549835,-0.038526613265275955,-0.0007987001445144415,0.01829608716070652
5.45,0.14000718295574188,0.15661433339118958,0.08592475950717926,0.10441925376653671,-0.0585208535194397,0.13615751266479492
5.5,0.2145460844039917,-0.07506944984197617,-0.1992339938879013,0.10329343378543854,-0.07770659029483795,0.13014455139636993
5.55,0.13685962557792664,-0.11787991225719452,-0.2928578853607178,-0.035122063010931015,-0.03418847545981407,0.012907291762530804
5.6,0.0478796660900116,0.0877532958984375,-0.08541761338710785,-0.18609976768493652,0.03556254506111145,-0.11016618460416794
5.65,-0.004213150590658188,0.30317121744155884,0.18421080708503723,-0.23356404900550842,0.06128142401576042,-0.15750809013843536
5.7,-0.017495080828666687,0.37971600890159607,0.24753890931606293,-0.15499073266983032,0.03389120101928711,-0.11715105921030045
5.75,0.05441300943493843,0.2485990971326828,0.1168755292892456,-0.034786421805620193,-0.00036826691939495504,-0.04956730455160141
5.8,0.09206458181142807,0.08468056470155716,-0.014494159258902073,0.017379924654960632,-0.012379434891045094,-0.02995334379374981
5.85,0.06104518845677376,0.06903553754091263,-0.007744131609797478,0.0016206856817007065,0.0005723624490201473,-0.04716303572058678
5.9,-0.015742752701044083,0.2138081043958664,0.140973299741745,-0.001387735828757286,0.010981647297739983,-0.04683160036802292
5.95,-0.11939733475446701,0.35879331827163696,0.3076874911785126,0.05766872316598892,-0.0055029368959367275,0.001930372091010213
6.0,-0.041258201003074646,0.3294735550880432,0.23182043433189392,0.19755135476589203,-0.03437386825680733,0.11120113730430603
6.05,0.05755758285522461,0.17786695063114166,0.034793928265571594,0.3011435270309448,-0.05070975795388222,0.18391203880310059
6.1,0.14893555641174316,-0.027632715180516243,-0.04369411617517471,0.3094292879104614,-0.048079244792461395,0.1730092316865921
6.15,0.13204824924468994,-0.23397356271743774,-0.31597277522087097,0.22692181169986725,-0.03519793227314949,0.09149239212274551
6.2,0.03339962661266327,-0.2090178281068802,-0.455900639295578,0.021232089027762413,-0.0001486645924160257,-0.02824699506163597
6.25,-0.038437098264694214,-0.025828387588262558,-0.1810239553451538,-0.20777541399002075,0.05307012051343918,-0.11965344101190567
6.3,-0.06124841421842575,0.17717841267585754,0.19669221341609955,-0.2972332239151001,0.08241328597068787,-0.14067041873931885
6.35,-0.045392945408821106,0.31609827280044556,0.4197295308113098,-0.2253672182559967,0.05719064176082611,-0.1009526476264
6.4,-0.062415242195129395,0.379401296377182,0.3974088132381439,-0.06416898220777512,0.008854578249156475,-0.027566874399781227
6.45,-0.05638858675956726,0.342989981174469,0.35435137152671814,0.11842513829469681,-0.03304833918809891,0.0621316134929657
6.5,0.03950048238039017,0.18908125162124634,0.23354128003120422,0.27340149879455566,-0.05924283713102341,0.1362859010696411
6.55,0.3033354580402374,0.03281499072909355,-0.05688951909542084,0.33120495080947876,-0.05758053809404373,0.12871357798576355
6.6,0.26024916768074036,-0.13171963393688202,-0.34967485070228577,0.1967480182647705,-0.017355063930153847,0.02558775059878826
6.65,0.0014080777764320374,-0.08006767183542252,-0.29284536838531494,-0.056939370930194855,0.054290104657411575,-0.0897989347577095
6.7,-0.04065141826868057,0.12499525398015976,0.10554444044828415,-0.20749475061893463,0.11588168889284134,-0.14410699903964996
6.75,-0.008121177554130554,0.2489357739686966,0.3427579402923584,-0.17759695649147034,0.1029411032795906,-0.1185981035232544
6.8,-0.02602417767047882,0.252627432346344,0.24740634858608246,-0.06250651925802231,0.031484734266996384,-0.049009472131729126
6.85,-0.01997314766049385,0.1385183483362198,0.04474613070487976,0.025273486971855164,-0.014903491362929344,0.010975259356200695
6.9,0.008819103240966797,0.08675098419189453,-0.07947637885808945,0.030278783291578293,-0.019299231469631195,0.03459438309073448
6.95,0.028276754543185234,0.05896281823515892,-0.10131796449422836,-0.02692294865846634,-0.0030338671058416367,0.02366943284869194
7.0,0.017429010942578316,0.11508657038211823,0.004197698552161455,-0.09221980720758438,0.00978896114975214,0.0008996643591672182
7.05,0.003364626318216324,0.23641972243785858,0.1691429615020752,-0.10406237840652466,-1.1226148671994451e-05,-0.001002088189125061
7.1,0.07064267992973328,0.1929817795753479,0.1955411434173584,-0.05423683673143387,-0.018735598772764206,0.02148636430501938
7.15,0.04306545853614807,0.0715189129114151,0.021905360743403435,-0.024173200130462646,-0.025502411648631096,0.02217806875705719
7.2,0.002521190792322159,0.08790493756532669,-0.024287596344947815,-0.0491364412009716,-0.006026796530932188,-0.0026800509076565504
7.25,-0.024627480655908585,0.21886639297008514,0.10341938585042953,-0.07030752301216125,0.016496045514941216,-0.01198219507932663
7.3,-0.1103806421160698,0.2949391007423401,0.19061842560768127,-0.03425170108675957,0.013420064002275467,0.03047988936305046
7.35,-0.251101016998291,0.3741340935230255,0.1966182440519333,0.04789825528860092,-0.004078916274011135,0.12623995542526245
7.4,-0.7384318113327026,0.7329512238502502,0.24342259764671326,0.1637636423110962,0.007070379797369242,0.31628140807151794
7.45,-1.4004178047180176,1.3396636247634888,0.46289458870887756,0.4460253119468689,0.07577105611562729,0.7563036680221558
7.5,-1.285539984703064,1.5156280994415283,0.8585494160652161,0.9668883085250854,0.17448721826076508,1.4484196901321411
7.55,-0.4637380540370941,1.8975727558135986,-0.24968336522579193,1.3123953342437744,0.34304171800613403,1.8626596927642822
7.6,-1.8303065299987793,2.2897613048553467,-2.61714243888855,0.8919152021408081,0.4884541928768158,1.2653579711914062
7.65,-2.3011770248413086,0.11534854024648666,-1.7104260921478271,0.4495178461074829,-0.113780178129673,-0.36632513999938965
7.7,-0.835793137550354,-2.071525812149048,0.7110612392425537,0.3830597698688507,-0.4308449625968933,-1.309890866279602
7.75,0.03735867142677307,-2.220743417739868,0.98769611120224,0.19379094243049622,0.1446213722229004,-0.9550650119781494
7.8,1.2092816829681396,-2.233726739883423,0.5906476974487305,-0.03847184777259827,0.4001119136810303,-0.5915541648864746
7.85,2.8118691444396973,-3.274578332901001,0.7416262030601501,-0.1412607878446579,0.46195361018180847,-0.2717028558254242
7.9,3.466526985168457,-3.386425495147705,-0.48843514919281006,0.2780649662017822,1.0383367538452148,0.7835121750831604
7.95,4.84971284866333,0.17312739789485931,0.026129504665732384,-0.408435583114624,1.3530075550079346,1.602373719215393
8.0,3.290978193283081,1.9040104150772095,2.1086578369140625,-1.310011863708496,0.9542286992073059,0.9125362634658813
8.05,-0.3609738349914551,0.493459016084671,2.0298287868499756,-0.8016294240951538,0.25686466693878174,-0.059836775064468384
8.1,-0.9676995873451233,-0.2196054458618164,0.6060348153114319,-0.18236824870109558,-0.19979055225849152,-0.07536239176988602
8.15,0.19788315892219543,-0.20563985407352448,-0.0021241477224975824,-0.1231025829911232,-0.05215552821755409,0.17344006896018982
8.2,0.5038971900939941,0.21074870228767395,-0.23497658967971802,-0.4074205160140991,0.0460558719933033,0.025496168062090874
8.25,-0.3790055811405182,0.3763571083545685,0.0031037034932523966,-0.5973305702209473,-0.02582463249564171,-0.2665610611438751
8.3,-0.17840777337551117,0.7494231462478638,0.5988863110542297,-0.5883125066757202,-0.02742554061114788,-0.2142917513847351
8.35,0.49755483865737915,0.9990198016166687,0.5923405289649963,-0.45967409014701843,-0.00786721333861351,-0.11516933143138885
8.4,0.23465491831302643,0.6578160524368286,0.19503095746040344,-0.3902495801448822,-0.017072029411792755,-0.17914801836013794
8.45,-0.08025079220533371,0.2453184425830841,0.06533949077129364,-0.3523501455783844,-0.005534025840461254,-0.23414486646652222
8.5,-0.17212872207164764,0.3043566048145294,0.011300499550998211,-0.31272053718566895,0.0078087192960083485,-0.24373964965343475
8.55,-0.46290621161460876,0.22156523168087006,-0.17229300737380981,-0.30460670590400696,0.013091606087982655,-0.2568587064743042
8.6,-0.3340338468551636,0.09380912780761719,0.017609361559152603,-0.28564897179603577,0.022495033219456673,-0.22580990195274353
8.65,-0.2814008593559265,0.1074390709400177,0.24647317826747894,-0.24982571601867676,0.0449235774576664,-0.12487107515335083
8.7,-0.300805926322937,0.1173277199268341,0.22324834764003754,-0.1889309585094452,0.07920797169208527,-0.0023615786340087652
8.75,0.02668437920510769,0.20461371541023254,-0.022984424605965614,-0.12707187235355377,0.07555801421403885,-0.0032823404762893915
8.8,0.328012615442276,0.2722911834716797,-0.4837266504764557,-0.13562142848968506,0.034057870507240295,-0.18804579973220825
8.85,0.2094079554080963,0.18616101145744324,-0.44692084193229675,-0.22775962948799133,0.01761360466480255,-0.46127572655677795
8.9,-0.8102246522903442,0.10165023803710938,0.19071556627750397,-0.28146809339523315,0.012331726029515266,-0.6264656782150269
8.95,-1.1672589778900146,0.058546070009469986,0.4230814576148987,-0.15702766180038452,-0.012913686223328114,-0.43593472242355347
9.0,-0.38735559582710266,-0.12331297248601913,0.05454936623573303,-0.0025408007204532623,-0.03432575985789299,-0.15719163417816162
9.05,-0.5997580885887146,0.2197379767894745,-0.32301053404808044,0.02042894810438156,-0.047989193350076675,-0.10702928155660629
9.1,-1.0542768239974976,1.2494515180587769,-1.3797913789749146,-0.17163535952568054,-0.04248780757188797,0.02552664838731289
9.15,-2.1164591312408447,-0.07641854137182236,-4.696605682373047,-0.7352786064147949,-0.3638673722743988,0.2281038910150528
9.2,0.5791994333267212,-2.883604049682617,-5.884757041931152,-0.8969199061393738,-3.102329730987549,0.26393675804138184
9.25,1.5277345180511475,-8.028234481811523,3.8311846256256104,0.14128315448760986,-5.977893352508545,0.3735213875770569
9.3,-11.01924991607666,-14.412418365478516,17.656219482421875,0.9050163626670837,-3.1814894676208496,1.1852792501449585
9.35,-8.63398551940918,-8.170827865600586,14.561238288879395,0.339178204536438,0.7063593864440918,0.8504946231842041
9.4,0.9364129304885864,0.7937710881233215,1.1855432987213135,-0.11525105684995651,0.6260002851486206,-0.5835120677947998
9.45,-0.24711965024471283,0.7649327516555786,0.053327981382608414,-0.2955835461616516,-0.02032620832324028,-0.5821356177330017
9.5,0.2808498740196228,0.24504093825817108,-0.010547191835939884,-0.29396727681159973,0.07861975580453873,-0.2265026718378067
9.55,0.6877198219299316,0.11505129188299179,-0.19490255415439606,-0.257658451795578,0.08228998631238937,-0.2608107030391693
9.6,0.814217746257782,-0.08496374636888504,0.1998080164194107,-0.3190494179725647,0.0543033741414547,-0.5225077271461487
9.65,-0.21176670491695404,-0.11084365099668503,0.2827387750148773,-0.28074154257774353,-0.015437701717019081,-0.609035313129425
9.7,-0.7210019826889038,0.3612346351146698,-0.22659915685653687,-0.15209852159023285,-0.034627653658390045,-0.34430912137031555
9.75,0.17196477949619293,0.1659402996301651,-0.003682701615616679,-0.2008724808692932,0.0765272006392479,-0.08671123534440994
9.8,0.11024652421474457,-0.03342911973595619,0.23585456609725952,-0.24853134155273438,0.10114528983831406,-0.14040930569171906
9.85,-0.3728160858154297,-0.16267678141593933,0.504817545413971,-0.11412075161933899,0.045290280133485794,-0.14011850953102112
9.9,-0.08171877264976501,0.08256816118955612,-0.10857652127742767,0.15227696299552917,-0.028389494866132736,0.07506097853183746
9.95,0.7343039512634277,0.17520424723625183,-0.64532470703125,0.15132145583629608,-0.023189563304185867,0.15243013203144073
10.0,0.21196627616882324,0.18871499598026276,-0.2117556929588318,-0.07580897212028503,0.023520438000559807,-0.06620123982429504
10.05,-0.37893158197402954,0.3126440644264221,0.3514956831932068,-0.14593565464019775,0.025851327925920486,-0.13566768169403076
10.1,-0.3464386761188507,0.2251330316066742,0.7311004996299744,-0.07241480052471161,0.021377230063080788,0.022727733477950096
10.15,0.016809245571494102,0.22357752919197083,-0.03213885799050331,0.08340267091989517,-0.005146284122020006,0.1694348305463791
10.2,0.3133220076560974,0.22373197972774506,-0.5021597743034363,0.09910684823989868,-0.003045210614800453,0.20920231938362122
10.25,0.3182518482208252,0.15271569788455963,-0.1271621137857437,-0.033567775040864944,0.029372410848736763,0.12386415898799896
10.3,0.23839625716209412,0.10382083058357239,0.05381247028708458,-0.08543826639652252,0.024487271904945374,-0.0037381916772574186
10.35,0.2152806520462036,0.11078168451786041,-0.09113271534442902,-0.06692060083150864,0.005142819602042437,-0.10812439769506454
10.4,0.4117213487625122,0.17366699874401093,0.06715007871389389,-0.09344663470983505,-0.0005033795023337007,-0.2283046990633011
10.45,0.09253138303756714,0.28164392709732056,0.2915124297142029,-0.09757111966609955,-0.03773460164666176,-0.3252986669540405
10.5,-0.6854913234710693,0.3558092415332794,0.3021102249622345,-0.06568427383899689,-0.04296938702464104,-0.21040849387645721
10.55,-0.472023069858551,0.16815952956676483,0.4448292553424835,-0.01117267832159996,0.02102087438106537,0.11677724123001099
10.6,0.0710148960351944,-0.032964665442705154,0.3722742199897766,0.14517594873905182,-0.006152112036943436,0.28725388646125793
10.65,-0.07418455183506012,0.17305943369865417,-0.37252286076545715,0.25343891978263855,-0.059350188821554184,0.25252267718315125
10.7,-0.032355859875679016,0.14247126877307892,-0.46215224266052246,0.15490877628326416,-0.005512380972504616,0.2811718285083771
10.75,0.13135027885437012,-0.00601576641201973,0.05733088031411171,0.036832161247730255,0.0450834296643734,0.28607797622680664
10.8,0.018032163381576538,-0.12859535217285156,0.1654326617717743,0.02263304591178894,0.022814879193902016,0.1785213202238083
10.85,-0.03208159655332565,0.06327533721923828,-0.03378455340862274,0.030293598771095276,-0.010470942594110966,0.06888500601053238
10.9,0.04450901225209236,0.1976184993982315,-0.14191673696041107,0.01521335169672966,-0.015630893409252167,0.04260525107383728
10.95,0.04929371923208237,-0.08939553797245026,-0.09023627638816833,-0.009512867778539658,-0.00787878967821598,0.016203073784708977
11.0,0.015607055276632309,0.04641054943203926,-0.14954803884029388,-0.02414545975625515,-0.016741318628191948,-0.09270989149808884
11.05,-0.22191618382930756,0.49783140420913696,-0.02915526181459427,-0.03635392338037491,-0.015016701072454453,-0.14489538967609406
11.1,-0.42295628786087036,0.4442806839942932,0.11036600917577744,-0.021567748859524727,0.012712063267827034,0.005564016290009022
11.15,-0.08823911100625992,0.2816915810108185,0.10855980962514877,0.021146610379219055,0.032752569764852524,0.2043410837650299
11.2,0.11056055128574371,0.17585565149784088,0.005697785411030054,0.05243615806102753,0.02191738225519657,0.22605527937412262
11.25,0.0883714109659195,0.1083974838256836,-0.178696408867836,0.057019997388124466,0.0025941787753254175,0.15471044182777405
11.3,0.1444779336452484,0.058066364377737045,-0.14519330859184265,0.020711753517389297,0.003993315156549215,0.083980493247509
11.35,0.25296616554260254,0.034698497503995895,-0.015323858708143234,-0.01182053703814745,0.00020212661183904856,-0.024631891399621964
11.4,0.14555740356445312,0.13147643208503723,0.07501262426376343,-0.027951646596193314,-0.02094830945134163,-0.1628296971321106
11.45,-0.03415091335773468,0.2360115498304367,0.09061090648174286,-0.0357673242688179,-0.02944871038198471,-0.21259714663028717
11.5,0.0026032142341136932,0.1398916244506836,-0.11520714312791824,-0.03227458894252777,-0.024088408797979355,-0.15610294044017792
11.55,-0.6338421106338501,-0.3399506211280823,0.09113437682390213,-0.05015452951192856,-0.016950707882642746,-0.14031101763248444
11.6,-1.0720551013946533,-0.35831740498542786,0.35569486021995544,-0.05269338935613632,-0.009969993494451046,-0.12464148551225662
11.65,-0.2417394518852234,0.1774740219116211,-0.002171480329707265,-0.0015827501192688942,0.0014027219731360674,0.024236543104052544
11.7,0.42933231592178345,-0.9775305390357971,0.1699991524219513,0.028971321880817413,0.02399500086903572,0.17881862819194794
11.75,0.6622264981269836,-1.384516716003418,0.3837452232837677,0.03191407397389412,0.02612399123609066,0.1865871250629425
11.8,0.25173047184944153,0.06967546045780182,-0.06365377455949783,0.033473335206508636,0.004042485728859901,0.09037671238183975
11.85,0.0617232508957386,0.16627788543701172,-0.12730982899665833,0.006564911454916,-0.004424287471920252,0.00669433968141675
11.9,0.16529133915901184,0.08022212982177734,-0.11682402342557907,-0.008495945483446121,-0.0036339499056339264,-0.021472567692399025
11.95,0.16440677642822266,0.10308361798524857,-0.10586914420127869,-0.015124000608921051,-0.022042537108063698,-0.12775607407093048
12.0,0.001196887344121933,0.17493534088134766,-0.11617600172758102,-0.020435627549886703,-0.034101225435733795,-0.21942543983459473
12.05,0.08557343482971191,0.14484404027462006,-0.31761083006858826,-0.032274939119815826,-0.0314561165869236,-0.2318592071533203
12.1,-0.0061961933970451355,0.29155731201171875,-0.31528976559638977,-0.09764724969863892,-0.03231680393218994,-0.2819784879684448
12.15,-0.5144779682159424,0.5251808762550354,0.20969316363334656,-0.17520250380039215,-0.015603168867528439,-0.24634680151939392
12.2,-0.5613483190536499,0.26132211089134216,0.6538562178611755,-0.11591000854969025,0.026073412969708443,0.018810084089636803
12.25,0.012509889900684357,0.08163551241159439,0.262412965297699,0.06180466711521149,0.009310740046203136,0.23604713380336761
12.3,0.20486868917942047,0.06864260137081146,-0.31284642219543457,0.14788095653057098,-0.03365504369139671,0.22213640809059143
12.35,0.058656565845012665,0.09338948130607605,-0.35259494185447693,0.06680924445390701,-0.015775468200445175,0.11670532822608948
12.4,0.04654587060213089,0.11622335016727448,-0.009158660657703876,-0.027050063014030457,0.013405359350144863,0.038102585822343826
12.45,0.07642508298158646,0.06564618647098541,0.06983645260334015,-0.03236674517393112,0.0022365376353263855,-0.03204216808080673
12.5,0.22075366973876953,-0.02850724570453167,-0.1665668785572052,-0.00831117108464241,-0.026583250612020493,-0.12615835666656494
12.55,-0.1389867067337036,0.19780349731445312,-0.2248150259256363,-0.02613021433353424,-0.046694036573171616,-0.24199563264846802
12.6,-0.7329075932502747,0.5769243240356445,-0.04835810512304306,-0.04204035922884941,-0.01933867298066616,-0.12283109873533249
12.65,-0.27905920147895813,0.47961145639419556,0.18075820803642273,-0.005601555109024048,0.040859468281269073,0.22447511553764343
12.7,0.16021761298179626,0.15781787037849426,0.04371713846921921,0.05564461648464203,0.04035186395049095,0.3178585171699524
12.75,0.1708633005619049,0.07593439519405365,-0.301125168800354,0.07496476173400879,0.006480545271188021,0.20077116787433624
12.8,-0.028606563806533813,0.07524392753839493,-0.2429293841123581,0.022415854036808014,0.003818308003246784,0.10634658485651016
12.85,0.03542759269475937,0.11170961707830429,0.06787268817424774,-0.02051703631877899,0.017350221052765846,0.08236751705408096
12.9,0.1157783791422844,0.16377833485603333,0.12880538403987885,-0.005521646235138178,-0.0015765544958412647,0.013923479244112968
12.95,0.16568447649478912,0.08835887908935547,-0.15822292864322662,0.01696360856294632,-0.028079360723495483,-0.08408341556787491
13.0,0.08894062042236328,0.0626516118645668,-0.2855741083621979,-0.0023403018712997437,-0.038032401353120804,-0.17023594677448273
13.05,-0.30114081501960754,0.2918577194213867,-0.12085685133934021,-0.038246992975473404,-0.028010621666908264,-0.19517076015472412
13.1,-0.4546809196472168,0.3631248474121094,-0.013581620529294014,-0.04275298863649368,0.009705119766294956,-0.03630036115646362
13.15,-0.10260229557752609,0.21912959218025208,0.0018725395202636719,0.004920121282339096,0.032869864255189896,0.1722027063369751
13.2,-0.02020123600959778,0.2178039699792862,-0.10645526647567749,0.04225984215736389,0.024205273017287254,0.202445387840271
13.25,0.05794092267751694,0.018464066088199615,-0.24747644364833832,0.03227146714925766,0.02242971770465374,0.19551339745521545
13.3,0.13322190940380096,0.0011634898837655783,0.01188473030924797,-0.009185116738080978,0.02122235856950283,0.12226495891809464
13.35,-0.02256399765610695,0.037735942751169205,0.010570230893790722,0.004926119931042194,-0.006880808621644974,0.006183840800076723
13.4,-0.08534202724695206,0.13441181182861328,-0.03904030844569206,0.015513138845562935,-0.019641593098640442,-0.056983832269907
13.45,-0.048267997801303864,0.18478871881961823,-0.04583483189344406,0.01506776548922062,-0.021403718739748,-0.0526956282556057
13.5,0.029502397403120995,0.1291656643152237,-0.00812468770891428,0.004588102921843529,-0.016510894522070885,-0.035826198756694794
13.55,0.10390347242355347,0.3426256477832794,-0.054261717945337296,-0.01968461088836193,-0.020121686160564423,-0.08785007894039154
13.6,-0.2605348825454712,0.477873831987381,-0.10712973773479462,-0.0343671590089798,-0.010703823529183865,-0.0760679692029953
13.65,-0.5446710586547852,0.1705321967601776,-0.23044705390930176,-0.014264274388551712,0.02547491155564785,0.16530489921569824
13.7,-0.08128082752227783,0.05838393792510033,-0.07212860137224197,-0.010140836238861084,0.059140678495168686,0.3761298954486847
13.75,0.0782264918088913,0.022307390347123146,-0.10330098867416382,0.005036704242229462,0.038861729204654694,0.35443416237831116
13.8,0.17814631760120392,-0.046125419437885284,-0.10511338710784912,0.0001611560583114624,0.01455537136644125,0.2075614184141159
13.85,0.10208138078451157,0.041331302374601364,0.0397379994392395,-0.013196766376495361,0.0007963822572492063,-0.006670088041573763
13.9,-0.2010197639465332,0.09169387072324753,-0.02578521892428398,0.010793603956699371,-0.0323982797563076,-0.16241556406021118
13.95,-0.2812943756580353,0.16923236846923828,-0.05962536856532097,0.019588250666856766,-0.03974444046616554,-0.15211448073387146
14.0,0.2250840961933136,0.2924509346485138,-0.06606687605381012,0.007236773148179054,-0.024893101304769516,-0.0832974761724472
14.05,0.2702144682407379,0.22277836501598358,0.07185226678848267,0.0007721930742263794,-0.04704614356160164,-0.18647229671478271
14.1,-0.7573315501213074,0.012925127521157265,0.09896349906921387,-0.00871635228395462,-0.05962464213371277,-0.27262237668037415
14.15,-0.7776548862457275,0.4045534133911133,-0.10208107531070709,-0.022823277860879898,-0.0008536845562048256,-0.017731938511133194
14.2,-0.06147477775812149,0.21319012343883514,0.1124350056052208,-0.0128898024559021,0.056704528629779816,0.28039175271987915
14.25,0.14419519901275635,0.07690716534852982,-0.07896246016025543,0.028332002460956573,0.037415940314531326,0.2808394432067871
14.3,0.12489260733127594,-0.12011342495679855,-0.3856056034564972,0.019418872892856598,0.013770882040262222,0.1738305240869522
14.35,0.0975998193025589,-0.009425162337720394,-0.024895450100302696,-0.028297370299696922,0.011832877062261105,0.004818896297365427
14.4,0.029583876952528954,0.1257963478565216,0.12266679853200912,-0.005239702761173248,-0.02106069028377533,-0.1464678943157196
14.45,-0.12144921720027924,0.12836074829101562,-0.04838649556040764,0.02154383808374405,-0.05477731674909592,-0.24010953307151794
14.5,-0.06553071737289429,0.09978771209716797,-0.1139361560344696,0.01956848055124283,-0.05976998805999756,-0.266817182302475
14.55,-0.318015992641449,0.26209545135498047,-0.1518707126379013,0.00467294454574585,-0.06379812210798264,-0.26939657330513
14.6,-0.7145730257034302,0.41818904876708984,-0.16388876736164093,-0.01907462440431118,-0.03171465918421745,-0.11035854369401932
14.65,-0.20811711251735687,0.2733459770679474,-0.04826736822724342,-0.04378576576709747,0.046526551246643066,0.19510532915592194
14.7,-0.2107977271080017,0.2519989609718323,0.22113259136676788,-0.02250935137271881,0.06165200471878052,0.2770230770111084
14.75,-0.036772966384887695,0.06312085688114166,0.06042584031820297,0.01600157469511032,0.042487286031246185,0.23554491996765137
14.8,0.036560069769620895,0.0445556566119194,-0.1308554708957672,-0.0011156722903251648,0.020007016137242317,0.10432658344507217
14.85,-0.01887408271431923,0.062240611761808395,0.032108649611473083,-0.011492406018078327,0.002690470777451992,-0.0016328877536579967
14.9,-0.018249157816171646,0.06499387323856354,0.10316585749387741,0.005422409623861313,-0.01328129693865776,-0.052708111703395844
14.95,0.04941210150718689,-0.006155974231660366,-0.07128196209669113,0.027386143803596497,-0.0294570904225111,-0.09124935418367386
15.0,-0.30458545684814453,0.2025442123413086,-0.11317798495292664,0.01922173798084259,-0.041185032576322556,-0.18292860686779022
15.05,-0.7523093223571777,0.43981555104255676,-0.032110460102558136,-0.029206277802586555,-0.008453277871012688,-0.10235492885112762
15.1,-0.36957231163978577,0.3071432411670685,0.25709646940231323,-0.0610983781516552,0.05741569772362709,0.18102113902568817
15.15,-0.03495049849152565,0.13737395405769348,0.1812586933374405,-0.01668854057788849,0.0630003958940506,0.30074453353881836
15.2,0.30237525701522827,-0.07294560223817825,-0.14680956304073334,0.017004799097776413,0.032512590289115906,0.2089461386203766
15.25,0.1211993396282196,0.03381825238466263,-0.018336301669478416,-0.004909772425889969,-0.00015516225539613515,-0.023827942088246346
15.3,-0.2096211314201355,0.18300151824951172,-0.0786665603518486,0.008909035474061966,-0.03013656847178936,-0.15304532647132874
15.35,-0.284062922000885,0.1859130859375,-0.026639357209205627,0.02078154683113098,-0.03043665923178196,-0.11136074364185333
15.4,-0.00933593325316906,0.0026426201220601797,-0.10028054565191269,0.029766906052827835,-0.02208058536052704,-0.04200834408402443
15.45,0.15041956305503845,-0.10374549776315689,-0.2402157038450241,0.016754157841205597,-0.023360030725598335,-0.09511866420507431
15.5,-0.12203197181224823,0.11221406608819962,-0.2673916220664978,-0.0034772828221321106,-0.037180207669734955,-0.24671617150306702
15.55,-0.6823229193687439,0.27718445658683777,-0.18049857020378113,-0.044520676136016846,-0.010929382406175137,-0.20382218062877655
15.6,-0.46845200657844543,0.19141007959842682,0.08842051774263382,-0.05846913158893585,0.04766068235039711,0.11736501008272171
15.65,0.12406058609485626,0.00895786564797163,-0.03162981942296028,-0.022538259625434875,0.05168529227375984,0.24585677683353424
15.7,0.33815717697143555,0.028159158304333687,-0.008349109441041946,-0.011629756540060043,0.018301069736480713,0.06501634418964386
15.75,0.018792741000652313,0.28899097442626953,-0.28498375415802,0.012699294835329056,-0.028859490528702736,-0.12377707660198212
15.8,-0.19674450159072876,0.23299027979373932,-0.10925809293985367,0.011385712772607803,-0.03496035933494568,-0.12112068384885788
15.85,-0.06044737622141838,0.048779476433992386,-0.15373483300209045,0.017109353095293045,-0.024238096550107002,-0.04658041521906853
15.9,-0.07414808124303818,0.0894460678100586,-0.009173077531158924,0.02294512465596199,-0.021626321598887444,-0.04446304589509964
15.95,-0.04816951975226402,0.19534970819950104,-0.07930879294872284,0.027045590803027153,-0.026396138593554497,-0.08615370094776154
16.0,0.07996328175067902,0.14525318145751953,-0.1809415966272354,0.005682468414306641,-0.025923872366547585,-0.11533664166927338
16.05,0.08363469690084457,0.14147281646728516,-0.2264949381351471,-0.04022470861673355,-0.042294036597013474,-0.20099429786205292
16.1,-0.43271535634994507,0.22439099848270416,0.03843279555439949,-0.09841082990169525,-0.07335516810417175,-0.27737846970558167
16.15,-0.757883608341217,0.3660641014575958,0.27272167801856995,-0.10630624741315842,-0.04011072963476181,-0.13092133402824402
16.2,-0.2491256296634674,0.21836857497692108,0.2784498631954193,-0.04851021245121956,0.02810186706483364,0.11358344554901123
16.25,-0.033299900591373444,0.2196054905653,0.10980750620365143,0.02098708227276802,0.022754276171326637,0.15798170864582062
16.3,-0.007248878479003906,0.23471929132938385,-0.11422188580036163,0.032956648617982864,0.009909780696034431,0.07656934857368469
16.35,0.17458000779151917,0.01477812509983778,-0.19772356748580933,-0.03635275736451149,0.024562068283557892,-0.012259211391210556
16.4,0.11338590085506439,0.06640911847352982,-0.05776992440223694,-0.05944988504052162,0.015693332999944687,-0.1244000792503357
16.45,-0.13495996594429016,0.21003533899784088,-0.12195643037557602,0.002765670418739319,-0.02108888514339924,-0.17024874687194824
16.5,-0.1839306652545929,0.2135324627161026,-0.06202322617173195,0.03962039202451706,-0.031684692949056625,-0.1204742044210434
16.55,0.04177883267402649,0.16981983184814453,-0.08716387301683426,0.024884095415472984,-0.018019799143075943,-0.06220018491148949
16.6,0.13647228479385376,0.12747003138065338,-0.0814652219414711,-0.021244235336780548,-0.009741028770804405,-0.10172134637832642
16.65,-0.21509647369384766,0.22683335840702057,-0.0900317057967186,-0.06392478942871094,-0.02109982818365097,-0.1594485193490982
16.7,-0.8432704210281372,0.38691428303718567,0.018725888803601265,-0.07394904643297195,-0.006139659788459539,-0.046806700527668
16.75,-0.33173635601997375,0.1768646091222763,-0.13648003339767456,-0.033482879400253296,0.04654126241803169,0.21045947074890137
16.8,0.19112823903560638,0.022082319483160973,-0.16783985495567322,-0.032234273850917816,0.062142178416252136,0.26631662249565125
16.85,0.2996673882007599,0.1828031837940216,-0.020328611135482788,-0.011998303234577179,0.023568687960505486,0.11820821464061737
16.9,-0.11819623410701752,0.15207195281982422,-0.14689218997955322,-0.0034628594294190407,-0.013065492734313011,-0.03498338535428047
16.95,-0.06947355717420578,0.028872499242424965,0.06924702227115631,-0.04731611907482147,0.005774662364274263,-0.06505029648542404
17.0,0.015048809349536896,0.13169671595096588,-0.005252733826637268,0.016375355422496796,-0.022476697340607643,-0.08006945252418518
17.05,0.24770870804786682,0.3789129853248596,-0.1643962413072586,0.06158311292529106,-0.04516008123755455,-0.09524578601121902
17.1,0.17924843728542328,0.18251609802246094,-0.2410416454076767,0.029136262834072113,-0.03864027187228203,-0.08915045857429504
17.15,-0.17922565340995789,0.1563558429479599,-0.1417045146226883,-0.010096246376633644,-0.03695334494113922,-0.09903084486722946
17.2,-0.6308667659759521,0.4180326759815216,-0.11861517280340195,-0.022472001612186432,-0.03156018257141113,-0.03820756822824478
17.25,-0.2837100625038147,0.2968607246875763,0.1243615597486496,-0.022001154720783234,0.025933697819709778,0.1821666657924652
17.3,-0.02872832491993904,0.14383412897586823,-0.019885309040546417,0.0350189283490181,0.03052668645977974,0.3161342740058899
17.35,0.3181411921977997,0.048502933233976364,-0.09905251115560532,0.08781274408102036,-0.0003642757365014404,0.26706331968307495
17.4,0.14942823350429535,0.07368657737970352,-0.3354552984237671,0.06691639870405197,-0.026673344895243645,0.08922072499990463
17.45,0.03280215337872505,0.08379936963319778,0.019550012424588203,-0.02707112766802311,0.0002626631467137486,-0.04917260631918907
17.5,-0.09713870286941528,0.027659431099891663,0.14224465191364288,-0.03311767801642418,-0.010156864300370216,-0.1330815553665161
17.55,0.12235532701015472,0.010586736723780632,-0.07494421303272247,0.007252965122461319,-0.03388982266187668,-0.1622019112110138
17.6,-0.06682941317558289,0.13894367218017578,-0.12963978946208954,0.0031101927161216736,-0.04808778315782547,-0.21216455101966858
17.65,-0.5165541172027588,0.5391559600830078,-0.21886803209781647,-0.03654881566762924,-0.03817510977387428,-0.18504035472869873
17.7,-0.2570503354072571,0.5450878739356995,-0.09598927199840546,-0.09793168306350708,0.04357641190290451,0.06567428261041641
17.75,0.057082366198301315,0.15840435028076172,-0.16278502345085144,-0.12729483842849731,0.08647909015417099,0.1710185706615448
17.8,0.28774696588516235,0.08403397351503372,-0.14355234801769257,-0.11186318099498749,0.06408262997865677,0.04909634217619896
17.85,-0.17464326322078705,0.19370271265506744,-0.05658050999045372,-0.056112051010131836,0.00897564459592104,-0.1260749250650406
17.9,-0.453538715839386,0.13242150843143463,0.22387519478797913,-0.0116996169090271,-0.011923301964998245,-0.09735304862260818
17.95,-0.14788584411144257,0.09446431696414948,0.05253906175494194,0.0392049178481102,-0.01709137298166752,0.010855133645236492
18.0,0.039760708808898926,0.1703643798828125,-0.1867392212152481,0.05755072832107544,-0.020900284871459007,0.033212486654520035
18.05,0.10074994713068008,0.22266866266727448,-0.2075471729040146,0.028809258714318275,-0.024198049679398537,-0.02202312834560871
18.1,0.2649877071380615,0.3159380555152893,0.040085576474666595,-0.030842117965221405,-0.021162962540984154,-0.09600404649972916
18.15,-0.14882168173789978,0.2321958988904953,0.22231900691986084,-0.10472267866134644,-0.03700155019760132,-0.16939210891723633
18.2,-0.05403321608901024,0.3596382439136505,-0.012274591252207756,-0.1457580029964447,-0.05278778448700905,-0.15445029735565186
18.25,-0.3088465929031372,0.2535248100757599,0.11697797477245331,-0.1309322714805603,0.0007581622339785099,-0.04631253331899643
18.3,0.22686482965946198,0.31247809529304504,-0.07861239463090897,-0.057637155055999756,0.03239428624510765,0.07733030617237091
18.35,0.12942981719970703,0.2750816345214844,-0.407261461019516,-0.03273862600326538,0.03009996935725212,0.08131490647792816
18.4,0.03888317942619324,0.40948963165283203,-0.5581103563308716,-0.08227670937776566,0.041074275970458984,0.012975686229765415
18.45,0.03577600419521332,0.23450852930545807,-0.1920907348394394,-0.1346321702003479,0.05124650523066521,-0.037056513130664825
18.5,-0.04644637927412987,0.03650189936161041,0.13485312461853027,-0.13297906517982483,0.04211249575018883,-0.08512789756059647
18.55,-0.12944287061691284,0.0053806365467607975,0.10113714635372162,-0.07937142252922058,0.007215017452836037,-0.12976786494255066
18.6,-0.18816573917865753,0.11919594556093216,0.004025317262858152,-0.010465268045663834,-0.025436734780669212,-0.12032098323106766
18.65,-0.1371934413909912,0.0931529849767685,-0.14491234719753265,0.01132456585764885,-0.035481180995702744,-0.09709110110998154
18.7,-0.008087582886219025,0.3295574188232422,-0.22733120620250702,-0.06384071707725525,-0.020008770748972893,-0.10185874253511429
18.75,-0.18683184683322906,0.959091305732727,0.15316587686538696,-0.15086808800697327,-0.00691189942881465,-0.09562228620052338
18.8,-0.6092020869255066,0.6299915909767151,0.36097806692123413,-0.16866597533226013,0.01770086959004402,-0.02582799457013607
18.85,0.024587512016296387,0.28028202056884766,-0.2379205822944641,-0.08485174179077148,0.048702627420425415,0.0994744673371315
18.9,-0.1760689616203308,0.18998341262340546,0.26657596230506897,-0.0205430556088686,0.029847800731658936,0.07903975248336792
18.95,-0.1478860229253769,0.07828523218631744,0.10800927132368088,0.07004276663064957,-0.01508835144340992,0.04530942440032959
19.0,-0.4885733127593994,0.04020307958126068,0.014923368580639362,0.09539571404457092,-0.021768683567643166,0.05649880692362785
19.05,-0.07730388641357422,0.046628955751657486,0.01946437545120716,0.06117622181773186,0.0063343048095703125,0.11179987341165543
19.1,-0.05123486369848251,0.04459189996123314,-0.06233184412121773,0.02000822313129902,0.0048670694231987,0.054817549884319305
19.15,0.02659647725522518,0.10191155970096588,-0.026746002957224846,0.023152709007263184,-0.01193938497453928,-0.018177678808569908
19.2,-0.23042698204517365,0.046490661799907684,-0.00427510030567646,0.0739872008562088,-0.03796251118183136,-0.039749011397361755
19.25,-0.10352957993745804,0.06795597076416016,-0.031004123389720917,0.11580155789852142,-0.048631105571985245,-0.012772725895047188
19.3,-0.20143471658229828,0.33074092864990234,-0.2875560522079468,0.11593060940504074,-0.04370322450995445,0.0076069594360888
19.35,-0.15089236199855804,0.1480703204870224,-0.1653992384672165,0.03507928550243378,0.0017413165187463164,0.08802295476198196
19.4,-0.028788123279809952,0.011808394454419613,-0.013508431613445282,0.056325513869524,0.0050859213806688786,0.13726936280727386
19.45,-0.23328784108161926,-0.01378345862030983,0.07743331044912338,0.1380540281534195,-0.02790309116244316,0.11751799285411835
19.5,-0.15059608221054077,0.15540121495723724,-0.18504738807678223,0.18660525977611542,-0.049367327243089676,0.08146736770868301
19.55,0.008437693119049072,0.44984057545661926,-0.2517009377479553,0.1714821755886078,-0.04312317445874214,0.06448609381914139
19.6,-0.044814035296440125,0.504859983921051,-0.14745137095451355,0.1759139895439148,-0.03860054165124893,0.089626245200634
19.65,0.009421288967132568,0.3149404525756836,-0.15374751389026642,0.2081269472837448,-0.030385039746761322,0.13923105597496033
19.7,-0.05855181813240051,0.263614684343338,-0.05963444337248802,0.2019062638282776,-0.03458520397543907,0.10547839105129242
19.75,-0.05707427114248276,0.1350259631872177,-0.26264262199401855,0.17028996348381042,-0.029836945235729218,0.057589344680309296
19.8,-0.2713382840156555,0.10837551206350327,-0.3796519637107849,0.12186843901872635,0.011276834644377232,0.09955297410488129
19.85,-0.21812167763710022,0.14969827234745026,0.06547389924526215,0.08249445259571075,0.027500538155436516,0.12539540231227875
19.9,-0.4066198170185089,0.26960185170173645,0.20418284833431244,0.13335391879081726,0.006875354330986738,0.15372711420059204
19.95,-0.3375594913959503,0.4979182183742523,0.2952194809913635,0.23881712555885315,-0.02062109112739563,0.26832708716392517
20.0,-1.001276969909668,0.7664777636528015,0.775928258895874,0.4100987911224365,-0.02313140407204628,0.4885624349117279
20.05,-1.3758275508880615,1.1617404222488403,0.7116948366165161,0.7296099662780762,-0.019933173432946205,0.9836535453796387
20.1,-1.8297913074493408,1.18299400806427,0.24824543297290802,1.0995208024978638,-0.05893797054886818,1.7411233186721802
20.15,-1.7181322574615479,1.9494831562042236,0.8606475591659546,1.4539597034454346,-0.039530228823423386,2.5869197845458984
20.2,-0.600731372833252,4.057477951049805,3.6702966690063477,2.0287833213806152,0.007567632012069225,3.1130526065826416
20.25,-2.265145778656006,1.1853044033050537,6.612608909606934,2.2559151649475098,0.3200860917568207,2.2759735584259033
20.3,-6.420025825500488,-6.271970272064209,2.721195936203003,1.1381480693817139,1.1297491788864136,0.22766299545764923
20.35,-4.88717794418335,-4.7367658615112305,4.731899261474609,0.4861193299293518,0.9257460236549377,-0.7079282999038696
20.4,-2.310161590576172,-3.1634178161621094,6.081116199493408,-0.49510782957077026,1.9099773168563843,-0.8802199363708496
20.45,-0.36021316051483154,-1.3589816093444824,5.2506537437438965,-1.4107218980789185,3.127875566482544,-0.850653886795044
20.5,2.727454662322998,-0.22914355993270874,4.043985843658447,-1.8778318166732788,3.713183641433716,-0.9156436920166016
20.55,8.75597095489502,-0.44112062454223633,1.3616819381713867,-1.294446587562561,3.689737558364868,-1.1525077819824219
20.6,10.735586166381836,-0.09119558334350586,-8.455282211303711,0.4182116389274597,4.212112903594971,-1.7276384830474854
20.65,5.795107364654541,1.0548360347747803,-13.876558303833008,0.7178838849067688,4.333587646484375,0.07550043612718582
20.7,2.1291487216949463,0.12038207054138184,-11.68532657623291,0.5326372981071472,1.7014260292053223,1.169596791267395
20.75,5.142833709716797,6.839371681213379,-10.144912719726562,-0.08429938554763794,0.0035620916169136763,0.5545810461044312
20.8,-0.9351456165313721,1.8050298690795898,-1.8383013010025024,-0.5245175957679749,-0.14778803288936615,-0.5749317407608032
20.85,-0.7442998886108398,0.256985604763031,-0.6203212738037109,0.14016278088092804,-0.16604743897914886,-0.01288819033652544
20.9,-0.23945356905460358,0.44699764251708984,-0.32743892073631287,0.0900515764951706,-0.029360763728618622,0.2003290355205536
20.95,-0.5065028071403503,0.32320690155029297,-0.00647238502278924,0.06162474676966667,-0.003971127327531576,0.13687929511070251
21.0,0.13015639781951904,0.15436269342899323,-0.023657264187932014,0.08354402333498001,-0.004138188436627388,0.15560270845890045
21.05,-0.03465281426906586,0.1629609912633896,-0.19353532791137695,0.05852711200714111,-0.005489579867571592,0.11907332390546799
21.1,-0.27395933866500854,0.06489560753107071,-0.17600612342357635,0.017611728981137276,0.009600185789167881,0.09525348246097565
21.15,-0.17568892240524292,-0.018564242869615555,-0.07668717205524445,-0.007591843605041504,0.03523843362927437,0.08529487252235413
21.2,-0.02187681943178177,0.017498981207609177,0.08823604881763458,-0.05815090984106064,0.056355152279138565,0.04873424023389816
21.25,0.07192303240299225,0.1363859623670578,0.2797047197818756,-0.051587559282779694,0.036519210785627365,0.00847486313432455
21.3,0.06711609661579132,0.051352500915527344,-0.10448812693357468,0.043823495507240295,-0.0037729220930486917,0.026509057730436325
21.35,-0.05834343656897545,0.1445131152868271,-0.18151679635047913,0.0336238294839859,0.007825016044080257,0.03303302079439163
21.4,-0.4953051209449768,0.45586875081062317,-0.18961936235427856,0.0022018682211637497,0.03723008558154106,0.0347568579018116
21.45,-0.12133850157260895,0.011652945540845394,0.026815809309482574,0.02264539897441864,0.04256726801395416,0.08066599071025848
21.5,-0.03968591243028641,-0.03888129070401192,0.14155033230781555,0.057239893823862076,0.009542514570057392,0.11283187568187714
21.55,-0.10832272469997406,0.002920154482126236,0.07460489124059677,0.10733629763126373,-0.030167117714881897,0.12810291349887848
21.6,0.02386442944407463,-0.13357067108154297,0.07469283789396286,0.11193139106035233,-0.0380864180624485,0.10679372400045395
21.65,0.2811986804008484,-0.009373647160828114,0.06085600703954697,0.0521622858941555,-0.03131600469350815,-0.0013554822653532028
21.7,-0.18994063138961792,0.17616558074951172,-0.014322788454592228,-0.016188902780413628,-0.011278887279331684,-0.0908929854631424
21.75,-0.19436317682266235,0.22943787276744843,0.18451088666915894,-0.010843941010534763,0.0009815499652177095,-0.03638086095452309
21.8,-0.3478356897830963,0.09110735356807709,-0.08186294138431549,0.023100480437278748,-0.006535099819302559,-0.004041080828756094
21.85,-0.03771953657269478,0.08045292645692825,-0.007333717774599791,-0.033258870244026184,0.01528490986675024,0.03744563087821007
21.9,0.020680904388427734,0.0788145363330841,0.18409419059753418,-0.11322134733200073,0.030417656525969505,0.04738489165902138
21.95,0.1029074490070343,0.6154261231422424,0.1553652584552765,-0.06559310108423233,0.013260850682854652,0.057994477450847626
22.0,0.48111996054649353,0.9882460832595825,-0.23609386384487152,0.04889266937971115,-0.016461193561553955,0.0077262092381715775
22.05,0.14000988006591797,0.15893270075321198,-0.07246185839176178,0.03876187652349472,-0.03593677282333374,-0.05720716342329979
22.1,-0.27558884024620056,0.16183854639530182,0.04613439738750458,0.006177414674311876,-0.0186824481934309,-0.001817030948586762
22.15,-0.05312696099281311,0.1852436363697052,0.15069369971752167,-0.03510209918022156,0.014342418871819973,0.052397310733795166
22.2,-0.5441563129425049,0.2535143494606018,0.39074644446372986,-0.019822118803858757,0.010375548154115677,0.04636551812291145
22.25,0.4225694537162781,0.06947046518325806,0.27793222665786743,0.06233419477939606,-0.004375097807496786,0.13604718446731567
22.3,0.16275322437286377,-0.008113834075629711,0.18646764755249023,0.02076001837849617,-0.0007518416969105601,0.02741391956806183
22.35,0.01759856939315796,0.18915945291519165,0.24856191873550415,-0.05530119687318802,0.02007897011935711,-0.048001013696193695
22.4,0.17936596274375916,0.12153153121471405,0.1805209517478943,-0.09442068636417389,0.026370249688625336,-0.06577208638191223
22.45,-0.4349772334098816,0.44476231932640076,0.5069195032119751,-0.11875175684690475,0.02374148927628994,-0.07347200810909271
22.5,-0.19146868586540222,0.44909578561782837,0.14033159613609314,0.045701004564762115,-0.014510290697216988,0.08080597966909409
22.55,0.08976981043815613,0.036156680434942245,0.16721951961517334,0.10198900103569031,-0.02464843913912773,0.12752652168273926
22.6,0.1944831907749176,0.01791193336248398,0.11592540144920349,0.04324997216463089,-0.005240950733423233,0.05437342822551727
22.65,-0.005458556115627289,0.0564279742538929,0.10211935639381409,-0.022208914160728455,0.011474977247416973,-0.028606941923499107
22.7,-0.21742792427539825,0.15745070576667786,0.24586406350135803,-0.05099387839436531,0.01265621092170477,-0.05486012622714043
22.75,-0.05545191466808319,0.12801651656627655,0.22861634194850922,-0.03561187535524368,0.005376450717449188,-0.015906374901533127
22.8,0.01457979902625084,0.0764637216925621,0.1594814956188202,-0.027165208011865616,0.00481871422380209,-0.0006672650342807174
22.85,0.016091246157884598,0.1769867241382599,0.193047896027565,-0.024992909282445908,0.005841260775923729,-0.008122061379253864
22.9,-0.012702003121376038,0.050707850605249405,0.24215108156204224,-0.030757738277316093,0.009944857098162174,-0.006358752492815256
22.95,-0.005990549921989441,-0.02258964255452156,0.38162142038345337,-0.04664089158177376,0.014263818971812725,-0.006239255890250206
23.0,-0.027844637632369995,0.3657284677028656,0.4360559582710266,-0.00693881418555975,-0.0005060663097538054,0.023899639025330544
23.05,-0.14685805141925812,0.7431021332740784,0.3117705285549164,0.09079927951097488,-0.027232032269239426,0.0893997848033905
23.1,0.0977768525481224,0.39307695627212524,-0.06348247826099396,0.12920628488063812,-0.03649941086769104,0.1130453422665596
23.15,0.2368181049823761,0.0834084004163742,0.2142927348613739,0.06799787282943726,-0.014919674023985863,0.04490143433213234
23.2,-0.03895867243409157,0.17178061604499817,0.15560409426689148,0.013136927038431168,-0.002906128065660596,-0.020954273641109467
23.25,0.0017297044396400452,0.13985924422740936,0.25984713435173035,-0.019494343549013138,0.0012266413541510701,-0.025539500638842583
23.3,-0.013036184012889862,0.11232667416334152,0.3370211124420166,-0.03632437065243721,0.00547944288700819,-0.02216631919145584
23.35,-0.03476852923631668,0.1490984410047531,0.24635425209999084,-0.02635537087917328,0.005390030797570944,-0.015459347516298294
23.4,-0.03333711624145508,0.14938168227672577,0.28886210918426514,-0.008228670805692673,-0.0021567833609879017,0.0027690259739756584
23.45,-0.025687627494335175,0.11634354293346405,0.26303666830062866,-0.002322415355592966,-0.0033607047516852617,0.019024604931473732
23.5,0.009425543248653412,0.18245796859264374,0.31225308775901794,-0.006812885869294405,-0.000578352774027735,0.023891886696219444
23.55,0.03664029389619827,0.0897856280207634,0.3946010172367096,-0.013477076776325703,0.0011408849386498332,0.01134294830262661
23.6,-0.14461368322372437,0.23021990060806274,0.3747892677783966,0.019262166693806648,-0.005843529012054205,0.018849611282348633
23.65,-0.06204605847597122,0.1202421635389328,0.3178430199623108,0.09659038484096527,-0.02601911872625351,0.07092391699552536
23.7,0.22674232721328735,0.1555357575416565,0.31506767868995667,0.10408006608486176,-0.02754548005759716,0.08522211760282516
23.75,-0.07597944140434265,0.05796816945075989,0.24380925297737122,0.06502231955528259,-0.01882392354309559,0.027623014524579048
23.8,-0.08605155348777771,-0.27458950877189636,0.5118948817253113,0.044939421117305756,-0.01380119752138853,0.037535011768341064
23.85,-0.20693404972553253,0.10354997217655182,0.07933191955089569,0.061351478099823,-0.016130125150084496,0.05222565308213234
23.9,0.04387491196393967,0.0778227224946022,0.2277166247367859,0.0340256541967392,-0.010837333276867867,0.041204385459423065
23.95,0.0547538660466671,0.15720276534557343,0.2666011154651642,-0.0017380164936184883,0.0010947756236419082,0.009169915691018105
24.0,-0.02165774255990982,0.10303883254528046,0.28828108310699463,-0.011976292356848717,0.0011875845957547426,0.005606197286397219
24.05,-0.00811765342950821,0.12456898391246796,0.2964922785758972,-0.013372623361647129,0.0002857996441889554,0.02194252610206604
24.1,-0.05084160715341568,0.22587402164936066,0.35754379630088806,-0.018714308738708496,0.0011520785046741366,0.009088637307286263
24.15,-0.15643161535263062,0.03586488217115402,0.48752307891845703,0.029201947152614594,-0.012775234878063202,0.04166366159915924
24.2,0.10784818232059479,-0.9050312638282776,0.49843519926071167,0.11353792995214462,-0.032337259501218796,0.11432986706495285
24.25,0.16187183558940887,-0.11215493083000183,0.3480234742164612,0.14764028787612915,-0.02200569398701191,0.1408175826072693
24.3,0.042750705033540726,0.22979454696178436,0.14365287125110626,0.09244562685489655,-0.013544611632823944,0.08289432525634766
24.35,0.12776385247707367,0.08056358993053436,0.2858085632324219,0.0374203659594059,-0.008277256973087788,0.05550384894013405
24.4,-0.014137111604213715,0.0064611718989908695,0.2512860894203186,0.015206550247967243,-0.0034160108771175146,0.025752630084753036
24.45,0.183054119348526,-0.03821178525686264,0.3138203024864197,0.018533745780587196,-0.00024293850583489984,0.012035788968205452
24.5,0.19422540068626404,0.39179810881614685,0.24345530569553375,-0.012033199891448021,0.019938325509428978,-0.035934023559093475
24.55,-0.03986627981066704,0.14578154683113098,0.1911613494157791,-0.023440774530172348,0.009991118684411049,-0.026621133089065552
24.6,0.16262413561344147,0.18783099949359894,0.3425508737564087,-0.058515213429927826,0.016161354258656502,-0.025856077671051025
24.65,0.026543818414211273,0.09902482479810715,0.29354485869407654,-0.0930851474404335,0.02469044364988804,-0.05343138054013252
24.7,-0.23084983229637146,0.2167873978614807,0.3444415032863617,-0.08567578345537186,0.019208941608667374,-0.044840965420007706
24.75,-0.07697519659996033,0.14619261026382446,0.41655126214027405,0.02146562747657299,-0.008966261520981789,0.032646238803863525
24.8,0.10673053562641144,0.03530123829841614,0.1782761514186859,0.12117021530866623,-0.03193572163581848,0.10507652163505554
24.85,0.056342631578445435,0.42477232217788696,0.038484126329422,0.08722177147865295,-0.02057603746652603,0.0637228935956955
24.9,0.05195168778300285,0.05724528431892395,0.17612440884113312,0.03729582950472832,-0.006609715521335602,0.01693013310432434
24.95,-0.06120315566658974,0.07609941810369492,0.17410750687122345,0.0021602120250463486,-0.0024943179450929165,-0.007876351475715637
25.0,0.02833515778183937,0.12593846023082733,0.2214992791414261,-0.02851710468530655,0.0038927646819502115,-0.019774002954363823
25.05,0.027010463178157806,0.0845365822315216,0.18282757699489594,-0.05908692628145218,0.014171765185892582,-0.04091617092490196
25.1,-0.06643976271152496,0.19428735971450806,0.29038870334625244,-0.08535425364971161,0.02243630401790142,-0.060952361673116684
25.15,0.06064506992697716,0.15193848311901093,0.25397950410842896,-0.08480986952781677,0.018851185217499733,-0.05043883994221687
25.2,-0.04437268525362015,0.4055958688259125,0.1696663647890091,-0.10400190949440002,0.018775038421154022,-0.06075997278094292
25.25,-0.09523168206214905,0.33868128061294556,0.3029804527759552,-0.04063744843006134,0.007650549989193678,-0.025503652170300484
25.3,-0.05218356102705002,0.41298016905784607,0.30376744270324707,0.009818855673074722,-0.003535978030413389,0.008572317659854889
25.35,0.15210703015327454,1.3665400743484497,0.06007680296897888,0.03921014815568924,-0.010222631506621838,0.017606237903237343
25.4,0.08166205883026123,0.09230713546276093,0.27077770233154297,0.058275677263736725,-0.01947801373898983,0.03945915773510933
25.45,-0.017283417284488678,0.0740995779633522,0.28572753071784973,0.045326460152864456,-0.013094293884932995,0.020507382228970528
25.5,0.008234754204750061,0.11774734407663345,0.21509753167629242,0.020662415772676468,-0.004031581338495016,0.007682301569730043
25.55,0.0044539496302604675,0.13011841475963593,0.2635748088359833,-0.018339497968554497,0.0039566983468830585,-0.013417498208582401
25.6,-0.017262332141399384,0.09094814211130142,0.2550086975097656,-0.049594685435295105,0.008896232582628727,-0.0326840877532959
25.65,-0.05827384442090988,0.14275841414928436,0.3235767185688019,-0.058839574456214905,0.01204515341669321,-0.03676123917102814
25.7,-0.028933733701705933,0.1670856922864914,0.23020918667316437,-0.0627356693148613,0.016428815200924873,-0.04422423616051674
25.75,0.01289350539445877,0.5299578309059143,0.2448958158493042,-0.06470632553100586,0.014228171668946743,-0.05395699664950371
25.8,-0.0669306069612503,0.46668344736099243,0.091956727206707,-0.06976412236690521,0.00955210905522108,-0.033525265753269196
25.85,-0.1483498066663742,0.24216563999652863,0.459250271320343,-0.03343723714351654,-0.0014901700196787715,0.012424588203430176
25.9,0.019348077476024628,0.0005102552240714431,0.34737759828567505,0.06692706048488617,-0.023316306993365288,0.07933253794908524
25.95,0.1474602371454239,0.08707527816295624,0.28492471575737,0.061166126281023026,-0.015500634908676147,0.04702019691467285
26.0,-0.06116960942745209,0.14078716933727264,0.23058182001113892,0.03722590208053589,-0.007950003258883953,-0.0018159169703722
26.05,-0.014366686344146729,0.16806606948375702,0.23529812693595886,0.027202971279621124,-0.007981497794389725,-0.0003043795295525342
26.1,0.013771884143352509,0.06086829677224159,0.22404398024082184,0.0027313975151628256,-0.0033450976479798555,0.004957820754498243
26.15,-0.024706266820430756,0.07300762087106705,0.2528938949108124,-0.03162959963083267,0.005473162513226271,-0.0062973336316645145
26.2,0.022180303931236267,0.20188911259174347,0.36876368522644043,-0.055871203541755676,0.014698479324579239,-0.022402526810765266
26.25,0.15659689903259277,0.29380422830581665,0.32020699977874756,-0.0670216977596283,0.014359036460518837,-0.026104887947440147
26.3,-0.12746763229370117,0.6347665786743164,-0.3161337971687317,-0.07357367128133774,0.005086066666990519,-0.028003623709082603
26.35,-0.03951820731163025,0.22802074253559113,0.38260331749916077,-0.0008383351378142834,-0.00476335734128952,0.004602478817105293
26.4,0.31581437587738037,0.2093716412782669,0.3327195644378662,0.04701943323016167,-0.010421281680464745,0.023714633658528328
26.45,-0.027842871844768524,0.26553064584732056,0.2657943367958069,0.042767252773046494,-0.009795436635613441,0.011685426346957684
26.5,0.06277590990066528,0.11387161165475845,0.20054276287555695,0.018949996680021286,-0.005467771086841822,-0.002208604710176587
26.55,-0.046273842453956604,0.19561773538589478,0.2488640993833542,-0.017945678904652596,0.0034707477316260338,-0.038199879229068756
26.6,0.017394378781318665,0.31592661142349243,0.2437739223241806,-0.03188338875770569,0.0018481104634702206,-0.027772367000579834
26.65,-0.06757213175296783,0.12238316982984543,0.3377613425254822,-0.0476960651576519,0.004999139346182346,-0.03376099839806557
26.7,-0.01759134978055954,0.10872940719127655,0.25092220306396484,-0.03380631282925606,0.0031921009067445993,-0.010233577340841293
26.75,-0.08568230271339417,0.09395316988229752,0.23368549346923828,-0.04297810420393944,0.007195654325187206,-0.019147228449583054
26.8,0.04400467872619629,0.0831938087940216,0.18968932330608368,-0.05895578861236572,0.01461488101631403,-0.02650732547044754
26.85,-0.18279173970222473,0.24874025583267212,0.3059612214565277,-0.06464407593011856,0.011904595419764519,-0.034621648490428925
26.9,-0.11092748492956161,0.24854570627212524,0.3253922760486603,0.03975377976894379,-0.009406857192516327,0.028562795370817184
26.95,-0.04587714374065399,0.21758942306041718,0.1803826093673706,0.09895877540111542,-0.029350971803069115,0.07802119851112366
27.0,0.20105519890785217,0.20975403487682343,0.057155754417181015,0.08933866769075394,-0.022816315293312073,0.08086173236370087
27.05,-0.00029777735471725464,0.1402616947889328,0.2049284726381302,0.030317483469843864,-0.008552160114049911,0.010279004462063313
27.1,-0.0854690670967102,0.1925993412733078,0.2007051408290863,0.0006367592141032219,-0.0020102444104850292,-0.015508728101849556
27.15,-0.022694334387779236,0.2006426453590393,0.26127898693084717,-0.009099011309444904,0.000816232874058187,-0.004726802930235863
27.2,-0.07397349178791046,0.13620857894420624,0.23292496800422668,-0.027504470199346542,0.007361069321632385,-0.02055063471198082
27.25,-0.031813450157642365,0.12933258712291718,0.24409930408000946,-0.038164153695106506,0.011466873809695244,-0.01831948570907116
27.3,-0.09852397441864014,0.13973715901374817,0.2185148447751999,-0.05265094339847565,0.015896376222372055,-0.016599930822849274
27.35,-0.11883332580327988,0.31858164072036743,0.3611866533756256,-0.05029885098338127,0.011036970652639866,-0.007971546612679958
27.4,-0.09807959198951721,0.1962462067604065,0.3013148307800293,0.02139587700366974,-0.010685902088880539,0.05177106335759163
27.45,0.3118264675140381,0.18331244587898254,0.045318469405174255,0.06548522412776947,-0.017440741881728172,0.08352562040090561
27.5,0.07844337075948715,0.09017947316169739,0.18934838473796844,0.04318476468324661,-0.0062654525972902775,0.013514777645468712
27.55,0.006718382239341736,0.14180760085582733,0.23585589230060577,0.015916481614112854,-0.0013459473848342896,-0.030132634565234184
27.6,-0.1236402690410614,0.2032814472913742,0.23803068697452545,0.008977832272648811,-0.004275870975106955,-0.028169706463813782
27.65,0.02764134854078293,0.14089491963386536,0.17251446843147278,0.013260476291179657,-0.008546731434762478,0.0008207525825127959
27.7,-0.08007345348596573,0.2444792240858078,0.13106107711791992,-0.005530132446438074,0.004548768978565931,-0.013863002881407738
27.75,0.47795066237449646,2.410036325454712,-0.45201465487480164,-0.022596005350351334,0.0019228251185268164,0.002680697711184621
27.8,-0.04041657596826553,0.21799664199352264,0.21303385496139526,-0.019223986193537712,0.000724613550119102,0.008309245109558105
27.85,-0.03694113343954086,0.03638365492224693,0.21255344152450562,-0.027093961834907532,0.006452907808125019,0.007601842284202576
27.9,0.07303968071937561,0.12290101498365402,0.2803182303905487,-0.03645901009440422,0.00899023562669754,0.0035307074431329966
27.95,-0.24388498067855835,0.24137121438980103,0.3092191219329834,-0.03486643731594086,-0.004945368506014347,-0.00027985835913568735
28.0,-0.05284516513347626,0.16705898940563202,0.351518839597702,0.03234938532114029,-0.012499983422458172,0.06082150340080261
28.05,-0.15605077147483826,0.19760136306285858,0.13938672840595245,0.08165302872657776,-0.025247875601053238,0.0773138552904129
28.1,0.14797136187553406,0.2117815762758255,0.3681308627128601,0.07160346210002899,-0.02010216936469078,0.05834599956870079
28.15,-0.08113584667444229,0.3808651566505432,0.07673962414264679,0.05076366290450096,-0.012980179861187935,0.037275902926921844
28.2,-0.1980593502521515,0.11440089344978333,0.22122204303741455,0.02633083611726761,-0.005473196040838957,0.039307668805122375
28.25,-0.10718880593776703,0.16551880538463593,0.27895021438598633,0.00282401405274868,-0.004269832745194435,0.0883525088429451
28.3,0.0009397827088832855,0.05721190199255943,0.1832038164138794,-0.012012120336294174,-0.0023097344674170017,0.11927400529384613
28.35,0.042822349816560745,0.10988526046276093,0.2666068971157074,-0.0222593042999506,0.0019193921471014619,0.07087773084640503
28.4,0.05382103472948074,0.03142838925123215,0.404206782579422,-0.05658603087067604,0.009218862280249596,0.032959964126348495
28.45,-0.24782806634902954,0.3580380082130432,0.3064444363117218,-0.07180041074752808,0.016220534220337868,-0.026750313118100166
28.5,-0.21244844794273376,0.4535532593727112,-0.038149233907461166,-0.03796271234750748,-0.0064030238427221775,0.05456581339240074
28.55,-0.12257642298936844,0.12132646143436432,0.07000462710857391,-0.01905941218137741,-0.016325267031788826,0.11580024659633636
28.6,0.15378355979919434,0.08565426617860794,-0.05640599876642227,-0.029292196035385132,0.003724262584000826,0.04494677484035492
28.65,-0.6971861124038696,-0.40020307898521423,-2.1838066577911377,-0.056698866188526154,0.029596900567412376,-0.06847239285707474
28.7,-0.05028495937585831,0.5635510087013245,0.1479315310716629,-0.11773951351642609,0.01466961670666933,-0.06298473477363586
28.75,-0.1492161750793457,-0.17237944900989532,0.6212732195854187,-0.21100540459156036,0.008386281318962574,0.08267456293106079
28.8,0.0018807537853717804,0.33754828572273254,0.11908857524394989,-0.28591784834861755,-0.0273007620126009,0.20111525058746338
28.85,0.22406405210494995,0.1843196004629135,0.6523838043212891,-0.38235798478126526,-0.07533389329910278,0.2726079225540161
28.9,-0.18035808205604553,0.9247399568557739,-0.14151698350906372,-0.3829990327358246,-0.08054613322019577,0.2819564938545227
28.95,-0.29331815242767334,-0.4309273064136505,0.4195273220539093,-0.5203820466995239,-0.08988616615533829,0.34881529211997986
29.0,-0.02904859185218811,-0.7730474472045898,0.9912921786308289,-0.26800036430358887,-0.04013647511601448,0.24699470400810242
29.05,0.22762030363082886,-0.906315803527832,0.8812991380691528,0.10186070948839188,0.027436131611466408,0.21882952749729156
29.1,0.6021632552146912,-0.13477228581905365,0.05400171875953674,0.5661413073539734,0.020835760980844498,-0.07095804810523987
29.15,-1.1173783540725708,0.6133098006248474,-0.514091432094574,0.5762329697608948,-0.00854488369077444,-0.40821415185928345
29.2,-0.2379753142595291,0.2102079838514328,0.21166260540485382,0.10962816327810287,-0.011086240410804749,-0.06602227687835693
29.25,0.27077603340148926,0.34453874826431274,0.24787256121635437,0.05366956442594528,-0.006999144330620766,0.012147500179708004
29.3,-0.23757770657539368,0.17574791610240936,0.37314948439598083,-0.022177917882800102,0.0011722553754225373,-0.0289356280118227
29.35,-0.09036210179328918,0.11382584273815155,0.27958911657333374,0.028272811323404312,-0.007764512673020363,-0.02628226950764656
29.4,0.10784496366977692,-0.002745585050433874,0.3501700460910797,0.11638493090867996,-0.007915124297142029,-0.05649731308221817
29.45,0.11238911747932434,0.24561792612075806,0.20000965893268585,0.13750773668289185,-0.007942584343254566,-0.11717212945222855
29.5,-0.05761009454727173,0.16479496657848358,0.27026382088661194,0.1054832935333252,-0.0022613888140767813,-0.13772015273571014
29.55,-0.0875435620546341,0.10877708345651627,0.24142900109291077,0.07421742379665375,-0.00677051767706871,-0.1889130175113678
29.6,-0.11351846903562546,0.1348295658826828,0.3635387122631073,0.09844714403152466,-0.016849184408783913,-0.17250584065914154
29.65,1.298741102218628,-0.20429319143295288,0.32285961508750916,0.0744103193283081,-0.01802448369562626,-0.23477201163768768
29.7,-0.9761919379234314,0.8741140961647034,-0.34931036829948425,0.08291324973106384,-0.034169264137744904,-0.3400067389011383
29.75,0.3802260458469391,0.1354084610939026,0.19218496978282928,0.06726685166358948,-0.02601783163845539,-0.1431308537721634
29.8,-0.35316500067710876,0.24168305099010468,0.3336707353591919,0.006766773760318756,-0.023759523406624794,-0.24659308791160583
29.85,-0.2306767702102661,0.055459048599004745,0.26598310470581055,0.02872421406209469,-0.02479957602918148,-0.10025481879711151
29.9,0.11533136665821075,0.10106665641069412,0.42985060811042786,0.03692680597305298,-0.028622014448046684,-0.03352787718176842
29.95,-0.2900192439556122,0.32918742299079895,0.011592069640755653,0.043974533677101135,-0.028191523626446724,-0.07971988618373871
30.0,-0.2994229197502136,0.13555625081062317,0.2285131812095642,0.025383252650499344,-0.020427148789167404,-0.05331076681613922
30.05,-0.09043268859386444,0.1584063023328781,0.2982344627380371,0.043594785034656525,-0.024575281888246536,0.02567887492477894
30.1,-0.283072292804718,0.408484548330307,0.26290208101272583,0.10948532819747925,-0.04258139804005623,0.08168067783117294
30.15,0.10274844616651535,0.7067785859107971,0.18632107973098755,0.1551385223865509,-0.04799031466245651,0.12608611583709717
30.2,0.06178183853626251,0.3837500214576721,0.10911194980144501,0.1658179759979248,-0.04893979802727699,0.09084220230579376
30.25,-0.07339578121900558,0.17069339752197266,-0.05987941846251488,0.1533513069152832,-0.044068463146686554,0.049792755395174026
30.3,-0.03901861608028412,0.05116943642497063,0.31613948941230774,0.09840594232082367,-0.029138952493667603,0.04675062373280525
30.35,0.18212825059890747,0.03323844447731972,0.19192719459533691,0.024601249024271965,-0.006020570173859596,0.04812625050544739
30.4,0.0416000559926033,0.08805374056100845,0.2544858157634735,-0.01915794238448143,0.0018039322458207607,-0.011540793813765049
30.45,-0.09496962279081345,0.10396961122751236,0.2406281977891922,-0.03544556722044945,0.004999034106731415,-0.017596136778593063
30.5,-0.19429728388786316,0.2745409607887268,0.29475852847099304,-0.036913566291332245,0.007688155863434076,-0.007034710608422756
30.55,-0.11564206331968307,0.3050718903541565,0.39460065960884094,0.022382814437150955,-0.011327189393341541,0.03425697982311249
30.6,-0.13026869297027588,0.14429862797260284,0.5698211789131165,0.11501339077949524,-0.03773650527000427,0.08585207909345627
30.65,0.06114618480205536,0.0028715585358440876,0.38025733828544617,0.185829296708107,-0.05174912139773369,0.09169560670852661
30.7,0.08999086916446686,-0.0758943185210228,0.3757159113883972,0.14107534289360046,-0.05205908417701721,0.06702814251184464
30.75,0.0799604058265686,0.029263515025377274,0.10987358540296555,0.04347486048936844,-0.021808447316288948,0.02338305488228798
30.8,-0.08464112877845764,0.14807036519050598,0.20437972247600555,-0.03445885330438614,0.008074929937720299,-0.022065075114369392
30.85,0.14302903413772583,0.16802506148815155,0.2529960572719574,-0.06856440007686615,0.017395976930856705,-0.028521373867988586
30.9,0.08684632182121277,0.12832550704479218,0.2543444037437439,-0.09998466074466705,0.02678793855011463,-0.04853304103016853
30.95,-0.11320552229881287,0.1879740208387375,0.23975175619125366,-0.11349710822105408,0.02687457948923111,-0.06305592507123947
31.0,-0.27492934465408325,0.27775388956069946,0.36253848671913147,-0.07373540103435516,0.01577586866915226,-0.037440601736307144
31.05,-0.06729675829410553,0.2879858613014221,0.35184231400489807,0.03548590838909149,-0.017751291394233704,0.028253396973013878
31.1,-0.07525317370891571,0.06210232526063919,0.013906985521316528,0.08285697549581528,-0.03631799668073654,0.05905338376760483
31.15,0.05455219745635986,0.08463100343942642,0.22201114892959595,0.02798599749803543,-0.01838025450706482,0.04427076503634453
31.2,0.07734063267707825,0.053104422986507416,0.10076659917831421,-0.002151407767087221,-0.00673897797241807,0.021182429045438766
31.25,-0.040944673120975494,0.08411124348640442,0.21006576716899872,-0.051599517464637756,0.010287141427397728,-0.0211962778121233
31.3,-0.11143255233764648,0.0983743891119957,0.12944908440113068,-0.06764616072177887,0.014890563674271107,-0.03233581408858299
31.35,-0.053183697164058685,0.16207413375377655,0.26303067803382874,-0.08006486296653748,0.016352243721485138,-0.03819843754172325
31.4,0.039697181433439255,0.11279110610485077,0.2295835316181183,-0.0688244104385376,0.013613797724246979,-0.02741638571023941
31.45,0.11379344016313553,0.16386990249156952,0.25789007544517517,-0.0711996778845787,0.018201889470219612,-0.030181962996721268
31.5,-0.04906295984983444,0.15879063308238983,0.34440168738365173,-0.08522510528564453,0.021786361932754517,-0.05303538963198662
31.55,-0.17251726984977722,0.2153187394142151,0.3132258951663971,-0.04722076281905174,0.01085844449698925,-0.04557448998093605
31.6,-0.0688236877322197,0.11086276918649673,0.25377315282821655,0.02493869885802269,-0.01053505577147007,-0.015236703678965569
31.65,-0.12090699374675751,-0.042582523077726364,-0.005333853419870138,0.062472179532051086,-0.02672748453915119,-0.00969437975436449
31.7,0.03273916244506836,0.14185622334480286,0.1364130824804306,0.019712645560503006,-0.016922099515795708,-0.035392384976148605
31.75,-0.05941637232899666,0.08612062782049179,0.12526054680347443,0.005989380180835724,-0.014258228242397308,-0.054045017808675766
31.8,-0.02418844774365425,0.18709662556648254,0.19055353105068207,-0.018365154042840004,-0.0036618548911064863,-0.0453215129673481
31.85,-0.11944632977247238,0.11912252753973007,0.1383451670408249,-0.02672560326755047,0.004573045298457146,-0.03419138863682747
31.9,0.06345129013061523,0.14748099446296692,0.17008456587791443,-0.03923366218805313,0.009448661468923092,-0.018162978813052177
31.95,-0.15596100687980652,0.1748209297657013,0.15165753662586212,-0.050867076963186264,0.013182372786104679,-0.03955283761024475
32.0,0.06805828213691711,0.08297255635261536,0.17031429708003998,-0.053446214646101,0.015771055594086647,-0.016166843473911285
32.05,0.1827600598335266,-0.5567063689231873,1.1127389669418335,-0.07724366337060928,0.022827215492725372,-0.045456476509571075
32.1,-0.14174574613571167,0.039530787616968155,0.3211975395679474,-0.07684256881475449,0.014863369055092335,-0.060282014310359955
32.15,-0.17868493497371674,0.2293119877576828,0.2395913004875183,-0.0008520763367414474,-0.0073023829609155655,-0.01356962975114584
32.2,-0.08251431584358215,-0.041947368532419205,0.040115829557180405,0.10107792168855667,-0.04134618863463402,0.053600940853357315
32.25,0.1423501968383789,0.21714121103286743,0.207070991396904,0.08502206951379776,-0.035631127655506134,0.04710839316248894
32.3,-0.12537530064582825,0.2193145900964737,-0.08858047425746918,0.07326286286115646,-0.03453679755330086,0.01018483005464077
32.35,-0.11427746713161469,0.13858701288700104,0.06208973377943039,0.01274717878550291,-0.009847773239016533,0.003988947253674269
32.4,-0.11233822256326675,0.11836721748113632,0.10617728531360626,-0.021695559844374657,0.0025960183702409267,-6.49347566650249e-05
32.45,0.0766756609082222,0.09514621645212173,0.14465774595737457,-0.044618312269449234,0.012622417882084846,0.011320624500513077
32.5,-0.02914305403828621,0.0846262201666832,0.1740998923778534,-0.06683371961116791,0.022083444520831108,-0.017610281705856323
32.55,-0.10288765281438828,0.07693768292665482,0.04818940907716751,-0.08853106200695038,0.028767239302396774,-0.03565049171447754
32.6,0.03519051522016525,0.1470356285572052,0.16038517653942108,-0.11714400351047516,0.034288905560970306,-0.054304346442222595
32.65,-0.15524007380008698,0.2600889801979065,0.35756629705429077,-0.09593997150659561,0.021700888872146606,-0.04397077485918999
32.7,0.04734014719724655,0.12943463027477264,0.25144055485725403,0.01651545986533165,-0.008822016417980194,0.008117076940834522
32.75,0.115470752120018,0.2046995609998703,0.12448392808437347,0.0669134184718132,-0.028665734454989433,0.012436149641871452
32.8,0.17301616072654724,0.05566124990582466,0.30704522132873535,0.032447606325149536,-0.023305511102080345,-0.029013264924287796
32.85,-0.07018915563821793,0.15373995900154114,0.14340634644031525,0.0063221147283911705,-0.013508851639926434,-0.04622073844075203
32.9,-0.07449042797088623,0.10380079597234726,0.10704873502254486,-0.027061529457569122,0.005986018106341362,-0.04617597162723541
32.95,-0.201869398355484,0.11551954597234726,0.13138100504875183,-0.04695824533700943,0.01702415943145752,-0.059237364679574966
33.0,-0.009488195180892944,0.09507467597723007,0.07656902819871902,-0.0420105941593647,0.01802971586585045,-0.02527862973511219
33.05,-0.06319072842597961,0.20938017964363098,0.0563696064054966,-0.05623780936002731,0.019094843417406082,-0.02210395038127899
33.1,-0.061761461198329926,0.1845102459192276,0.07360336184501648,-0.061296142637729645,0.016395870596170425,-0.003027539700269699
33.15,-0.20510554313659668,0.09512807428836823,0.06564776599407196,-0.07551614940166473,0.024798257276415825,0.022404227405786514
33.2,0.035733699798583984,-0.1634015440940857,0.7009683847427368,-0.07704059779644012,0.025726892054080963,0.061514709144830704
33.25,-0.05045729875564575,0.27265840768814087,0.4160579741001129,-0.04757775366306305,0.015720698982477188,0.09829644113779068
33.3,0.24029791355133057,0.3811865746974945,0.20974723994731903,0.06634736061096191,-0.015942266210913658,0.10852374136447906
33.35,0.08138833940029144,0.09078123420476913,0.09380752593278885,0.07522331178188324,-0.023074069991707802,0.005960295908153057
33.4,0.21485969424247742,0.14327912032604218,0.1694197952747345,0.033273983746767044,-0.01573282852768898,-0.074535071849823
33.45,-0.06962459534406662,0.1799764782190323,0.09340798109769821,0.039773039519786835,-0.03344973549246788,-0.13259698450565338
33.5,-0.4266055226325989,0.13901424407958984,0.05917231738567352,0.008629463613033295,-0.029597660526633263,-0.14992474019527435
33.55,-0.28378477692604065,-0.07461162656545639,0.5116055011749268,-0.04606330394744873,0.018543092533946037,-0.14462418854236603
33.6,0.28173553943634033,-0.05638407543301582,0.05107765644788742,-0.08023007214069366,0.04219725355505943,-0.19868312776088715
33.65,-0.19333937764167786,0.14151951670646667,-0.29960545897483826,-0.17004504799842834,0.008619766682386398,-0.17708232998847961
33.7,-1.0150160789489746,0.5066080093383789,0.11283248662948608,-0.1490892618894577,0.029273157939314842,-0.06491277366876602
33.75,0.011577676981687546,0.28052428364753723,0.053807906806468964,0.02632964216172695,-0.0011290977708995342,0.12941913306713104
33.8,0.2196732759475708,0.23734480142593384,0.13647660613059998,0.06062321364879608,-0.005857408046722412,0.11539168655872345
33.85,0.16785289347171783,0.15139012038707733,0.2563103139400482,0.050692543387413025,-0.005625292658805847,0.08583778887987137
33.9,0.120380699634552,0.04754641279578209,0.12006933987140656,0.004504422657191753,-0.0023738741874694824,0.016573261469602585
33.95,-0.007462380453944206,0.19826321303844452,0.07748100161552429,-0.03659864515066147,0.003357526147738099,-0.05548285320401192
34.0,0.23254676163196564,0.33260634541511536,0.03638509288430214,-0.011410973966121674,-0.0010877350578084588,-0.033386509865522385
34.05,-0.7790281176567078,0.47036081552505493,0.32426178455352783,-0.023051489144563675,-0.013188512995839119,-0.08837594091892242
34.1,-0.05754426121711731,0.23981577157974243,0.2386981099843979,0.010983697138726711,-0.0023745237849652767,-0.0199341531842947
34.15,0.015166237950325012,0.18703272938728333,0.1708255261182785,0.017612934112548828,-0.007924002595245838,-0.07341144233942032
34.2,-0.5169306993484497,0.4242716431617737,0.11006391048431396,0.0554286353290081,-0.036376114934682846,-0.09270992130041122
34.25,0.08798293769359589,0.1506338268518448,-0.08282943069934845,0.10587099194526672,-0.05073923245072365,-0.018544944003224373
34.3,-0.061288297176361084,0.21977904438972473,0.08721383661031723,0.02002030238509178,-0.005065178498625755,-0.08606979250907898
34.35,-0.13892948627471924,-0.06899835169315338,0.0003566100785974413,-0.01798662170767784,0.014608997851610184,-0.011858122423291206
34.4,0.48787859082221985,0.17701824009418488,0.3862924575805664,-0.08073028922080994,0.04509955644607544,-0.07621684670448303
34.45,1.0423542261123657,0.28837403655052185,0.24955448508262634,-0.04988584667444229,-0.01742701418697834,-0.17349013686180115
34.5,-0.7277553081512451,0.28036975860595703,0.008517447859048843,-0.03669322282075882,-0.05302270129323006,-0.37098994851112366
34.55,-1.435085654258728,0.1256227195262909,0.10110552608966827,0.000737067312002182,-0.020103225484490395,-0.14163820445537567
34.6,1.361583948135376,-0.00047008777619339526,0.13002443313598633,0.0300794318318367,0.02538929134607315,0.16037188470363617
34.65,-0.3631826341152191,0.1381378322839737,0.1342155933380127,-0.03099704720079899,0.01738925278186798,-0.14346782863140106
34.7,-0.809450089931488,0.10534476488828659,0.08964931964874268,0.034039683640003204,0.0002980888239108026,-0.04343641549348831
34.75,0.3931382894515991,0.4289427399635315,-0.26045849919319153,0.10255850106477737,0.004620453808456659,0.27738624811172485
34.8,0.6198221445083618,0.15168863534927368,0.20226933062076569,0.045242372900247574,0.0021987450309097767,0.2875017523765564
34.85,0.23957011103630066,0.2606125771999359,0.42522498965263367,0.025455845519900322,-0.01134553924202919,0.12898173928260803
34.9,-0.20322658121585846,0.32131484150886536,0.13358841836452484,0.09939686208963394,-0.05126737430691719,0.02465757355093956
34.95,-0.3744974732398987,0.38111400604248047,-0.4102409780025482,0.12509426474571228,-0.04382501170039177,0.08722057193517685
35.0,-0.06425109505653381,-0.13526824116706848,-0.07898721843957901,0.08808964490890503,-0.021352289244532585,0.19577249884605408
35.05,0.05073757469654083,0.05376339703798294,-0.007893260568380356,0.008834820240736008,-0.0006029116339050233,0.13626736402511597
35.1,0.19671852886676788,0.06359580159187317,0.1202746331691742,-0.0686182752251625,0.025208722800016403,0.02395525947213173
35.15,0.04778497666120529,0.1572161167860031,0.3149937391281128,-0.16712519526481628,0.0509965755045414,-0.10974546521902084
35.2,-0.3101692199707031,0.28327372670173645,0.2204926759004593,-0.12275336682796478,0.03920534998178482,-0.05758929252624512
35.25,-0.19771085679531097,0.24875545501708984,-0.1974664330482483,-0.08535372465848923,0.03887099772691727,0.051655951887369156
35.3,-0.034452810883522034,0.16289617121219635,0.0780157521367073,-0.06988228857517242,0.036014072597026825,0.0938592404127121
35.35,0.1807427704334259,0.1467943638563156,0.23694002628326416,-0.009222380816936493,0.01389055885374546,0.050071053206920624
35.4,-0.17951549589633942,0.14916709065437317,0.15094730257987976,0.015364505350589752,0.0047065094113349915,-0.00047064796672202647
35.45,-0.13212868571281433,0.23921304941177368,0.27452027797698975,0.032417573034763336,0.005906478501856327,0.052630770951509476
35.5,0.32061439752578735,0.10595041513442993,0.26139089465141296,0.0584539920091629,0.005127982702106237,0.08406979590654373
35.55,-0.05956938862800598,0.06092549487948418,0.06934276223182678,0.04742037504911423,-0.010549429804086685,-0.029906274750828743
35.6,-0.06641042232513428,0.1389351189136505,0.16355183720588684,-0.009798506274819374,-0.012682769447565079,-0.04749477282166481
35.65,-0.16760402917861938,0.03257467597723007,0.22145725786685944,-0.010002038441598415,-0.02187512256205082,-0.025609271600842476
35.7,-0.14027874171733856,0.26937201619148254,0.03405469283461571,0.029887286946177483,-0.025348130613565445,-0.0163362268358469
35.75,-0.12888500094413757,0.11385728418827057,0.06009870022535324,0.027047693729400635,-0.016752053052186966,0.012225274927914143
35.8,-0.06432829797267914,0.08627225458621979,0.12363631278276443,0.008358258754014969,-0.0030541843734681606,0.030690625309944153
35.85,-0.05198247730731964,0.07807637006044388,0.03960343450307846,-0.0028907833620905876,-0.0025662346743047237,0.02023807168006897
35.9,-0.2682288587093353,0.17618276178836823,0.13823436200618744,-0.027921075001358986,0.0048477426171302795,0.017737261950969696
35.95,0.0790385752916336,0.15717032551765442,0.10417058318853378,-0.01768934540450573,0.006879590917378664,0.0696047842502594
36.0,0.033239174634218216,0.17661002278327942,0.10932135581970215,-0.004308026283979416,0.007293011527508497,0.037898529320955276
36.05,0.10636742413043976,0.17595961689949036,0.09088609367609024,0.0017212918028235435,0.005598390940576792,-0.015706710517406464
36.1,-0.20211635529994965,0.17195990681648254,0.17731888592243195,-0.009565520100295544,0.006605992559343576,-0.06661736965179443
36.15,-0.18365426361560822,0.1426716148853302,0.2434052675962448,-0.007034468464553356,0.0032176023814827204,-0.00895454827696085
36.2,0.004740174859762192,0.17188647389411926,0.13926176726818085,0.013928886502981186,-0.004668413195759058,0.021238330751657486
36.25,-0.03474631533026695,0.14715483784675598,0.14813478291034698,0.009855905547738075,-0.008019328117370605,-0.008501971140503883
36.3,-0.22727160155773163,0.15386392176151276,0.11172439157962799,0.0023415314499288797,-0.007517630234360695,0.0037572786677628756
36.35,0.026300769299268723,0.14121249318122864,0.14283280074596405,-0.007418716326355934,0.0017917603254318237,0.051088761538267136
36.4,-0.09390652924776077,0.1588754951953888,0.15048529207706451,-0.0179879330098629,0.008329896256327629,0.04723101109266281
36.45,-0.2689725458621979,0.10237886756658554,0.14598454535007477,-0.011029796674847603,0.006529957056045532,0.06146754324436188
36.5,-0.039145879447460175,0.09392263740301132,0.10164153575897217,-0.0002969279885292053,0.009526640176773071,0.12228024750947952
36.55,-0.04860279709100723,0.0851898342370987,0.11629921942949295,-0.0011837519705295563,0.0106833940371871,0.11791305989027023
36.6,-0.007277112454175949,0.16426661610603333,0.1315339356660843,-0.009426336735486984,0.01039146725088358,0.10523444414138794
36.65,0.09955354779958725,0.2258310765028,0.1372929811477661,0.008992213755846024,0.0005853162729181349,0.08434697240591049
36.7,-0.07204174995422363,0.14295007288455963,0.06638654321432114,0.035401370376348495,-0.011053857393562794,0.024031033739447594
36.75,-0.10534451901912689,0.13964179158210754,0.15802636742591858,0.04094092175364494,-0.013372834771871567,-0.0218863133341074
36.8,0.06320751458406448,0.1549072563648224,0.09284491837024689,0.04184037446975708,-0.016721835359930992,-0.04733007028698921
36.85,-0.15208624303340912,0.1335592418909073,0.0683806836605072,0.03901055455207825,-0.019151506945490837,-0.07825317978858948
36.9,-0.12233027815818787,0.18102172017097473,0.1462060958147049,0.03363898769021034,-0.014465255662798882,-0.017049020156264305
36.95,0.007861796766519547,0.19976143538951874,0.14858780801296234,0.022611087188124657,-0.0053720553405582905,0.04247211664915085
37.0,0.026285309344530106,0.09437945485115051,0.09387486428022385,0.0031307628378272057,-0.003302625147625804,0.047249920666217804
37.05,-0.10398238897323608,0.14243033528327942,0.119229257106781,-0.0076173474080860615,-0.0054855868220329285,0.017397694289684296
37.1,-0.04642488434910774,0.15720465779304504,0.16331727802753448,-0.014717154204845428,0.0016686313319951296,0.030889388173818588
37.15,-0.10008025169372559,0.14983466267585754,0.12266232073307037,-0.014647197909653187,0.0036220583133399487,0.048712391406297684
37.2,-0.05241226777434349,0.22558121383190155,0.17735090851783752,-0.022320635616779327,0.011043760925531387,0.06636592745780945
37.25,0.12073610723018646,0.18116192519664764,0.23864324390888214,0.0017074234783649445,0.0030541822779923677,0.05533284321427345
37.3,0.00502656027674675,0.14898112416267395,0.1660173237323761,0.03234618529677391,-0.00842986535280943,-0.0062532261945307255
37.35,0.15519042313098907,0.047486331313848495,0.11711855977773666,0.03329044580459595,-0.011879133060574532,-0.04135279357433319
37.4,-0.1927260458469391,0.11658765375614166,0.06496576219797134,0.029599420726299286,-0.020851468667387962,-0.10974878072738647
37.45,-0.40192148089408875,0.11748219281435013,0.06688861548900604,0.012260600924491882,-0.01128658838570118,-0.06372323632240295
37.5,-0.05691618472337723,0.05012036859989166,0.0995902493596077,-0.013044726103544235,0.004337686579674482,0.04875095188617706
37.55,-0.013442516326904297,0.15392591059207916,0.06771411001682281,-0.0336918830871582,0.011192923411726952,0.09145145863294601
37.6,-0.007656022906303406,0.1250782161951065,0.0625576600432396,-0.05696004256606102,0.016740592196583748,0.07366739213466644
37.65,0.19827771186828613,0.1527138203382492,0.12460997700691223,-0.1053863987326622,0.023184146732091904,0.02916145510971546
37.7,-0.12187701463699341,0.2429695576429367,0.12420573830604553,-0.11728742718696594,0.016376234591007233,-0.06805960834026337
37.75,-0.06492018699645996,0.18509963154792786,0.13495397567749023,-0.07938981056213379,0.00849512591958046,-0.0809755027294159
37.8,0.0581502839922905,0.015399961732327938,0.21848002076148987,-0.05336112529039383,0.0029648239724338055,-0.1218070387840271
37.85,0.0659906193614006,0.10423759371042252,0.15124011039733887,-0.030982747673988342,-0.007042048964649439,-0.16624614596366882
37.9,0.36660969257354736,0.08599379658699036,0.04512099549174309,-0.03779693320393562,-0.016959642991423607,-0.22752244770526886
37.95,0.1318005621433258,0.17959502339363098,0.08084648102521896,-0.06646296381950378,-0.02620798349380493,-0.33941224217414856
38.0,-0.09034817665815353,0.1589670479297638,0.1579824537038803,-0.09347469359636307,-0.03779832273721695,-0.39711081981658936
38.05,-1.3553200960159302,0.3298969268798828,0.2523921728134155,-0.08591446280479431,-0.033157289028167725,-0.33336424827575684
38.1,0.341616153717041,0.048544950783252716,0.4183148145675659,-0.02736903540790081,-0.033480580896139145,-0.09141701459884644
38.15,0.3288789987564087,-0.02371879853308201,0.2197711318731308,0.029931679368019104,-0.08492418378591537,-0.1230585053563118
38.2,-0.9437738656997681,0.1467905044555664,0.21661897003650665,0.11776603013277054,-0.1032821387052536,-0.19403602182865143
38.25,-1.0043917894363403,0.2958212196826935,0.29879695177078247,0.2748994827270508,-0.08493368327617645,0.005572048015892506
38.3,-0.2150140255689621,0.2917528450489044,0.10506398230791092,0.5273658037185669,0.008640823885798454,0.3064839243888855
38.35,0.8974835276603699,0.06051543727517128,-0.10977485030889511,0.7110876441001892,0.03421806916594505,0.3121272623538971
38.4,-0.1716572493314743,-0.28742799162864685,-0.6012512445449829,0.5003340244293213,-0.05653930827975273,0.05374940484762192
38.45,-0.5724586248397827,0.019349023699760437,-0.4629618525505066,0.02478453516960144,-0.09446044266223907,-0.03244378790259361
38.5,0.6904349327087402,-0.07876681536436081,-0.10345368832349777,-0.3597766160964966,0.05550643801689148,-0.20864149928092957
38.55,-1.0730286836624146,0.5020151138305664,-0.0782681405544281,-0.43007510900497437,-0.0024187127128243446,-0.37568435072898865
38.6,-0.14523068070411682,0.2291736602783203,-0.1452542543411255,-0.32142913341522217,-0.02200230397284031,0.021801358088850975
38.65,0.12410318851470947,0.3505144715309143,0.18859292566776276,-0.304713636636734,0.00871318206191063,0.2115679532289505
38.7,0.13593646883964539,0.347445547580719,0.19995132088661194,-0.2018556445837021,0.0024067116901278496,0.1699560284614563
38.75,0.10250997543334961,0.22904683649539948,-0.2372691035270691,-0.14035381376743317,-0.0012261135270819068,0.1111910343170166
38.8,-0.10880766063928604,0.1743021160364151,0.08639383316040039,-0.1305120587348938,0.012887582182884216,0.025248145684599876
38.85,-0.21714356541633606,0.23870569467544556,0.296329528093338,-0.06948129832744598,0.014378553256392479,0.009095631539821625
38.9,-0.21941512823104858,0.26486116647720337,0.29042351245880127,0.018805168569087982,-0.0004540886729955673,0.07713454216718674
38.95,0.2036261260509491,0.1134062111377716,0.06765978038311005,0.06365302205085754,-0.012463008984923363,0.13894031941890717
39.0,-0.576869010925293,0.04762166365981102,-0.4105752408504486,0.044925201684236526,-0.007650160696357489,0.08036196231842041
39.05,-0.36670804023742676,0.10467527061700821,-0.1873003989458084,0.004976868629455566,-0.0012643650406971574,0.05227326229214668
39.1,0.03126302734017372,0.03626346215605736,-0.07471700757741928,-0.04401503503322601,0.024940110743045807,0.052336182445287704
39.15,0.014516126364469528,0.18554499745368958,0.14529241621494293,-0.10456260293722153,0.06331610679626465,-0.01280428096652031
39.2,-0.17562368512153625,0.31993013620376587,0.3678935468196869,-0.0842144638299942,0.05654527246952057,-0.04324857518076897
39.25,0.04428311809897423,0.09290602803230286,0.16996774077415466,-0.015652108937501907,0.0023982953280210495,-0.029091820120811462
39.3,-0.28602874279022217,0.33588892221450806,0.37387850880622864,0.04067105054855347,-0.025339821353554726,-0.03822573646903038
39.35,0.027714282274246216,0.3595505356788635,0.38226500153541565,0.20424357056617737,-0.07538232207298279,0.07792296260595322
39.4,0.05373696982860565,0.21641646325588226,0.6793734431266785,0.38015052676200867,-0.13832426071166992,0.1578521728515625
39.45,-1.0798054933547974,0.60157310962677,0.719070553779602,0.6915865540504456,-0.2245456576347351,0.3837704360485077
39.5,-0.6318944692611694,0.2761508524417877,1.2649011611938477,1.1328043937683105,-0.2322998195886612,0.7334417104721069
39.55,1.0806465148925781,1.1526023149490356,0.09221525490283966,1.5231164693832397,-0.15043869614601135,0.8387811183929443
39.6,1.502249002456665,2.7185051441192627,-1.4760431051254272,0.9311573505401611,0.6388118863105774,0.5642170906066895
39.65,-1.1385796070098877,-0.6385414004325867,-0.36829236149787903,-0.3473273813724518,1.067722201347351,0.41743195056915283
39.7,0.12398214638233185,-3.8414626121520996,0.7422258257865906,-0.9321086406707764,-0.04507585987448692,-0.3816532790660858
39.75,0.838349461555481,-3.8676912784576416,0.7766692042350769,-0.4838854670524597,-0.5882836580276489,-0.17987512052059174
39.8,-7.441605091094971,-10.962737083435059,0.9519860744476318,-0.33442437648773193,-0.17030593752861023,-0.00526328943669796
39.85,-3.094170093536377,-3.4608547687530518,2.4879508018493652,-1.1262786388397217,0.11455423384904861,-0.4485718309879303
39.9,-2.49371600151062,0.8536275029182434,2.3321218490600586,-0.9583197832107544,0.0825994685292244,-0.692867636680603
39.95,-0.5197274088859558,0.30968475341796875,-0.03845135122537613,-0.1143055111169815,-0.035126782953739166,-0.06392204761505127
40.0,0.4596819281578064,-0.7102661728858948,0.07715397328138351,-0.09457213431596756,0.014389474876224995,0.09800088405609131
40.05,-0.056926190853118896,-0.007582629099488258,0.3493330180644989,-0.24026167392730713,0.03775471821427345,-0.010188783518970013
40.1,0.03962749242782593,0.196017324924469,0.19061464071273804,-0.12790098786354065,0.008847144432365894,0.024022527039051056
40.15,0.044640570878982544,0.08600997179746628,-0.17166917026042938,-0.061578184366226196,0.003207340370863676,0.023400861769914627
40.2,-0.06212920695543289,-0.2877960801124573,-0.2319619208574295,-0.07562198489904404,0.011985745280981064,-0.024517890065908432
40.25,-0.22164441645145416,-0.23704054951667786,0.0651196837425232,-0.06860595941543579,0.021059490740299225,-0.039167869836091995
40.3,-0.0013003535568714142,0.06824398040771484,-0.09577108174562454,-0.009610014967620373,-0.007634866517037153,-0.021121440455317497
40.35,-0.33382171392440796,0.44918346405029297,-0.529903769493103,0.0037903515622019768,-0.018567344173789024,-0.033906273543834686
40.4,-0.26732051372528076,0.30835437774658203,-0.09088648855686188,0.023910488933324814,0.00019130724831484258,0.020577428862452507
40.45,0.0804160088300705,0.4044657051563263,-0.17673008143901825,0.08595426380634308,0.011060425080358982,0.09724545478820801
40.5,0.39333486557006836,0.2815914452075958,-0.1477614790201187,0.15437078475952148,-0.018358567729592323,0.13910217583179474
40.55,-0.012781210243701935,0.22819043695926666,-0.18190358579158783,0.18825708329677582,-0.0505322702229023,0.13186876475811005
40.6,-0.18891723453998566,0.25271037220954895,-0.03490106761455536,0.16000941395759583,-0.04075750708580017,0.11349919438362122
40.65,0.02528470568358898,0.11070824414491653,-0.0890909805893898,0.1240207627415657,-0.022076867520809174,0.09940995275974274
40.7,-0.04602610692381859,0.1735677868127823,-0.003619092283770442,0.07812938094139099,-0.0036392954643815756,0.04339863359928131
40.75,-0.1418904960155487,0.0781412348151207,0.1989416629076004,0.06833677738904953,0.010337742045521736,0.06339491158723831
40.8,0.26087093353271484,0.03661062568426132,0.05443640425801277,0.07158035784959793,0.01052466407418251,0.10186317563056946
40.85,0.23368951678276062,0.12095548212528229,-0.07148010283708572,0.028442801907658577,0.006664457265287638,0.05098499730229378
40.9,-0.10677263885736465,0.38652801513671875,-0.393392950296402,-0.026981331408023834,0.007887937128543854,0.00440431060269475
40.95,0.08812369406223297,0.32136157155036926,-0.015324532054364681,-0.08843931555747986,0.024883966892957687,-0.023209672421216965
41.0,-0.18637365102767944,0.19771292805671692,0.12423647195100784,-0.08801604807376862,0.023366782814264297,-0.018464280292391777
41.05,-0.06790861487388611,0.19723229110240936,0.19762948155403137,-0.05655565857887268,0.018631266430020332,0.062099914997816086
41.1,0.0825224220752716,0.1755209118127823,0.012272266671061516,-0.03433340787887573,0.0241729486733675,0.0719749927520752
41.15,0.14964410662651062,0.2985678017139435,0.06586747616529465,-0.037778548896312714,0.025457974523305893,-0.006212541367858648
41.2,-0.018137173727154732,0.19388487935066223,0.06822973489761353,-0.00928652472794056,0.012747516855597496,-0.013422662392258644
41.25,-0.14917241036891937,0.06163693219423294,0.059040527790784836,-0.013260092586278915,0.012126139365136623,0.01747501827776432
41.3,-0.023855680599808693,0.08852292597293854,0.07784755527973175,-0.013097112998366356,0.011773386970162392,0.0387762226164341
41.35,0.08807777613401413,0.1798582375049591,0.09539518505334854,-0.010543572716414928,0.009693308733403683,0.008671212941408157
41.4,-0.028217315673828125,0.13451674580574036,0.10771378874778748,-0.009916793555021286,0.0021356104407459497,-0.012060650624334812
41.45,-0.16087841987609863,0.08604908734560013,0.08902152627706528,-0.0006515111308544874,-0.0030042966827750206,0.008697763085365295
41.5,0.010217810049653053,0.10723593086004257,0.05976935476064682,-0.011281728744506836,-0.0008300545741803944,0.028290696442127228
41.55,-0.060323648154735565,0.19841095805168152,-0.4856288731098175,-0.051302120089530945,0.007035488728433847,0.022405702620744705
41.6,-0.35549241304397583,0.3251323699951172,-0.17960228025913239,-0.09547848254442215,0.011933466419577599,0.012455116957426071
41.65,-0.14108863472938538,0.29009535908699036,0.05410308763384819,-0.05549901723861694,0.0008805706165730953,0.10029587149620056
41.7,0.20697090029716492,0.05311398208141327,0.2572222650051117,0.01413925364613533,-0.009913820773363113,0.1007799357175827
41.75,0.11547553539276123,0.017304448410868645,0.19215789437294006,0.05620540678501129,-0.015244008973240852,0.01051253266632557
41.8,-0.04234270006418228,0.12336447089910507,0.052093833684921265,0.05758456885814667,-0.0203266441822052,-0.0242230836302042
41.85,-0.08924906700849533,0.020297056064009666,0.07038188725709915,0.00529350433498621,-0.012706536799669266,-0.012295139953494072
41.9,-0.09301173686981201,0.08469296991825104,0.07641062140464783,-0.05077127367258072,0.0011068829335272312,0.0061370497569441795
41.95,-0.049461472779512405,0.20845511555671692,0.04385495185852051,-0.06404753029346466,0.006440606899559498,0.02444501779973507
42.0,-0.0950670912861824,0.06815530359745026,0.08841558545827866,-0.06787089258432388,0.005015690345317125,0.04479317367076874
42.05,-0.16888472437858582,-0.09666348993778229,0.07131079584360123,-0.057875409722328186,0.0026819491758942604,0.045553695410490036
42.1,-0.4244138300418854,0.3265257179737091,0.12699131667613983,-0.06705702841281891,0.0030684771481901407,0.015176216140389442
42.15,-0.2257404625415802,0.5612936615943909,0.11315932869911194,-0.16284750401973724,-0.020473096519708633,0.11505940556526184
42.2,0.6420643329620361,-0.28094667196273804,0.51375412940979,-0.20818182826042175,-0.037878744304180145,0.19071820378303528
42.25,0.46635138988494873,-0.332489937543869,0.4097541868686676,-0.05028645694255829,-0.01784505508840084,0.06530855596065521
42.3,-0.028993573039770126,0.08692456781864166,0.09782413393259048,0.06117355078458786,-0.0016530004795640707,-0.06989358365535736
42.35,-0.20786242187023163,0.18574906885623932,0.04699686914682388,0.037828315049409866,0.0026030251756310463,-0.07578100264072418
42.4,-0.08429868519306183,0.11100197583436966,-0.0025644393172115088,0.009898873046040535,0.003791543422266841,-0.018959347158670425
42.45,0.09893135726451874,-0.0008916672668419778,0.12647439539432526,0.03350371494889259,0.006131058558821678,-0.0392838791012764
42.5,0.010210653766989708,0.1199655756354332,0.09585925191640854,0.09059379994869232,0.006198408547788858,-0.12378551065921783
42.55,-0.11860016733407974,0.2654867470264435,-0.02319631166756153,0.09463241696357727,0.004941889084875584,-0.16575273871421814
42.6,-0.0652560442686081,0.2612896263599396,-0.012127942405641079,0.05525956302881241,0.005038065370172262,-0.1456879824399948
42.65,-0.02872845157980919,0.23682883381843567,-0.00549292890354991,0.022068321704864502,0.005206084810197353,-0.12137812376022339
42.7,-0.00896955095231533,0.2446184605360031,0.0820809081196785,0.009960934519767761,0.001356189721263945,-0.1257932186126709
42.75,-0.005396958440542221,0.2283373326063156,0.07455936074256897,0.018073461949825287,-0.009940744377672672,-0.14340895414352417
42.8,-0.12164130806922913,0.1621418297290802,0.11585629731416702,0.02859804779291153,-0.030092772096395493,-0.1516716033220291
42.85,-0.3026030659675598,0.007641836069524288,0.5058194398880005,0.053569503128528595,-0.056809499859809875,-0.09647378325462341
42.9,-0.06738322973251343,-0.005328166298568249,0.14020390808582306,0.1283404380083084,-0.1184159442782402,-0.008687249384820461
42.95,-0.42473965883255005,0.1631593406200409,-0.2826855182647705,0.10890762507915497,-0.1032688096165657,-0.059705596417188644
43.0,-0.4135822653770447,0.23252391815185547,-0.04448409751057625,0.07776578515768051,-0.051056575030088425,-0.004505843389779329
43.05,0.1752602905035019,0.09097100794315338,0.022100701928138733,0.10460343956947327,-0.039733514189720154,0.10196582227945328
43.1,0.2575986981391907,-0.009656892158091068,0.03133596479892731,0.022994793951511383,-0.018292205408215523,0.0631139874458313
43.15,0.3925060033798218,0.5097790956497192,0.21006004512310028,-0.08921283483505249,0.006712237372994423,-0.025275859981775284
43.2,0.36551550030708313,0.5252552628517151,0.037044402211904526,-0.09798198193311691,0.009818761609494686,-0.05915895476937294
43.25,0.04628365859389305,0.26209738850593567,0.004193719942122698,-0.06403974443674088,0.004889370873570442,-0.04762314260005951
43.3,-0.20479674637317657,0.180849090218544,0.06113588809967041,-0.030316391959786415,-0.0025144401006400585,-0.023195527493953705
43.35,-0.31647956371307373,0.1419077068567276,0.11960665881633759,0.011774227023124695,-0.007010643370449543,0.018755750730633736
43.4,-0.5074470639228821,-0.1757078319787979,0.14879293739795685,0.03667338192462921,-0.006571921985596418,0.06370242685079575
43.45,-0.38729429244995117,-0.2820310592651367,0.30770739912986755,0.051829010248184204,-0.011433333158493042,0.09242960810661316
43.5,-0.03842444717884064,-0.04498385265469551,0.13308480381965637,0.041921891272068024,-0.012019625864923,0.11019275337457657
43.55,-0.052413515746593475,0.11455728113651276,-0.010000254027545452,0.01321861520409584,-0.009805540554225445,0.08289499580860138
43.6,-0.19659627974033356,0.1098175197839737,0.0850919559597969,0.0004613138735294342,-0.002390422159805894,0.05086539685726166
43.65,-0.17179839313030243,0.18815423548221588,-0.0053528957068920135,0.010777093470096588,-0.008341430686414242,0.06691022217273712
43.7,-0.06665198504924774,0.309844046831131,-0.0382351279258728,0.018052950501441956,-0.01243606023490429,0.07525328546762466
43.75,-0.07422389090061188,0.16654875874519348,0.10058396309614182,0.03704768419265747,-0.01209807489067316,0.062458235770463943
43.8,-0.02041643112897873,0.13936616480350494,0.053258441388607025,0.03881571441888809,-0.012501471675932407,0.04412882402539253
43.85,0.033615633845329285,0.15491963922977448,0.028549425303936005,0.014211614616215229,-0.005321321077644825,0.0016822892939671874
43.9,-0.028024528175592422,0.16848090291023254,0.0824446901679039,0.008861415088176727,-0.001844641868956387,-0.027636567130684853
43.95,-0.13625171780586243,0.23534300923347473,0.07656663656234741,0.03991718962788582,-0.008636885322630405,-0.033040206879377365
44.0,-0.22107121348381042,0.2820463478565216,0.16565237939357758,0.09872140735387802,-0.020168568938970566,-0.03372591361403465
44.05,-0.17041015625,0.274081289768219,0.25563058257102966,0.1958397477865219,-0.03958534449338913,-0.04177096486091614
44.1,-0.13879774510860443,0.35810381174087524,0.24495187401771545,0.3200671076774597,-0.06602363288402557,-0.029468871653079987
44.15,-0.24197813868522644,0.3868589997291565,0.13816297054290771,0.4096572995185852,-0.08756545186042786,0.027864519506692886
44.2,-0.4886223077774048,0.3934193253517151,0.118621826171875,0.49053746461868286,-0.07810702919960022,0.13248246908187866
44.25,-0.6213952898979187,0.1642598956823349,-0.06204795464873314,0.575522780418396,-0.01814023032784462,0.29577550292015076
44.3,-0.3925270736217499,0.5241469740867615,-0.763334333896637,0.6045957803726196,0.100946344435215,0.4809601604938507
44.35,-1.1034504175186157,2.543081760406494,-5.921150207519531,0.4051164984703064,0.6840027570724487,0.559294581413269
44.4,-3.1153345108032227,2.675175189971924,-6.061646461486816,-0.08065927028656006,1.1647247076034546,0.5497370958328247
44.45,-1.0172524452209473,-0.08039595186710358,-1.8444637060165405,-0.14779385924339294,-0.24501056969165802,-0.510482668876648
44.5,2.976620674133301,-4.31712532043457,2.2497310638427734,0.3610553443431854,-0.7286239862442017,-0.9177418351173401
44.55,-1.6455726623535156,4.36887788772583,9.808884620666504,1.5006109476089478,0.7849664688110352,0.3712061643600464
44.6,-0.9488754868507385,6.137251377105713,3.302898406982422,0.09730374813079834,0.9022247791290283,0.8155477643013
44.65,-0.2809218168258667,1.0824519395828247,0.21740226447582245,-1.351805329322815,0.37210968136787415,0.03707815706729889
44.7,-1.1714437007904053,0.3052341639995575,2.019385576248169,-1.0059943199157715,0.17031294107437134,-0.34219375252723694
44.75,-0.42748162150382996,0.26658162474632263,0.8098421096801758,-0.20522341132164001,0.014927995391190052,0.017586952075362206
44.8,0.021950209513306618,0.08106136322021484,-0.057951729744672775,0.11995404213666916,-0.03964260593056679,0.23405110836029053
44.85,0.056411683559417725,0.075315460562706,-0.19622929394245148,-0.0016039051115512848,-0.005104823503643274,0.15019211173057556
44.9,-0.06289367377758026,0.1396665722131729,0.015668438747525215,-0.15372465550899506,0.031957488507032394,0.07239657640457153
44.95,-0.11255903542041779,0.23386864364147186,0.2157977819442749,-0.15971845388412476,0.029920639470219612,0.07382503896951675
45.0,-0.05376525968313217,0.17423346638679504,0.18425625562667847,-0.06606616824865341,0.011806878261268139,0.10110436379909515
45.05,-0.04044664651155472,0.01807118020951748,0.04143957793712616,-0.01826140657067299,0.008271490223705769,0.10450427979230881
45.1,0.05632617324590683,0.06458380073308945,0.13603079319000244,-0.03647229075431824,0.013452095910906792,0.08031080663204193
45.15,0.06502058357000351,0.17688944935798645,0.15426525473594666,-0.026316896080970764,0.007790068164467812,0.03755329176783562
45.2,0.026504047214984894,0.0669412836432457,0.09317899495363235,0.019912416115403175,-0.005192655138671398,-0.004969381261616945
45.25,-0.08941981941461563,0.030184755101799965,0.08010624349117279,0.009871276095509529,-0.006002486217767,-0.024289250373840332
45.3,-0.10399013757705688,0.1434488445520401,0.10631363093852997,-0.010755756869912148,-0.00026067407452501357,-0.017938770353794098
45.35,-0.02967507392168045,0.19573120772838593,0.08839572221040726,0.006657099816948175,-0.0028492501005530357,-0.0049532377161085606
45.4,-0.029098380357027054,0.14847184717655182,0.07274504005908966,0.03468368947505951,-0.007524004206061363,0.0031496742740273476
45.45,-0.028997981920838356,0.10597802698612213,0.024510996416211128,0.02950192429125309,-0.001855668262578547,0.005834545008838177
45.5,-0.03948977589607239,0.15879537165164948,0.07086355239152908,-0.006160536780953407,0.00947489682585001,-0.0056245638988912106
45.55,-0.0841246247291565,0.17530348896980286,0.10350974649190903,-0.008973496034741402,0.011203985661268234,-0.012679274193942547
45.6,-0.09583407640457153,0.11450674384832382,0.08747077733278275,0.018176410347223282,0.005898158531636,-0.004520442336797714
45.65,-0.09873072803020477,0.05396748706698418,0.05672512948513031,0.022703371942043304,0.002443410689011216,0.004692946095019579
45.7,-0.1516493260860443,0.09452153742313385,0.07954006642103195,0.03105698525905609,-0.0018368158489465714,0.011225294321775436
45.75,-0.12925130128860474,0.14971449971199036,0.14061258733272552,0.052139490842819214,-0.009675150737166405,0.024377373978495598
45.8,-0.03487027436494827,0.14549735188484192,0.13404516875743866,0.08517687022686005,-0.02326381206512451,0.043028268963098526
45.85,-0.048689376562833786,0.10908415168523788,0.08942428976297379,0.11633314937353134,-0.03570825979113579,0.05741490423679352
45.9,-0.09737209975719452,0.10735036432743073,0.029800573363900185,0.1284690499305725,-0.03991445526480675,0.06011293828487396
45.95,-0.04262704402208328,0.1440763622522354,0.07314436882734299,0.1327812224626541,-0.04226284101605415,0.0634675994515419
46.0,-0.07453764230012894,0.14803220331668854,0.07825496047735214,0.1356346756219864,-0.04333591088652611,0.06806295365095139
46.05,-0.04079669713973999,0.12952138483524323,0.062311530113220215,0.12999103963375092,-0.039013344794511795,0.0840071439743042
46.1,-0.049128804355859756,0.12071897834539413,0.1150047779083252,0.12471244484186172,-0.03595493361353874,0.09624550491571426
46.15,-0.09277655929327011,0.09844972938299179,0.08591170608997345,0.12174001336097717,-0.034684401005506516,0.099977508187294
46.2,-0.05549057200551033,0.14580823481082916,0.045025717467069626,0.11335553228855133,-0.03266320750117302,0.09271761029958725
46.25,-0.058954887092113495,0.197361022233963,0.03476153686642647,0.097954660654068,-0.029851822182536125,0.08772949874401093
46.3,-0.0030127661302685738,0.18949034810066223,0.03721397742629051,0.06683654338121414,-0.02405470423400402,0.09672755002975464
46.35,0.011358494870364666,0.1606435924768448,-0.0028660912066698074,0.015798766165971756,-0.01350315660238266,0.07667355239391327
