Time [s],Acc_x [m/s^2],Acc_y [m/s^2],Acc_z [m/s^2],Gyro_x [1/s],Gyro_y [1/s],Gyro_z [1/s]
0.0,0.004945383872836828,-0.13087940216064453,0.0027821343392133713,0.005542668979614973,-0.022532466799020767,-0.009888610802590847
0.05,0.00866108387708664,-0.13002777099609375,0.0054350970312952995,0.005543314851820469,-0.02253231778740883,-0.009888585656881332
0.1,-0.0009963768534362316,-0.10796260833740234,0.012242002412676811,0.006332221440970898,-0.01985960826277733,-0.006734371650964022
0.15,-0.04093942791223526,-0.048709869384765625,0.03408043831586838,0.005278737284243107,-0.009821837767958641,9.079752999241464e-06
0.2,-0.06079377979040146,-0.05425644293427467,0.04679857939481735,-0.010348768904805183,-0.0064644222147762775,-0.00929417833685875
0.25,-0.064266137778759,-0.057590484619140625,-0.019873833283782005,-0.027382459491491318,-0.012738344259560108,-0.009611576795578003
0.3,-0.029521450400352478,-0.04198646545410156,-0.10071208328008652,-0.028635472059249878,-0.008377982303500175,-0.010804698802530766
0.35,0.0050841160118579865,-0.08868885040283203,-0.0796070545911789,-0.011330394074320793,-0.002047936199232936,-0.012687919661402702
0.4,-0.01727062463760376,-0.11661434173583984,-0.052147410809993744,-0.005515558645129204,0.00025986743276007473,-0.007158779539167881
0.45,-0.08716309070587158,-0.050301551818847656,-0.08253457397222519,-0.009525408037006855,0.0026832770090550184,0.0062275961972773075
0.5,-0.08789665997028351,-0.03940201178193092,-0.03311367332935333,-0.004670844879001379,-0.004461071453988552,-0.007922142744064331
0.55,-0.07913419604301453,0.007573125418275595,-0.006671801209449768,-0.003141199704259634,-0.00243094633333385,-0.01153271459043026
0.6,-0.03812672197818756,-0.04300117492675781,-0.037928178906440735,-0.01017693243920803,0.0013053490547463298,-0.016518769785761833
0.65,-0.012358112260699272,-0.046790122985839844,-0.015509890392422676,-0.007621518801897764,0.002077881246805191,-0.017159519717097282
0.7,-0.053264319896698,-0.004656793083995581,-0.021596737205982208,-0.02028985694050789,0.0027976338751614094,-0.015809418633580208
0.75,-0.03702302649617195,-0.0336761474609375,-0.0391390398144722,-0.018291935324668884,0.020707055926322937,-0.02235868014395237
0.8,-0.014126760885119438,0.040775299072265625,0.013600076548755169,-0.01425059512257576,0.03728988766670227,-0.025137249380350113
0.85,-0.04067181795835495,0.0562896728515625,-0.035967931151390076,-0.03133799135684967,0.0665927454829216,-0.032656412571668625
0.9,0.06526275724172592,-0.008856771513819695,0.022976359352469444,-0.05959727615118027,0.07731878757476807,-0.037414614111185074
0.95,0.07706823945045471,0.0870656967163086,-0.020587900653481483,-0.08663266897201538,0.09806641936302185,-0.02752690576016903
1.0,-0.052917059510946274,0.038420677185058594,0.022430816665291786,-0.07913316786289215,0.12571024894714355,-0.023518387228250504
1.05,-0.08270345628261566,0.01751994527876377,0.2952209711074829,-0.1585625410079956,0.05043061450123787,-0.022951817139983177
1.1,0.01704842783510685,0.023535728454589844,-0.031102802604436874,-0.3718644678592682,-0.03047000989317894,-0.004411281086504459
1.15,0.10330554842948914,-0.3648252487182617,-0.694573163986206,-0.4353776276111603,0.06294823437929153,0.015509264543652534
1.2,-0.22641801834106445,-0.5706081390380859,-0.9957883954048157,-0.28304746747016907,0.187401682138443,0.0786987766623497
1.25,-0.3661951720714569,-0.4957714080810547,-0.827315092086792,-0.008139667101204395,0.20009185373783112,0.0490158349275589
1.3,-0.23258166015148163,-0.04802323132753372,-0.03700891137123108,0.2543095052242279,0.07965073734521866,0.004266726318746805
1.35,-0.0171174556016922,0.05349349603056908,0.4134288728237152,0.19155414402484894,0.030853746458888054,0.015334495343267918
1.4,0.07107852399349213,-0.11408805847167969,0.27659285068511963,0.06626620888710022,0.16132451593875885,0.033411625772714615
1.45,0.062285568565130234,-0.35732364654541016,0.12707959115505219,0.04838651046156883,0.2753869593143463,0.03445833921432495
1.5,0.14428652822971344,-0.3852214813232422,0.10174651443958282,0.07564690709114075,0.2725186347961426,0.05728938803076744
1.55,0.20604223012924194,-0.3828296661376953,0.08250388503074646,0.06627807021141052,0.24395112693309784,0.07808609306812286
1.6,0.08366024494171143,-0.4272041320800781,0.06244657561182976,0.04909244179725647,0.2821316719055176,0.13936138153076172
1.65,-0.019713271409273148,-0.3683357238769531,0.02231879159808159,0.07363950461149216,0.39826905727386475,0.17370787262916565
1.7,0.12069530040025711,0.021762846037745476,0.5102870464324951,0.17553287744522095,0.5611011981964111,0.15754695236682892
1.75,0.9202052354812622,0.7232484817504883,1.7921847105026245,0.2566870152950287,1.0689164400100708,0.0377543605864048
1.8,2.1679227352142334,0.1713610142469406,1.2060494422912598,-0.0016299337148666382,2.17087721824646,-0.1953006237745285
1.85,2.350390911102295,-0.08718675374984741,0.4855765104293823,-0.44207674264907837,2.4067232608795166,0.14315490424633026
1.9,2.3076014518737793,0.5139408707618713,0.9665767550468445,-0.4413501024246216,2.0099895000457764,0.8744962811470032
1.95,1.825222134590149,1.026998519897461,0.37871053814888,-0.5154534578323364,1.9056284427642822,1.4076247215270996
2.0,0.9749835729598999,1.8197269439697266,-0.3109263479709625,-0.4913756847381592,1.7087513208389282,1.9420040845870972
2.05,0.007098495960235596,2.3151769638061523,-0.5705494284629822,-0.46518474817276,1.2917075157165527,2.4420013427734375
2.1,-0.99638432264328,2.9654855728149414,0.24079680442810059,-0.6385504007339478,1.0123082399368286,2.9966962337493896
2.15,-3.152111768722534,2.323258399963379,-0.03458886221051216,-2.0860366821289062,0.9478340148925781,3.5224757194519043
2.2,-4.771677017211914,1.1873806715011597,-0.457249253988266,-3.6496448516845703,0.2598099112510681,3.2422914505004883
2.25,-3.421436309814453,0.4475373327732086,-1.8145192861557007,-5.287410259246826,-0.7547668814659119,1.8321844339370728
2.3,-1.4999202489852905,-1.9918999671936035,-3.2589540481567383,-6.0184125900268555,-1.1977782249450684,1.280680775642395
2.35,-0.2780671715736389,-3.9072418212890625,-3.0378291606903076,-5.110944747924805,-0.5322672724723816,1.2709109783172607
2.4,0.1491936445236206,-5.768431186676025,-2.0931203365325928,-4.170529842376709,0.14809858798980713,0.6884560585021973
2.45,-0.5829364657402039,-5.492530345916748,-1.0094362497329712,-2.734987735748291,0.6545366644859314,-0.13106028735637665
2.5,-1.3090628385543823,-4.43848991394043,0.30346179008483887,-1.2265942096710205,0.7203130722045898,-1.1543177366256714
2.55,-1.7609201669692993,-2.3212733268737793,2.387885570526123,0.05670660734176636,0.21846337616443634,-1.423533320426941
2.6,1.5985097885131836,4.209165573120117,2.425036907196045,1.0818055868148804,-0.7851462364196777,-0.06987889856100082
2.65,-0.6429115533828735,3.227231025695801,-1.0155372619628906,1.372292399406433,0.7811758518218994,-1.3507039546966553
2.7,-0.7234737873077393,-0.6021394729614258,0.26156020164489746,-0.06328790634870529,0.13189168274402618,-0.42688196897506714
2.75,-0.10153357684612274,0.03033161163330078,-0.2147982120513916,-0.001257535070180893,-0.2068585455417633,0.14890940487384796
2.8,0.5920352339744568,-0.6834917068481445,0.1411512941122055,-0.021717503666877747,-0.3225339651107788,0.12009497731924057
2.85,0.30802664160728455,-0.39731502532958984,-0.17889945209026337,0.3923170566558838,-0.12715721130371094,-0.19215092062950134
2.9,-0.30696237087249756,0.6102228164672852,-0.30927249789237976,0.6621309518814087,-0.015231111086905003,-0.2460690587759018
2.95,-0.06483760476112366,-0.1472949981689453,0.12164372950792313,0.44511571526527405,-0.05436408147215843,-0.03289631009101868
3.0,0.22439533472061157,0.0034894978161901236,0.25703439116477966,0.38878095149993896,-0.07313434034585953,0.01978653483092785
3.05,-0.011310017667710781,0.7815675735473633,0.009089089930057526,0.351426899433136,-0.10657700896263123,-0.1094319149851799
3.1,-0.28174707293510437,0.38648319244384766,-0.048327166587114334,0.12623491883277893,-0.13998092710971832,-0.14041848480701447
3.15,-0.2777084708213806,-0.23838044703006744,0.09026531875133514,-0.03468349575996399,-0.16549503803253174,-0.08534325659275055
3.2,-0.22429892420768738,-0.23926258087158203,0.10964255779981613,0.009712330996990204,-0.16651609539985657,-0.10826972872018814
3.25,-0.3210776746273041,0.041378967463970184,-0.00718492129817605,0.05446912348270416,-0.17221051454544067,-0.1344802975654602
3.3,-0.4441375732421875,0.1584634631872177,0.05783010646700859,0.09376320242881775,-0.18594467639923096,-0.15675687789916992
3.35,-0.33777788281440735,0.19332121312618256,0.10995974391698837,0.09916950017213821,-0.20642319321632385,-0.14396870136260986
3.4,-0.2633236348628998,0.058745376765728,0.044125497341156006,0.02748268097639084,-0.25759822130203247,-0.13255935907363892
3.45,-0.23492197692394257,0.05931662768125534,-0.03518054634332657,0.009351763874292374,-0.28905996680259705,-0.13763563334941864
3.5,-0.3311823606491089,0.2912931442260742,0.021581755951046944,0.029510583728551865,-0.27602189779281616,-0.1706419438123703
3.55,-0.6780122518539429,0.7484197616577148,-0.2134275883436203,0.05318799614906311,-0.2551548182964325,-0.18066290020942688
3.6,0.004770928993821144,-0.0725259780883789,0.036946214735507965,-0.11224089562892914,-0.2709447741508484,-0.09890516847372055
3.65,0.07922719419002533,-0.4190835952758789,0.0840115174651146,-0.11775415390729904,-0.22501173615455627,-0.03236805275082588
3.7,0.07217440754175186,-0.2864713668823242,0.09070798009634018,-0.0013119690120220184,-0.17140047252178192,0.06866303086280823
3.75,0.0723797082901001,-0.0886373519897461,0.09819582849740982,0.0828980952501297,-0.13258832693099976,0.12194231152534485
3.8,-0.10606428980827332,-0.01519108098000288,-0.00021335155179258436,0.10353361070156097,-0.09542125463485718,0.12919646501541138
3.85,-0.4260294735431671,-0.08032132685184479,-0.037841204553842545,0.16270160675048828,-0.06285716593265533,0.10028727352619171
3.9,-0.4976269602775574,0.13940809667110443,-0.07767914980649948,0.24170322716236115,-0.07371365278959274,0.05205081030726433
3.95,-0.7712873220443726,1.0187368392944336,0.07337746024131775,0.334582656621933,-0.0940602570772171,-0.10765783488750458
4.0,-1.413102149963379,3.622605323791504,0.7045353651046753,0.27018335461616516,-0.13827988505363464,-0.556034505367279
4.05,-3.1209540367126465,5.354546546936035,0.6712878346443176,-0.8771864175796509,-0.2990541458129883,-1.1274315118789673
4.1,-5.4530816078186035,1.137184977531433,0.7970456480979919,-2.6258485317230225,-0.6871492862701416,-0.3057495653629303
4.15,-5.748621940612793,-2.6909000873565674,0.6563169360160828,-2.2818450927734375,-2.2236061096191406,1.4683243036270142
4.2,-3.4597532749176025,-9.205368041992188,-0.7762632966041565,-0.5803705453872681,-3.874748468399048,3.729987621307373
4.25,1.4590561389923096,-9.534612655639648,-3.0571610927581787,1.7899465560913086,-4.893089294433594,5.849698543548584
4.3,5.272337436676025,-4.455913543701172,-4.165650844573975,3.6173532009124756,-4.835795879364014,7.065059185028076
4.35,6.552688121795654,3.1468803882598877,-2.571155548095703,3.742091417312622,-4.012395858764648,6.749773979187012
4.4,2.1576406955718994,3.5711326599121094,1.5702178478240967,2.2538609504699707,-2.5106899738311768,4.141554355621338
4.45,2.506924867630005,0.9999743103981018,0.9702371954917908,0.8866016864776611,-0.16063745319843292,0.7755194306373596
4.5,1.7657570838928223,0.051441218703985214,2.061279535293579,0.7179045677185059,0.08265869319438934,0.4971235394477844
4.55,0.14007461071014404,1.1515684127807617,2.4540319442749023,0.4992524981498718,-0.3653198480606079,1.2807731628417969
4.6,-0.2655704617500305,1.392873764038086,1.637455940246582,0.19098243117332458,-0.4068346619606018,0.7802963852882385
4.65,0.5449669361114502,0.9493141174316406,0.643470823764801,0.03601563721895218,0.1105450838804245,-0.13489796221256256
4.7,0.17472432553768158,0.6822519302368164,-0.0636749193072319,-0.0859442725777626,0.4659038782119751,-0.1733626425266266
4.75,-0.7595131397247314,0.3277130126953125,-0.6203749179840088,-0.3129177391529083,0.3831293284893036,0.06106182187795639
4.8,-0.9046978950500488,-0.2741670608520508,-1.1504452228546143,-0.3978866934776306,0.2617191970348358,-0.10376188904047012
4.85,-0.5398977398872375,-0.6598548889160156,-1.5588788986206055,-0.29997920989990234,0.14655591547489166,-0.23563583195209503
4.9,0.02432626485824585,-1.2203092575073242,-1.6002371311187744,-0.0893174409866333,-0.03823705017566681,-0.12082751095294952
4.95,1.3807953596115112,-2.0649776458740234,-1.4040344953536987,0.23457860946655273,-0.21795271337032318,0.027416327968239784
5.0,3.7650575637817383,-2.4175033569335938,-0.9428452849388123,0.9145331382751465,-0.36960795521736145,0.32754290103912354
5.05,4.824873924255371,-1.7776974439620972,0.4474659562110901,2.145927667617798,0.7067716717720032,0.6881287693977356
5.1,2.928788661956787,-0.45364847779273987,-0.03568853437900543,2.2584056854248047,2.727194309234619,1.2297958135604858
5.15,0.5314257144927979,0.24697495996952057,0.5084887146949768,1.7434070110321045,3.6332178115844727,1.0994254350662231
5.2,-2.370622396469116,0.9169701933860779,1.6601827144622803,1.3274405002593994,2.6386470794677734,1.3407424688339233
5.25,-3.4933114051818848,1.048531413078308,1.1649742126464844,0.6181920170783997,1.2459709644317627,1.1157034635543823
5.3,-2.7632856369018555,0.4610232710838318,-0.3514362573623657,0.27369800209999084,0.3819679021835327,0.7751392722129822
5.35,-1.7699081897735596,0.18942733108997345,-0.6246821284294128,0.4364212155342102,-0.4272528290748596,0.8309841752052307
5.4,-0.28066715598106384,-0.14418983459472656,-0.07367270439863205,0.6596091389656067,-0.7124359011650085,0.7701241970062256
5.45,-0.10670074075460434,0.5176715850830078,0.1128968745470047,0.40627339482307434,-0.6904920339584351,0.9279919862747192
5.5,-1.9179673194885254,1.4880542755126953,-0.7023437023162842,0.056119903922080994,-0.4094918370246887,0.8522261381149292
5.55,-0.131379172205925,0.5442419052124023,-0.7128801345825195,-0.0019487366080284119,0.21015572547912598,-0.23607870936393738
5.6,-0.4841664135456085,0.3835878372192383,0.04628659412264824,-0.6520195007324219,-0.07786630839109421,-0.6657348871231079
5.65,-0.5046584606170654,0.6444520950317383,-0.4476472735404968,-1.3613250255584717,-0.33141186833381653,-0.9503229856491089
5.7,3.6980462074279785,-1.83682382106781,-1.0951597690582275,-1.619077205657959,-0.39552000164985657,-1.329451560974121
5.75,-1.2566850185394287,-0.6410303115844727,-1.262378215789795,-1.1943252086639404,-0.8703190684318542,0.4836258888244629
5.8,-0.9160765409469604,-0.13596059381961823,-0.7140128016471863,-1.0463862419128418,0.04343056678771973,0.047208160161972046
5.85,0.8175962567329407,-0.3443145453929901,-0.6209062933921814,-1.3889456987380981,0.5041961073875427,-0.2538486123085022
5.9,0.42625197768211365,-0.23376557230949402,-1.0334223508834839,-1.0802332162857056,0.40740492939949036,0.49617093801498413
5.95,-0.2839653789997101,-0.37647342681884766,0.38463953137397766,-0.3512956500053406,-0.17495863139629364,0.5909953117370605
6.0,0.02951887995004654,-0.14845752716064453,0.4152747094631195,-0.14363068342208862,-0.305124968290329,-0.0857827439904213
6.05,1.253572940826416,0.14729788899421692,-0.0812113806605339,-0.35023245215415955,-0.12286639213562012,-0.5798995494842529
6.1,-0.02113671973347664,-0.4327583312988281,0.13820500671863556,-0.3263939619064331,-0.29605692625045776,-0.4901619851589203
6.15,0.29644784331321716,-1.1920576095581055,-0.02180120162665844,-0.2333299070596695,-0.21038109064102173,-0.5307505130767822
6.2,-0.5497359037399292,-0.7234878540039062,0.20261839032173157,-0.3084399700164795,-0.27829182147979736,-0.4725133776664734
6.25,-0.10734301805496216,-0.4811372756958008,0.3643921911716461,-0.37613993883132935,-0.24187302589416504,-0.6032299399375916
6.3,0.2360069751739502,-0.8783979415893555,0.6066694259643555,-0.20516027510166168,-0.25894707441329956,-0.4252012073993683
6.35,0.25652268528938293,-0.4686546325683594,0.6269649267196655,-0.10204068571329117,-0.34180858731269836,-0.14811882376670837
6.4,0.11175604164600372,-0.023922927677631378,1.0057013034820557,0.16631260514259338,-0.22943583130836487,-0.20941050350666046
6.45,0.09619428962469101,-0.10391617566347122,0.6073406934738159,0.0914926528930664,0.043557628989219666,-0.5440995097160339
6.5,0.03197792172431946,-0.24587249755859375,0.2901015877723694,-0.07717031985521317,0.05102336034178734,-0.40875133872032166
6.55,-0.13305768370628357,-0.6477031707763672,-0.3277697265148163,-0.13678738474845886,0.09362708777189255,-0.231770858168602
6.6,-0.16307033598423004,-0.5313587188720703,-0.880391001701355,-0.11375963687896729,0.0008139697602018714,-0.06854567676782608
6.65,-0.19655150175094604,-0.3622169494628906,-0.46012264490127563,0.037812039256095886,-0.1571558564901352,0.050672370940446854
6.7,-0.01382032036781311,-0.5275793075561523,-0.36811602115631104,0.06568876653909683,-0.11880938708782196,0.3159143030643463
6.75,-0.07709288597106934,-0.1908426284790039,-0.7193169593811035,0.05045348405838013,0.04296889528632164,0.6353235244750977
6.8,0.41709405183792114,-0.3548717200756073,-0.7858288288116455,0.0793878436088562,0.02660171501338482,0.33000898361206055
6.85,0.48672857880592346,-0.4475097358226776,-0.5638163089752197,0.13006658852100372,0.12116189301013947,0.21322131156921387
6.9,-0.19414940476417542,-0.09476375579833984,-0.4817345142364502,0.09252311289310455,0.1844702661037445,0.24123702943325043
6.95,0.28844842314720154,-0.17486856877803802,-0.39424943923950195,0.14509303867816925,0.23418176174163818,-0.26706576347351074
7.0,0.7244962453842163,-0.38211914896965027,-0.32653823494911194,0.16636274755001068,0.25489136576652527,-0.4857771396636963
7.05,0.4523678123950958,-0.23438547551631927,-0.2376212179660797,0.15059086680412292,0.17282383143901825,-0.3206537067890167
7.1,0.4646679162979126,-0.05093763768672943,-0.1750517338514328,0.12334124743938446,0.12205862253904343,-0.32712018489837646
7.15,0.7140921354293823,-0.29815956950187683,-0.09490034729242325,0.12324906140565872,0.07971654087305069,-0.37732988595962524
7.2,0.4333152174949646,-0.48078155517578125,-0.04785376042127609,0.12725459039211273,0.06358817964792252,-0.13182178139686584
7.25,0.12825843691825867,-0.23078632354736328,0.09957288205623627,0.16281229257583618,0.0789690688252449,0.021674631163477898
7.3,0.25844866037368774,-0.10044573992490768,0.0885656550526619,0.19653020799160004,0.12741902470588684,-0.07215213775634766
7.35,0.4090794622898102,-0.1525268405675888,0.09177788347005844,0.18985772132873535,0.13428130745887756,-0.11981102079153061
7.4,0.23536662757396698,-0.06390475481748581,0.020454568788409233,0.12902240455150604,0.11020804941654205,-0.004344016779214144
7.45,0.1763395518064499,-0.04530143365263939,0.038281191140413284,0.05837031826376915,0.12017488479614258,0.00944519229233265
7.5,0.04625377058982849,-0.18378067016601562,-0.05093774572014809,0.01256530825048685,0.12829850614070892,-0.006261811591684818
7.55,0.1656922996044159,-0.2890663146972656,-0.26818734407424927,-0.011999815702438354,0.09399648010730743,-0.011026707477867603
7.6,0.008863955736160278,-0.3384695053100586,-0.19968737661838531,-0.017772922292351723,-0.01906975358724594,0.0179084874689579
7.65,-0.022101445123553276,-0.30380916595458984,-0.11846114695072174,-0.01547960564494133,-0.05390551686286926,0.0019165074918419123
7.7,-0.049098629504442215,-0.11712646484375,-0.150774747133255,0.00035687629133462906,-0.07559676468372345,-0.01732213981449604
7.75,0.047455083578825,-0.16768455505371094,-0.15258726477622986,-0.009124279953539371,-0.06582590937614441,-0.06326460093259811
7.8,-0.0768299251794815,-0.22745323181152344,-0.08116884529590607,-0.02813517488539219,-0.08744542300701141,-0.03232128173112869
7.85,0.1320064663887024,-0.32448291778564453,-0.09848370403051376,-0.03744106367230415,-0.11917752027511597,-0.06182811036705971
7.9,0.19874772429466248,-0.29871463775634766,-0.13678164780139923,-0.04253597557544708,-0.16230344772338867,-0.030915839597582817
7.95,0.3197583556175232,-0.12321757525205612,0.28394076228141785,-0.04944140836596489,-0.18920940160751343,0.018627753481268883
8.0,0.12217868864536285,0.14625072479248047,0.5309656858444214,-0.12727198004722595,-0.12211444973945618,0.08351131528615952
8.05,0.45165306329727173,-0.2757692337036133,0.5323303937911987,-0.2696647047996521,-0.053643662482500076,0.13262280821800232
8.1,0.6657928228378296,-0.26820850372314453,0.9180907607078552,-0.34233975410461426,-0.09428711980581284,0.3389560580253601
8.15,0.5467478036880493,0.04877186194062233,0.9008391499519348,-0.42528244853019714,-0.026179390028119087,0.4082939624786377
8.2,0.7012313008308411,0.334110289812088,0.4228377044200897,-0.49853092432022095,0.1294337958097458,0.3596290946006775
8.25,0.9093979597091675,-0.3360271155834198,-0.7864764332771301,-0.5348461866378784,0.2336055338382721,0.3723587393760681
8.3,-0.010229870676994324,-0.00855541042983532,-0.22025355696678162,-0.4492189884185791,0.18705469369888306,0.6222738027572632
8.35,0.21224147081375122,0.07390881329774857,-0.41680195927619934,-0.8928059339523315,0.4487900733947754,-0.030973242595791817
8.4,0.4213382601737976,-1.2050085067749023,-1.1904765367507935,-1.0324057340621948,0.6147054433822632,-0.26119178533554077
8.45,-1.729425311088562,-0.5864964127540588,-1.2747257947921753,-0.6556435823440552,0.8417482972145081,-0.08291440457105637
8.5,-6.055568695068359,0.32005295157432556,-1.089496374130249,-0.756186842918396,0.9609588384628296,-0.9805164337158203
8.55,-3.735229969024658,1.0339049100875854,0.9816940426826477,-0.5751919150352478,1.1199970245361328,-1.9341579675674438
8.6,-5.150537490844727,4.953122138977051,3.210627317428589,-0.6290169954299927,2.2657854557037354,-3.1721267700195312
8.65,-3.732699394226074,2.8118388652801514,1.9360381364822388,-0.7603994607925415,3.3167905807495117,-5.178715229034424
8.7,-4.3813395500183105,2.2924344539642334,0.22250397503376007,-1.2580904960632324,1.714462161064148,-4.174342155456543
8.75,-2.568060874938965,0.17402450740337372,0.0935906246304512,-2.0787441730499268,-1.0491312742233276,-2.5641016960144043
8.8,0.10199597477912903,0.8403797149658203,-0.9916947484016418,-2.2146413326263428,-2.071650505065918,-0.3183820843696594
8.85,2.01031756401062,0.39483267068862915,-1.3298665285110474,-3.2471766471862793,-2.5567898750305176,0.6389262080192566
8.9,2.5950257778167725,-2.3085365295410156,-0.9431253671646118,-3.7887463569641113,-2.1731555461883545,0.7418850660324097
8.95,1.9700840711593628,-3.3129477500915527,0.1709577590227127,-3.4002299308776855,-1.231055498123169,0.695671021938324
9.0,1.1101852655410767,-4.155592918395996,0.9428421854972839,-2.2099709510803223,-0.3288349211215973,-0.024977514520287514
9.05,0.803681492805481,-4.074704647064209,0.7997608780860901,-0.9048196077346802,0.24517963826656342,-0.5922116041183472
9.1,0.6108437776565552,-3.3483176231384277,0.7720580101013184,0.3713532090187073,0.46093201637268066,-0.9688517451286316
9.15,0.7164698839187622,-2.4808311462402344,-0.057658061385154724,1.3082842826843262,0.6890504360198975,-1.2926418781280518
9.2,1.2721490859985352,-1.3157625198364258,0.4413839280605316,2.027320384979248,0.517737090587616,-1.396148920059204
9.25,1.4553989171981812,0.17089562118053436,-0.34566932916641235,2.476868152618408,0.8609741926193237,-1.5344321727752686
9.3,1.4201512336730957,1.613718032836914,-0.5776045322418213,2.3848307132720947,0.9116727709770203,-1.901489496231079
9.35,1.775239109992981,1.9534131288528442,-1.8191556930541992,1.8671408891677856,0.8108006119728088,-3.2498037815093994
9.4,0.06985428929328918,-0.9103174209594727,-0.9511535167694092,1.2202004194259644,0.5317957997322083,-4.1687726974487305
9.45,-0.7249046564102173,-2.433131694793701,-0.8533778786659241,1.9865224361419678,0.183861643075943,-3.215726613998413
9.5,1.4067988395690918,-2.036651611328125,-0.6915953755378723,2.5616636276245117,0.31620875000953674,-1.768502950668335
9.55,0.6545355319976807,-1.3959951400756836,-1.4694671630859375,2.5046372413635254,1.38107168674469,-1.819075584411621
9.6,-1.287564754486084,0.8333559036254883,-1.677586555480957,3.0254015922546387,2.1146249771118164,-2.006045341491699
9.65,-0.42341306805610657,2.410564422607422,-0.517691433429718,2.5499513149261475,1.583614706993103,-0.5178443193435669
9.7,-1.7125706672668457,2.437375068664551,0.02363063208758831,1.6180176734924316,1.2245044708251953,0.34585991501808167
9.75,-1.2280389070510864,-1.7472505569458008,-1.2951146364212036,1.3301042318344116,0.33133721351623535,0.6353892683982849
9.8,1.6755623817443848,1.7830486297607422,-0.3411555290222168,2.2272329330444336,-1.0216064453125,2.3455021381378174
9.85,1.8338650465011597,2.5223093032836914,1.1587400436401367,1.4703905582427979,-0.9467175602912903,1.7271779775619507
9.9,-0.8098229169845581,-1.6768932342529297,-0.33222734928131104,0.17274390161037445,0.31478869915008545,0.24443839490413666
9.95,-0.7058663368225098,-0.19086459279060364,1.0904303789138794,0.8689670562744141,-0.5857027173042297,0.9210928678512573
10.0,-1.7694342136383057,0.5039872527122498,1.2554866075515747,1.0211853981018066,-2.0616002082824707,2.38736629486084
10.05,-1.1053338050842285,0.7307538390159607,1.6666771173477173,0.993932843208313,-2.8577561378479004,2.7130110263824463
10.1,-1.8284226655960083,2.1759262084960938,1.179811716079712,0.1735629439353943,-2.6122488975524902,2.860898971557617
10.15,-0.2958926856517792,-1.5380916595458984,-1.6693898439407349,-1.3642165660858154,-1.8943934440612793,0.6451216340065002
10.2,0.08066526055335999,1.654240608215332,-0.8311411738395691,-1.0490672588348389,-1.7232835292816162,-0.3184026777744293
10.25,1.457421064376831,1.248092770576477,-2.2165181636810303,-2.012892961502075,-2.670105457305908,-1.4874780178070068
10.3,3.168611526489258,0.21293742954730988,0.6395649909973145,-1.7260205745697021,-1.8875478506088257,-2.374810218811035
10.35,0.6291916370391846,1.4784812927246094,-1.9881341457366943,-0.2815905809402466,0.9459671974182129,-1.587618350982666
10.4,-0.3178502917289734,2.583481788635254,-1.4273117780685425,-0.461812824010849,1.546090841293335,-2.000457525253296
10.45,-2.1966207027435303,1.930148959159851,-0.006145836785435677,-1.4443399906158447,1.01521635055542,-1.4636030197143555
10.5,-2.501620292663574,0.043299607932567596,-0.27955472469329834,-1.6352598667144775,0.45994627475738525,-1.0610665082931519
10.55,-2.2781965732574463,-1.2871047258377075,-0.28912267088890076,-1.2196863889694214,-0.03926258906722069,-0.5707809329032898
10.6,-1.3880361318588257,-1.280482292175293,-0.20603521168231964,-0.7392452955245972,-0.5556780695915222,0.01893073134124279
10.65,-0.4858829379081726,-1.1901741027832031,-0.6019445061683655,-0.6267859935760498,-0.8146610856056213,0.7022098898887634
10.7,0.05814850330352783,-1.0214252471923828,-0.7920393347740173,-0.6159646511077881,-1.1327481269836426,1.4066599607467651
10.75,0.15027649700641632,-1.4199037551879883,-0.3976869285106659,-0.7352856993675232,-1.4787145853042603,1.9740248918533325
10.8,0.5553362369537354,-1.760300636291504,-0.3112272322177887,-0.7576563358306885,-1.66560959815979,2.3246726989746094
10.85,0.695915699005127,-1.1252965927124023,-0.07598081976175308,-0.7385438680648804,-1.6691677570343018,2.5237860679626465
10.9,0.6650357246398926,-0.46286675333976746,0.29974037408828735,-0.7274459004402161,-1.6161375045776367,2.529013156890869
10.95,0.7437073588371277,-0.28131768107414246,0.41886618733406067,-0.7195801734924316,-1.480271577835083,2.274928331375122
11.0,0.5461370348930359,-0.5532865524291992,0.40476343035697937,-0.7602343559265137,-1.342044472694397,1.8862355947494507
11.05,0.3967316746711731,-1.2911005020141602,0.3570450246334076,-0.7341684103012085,-1.1999626159667969,1.5707361698150635
11.1,0.09519562125205994,-1.250823974609375,0.5627167224884033,-0.5811587572097778,-1.0802744626998901,1.4431211948394775
11.15,-0.1951351761817932,-0.3173675537109375,0.38764452934265137,-0.35827144980430603,-0.8930699825286865,1.2895563840866089
11.2,-0.23737341165542603,0.5076322555541992,0.16778917610645294,-0.14788806438446045,-0.767815887928009,0.9882532358169556
11.25,-0.3819279372692108,1.7270593643188477,0.11058098822832108,-0.047358766198158264,-0.6957253813743591,0.5735487341880798
11.3,-0.18624810874462128,2.412923812866211,0.0813886821269989,-0.15303683280944824,-0.4786956012248993,-0.0756133496761322
11.35,-0.2745135426521301,2.201870918273926,0.1542094200849533,-0.28263819217681885,-0.20938462018966675,-0.515254557132721
11.4,-0.11563980579376221,1.935765266418457,0.18923848867416382,-0.42758333683013916,0.05254371091723442,-0.6424259543418884
11.45,0.40046411752700806,1.0433149337768555,-0.05750114470720291,-0.5343276262283325,0.3780915439128876,-0.6278801560401917
11.5,0.6136744022369385,0.38867858052253723,0.13271065056324005,-0.5843027830123901,0.5516722202301025,-0.4767574965953827
11.55,0.6536661386489868,-0.32581421732902527,0.1793643981218338,-0.6041561961174011,0.6859585642814636,-0.3766862154006958
11.6,0.8321455121040344,-1.2891693115234375,0.3728730082511902,-0.5096672773361206,0.8736036419868469,-0.41641268134117126
11.65,0.798209011554718,-1.9894146919250488,0.4894903898239136,-0.34361177682876587,1.037224531173706,-0.4707111120223999
11.7,0.3171316981315613,-2.2066359519958496,0.5546223521232605,-0.11232513189315796,1.1300609111785889,-0.48543304204940796
11.75,-0.00431065633893013,-2.2075815200805664,0.09471488744020462,0.13240864872932434,1.1569771766662598,-0.5760335326194763
11.8,-0.38869622349739075,-1.7199792861938477,0.12899638712406158,0.3186616897583008,1.0655204057693481,-0.6217875480651855
11.85,-0.7823350429534912,-1.2211246490478516,-0.1711311936378479,0.4421839714050293,0.9896640777587891,-0.6952723264694214
11.9,-0.9648787975311279,-0.8077945709228516,-0.30403122305870056,0.45447152853012085,0.8306025266647339,-0.6414974331855774
11.95,-1.0223133563995361,-0.2114277184009552,-0.3244660198688507,0.43633371591567993,0.761739194393158,-0.5602924227714539
12.0,-0.9603718519210815,0.34486958384513855,-0.5217667818069458,0.36272698640823364,0.7114871740341187,-0.520947277545929
12.05,-0.9149010181427002,0.6657934188842773,-0.457088440656662,0.21070659160614014,0.6545605659484863,-0.5918267965316772
12.1,-1.1002120971679688,0.7784929275512695,-0.4952762722969055,0.044685617089271545,0.6036978363990784,-0.6857315897941589
12.15,-1.3299821615219116,0.8813418745994568,-0.47280555963516235,-0.08664864301681519,0.5779358744621277,-0.7848681211471558
12.2,-1.5380624532699585,0.2950076758861542,-0.7772828340530396,-0.20515397191047668,0.5089473724365234,-0.8743381500244141
12.25,-1.4140945672988892,0.4486207664012909,-0.5846255421638489,-0.15982095897197723,0.26838919520378113,-0.7666283845901489
12.3,-1.2517507076263428,0.1457357108592987,-0.7693535089492798,-0.17269432544708252,0.1525498628616333,-0.768957257270813
12.35,-0.8317326903343201,0.2278451770544052,-0.6536992788314819,-0.1586921364068985,-0.004611548501998186,-0.7200818061828613
12.4,-0.6026739478111267,0.15833567082881927,-0.5220350027084351,-0.17178237438201904,-0.06889492273330688,-0.72077476978302
12.45,-0.47403430938720703,0.1918935626745224,-0.3425372242927551,-0.12561540305614471,-0.1469798982143402,-0.634023129940033
12.5,-0.19325780868530273,0.33042144775390625,-0.26025351881980896,-0.09545005857944489,-0.16876594722270966,-0.5356006026268005
12.55,-0.0006155744194984436,0.22072410583496094,-0.2103661149740219,-0.07449369132518768,-0.14582817256450653,-0.4730057120323181
12.6,-0.19721563160419464,0.12877941131591797,-0.22397737205028534,-0.05544580519199371,-0.13622993230819702,-0.3741069734096527
12.65,-0.14797726273536682,0.04196929931640625,-0.23390284180641174,-0.03107602521777153,-0.15130235254764557,-0.2093849629163742
12.7,-0.03682585060596466,0.11336994171142578,-0.1433437466621399,-0.016862943768501282,-0.1509869247674942,-0.07930663228034973
12.75,0.16976913809776306,0.16401386260986328,-0.02950609289109707,-0.031476814299821854,-0.1460292935371399,-0.01113457977771759
12.8,0.24297070503234863,0.11741925030946732,0.06174541637301445,-0.025592660531401634,-0.10527826100587845,-0.025312364101409912
12.85,0.45163223147392273,-0.021657932549715042,0.18344825506210327,-0.0378379262983799,-0.054248273372650146,-0.060383010655641556
12.9,0.5872377157211304,-0.035403236746788025,0.15852124989032745,-0.051475849002599716,0.027584277093410492,-0.09623953700065613
12.95,0.6785509586334229,-0.2472238391637802,0.1885499805212021,-0.06521378457546234,0.1364026963710785,-0.12671072781085968
13.0,0.5742034912109375,-0.2179698795080185,0.19394788146018982,-0.061309266835451126,0.24096572399139404,-0.13135036826133728
13.05,0.5780206322669983,-0.14373205602169037,0.11204113811254501,-0.07535938918590546,0.3477233052253723,-0.1340482532978058
13.1,0.46196094155311584,-0.05425165966153145,-0.003297345479950309,-0.09830499440431595,0.4614187479019165,-0.1793387532234192
13.15,0.09741415083408356,-0.06928825378417969,-0.07014928758144379,-0.10310648381710052,0.5439779162406921,-0.20310497283935547
13.2,-0.16797588765621185,-0.15567302703857422,-0.08965487778186798,-0.09105983376502991,0.5626595616340637,-0.1475672572851181
13.25,-0.2939296364784241,-0.11923027783632278,-0.19469034671783447,-0.020482974126935005,0.5421648025512695,-0.039120569825172424
13.3,-0.26056763529777527,0.11532974243164062,-0.3256593942642212,0.0181395523250103,0.5015251040458679,0.06306807696819305
13.35,-0.18928982317447662,0.11424827575683594,-0.3541504144668579,-0.014616183936595917,0.4859342873096466,0.09707017987966537
13.4,-0.23700523376464844,0.1080942153930664,-0.3450961112976074,-0.04171111807227135,0.49416717886924744,0.09143183380365372
13.45,-0.3084339499473572,0.03612994775176048,-0.3117206394672394,-0.07241367548704147,0.5068548917770386,0.034241799265146255
13.5,-0.3979570269584656,0.01876639574766159,-0.4001036286354065,-0.0994310975074768,0.49989771842956543,-0.02309894934296608
13.55,-0.4329470098018646,0.08925818651914597,-0.30153241753578186,-0.13116033375263214,0.47175782918930054,-0.06852361559867859
13.6,-0.43344825506210327,0.08378409594297409,-0.21698902547359467,-0.17439770698547363,0.4483324885368347,-0.10857100784778595
13.65,-0.539156436920166,0.012727724388241768,-0.17298570275306702,-0.17389541864395142,0.4025389552116394,-0.09684485197067261
13.7,-0.5190470218658447,0.035003647208213806,-0.0848860889673233,-0.15086323022842407,0.33219581842422485,-0.004060307051986456
13.75,-0.4457678496837616,0.07608126848936081,-0.16943801939487457,-0.1271209418773651,0.29995274543762207,0.061546240001916885
13.8,-0.4424055218696594,0.12311362475156784,-0.30065202713012695,-0.13672122359275818,0.2864588797092438,0.06829636543989182
13.85,-0.3992083668708801,0.13395307958126068,-0.3078765869140625,-0.17180952429771423,0.28000539541244507,0.03408753126859665
13.9,-0.3972187936306,0.12312888354063034,-0.3985064625740051,-0.19177812337875366,0.2545664310455322,0.021967072039842606
13.95,-0.4760054349899292,0.2179269641637802,-0.3730262219905853,-0.1977521777153015,0.262746125459671,0.024622373282909393
14.0,-0.7370617985725403,0.21298693120479584,-0.3420969247817993,-0.1632043421268463,0.28906017541885376,0.022986894473433495
14.05,-0.8168924450874329,0.14294813573360443,-0.3096171021461487,-0.09256070852279663,0.26870307326316833,0.05148448422551155
14.1,-0.9003174901008606,-0.03641607612371445,-0.4002816677093506,-0.050420258194208145,0.24315083026885986,-7.129667210392654e-05
14.15,-0.9571820497512817,-0.10918524116277695,-0.4028204381465912,-0.06288445740938187,0.1821526288986206,-0.06759718805551529
14.2,-0.9764801859855652,-0.08592703193426132,-0.3351650536060333,-0.06976167112588882,0.12758755683898926,-0.1717151254415512
14.25,-0.9282357096672058,0.010690665803849697,-0.24806204438209534,-0.051369912922382355,0.08051320910453796,-0.23641110956668854
14.3,-0.8826614618301392,0.11911103874444962,-0.15680235624313354,-0.028120703995227814,0.006830389145761728,-0.2896040976047516
14.35,-0.808627188205719,0.1902770698070526,0.004540925845503807,-0.030646152794361115,-0.07037728279829025,-0.32182079553604126
14.4,-0.6475504040718079,0.37532612681388855,-0.05967358127236366,-0.04033958911895752,-0.15653276443481445,-0.32413041591644287
14.45,-0.4472641050815582,0.2181691974401474,-0.12513749301433563,-0.09945732355117798,-0.2295941412448883,-0.3679502606391907
14.5,-0.2741888761520386,0.15753555297851562,-0.121226005256176,-0.18135814368724823,-0.2736973762512207,-0.4334743916988373
14.55,-0.19048693776130676,0.1087493821978569,0.02044336125254631,-0.22933118045330048,-0.3060838282108307,-0.5142637491226196
14.6,-0.11557082831859589,0.13738346099853516,0.0943937599658966,-0.2012806534767151,-0.3502833843231201,-0.5423570871353149
14.65,-0.0988607183098793,-0.06056118384003639,0.11037944257259369,-0.17203375697135925,-0.3994710445404053,-0.5320188999176025
14.7,0.0012611113488674164,-0.2071514129638672,0.1755356639623642,-0.10775334388017654,-0.42513781785964966,-0.46505317091941833
14.75,0.14656010270118713,-0.056406017392873764,-0.08358202129602432,0.02075713872909546,-0.40107372403144836,-0.3860276937484741
14.8,0.21058720350265503,0.1785421520471573,-0.1556396484375,0.05248112976551056,-0.3978581428527832,-0.3065432906150818
14.85,0.26359835267066956,0.2089080959558487,-0.19126953184604645,0.042299702763557434,-0.36839672923088074,-0.26118624210357666
14.9,0.36940550804138184,0.25874996185302734,-0.09535545855760574,0.041120123118162155,-0.3398805856704712,-0.15596789121627808
14.95,0.5497733950614929,0.21156789362430573,0.17004504799842834,0.017830565571784973,-0.31701627373695374,-0.07675500959157944
15.0,0.7087486386299133,0.23082448542118073,0.0967913493514061,0.010530004277825356,-0.2888241708278656,-0.0257105752825737
15.05,1.0235042572021484,0.25826171040534973,0.13705234229564667,-0.0061467550694942474,-0.20585399866104126,-0.056206200271844864
15.1,1.0183192491531372,-0.043082211166620255,0.23622798919677734,-0.05439630523324013,-0.03179040923714638,-0.1780238151550293
15.15,1.0192097425460815,-0.1222524419426918,0.21925097703933716,-0.07850577682256699,0.11236485838890076,-0.17917323112487793
15.2,1.021328330039978,-0.07524202018976212,0.27796751260757446,-0.1052996814250946,0.2577373683452606,-0.1660839319229126
15.25,0.8033605217933655,-0.07839677482843399,0.19998428225517273,-0.13062815368175507,0.4849482774734497,-0.22931091487407684
15.3,0.3381044268608093,-0.05157851427793503,0.09709525853395462,-0.12124092876911163,0.6701576113700867,-0.25830787420272827
15.35,0.11751760542392731,0.002118113450706005,0.03274830803275108,-0.14354479312896729,0.7518187165260315,-0.1621522158384323
15.4,0.01720113679766655,-0.1069173812866211,-0.08984499424695969,-0.18007783591747284,0.7875120639801025,-0.018292011693120003
15.45,0.05634798854589462,-0.09270477294921875,-0.16392216086387634,-0.2580607831478119,0.8262766599655151,0.11611004918813705
15.5,-0.14105001091957092,0.0489349327981472,-0.12215311825275421,-0.3152821958065033,0.8854655027389526,0.14077597856521606
15.55,-0.33033785223960876,-0.021512040868401527,0.07635526359081268,-0.32882392406463623,0.8830721378326416,0.20665618777275085
15.6,-0.5540302991867065,-0.042215362191200256,0.11143895983695984,-0.27077028155326843,0.7813805341720581,0.3503316044807434
15.65,-0.6836205124855042,0.1250734180212021,-0.09896529465913773,-0.16836898028850555,0.6541211605072021,0.4463426172733307
15.7,-0.8496223092079163,0.28052422404289246,-0.2650667428970337,-0.12088429927825928,0.577292799949646,0.4395112693309784
15.75,-1.2316192388534546,0.2733287513256073,-0.27135682106018066,-0.13752904534339905,0.5274996161460876,0.35676467418670654
15.8,-1.3249304294586182,0.4999980628490448,-0.5586345195770264,-0.1514645516872406,0.4246808886528015,0.26581037044525146
15.85,-1.471244215965271,0.4624328315258026,-0.6098909378051758,-0.24765098094940186,0.33534276485443115,0.14979901909828186
15.9,-1.6842526197433472,0.2539338767528534,-0.4064847230911255,-0.30658864974975586,0.22913025319576263,0.06271057575941086
15.95,-1.6978282928466797,0.08713527023792267,-0.3598509430885315,-0.2792989909648895,0.09167758375406265,-0.012886290438473225
16.0,-1.3206639289855957,0.201778382062912,-0.4927605092525482,-0.22542284429073334,-0.044537026435136795,-0.07063966244459152
16.05,-1.1162012815475464,0.26421162486076355,-0.5348520278930664,-0.24899262189865112,-0.1314169317483902,-0.2301730066537857
16.1,-0.8624762296676636,0.2664937674999237,-0.5967321395874023,-0.2683785855770111,-0.20163801312446594,-0.3709005117416382
16.15,-0.45965859293937683,0.3136014938354492,-0.4966205060482025,-0.268965482711792,-0.20569458603858948,-0.5456989407539368
16.2,-0.3492915630340576,0.09955500811338425,-0.3560551404953003,-0.22827571630477905,-0.18545866012573242,-0.7901012897491455
16.25,-0.11221468448638916,0.11538219451904297,-0.01193983107805252,-0.10466013848781586,-0.3074662685394287,-0.797069787979126
16.3,0.22782599925994873,0.16101646423339844,0.412643700838089,0.02075779438018799,-0.47516030073165894,-0.7043676376342773
16.35,0.3766093850135803,-0.13537979125976562,0.6992912888526917,0.05094835162162781,-0.6244531869888306,-0.6085229516029358
16.4,0.44693297147750854,-0.33785152435302734,0.7871999740600586,-0.02065315842628479,-0.6994298100471497,-0.4875478148460388
16.45,0.815898597240448,-0.2590312957763672,0.7190991640090942,-0.15280815958976746,-0.6760275363922119,-0.3896596431732178
16.5,0.9016208648681641,-0.25081536173820496,0.4651516079902649,-0.3112674355506897,-0.5680868625640869,-0.3509027659893036
16.55,0.6498650312423706,-0.1945791095495224,0.029565805569291115,-0.45899996161460876,-0.44480589032173157,-0.28754398226737976
16.6,0.22160488367080688,-0.1092223972082138,-0.465671569108963,-0.5060401558876038,-0.3159615397453308,-0.20367082953453064
16.65,0.27926310896873474,0.20243360102176666,-1.0129449367523193,-0.4533413350582123,-0.22645717859268188,-0.042442090809345245
16.7,-0.028354495763778687,0.07919026166200638,-1.0788642168045044,-0.36599498987197876,-0.15222890675067902,0.0946454405784607
16.75,-0.01648932695388794,0.09436608105897903,-1.0658371448516846,-0.18001753091812134,-0.12419888377189636,0.23157420754432678
16.8,0.22022506594657898,0.25170043110847473,-0.9145895838737488,-0.03165929764509201,-0.03986802324652672,0.24756205081939697
16.85,0.27890968322753906,0.2202463299036026,-0.48596692085266113,0.03075237199664116,0.06053375452756882,0.19769656658172607
16.9,0.3242093622684479,0.2298755794763565,-0.18893839418888092,0.04986170306801796,0.149857297539711,0.05700315907597542
16.95,0.11789724975824356,0.31330108642578125,-0.29240739345550537,0.050418782979249954,0.22308284044265747,-0.06430710852146149
17.0,-0.0514993853867054,0.24165916442871094,-0.22159942984580994,0.039649780839681625,0.23690646886825562,-0.06046594679355621
17.05,-0.3696838319301605,0.06943225115537643,-0.32647231221199036,0.08749459683895111,0.21450521051883698,-0.121817447245121
17.1,-0.27198976278305054,0.15301990509033203,-0.36149120330810547,0.12065976858139038,0.1382763683795929,-0.085436150431633
17.15,-0.059798114001750946,0.29950523376464844,-0.12822225689888,0.08559411019086838,0.08102677762508392,-0.11625589430332184
17.2,-0.19177770614624023,0.17264556884765625,-0.017567196860909462,0.01828029751777649,0.03166968747973442,-0.25366121530532837
17.25,-0.13684126734733582,0.31124305725097656,0.06434796750545502,-0.07002634555101395,-0.020917566493153572,-0.2601231336593628
17.3,-0.22244665026664734,0.4460020065307617,0.06509263813495636,-0.14962568879127502,-0.023679131641983986,-0.312130331993103
17.35,0.02632732316851616,0.45180511474609375,-0.14967648684978485,-0.22037377953529358,-0.052572574466466904,-0.16539791226387024
17.4,0.25531139969825745,0.242464080452919,-0.46722784638404846,-0.308835506439209,-0.05574286729097366,-0.026708023622632027
17.45,0.10492206364870071,0.0332193449139595,-0.3999905288219452,-0.41754043102264404,0.01854114606976509,0.016314193606376648
17.5,-0.2581307291984558,-0.18985271453857422,0.008324364200234413,-0.4574419856071472,0.0764949768781662,0.016258420422673225
17.55,-0.07754795253276825,-0.34639835357666016,0.4352476894855499,-0.44022271037101746,0.09318894892930984,0.1425720453262329
17.6,0.18105942010879517,-0.18636035919189453,0.5698173642158508,-0.45378822088241577,0.14285188913345337,0.1908816248178482
17.65,0.03463955223560333,0.03341769799590111,0.5507226586341858,-0.4387194514274597,0.19316135346889496,0.05793765187263489
17.7,-0.23577333986759186,-0.02430059015750885,0.7212064266204834,-0.40143948793411255,0.26894935965538025,0.10319545120000839
17.75,-0.4661139249801636,-0.12423231452703476,0.5815165042877197,-0.3276125192642212,0.33610159158706665,0.27711760997772217
17.8,-0.8577611446380615,-0.14145949482917786,0.33507639169692993,-0.27564430236816406,0.3304860591888428,0.34254753589630127
17.85,-1.2831919193267822,-0.10806373506784439,0.2653055191040039,-0.25946998596191406,0.15597106516361237,0.41926395893096924
17.9,-1.332468032836914,0.13065049052238464,-0.038718756288290024,-0.1743183732032776,-0.15449921786785126,0.7528301477432251
17.95,-1.1043779850006104,0.026480646803975105,-0.22661635279655457,-0.050436556339263916,-0.3800501823425293,1.1903917789459229
18.0,-0.9393786191940308,-0.6732101440429688,-0.04304738715291023,0.04674774408340454,-0.46327346563339233,1.42118501663208
18.05,-1.1158853769302368,-1.8567943572998047,0.4481292963027954,0.11787351965904236,-0.46949270367622375,1.7166979312896729
18.1,-1.5370275974273682,-3.2958126068115234,1.2642444372177124,0.4415719211101532,-0.6783937811851501,2.3237133026123047
18.15,-0.7134729027748108,-2.5709476470947266,0.3479855954647064,1.221911907196045,-0.9556699395179749,3.2052032947540283
18.2,-0.0298626571893692,-1.346644401550293,-0.7494626641273499,1.9039949178695679,-1.1441090106964111,4.062694072723389
18.25,0.20116856694221497,-0.09499738365411758,-1.3791369199752808,2.359067440032959,-1.4540894031524658,4.9197587966918945
18.3,0.6471611261367798,1.4462451934814453,-1.0618892908096313,2.4443862438201904,-1.6355592012405396,5.439753532409668
18.35,0.4071057438850403,2.9644556045532227,0.09916513413190842,2.2955760955810547,-1.4923831224441528,5.643975257873535
18.4,-0.22848570346832275,2.9450531005859375,0.6716908812522888,1.7751775979995728,-0.8282053470611572,5.238203048706055
18.45,-1.2651245594024658,2.9316530227661133,0.9408870339393616,0.9680598378181458,-0.15816882252693176,4.574624538421631
18.5,-2.1640548706054688,2.2925004959106445,1.1671799421310425,-0.012532353401184082,-0.04416552931070328,3.4838404655456543
18.55,-2.303385019302368,1.3880127668380737,0.5956548452377319,-0.8183680772781372,-0.2061552107334137,1.8724995851516724
18.6,-1.666808009147644,0.2795667350292206,-0.26595914363861084,-1.1387860774993896,-0.5320815443992615,0.21047048270702362
18.65,0.4352520704269409,-0.7389097213745117,-0.44174790382385254,-0.9637498259544373,-1.1281312704086304,-1.3456159830093384
18.7,1.5217273235321045,-1.0469846725463867,0.6569050550460815,-0.3979825973510742,-1.3604704141616821,-2.6415212154388428
18.75,2.603849172592163,-0.9817571043968201,1.2404353618621826,0.16269731521606445,-0.9726669192314148,-4.430407524108887
18.8,4.143072128295898,-1.2654885053634644,1.4101608991622925,0.7116568088531494,-0.30154499411582947,-6.277142524719238
18.85,4.331531524658203,-3.101314067840576,1.3403847217559814,1.0182774066925049,0.3769633173942566,-7.154534339904785
18.9,2.371218204498291,-3.438817024230957,-0.6644316911697388,1.3400599956512451,1.634405493736267,-6.797357082366943
18.95,0.017053723335266113,-2.401810646057129,-2.8193819522857666,1.769045352935791,2.5603885650634766,-5.602095127105713
19.0,-2.6978559494018555,-0.02181723713874817,-4.195356845855713,1.9879777431488037,2.655313491821289,-3.992295980453491
19.05,-4.912301540374756,2.298689842224121,-3.887195110321045,1.5574684143066406,1.8310383558273315,-2.0127649307250977
19.1,-6.0467329025268555,2.72749400138855,-2.819885730743408,0.7964416742324829,0.30716753005981445,0.5157109498977661
19.15,-4.003275394439697,2.170804023742676,-2.5768332481384277,0.22249668836593628,-1.1781306266784668,2.3977837562561035
19.2,-1.204013466835022,1.634810447692871,-2.0862269401550293,-0.1476697325706482,-1.8229913711547852,2.9786036014556885
19.25,0.6593497395515442,1.7979450225830078,-1.1616569757461548,-0.3790828585624695,-1.6559816598892212,2.636754035949707
19.3,0.8721699118614197,1.1301145553588867,-0.29794690012931824,-0.592643678188324,-1.0707415342330933,1.7288438081741333
19.35,0.5562111139297485,-0.2739391028881073,-0.21476635336875916,-0.6841590404510498,-0.5703458786010742,0.9676948189735413
19.4,0.28719502687454224,-1.440119743347168,-0.008591337129473686,-0.6461716294288635,-0.3906138837337494,0.7333610653877258
19.45,-0.26573899388313293,-2.2436132431030273,-0.13508084416389465,-0.4656882882118225,-0.37765201926231384,0.8583468198776245
19.5,-0.2986961603164673,-2.2748866081237793,-0.5728177428245544,-0.256426602602005,-0.5332978367805481,1.2682137489318848
19.55,0.3654326796531677,-1.3421611785888672,-0.821436882019043,-0.11371630430221558,-0.7210088968276978,1.8017964363098145
19.6,0.8844242095947266,0.32917025685310364,-0.5647668838500977,-0.10624188184738159,-0.7743237614631653,2.1642496585845947
19.65,1.0699387788772583,1.598402976989746,-0.27305302023887634,-0.2519679665565491,-0.5918261408805847,2.068845272064209
19.7,0.9604529142379761,1.8941268920898438,-0.22964175045490265,-0.5087162852287292,-0.31200122833251953,1.6554081439971924
19.75,0.8374647498130798,1.3497743606567383,-0.3443257212638855,-0.6953414678573608,-0.04531856253743172,1.155855655670166
19.8,0.4822767376899719,0.479618102312088,-0.3506587743759155,-0.7494468092918396,0.21816781163215637,0.6737360954284668
19.85,0.08217544108629227,-0.7907924652099609,-0.3718069791793823,-0.7042737007141113,0.3702940344810486,0.2271851897239685
19.9,-0.11025524884462357,-1.6473512649536133,-0.38579267263412476,-0.507113516330719,0.32912442088127136,0.03795246407389641
19.95,-0.5386527180671692,-1.4175119400024414,-0.3608148396015167,-0.25119417905807495,0.27317938208580017,-0.029351264238357544
20.0,-1.0024776458740234,-1.0110225677490234,-0.47636839747428894,-0.058743156492710114,0.3377041220664978,-0.4300878643989563
20.05,-1.1903635263442993,-1.0342826843261719,-0.5819627046585083,0.04432627558708191,0.3797489404678345,-0.9274064302444458
20.1,-1.376694679260254,-0.853549063205719,-0.5981574058532715,0.15734446048736572,0.3539002239704132,-1.1573386192321777
20.15,-1.3538522720336914,-0.4012155830860138,-0.6888046264648438,0.2362774908542633,0.33795681595802307,-1.2697607278823853
20.2,-1.3260387182235718,0.1523408591747284,-0.5381300449371338,0.14835533499717712,0.33911430835723877,-1.3204281330108643
20.25,-1.4135336875915527,0.1667928397655487,-0.44772693514823914,0.0695466697216034,0.33903464674949646,-1.2845226526260376
20.3,-1.3451273441314697,0.42670151591300964,-0.29496508836746216,0.10873618721961975,0.24228477478027344,-1.0918664932250977
20.35,-1.219174861907959,0.1376781165599823,-0.17415311932563782,0.09813034534454346,0.1614169031381607,-0.9417250156402588
20.4,-1.2584691047668457,0.019022906199097633,-0.017993032932281494,0.11795777082443237,0.029785731807351112,-0.7116574645042419
20.45,-1.063186526298523,0.10812565684318542,0.005558583419770002,0.1441379189491272,-0.09924767166376114,-0.46665331721305847
20.5,-0.7296445369720459,0.14632509648799896,0.09663765877485275,0.09173747897148132,-0.16350750625133514,-0.33186498284339905
20.55,-0.6972256898880005,0.24958036839962006,0.1852329969406128,0.02164652943611145,-0.18149343132972717,-0.29084011912345886
20.6,-0.8078171610832214,0.21674534678459167,0.16942819952964783,0.0025381147861480713,-0.19582749903202057,-0.27627548575401306
20.65,-0.7791212797164917,-0.007426286116242409,0.252900630235672,-0.015706725418567657,-0.21348071098327637,-0.21473468840122223
20.7,-0.5007504820823669,0.051987629383802414,0.33826321363449097,-0.03439540043473244,-0.21280115842819214,-0.10690709203481674
20.75,-0.23484522104263306,0.27277278900146484,0.32456254959106445,-0.06430456042289734,-0.13207051157951355,-0.0850302129983902
20.8,-0.11364249885082245,0.2253541797399521,0.4372367858886719,-0.10904234647750854,-0.02464674599468708,-0.14050175249576569
20.85,-0.19031381607055664,0.11357592791318893,0.49206066131591797,-0.15305116772651672,0.0762295126914978,-0.18821659684181213
20.9,-0.20839382708072662,0.1596994251012802,0.3540050983428955,-0.19796222448349,0.1667291820049286,-0.2766706347465515
20.95,-0.3996028006076813,0.13654421269893646,0.039594005793333054,-0.2560906410217285,0.2219146192073822,-0.42497095465660095
21.0,-0.76759934425354,-0.10196592658758163,-0.12582558393478394,-0.29206639528274536,0.1949574053287506,-0.48927852511405945
21.05,-1.0086092948913574,-0.28710654377937317,-0.23094423115253448,-0.295144259929657,0.10495902597904205,-0.3821048438549042
21.1,-0.908331036567688,-0.17830850183963776,-0.4258449077606201,-0.2598308026790619,0.007139356806874275,-0.15395066142082214
21.15,-0.5781208276748657,-0.014955530874431133,-0.5193479061126709,-0.2360670268535614,-0.07560712099075317,0.056925926357507706
21.2,-0.3758024275302887,0.09427642822265625,-0.6883459091186523,-0.2085435390472412,-0.08349814265966415,0.13525959849357605
21.25,-0.3394746780395508,0.15599632263183594,-0.9465524554252625,-0.17609243094921112,-0.05196017771959305,0.1406058669090271
21.3,-0.43014249205589294,0.128997802734375,-1.0538164377212524,-0.13920916616916656,-0.01582014188170433,0.1201380044221878
21.35,-0.4924556016921997,-0.06310558319091797,-1.1291462182998657,-0.08276791870594025,0.017011627554893494,0.11345405876636505
21.4,-0.3374025225639343,-0.11456298828125,-1.0184695720672607,-0.0012384168803691864,0.018796229735016823,0.15556170046329498
21.45,-0.06369881331920624,0.12541770935058594,-0.6669223308563232,0.08356695622205734,0.034608401358127594,0.1483897715806961
21.5,0.0718265026807785,0.19783592224121094,-0.3770536184310913,0.13596317172050476,0.12715661525726318,0.013725172728300095
21.55,0.11277571320533752,0.013053898699581623,-0.18309223651885986,0.1632215678691864,0.22300219535827637,-0.12391724437475204
21.6,0.16554999351501465,-0.05250262841582298,-0.012545431032776833,0.17944185435771942,0.2638688385486603,-0.19428934156894684
21.65,0.15126380324363708,-0.1618661880493164,0.1865946352481842,0.13262131810188293,0.30104684829711914,-0.23049978911876678
21.7,0.16808345913887024,-0.1994771957397461,0.1777275800704956,0.06417063623666763,0.3237205147743225,-0.21458901464939117
21.75,0.09209845960140228,0.0036582951433956623,0.19422532618045807,0.006251707673072815,0.3266611099243164,-0.20548398792743683
21.8,-0.10090535879135132,0.12700748443603516,0.16867589950561523,-0.04451465606689453,0.37212613224983215,-0.238711878657341
21.85,-0.2553587257862091,0.08616160601377487,0.12505586445331573,-0.09309690445661545,0.43164458870887756,-0.2527715265750885
21.9,-0.26975905895233154,0.014247885905206203,0.08406239748001099,-0.11378129571676254,0.46707889437675476,-0.21699392795562744
21.95,-0.2780316472053528,-0.020252235233783722,-0.05428394675254822,-0.097432442009449,0.5098228454589844,-0.19447970390319824
22.0,-0.3737230598926544,0.08758639544248581,-0.06539025157690048,-0.08414566516876221,0.5387440919876099,-0.18091070652008057
22.05,-0.4040357768535614,0.20026682317256927,0.010193130001425743,-0.0665944293141365,0.5447263717651367,-0.1459617018699646
22.1,-0.5570058822631836,0.0981883853673935,0.056899551302194595,-0.05133741721510887,0.5498607754707336,-0.08250570297241211
22.15,-0.6656173467636108,0.07061002403497696,0.0174753088504076,-0.02622615545988083,0.5389560461044312,0.024583343416452408
22.2,-0.4402817189693451,0.27054595947265625,-0.12169922143220901,0.009530384093523026,0.5011616945266724,0.12874643504619598
22.25,-0.3375743329524994,0.2935657501220703,-0.21338506042957306,-0.012931842356920242,0.49073323607444763,0.1316515952348709
22.3,-0.36508888006210327,0.15708063542842865,-0.1206773892045021,-0.049907147884368896,0.49307873845100403,0.07134424895048141
22.35,-0.3292240500450134,0.09224414080381393,-0.21440008282661438,-0.06434737145900726,0.4937617778778076,0.029675938189029694
22.4,-0.25687795877456665,0.2334299087524414,-0.36040323972702026,-0.09823887795209885,0.490559846162796,-0.029716458171606064
22.45,-0.4074975848197937,0.10431098192930222,-0.3508358597755432,-0.16695669293403625,0.5306740999221802,-0.16353760659694672
22.5,-0.6296235918998718,-0.05959226191043854,-0.2647740840911865,-0.18183839321136475,0.5511170029640198,-0.2275148630142212
22.55,-0.667413055896759,0.005408271681517363,-0.2818131148815155,-0.13904136419296265,0.5265481472015381,-0.19404780864715576
22.6,-0.6668344736099243,0.0421743243932724,-0.32973241806030273,-0.11681999266147614,0.5078830122947693,-0.16539645195007324
22.65,-0.6912217140197754,0.02415369264781475,-0.282151997089386,-0.1303386688232422,0.47805482149124146,-0.15329097211360931
22.7,-0.6879422664642334,-0.058769240975379944,-0.233357772231102,-0.15900298953056335,0.42980360984802246,-0.1416430026292801
22.75,-0.7815061211585999,-0.07919218391180038,-0.1641158014535904,-0.1780795454978943,0.359322190284729,-0.14659738540649414
22.8,-0.8750979900360107,0.06688974052667618,-0.021632878109812737,-0.17750033736228943,0.26335909962654114,-0.13781577348709106
22.85,-0.8463460206985474,0.17685601115226746,0.10374569147825241,-0.15783163905143738,0.15510448813438416,-0.10409998148679733
22.9,-0.7850330471992493,0.10957429558038712,0.06955382227897644,-0.14496634900569916,0.06074771285057068,-0.0514485202729702
22.95,-0.8034995198249817,0.025076843798160553,-0.031151771545410156,-0.14756576716899872,-0.02747395634651184,-0.030835740268230438
23.0,-0.8302101492881775,0.12171933799982071,-0.17991313338279724,-0.17160749435424805,-0.1337003856897354,-0.05329563841223717
23.05,-0.647799551486969,0.3154888153076172,-0.3097643256187439,-0.20656289160251617,-0.22934769093990326,-0.11593348532915115
23.1,-0.5217413902282715,0.30945396423339844,-0.25444120168685913,-0.2746182978153229,-0.26959025859832764,-0.2097516506910324
23.15,-0.636250913143158,0.07334420830011368,0.09918391704559326,-0.31922268867492676,-0.2707855701446533,-0.278817355632782
23.2,-0.7202823758125305,-0.15180686116218567,0.5193413496017456,-0.22475379705429077,-0.2885811924934387,-0.23177862167358398
23.25,-0.5567591190338135,-0.1251230388879776,0.5429227352142334,-0.06334495544433594,-0.31985172629356384,-0.0990162193775177
23.3,-0.31527024507522583,0.1562623828649521,0.2743060886859894,0.034499846398830414,-0.3291522264480591,0.0024015153758227825
23.35,-0.18998248875141144,0.22581195831298828,0.14864134788513184,0.0060625383630394936,-0.2845064699649811,0.016743449494242668
23.4,-0.024691244587302208,0.12616825103759766,0.023137539625167847,-0.08061124384403229,-0.20754027366638184,-0.01485332939773798
23.45,0.027637716382741928,-0.04438495635986328,-0.0026700515300035477,-0.17999568581581116,-0.10785228759050369,-0.048605676740407944
23.5,-0.02680986374616623,-0.24408531188964844,0.060362886637449265,-0.2561253607273102,0.01445979718118906,-0.07542423158884048
23.55,-0.027509812265634537,-0.29220104217529297,0.03934914991259575,-0.2806107699871063,0.12259425967931747,-0.08465336263179779
23.6,-0.09382672607898712,-0.2947416305541992,-0.04006677493453026,-0.28811490535736084,0.2024773806333542,-0.0953032597899437
23.65,-0.1523691713809967,-0.20514297485351562,-0.1240907534956932,-0.28813743591308594,0.23328810930252075,-0.0906655490398407
23.7,-0.19571760296821594,-0.08544540405273438,-0.226843923330307,-0.2867988049983978,0.23447193205356598,-0.09557746350765228
23.75,-0.2732212245464325,-0.18136024475097656,-0.29424023628234863,-0.29604628682136536,0.21973206102848053,-0.11409834027290344
23.8,-0.2211436927318573,-0.20038700103759766,-0.24495717883110046,-0.28622907400131226,0.1711268126964569,-0.11023835837841034
23.85,-0.09755415469408035,-0.06527423858642578,-0.2770070433616638,-0.27169468998908997,0.13230842351913452,-0.1344568133354187
23.9,-0.10038939118385315,-0.011857984587550163,-0.42101535201072693,-0.27602308988571167,0.11848253756761551,-0.18877080082893372
23.95,-0.16835880279541016,-0.13196468353271484,-0.4869268536567688,-0.28625717759132385,0.08632739633321762,-0.23047903180122375
24.0,-0.2614889442920685,-0.05058574676513672,-0.6436122059822083,-0.30925363302230835,0.05732668191194534,-0.27205586433410645
24.05,-0.3615667223930359,0.10187435150146484,-0.7512731552124023,-0.3339610695838928,0.030947411432862282,-0.30754393339157104
24.1,-0.4838694632053375,0.03162669390439987,-0.5756597518920898,-0.34295400977134705,0.0022824497427791357,-0.3352918028831482
24.15,-0.4915035367012024,0.06624888628721237,-0.5816441774368286,-0.31887882947921753,-0.026332831010222435,-0.32115262746810913
24.2,-0.47591981291770935,0.1773233413696289,-0.702079713344574,-0.27349358797073364,-0.05117436870932579,-0.29307717084884644
24.25,-0.5858368873596191,0.24376104772090912,-0.7078869342803955,-0.23862800002098083,-0.06305937469005585,-0.3289419710636139
24.3,-0.6087170839309692,0.34633636474609375,-0.8093525171279907,-0.2376437485218048,-0.09179076552391052,-0.3599306046962738
24.35,-0.6091352701187134,0.45278358459472656,-0.8262198567390442,-0.2881401777267456,-0.12937599420547485,-0.37824440002441406
24.4,-0.6630132794380188,0.38307666778564453,-0.6741736531257629,-0.34960389137268066,-0.14538371562957764,-0.4361947178840637
24.45,-0.6068195104598999,0.29724693298339844,-0.544359564781189,-0.35399118065834045,-0.17885050177574158,-0.45497313141822815
24.5,-0.42932987213134766,0.32621097564697266,-0.5586950778961182,-0.28537678718566895,-0.2290063500404358,-0.4381615221500397
24.55,-0.3047599792480469,0.21683597564697266,-0.4591796398162842,-0.22032660245895386,-0.24127253890037537,-0.4367372989654541
24.6,-0.24016448855400085,0.0988302230834961,-0.27556025981903076,-0.18875668942928314,-0.2436126172542572,-0.47499775886535645
24.65,-0.2118188738822937,0.11740398406982422,-0.26910653710365295,-0.1528756022453308,-0.2731405794620514,-0.5113134384155273
24.7,-0.1634484827518463,0.03527640923857689,-0.2080289125442505,-0.12863461673259735,-0.30706921219825745,-0.49222496151924133
24.75,-0.03338697552680969,0.000588417868129909,-0.1637621968984604,-0.10171832144260406,-0.3359031081199646,-0.46070897579193115
24.8,0.10774153470993042,0.07518769055604935,-0.12379740178585052,-0.07130278646945953,-0.3466583490371704,-0.43822938203811646
24.85,0.3002440631389618,0.1477537304162979,-0.10481350868940353,-0.05903565138578415,-0.33215224742889404,-0.42936331033706665
24.9,0.49491700530052185,0.09742452204227448,-0.09758835285902023,-0.08060304820537567,-0.3065783679485321,-0.45076364278793335
24.95,0.6898002624511719,0.0022192196920514107,-0.038722842931747437,-0.12730242311954498,-0.26554036140441895,-0.5124131441116333
25.0,1.071861743927002,-0.02438446879386902,-0.08880141377449036,-0.15209737420082092,-0.19710247218608856,-0.5566655397415161
25.05,1.347612738609314,-0.05883880332112312,-0.20074957609176636,-0.12575042247772217,-0.06292819231748581,-0.4765966236591339
25.1,1.268225073814392,-0.03567882627248764,-0.2216244339942932,-0.05317145213484764,0.13309036195278168,-0.2256527543067932
25.15,1.0464191436767578,-0.033667534589767456,-0.16315576434135437,0.010656233876943588,0.36112239956855774,0.07225748151540756
25.2,0.6889608502388,0.08311369270086288,-0.17843428254127502,0.006846524775028229,0.5860307216644287,0.22910359501838684
25.25,-0.001971125602722168,0.30903148651123047,-0.15612734854221344,-0.05250164121389389,0.7195172905921936,0.2251829355955124
25.3,-0.9051287174224854,0.464687317609787,-0.10063426196575165,-0.11176986992359161,0.722161591053009,0.17795626819133759
25.35,-1.6761459112167358,0.4550427794456482,-0.12506048381328583,-0.1481015384197235,0.5831710696220398,0.12445874512195587
25.4,-2.055227518081665,0.31347841024398804,-0.2189873903989792,-0.2070864737033844,0.3263138234615326,0.023390652611851692
25.45,-1.6968097686767578,0.2542886435985565,-0.4407709240913391,-0.26267528533935547,0.0574822798371315,-0.08197920769453049
25.5,-0.8160054087638855,0.16077326238155365,-0.6121464967727661,-0.23171712458133698,-0.1279492974281311,-0.1809934824705124
25.55,-0.05840384215116501,-0.10057353973388672,-0.36806991696357727,-0.17743118107318878,-0.22316285967826843,-0.28986620903015137
25.6,0.6723012328147888,-0.24904344975948334,-0.12226707488298416,-0.11926917731761932,-0.2671428918838501,-0.36296698451042175
25.65,1.4218522310256958,-0.25839897990226746,-0.1919908970594406,-0.04023559391498566,-0.2627537250518799,-0.35291755199432373
25.7,1.5066649913787842,-0.2276591807603836,-0.1789696216583252,-0.03243771940469742,-0.1123756542801857,-0.2845788896083832
25.75,0.649546205997467,-0.0671539157629013,0.07534420490264893,-0.0516364760696888,0.12878639996051788,-0.16696076095104218
25.8,-0.9239387512207031,0.008706062100827694,0.4990357756614685,0.056603141129016876,0.21612928807735443,0.12265069782733917
25.85,-2.844836473464966,-0.16495618224143982,0.7511987686157227,0.2904336452484131,-0.08554035425186157,0.8390417098999023
25.9,-3.824716567993164,-0.6507846117019653,0.13078652322292328,0.5871230363845825,-0.831195056438446,2.0851006507873535
25.95,-2.6142661571502686,-1.407328724861145,-1.1270511150360107,0.7485095262527466,-1.7289434671401978,3.450014114379883
26.0,-0.4542367160320282,-1.5602607727050781,-1.7295050621032715,0.6683349609375,-2.4576520919799805,4.336491584777832
26.05,0.5396277904510498,-1.4277725219726562,-1.3843512535095215,0.6581799387931824,-2.7864723205566406,4.64403772354126
26.1,0.9543391466140747,-1.7454633712768555,-1.0460399389266968,0.9081791639328003,-2.688922643661499,4.972048759460449
26.15,1.8977022171020508,-1.5748614072799683,-1.1098911762237549,1.0868022441864014,-2.336111307144165,5.695273399353027
26.2,2.5982348918914795,-0.5598496794700623,-0.6593255996704102,0.9367111921310425,-2.0282633304595947,6.304266929626465
26.25,2.0107429027557373,0.47844892740249634,0.3368050456047058,0.7236150503158569,-1.6761882305145264,6.124317169189453
26.3,1.0564088821411133,1.1669502258300781,0.7767180800437927,0.48098695278167725,-0.9603109955787659,5.0689849853515625
26.35,-0.07998797297477722,2.663651466369629,1.067130446434021,0.1548442840576172,-0.23758773505687714,3.856788396835327
26.4,-2.1401314735412598,4.386787414550781,1.5194100141525269,-0.1995447874069214,-0.06535343080759048,2.8074066638946533
26.45,-2.8361456394195557,4.20684814453125,1.6588994264602661,-0.5230482220649719,-0.20155993103981018,1.448040246963501
26.5,-2.2096660137176514,2.5793066024780273,1.4094001054763794,-0.9074965715408325,-0.14702171087265015,0.29258012771606445
26.55,-2.0543737411499023,0.7239283919334412,0.5652403831481934,-1.3191847801208496,-0.09751788526773453,-0.21158990263938904
26.6,-1.7374076843261719,-0.9678669571876526,-0.21459528803825378,-1.483243465423584,-0.19433152675628662,-0.5642886757850647
26.65,-1.4090614318847656,-1.916311264038086,-0.6273753643035889,-1.3472156524658203,-0.37447431683540344,-0.861979603767395
26.7,-1.0730396509170532,-2.2502589225769043,-0.6508951783180237,-0.9370994567871094,-0.5776486396789551,-1.1946451663970947
26.75,-0.43902477622032166,-2.6452741622924805,-0.5170014500617981,-0.38336867094039917,-0.6946617364883423,-1.6956051588058472
26.8,0.10049719363451004,-2.707965850830078,-0.17127454280853271,0.2984578609466553,-0.7595852613449097,-2.2301273345947266
26.85,0.9660188555717468,-2.3569955825805664,0.2063068002462387,1.032247543334961,-0.8329929113388062,-2.8924102783203125
26.9,2.1852784156799316,-2.234419822692871,0.9748359322547913,1.7495036125183105,-0.8302741050720215,-3.5621519088745117
26.95,2.2398836612701416,-1.74652099609375,1.3762450218200684,2.3710200786590576,-0.5720396041870117,-3.6444129943847656
27.0,1.480299711227417,-0.7418146133422852,1.0864695310592651,2.6651430130004883,-0.2959304749965668,-3.287102222442627
27.05,0.9892277121543884,-0.5488948822021484,0.7035619616508484,2.529850721359253,-0.014136375859379768,-2.890099048614502
27.1,0.7072949409484863,-0.4075154960155487,0.15678013861179352,2.356362819671631,0.38154730200767517,-1.9773454666137695
27.15,0.6498284935951233,0.6541404724121094,-0.4688141345977783,2.177766799926758,0.6366010308265686,-0.9628421068191528
27.2,0.38027113676071167,0.9087600708007812,-0.7683958411216736,2.176072120666504,0.6670892238616943,-0.4994910657405853
27.25,-0.10981285572052002,1.0172119140625,-1.2062596082687378,2.538745403289795,0.4738748073577881,-0.019970521330833435
27.3,-0.4532601833343506,2.0221643447875977,-1.3540064096450806,2.3488285541534424,0.17779052257537842,0.30595630407333374
27.35,-0.8458093404769897,1.599501609802246,-0.7156623005867004,1.5476568937301636,0.007713538594543934,0.10859376192092896
27.4,-0.649626612663269,0.5597057342529297,-0.4412463903427124,0.9655366539955139,0.08488902449607849,-0.17440125346183777
27.45,-0.32969385385513306,-0.8348722457885742,-0.42486104369163513,1.0408722162246704,0.24951499700546265,-0.5796889066696167
27.5,-0.1713215857744217,-0.9169435501098633,-0.42173895239830017,1.253352403640747,0.30741366744041443,-0.42936059832572937
27.55,0.4026980400085449,-0.1286153644323349,-0.4458502531051636,0.7256253957748413,0.13000236451625824,0.2894657254219055
27.6,0.6853786110877991,1.227787971496582,-0.535703718662262,-0.4289030134677887,-0.11779841035604477,0.7165547013282776
27.65,0.12169373035430908,1.4494256973266602,-0.7724196910858154,-1.7075748443603516,-0.5216215252876282,0.33330008387565613
27.7,-0.10075215995311737,-0.06054973229765892,-0.5260113477706909,-2.084528923034668,-0.8949397206306458,-0.3560161888599396
27.75,0.15731382369995117,-0.41657543182373047,0.08121733367443085,-1.2675145864486694,-0.8154112100601196,-0.533446729183197
27.8,0.6013867855072021,-0.13347433507442474,0.24475878477096558,-0.2699291706085205,-0.3007342219352722,-0.2687453627586365
27.85,0.788581907749176,0.48752596974372864,-0.2051188200712204,-0.01619010791182518,0.06716661155223846,-0.19266261160373688
27.9,0.9188305735588074,0.5428724884986877,-0.44424745440483093,-0.4497913122177124,0.05827903002500534,-0.3734399080276489
27.95,1.153647541999817,1.2029895782470703,-0.5365369319915771,-1.0469261407852173,0.0023448187857866287,-0.10611405968666077
28.0,1.4398887157440186,1.0945587158203125,-0.46869760751724243,-1.434517741203308,0.021409979090094566,-0.11276882886886597
28.05,1.5674760341644287,0.5005627274513245,-0.37398162484169006,-1.674595832824707,0.22074873745441437,-0.00279038492590189
28.1,1.680660605430603,0.309939444065094,-0.3717058300971985,-1.793165922164917,0.5493720173835754,0.3181307315826416
28.15,1.7065073251724243,-0.4199199080467224,-0.2824341654777527,-1.7705436944961548,0.9580488204956055,0.4035152792930603
28.2,1.4802647829055786,-1.0378093719482422,-0.29807525873184204,-1.3477232456207275,1.5621360540390015,0.4062214493751526
28.25,1.0533219575881958,-1.5072898864746094,-0.6200125813484192,-0.8006545305252075,2.195460319519043,0.35391297936439514
28.3,0.666802167892456,-1.7568683624267578,-0.300277441740036,-0.3547971844673157,2.5415141582489014,0.29798346757888794
28.35,0.4092443883419037,-2.177072048187256,-0.40852370858192444,0.12005023658275604,2.850658893585205,0.10755769163370132
28.4,0.2957296371459961,-3.372685432434082,-0.8019412755966187,0.6159716844558716,3.0729470252990723,0.1549222320318222
28.45,-0.00537438690662384,-3.2934017181396484,-0.7080504298210144,1.6776517629623413,3.0297224521636963,0.7569530010223389
28.5,-1.3697211742401123,-0.6145257949829102,-0.8716179132461548,3.114647150039673,3.09112286567688,0.9653257131576538
28.55,-2.751314401626587,2.212556838989258,-0.4394226670265198,3.627589225769043,2.957429885864258,0.31842848658561707
28.6,-2.815739393234253,3.0548763275146484,1.0240252017974854,2.7936182022094727,1.9876725673675537,0.10846078395843506
28.65,-2.2193753719329834,1.1643608808517456,0.6700892448425293,1.9073575735092163,0.8078605532646179,0.7053526043891907
28.7,-2.1274797916412354,0.4809407591819763,0.13129974901676178,2.250433921813965,-0.07285667955875397,1.711524486541748
28.75,-3.170128583908081,0.6997288465499878,0.7558851838111877,2.4698050022125244,-0.7321469783782959,2.1761791706085205
28.8,-2.949355363845825,-0.14489468932151794,1.0330523252487183,1.8944557905197144,-1.008631944656372,1.40590500831604
28.85,-1.6032023429870605,-0.762153685092926,-0.1636994183063507,1.1830474138259888,-1.1373361349105835,0.25067493319511414
28.9,-0.8749946355819702,-0.7930660247802734,-0.6982486248016357,0.9661822319030762,-1.8654017448425293,-0.2316458523273468
28.95,1.0408622026443481,-0.05465313419699669,-0.4257511496543884,1.431812047958374,-1.6905287504196167,-0.10265593975782394
29.0,0.8019814491271973,0.2845011055469513,0.13216106593608856,1.560338020324707,-0.3056574761867523,0.29941675066947937
29.05,-0.16266874969005585,0.09833239763975143,0.46761244535446167,1.20676589012146,0.4011959433555603,0.3476177752017975
29.1,-0.7869160771369934,-0.01158240344375372,0.6815955638885498,1.0144248008728027,0.27671849727630615,0.39938434958457947
29.15,-1.6325634717941284,-0.6748285889625549,0.4877904951572418,0.8861201405525208,-0.577492356300354,0.4275255501270294
29.2,-1.7045754194259644,-0.7577553391456604,0.63115394115448,0.8789196014404297,-1.4729466438293457,0.21251986920833588
29.25,-1.245172142982483,0.6395387053489685,0.8430653214454651,0.5930200815200806,-1.4752649068832397,0.02438986301422119
29.3,-0.7895586490631104,0.1056813970208168,-0.14800751209259033,0.058051109313964844,-1.4900233745574951,-0.43266531825065613
29.35,1.1728236675262451,-0.05332275480031967,-0.5361132621765137,0.3329795002937317,-1.4230537414550781,-0.48444029688835144
29.4,-0.015243202447891235,0.8094911575317383,-0.3201388716697693,0.447647362947464,-1.1243274211883545,0.6045534610748291
29.45,0.5631396770477295,-0.17378519475460052,0.11690597981214523,0.3071576952934265,-0.7199533581733704,0.7847679853439331
29.5,-0.24220043420791626,0.141935333609581,0.28039222955703735,0.3450295329093933,-0.37778493762016296,0.5763457417488098
29.55,-0.4878860116004944,-0.48168566823005676,1.879746913909912,0.36998921632766724,-0.13871575891971588,-0.7362604141235352
29.6,2.5357506275177,-1.9794425964355469,2.5990235805511475,0.5263915657997131,0.27780166268348694,-1.1132246255874634
29.65,2.987205982208252,-1.037734866142273,0.9405748844146729,0.5149540901184082,0.38196155428886414,-0.08392035961151123
29.7,-0.6115415096282959,-0.256041556596756,1.1136283874511719,0.11123420298099518,0.10803456604480743,0.3378198444843292
29.75,-0.19595971703529358,-0.6150703430175781,0.8780739903450012,-0.009884309023618698,0.4665834307670593,-0.1613599807024002
29.8,-0.454426646232605,-0.4840240776538849,0.34760093688964844,0.05154411494731903,0.3823939859867096,0.04956061765551567
29.85,-0.5225139260292053,-0.5738382339477539,0.06248106434941292,0.2818295657634735,0.1712038218975067,0.02158927731215954
29.9,-0.22581955790519714,-0.5447263717651367,-0.12468743324279785,0.44310274720191956,0.2627864480018616,-0.16794519126415253
29.95,-0.3722870945930481,-0.3241119384765625,0.10528763383626938,0.4580822288990021,0.2875621020793915,-0.17762702703475952
30.0,-0.5293638110160828,0.13652323186397552,0.6181855201721191,0.2664268910884857,0.1519148349761963,-0.09478230774402618
30.05,-0.27286243438720703,0.48096367716789246,0.7076924443244934,-0.06250794976949692,-0.05119638890028,-0.11383363604545593
30.1,-0.708284318447113,0.6654577255249023,0.7218530178070068,-0.20915253460407257,-0.3636208474636078,-0.18408504128456116
30.15,-1.1741819381713867,0.6499051451683044,0.709215521812439,-0.27487194538116455,-0.4639965891838074,-0.4510209262371063
30.2,-0.9509327411651611,0.31270691752433777,0.14007358253002167,-0.4719456732273102,-0.1986718475818634,-0.6979862451553345
30.25,-1.0403181314468384,0.3731937110424042,-0.8464267253875732,-0.6733732223510742,0.43486297130584717,-0.9094203114509583
30.3,-0.7778714895248413,0.4129486083984375,-1.3562456369400024,-0.5733172297477722,1.0185270309448242,-1.519277572631836
30.35,0.715949535369873,-0.36235615611076355,-0.1682693511247635,-0.2993999123573303,1.1482008695602417,-2.1832211017608643
30.4,1.1503982543945312,-0.5807008743286133,0.2742745578289032,-0.320097416639328,1.2609981298446655,-2.2548296451568604
30.45,1.4185926914215088,-0.8244370818138123,0.22335031628608704,-0.2051440179347992,1.399722695350647,-1.9189249277114868
30.5,1.1452312469482422,-0.20931431651115417,0.10240211337804794,-0.0556943416595459,1.0645248889923096,-1.2364989519119263
30.55,0.3780389726161957,0.2175436168909073,-0.12107356637716293,-0.02467438578605652,0.7475495338439941,-0.9763026237487793
30.6,-0.018181562423706055,-0.8023595809936523,-0.8378333449363708,-0.09226936101913452,0.7069019079208374,-1.1777784824371338
30.65,-0.23921050131320953,-0.3379936218261719,-1.2515980005264282,-0.24848511815071106,0.3955996036529541,-0.9606468677520752
30.7,-0.345089852809906,-0.8237667083740234,-1.1206727027893066,-0.2759957015514374,0.09540252387523651,-0.8246424794197083
30.75,-0.6510399580001831,-1.2160100936889648,-0.43198683857917786,0.3702760636806488,0.19469483196735382,-1.0889792442321777
30.8,0.8505250215530396,-1.125035285949707,0.26492974162101746,1.22810697555542,0.5766107439994812,-1.7907776832580566
30.85,2.228694200515747,-1.393235206604004,0.608697235584259,1.4564316272735596,0.9382405877113342,-1.627623438835144
30.9,1.3440219163894653,-1.9490013122558594,0.1935325264930725,1.6396900415420532,1.1507904529571533,-0.8122528791427612
30.95,1.081923246383667,-3.0626721382141113,-0.8540616035461426,1.577627182006836,0.8508067727088928,0.018079426139593124
31.0,1.0531702041625977,-1.6215553283691406,-1.9753376245498657,1.3171758651733398,0.4349188804626465,0.808139443397522
31.05,0.7435826063156128,0.8420267105102539,0.2176646888256073,0.9103291034698486,0.5376733541488647,0.4581914246082306
31.1,0.619787335395813,0.9673061370849609,-0.04285815358161926,0.2880632281303406,1.4024100303649902,-0.4531323313713074
31.15,0.3958010971546173,0.6943740844726562,-0.18118220567703247,0.15681655704975128,1.532857060432434,-0.5107540488243103
31.2,-0.374805748462677,0.30577754974365234,-0.048970840871334076,0.33104845881462097,1.3355766534805298,-0.22339889407157898
31.25,-0.6350441575050354,0.15300463140010834,0.04045288637280464,0.2468300312757492,1.031934380531311,-0.19661976397037506
31.3,-0.4160117506980896,0.020812977105379105,-0.08145801723003387,0.17679430544376373,0.8609139323234558,-0.389314740896225
31.35,-0.5594892501831055,-0.27977657318115234,-0.6361401081085205,0.34380805492401123,0.6223929524421692,-0.433481901884079
31.4,-0.6271073818206787,-0.2941560745239258,-0.5330773591995239,0.6067861318588257,0.11309469491243362,-0.25181421637535095
31.45,-0.3298969864845276,-0.12183380872011185,-0.32074791193008423,0.7014617323875427,-0.2804012596607208,-0.13940615952014923
31.5,0.24895143508911133,0.627899169921875,-0.0733269453048706,0.5577534437179565,-0.37323495745658875,-0.19035474956035614
31.55,0.502403974533081,1.2630395889282227,-0.37693414092063904,0.2923842668533325,-0.26710885763168335,-0.32313477993011475
31.6,0.07831351459026337,0.7787599563598633,-0.1675645112991333,0.01843404769897461,-0.31997019052505493,-0.32430875301361084
31.65,-0.24324093759059906,1.2953290939331055,0.1912495642900467,-0.06396976858377457,-0.21342673897743225,-0.393267422914505
31.7,-0.11393643915653229,0.9871959686279297,0.4792962968349457,0.0074412524700164795,0.030599674209952354,-0.4911431074142456
31.75,-0.3861006498336792,-0.8247137069702148,-0.07936791330575943,0.054997414350509644,-0.03577231615781784,-0.3926115930080414
31.8,-0.10794933140277863,-1.617873191833496,0.09951953589916229,0.03770573437213898,-0.22842559218406677,-0.43902894854545593
31.85,0.3957424461841583,-0.8482398986816406,-0.018557202070951462,0.055800214409828186,-0.1103440597653389,-0.623227596282959
31.9,0.35670164227485657,0.09312821924686432,-0.18901628255844116,0.18306277692317963,-0.13277094066143036,-0.5888109803199768
31.95,0.2986423969268799,0.7161350250244141,0.11617226153612137,0.21187876164913177,-0.3213117718696594,-0.25012844800949097
32.0,0.15810564160346985,0.42104053497314453,0.13023483753204346,0.15626507997512817,-0.2772640883922577,-0.10654732584953308
32.05,-0.25360777974128723,-0.06447125226259232,-0.20740388333797455,0.3719604015350342,0.03890588507056236,-0.17365294694900513
32.1,-0.08259429037570953,0.04099177196621895,0.711357831954956,0.4686410129070282,0.13403576612472534,-0.2043159306049347
32.15,0.6178473234176636,0.26453685760498047,0.5675050020217896,0.18777193129062653,0.2732025980949402,-0.3060402572154999
32.2,1.3033946752548218,0.42489340901374817,-0.20630528032779694,-0.16360144317150116,0.12576013803482056,-0.11678393930196762
32.25,0.3554531931877136,0.3385496437549591,-0.6959603428840637,-0.20490828156471252,0.02573365718126297,0.21916501224040985
32.3,-0.9173852801322937,0.23187445104122162,-0.4458000659942627,-0.1552981436252594,0.06057059019804001,0.45121392607688904
32.35,-1.015830159187317,0.4651136100292206,-0.14441494643688202,-0.12374680489301682,-0.01567780040204525,0.2756200432777405
32.4,-0.1603718101978302,0.02730751223862171,-0.6659168004989624,-0.04644721746444702,0.09607041627168655,-0.22912314534187317
32.45,1.5392087697982788,1.1201906204223633,-0.06463652849197388,-0.006898345425724983,-0.045651841908693314,-0.09238278865814209
32.5,1.1588079929351807,0.2848081886768341,-0.05386044830083847,-0.0899343490600586,0.4042285084724426,0.03358425945043564
32.55,-0.09859982877969742,-0.7930335998535156,-0.08272597193717957,-0.1826404631137848,0.3338862359523773,0.36868682503700256
32.6,-0.8360943794250488,-0.5245266556739807,0.7750989198684692,-0.3368641138076782,0.13295823335647583,0.28148025274276733
32.65,-0.8494889140129089,-0.5096254944801331,0.6332524418830872,-0.5180860161781311,0.088335782289505,-0.0793921947479248
32.7,-0.13564030826091766,-0.653233528137207,0.2410944402217865,-0.32439711689949036,-0.13427068293094635,-0.09416002035140991
32.75,0.6576533913612366,-0.42037102580070496,0.10466325283050537,-0.03515192121267319,-0.3418007493019104,-0.006800690665841103
32.8,0.6285127401351929,-0.0992126315832138,-0.06104505434632301,0.034331388771533966,-0.21674951910972595,-0.016177423298358917
32.85,0.42673608660697937,-0.1177205890417099,-0.21840661764144897,0.051592662930488586,-0.22013971209526062,0.15341021120548248
32.9,0.04880491644144058,-0.8047323226928711,0.28354430198669434,0.16972261667251587,-0.29352954030036926,0.24425674974918365
32.95,0.07103552669286728,0.24079227447509766,-0.3080989122390747,0.22863322496414185,0.022792553529143333,0.006027944851666689
33.0,-0.09948543459177017,0.8308191299438477,-0.18802864849567413,0.3125697076320648,0.09491489827632904,-0.04632798209786415
33.05,-0.23747019469738007,-0.03634548932313919,0.001008017803542316,0.21155183017253876,0.014371372759342194,-0.13443326950073242
33.1,0.07443098723888397,-1.0050697326660156,-0.2122083604335785,-0.0019015297293663025,-0.06054917350411415,-0.2918999493122101
33.15,1.0619840621948242,-1.2236957550048828,-0.2089482992887497,-0.05737840384244919,0.04876435920596123,-0.511319637298584
33.2,2.9813601970672607,0.9923316240310669,-0.6814175844192505,-0.04460399970412254,0.07366882264614105,-0.23616676032543182
33.25,1.8200111389160156,3.3198909759521484,-0.7495518326759338,-0.21404707431793213,0.36393502354621887,0.19424663484096527
33.3,-2.493377447128296,1.277846336364746,-1.2839457988739014,-0.3443576395511627,0.6576100587844849,0.1818574219942093
33.35,-3.055994987487793,0.4316787123680115,-1.6446120738983154,-0.5578439235687256,0.452942818403244,-0.10264874994754791
33.4,-0.48846349120140076,-0.6010942459106445,-1.6383299827575684,-0.7083297371864319,-0.16098466515541077,-0.13721255958080292
33.45,2.2219529151916504,-1.7945688962936401,-1.3633790016174316,-1.1299383640289307,-0.40307188034057617,-0.011556130833923817
33.5,3.508862018585205,-2.259044647216797,0.008264951407909393,-1.4915735721588135,-0.15060178935527802,-0.021393422037363052
33.55,-0.4697321057319641,0.1969442069530487,1.9390254020690918,-1.583006739616394,0.17111189663410187,0.1150432601571083
33.6,-3.7168214321136475,2.5155246257781982,2.2598037719726562,-1.2886489629745483,0.12691977620124817,0.008823368698358536
33.65,-0.8781484961509705,0.7118816375732422,-0.003070184262469411,-1.5354481935501099,-0.8736360669136047,-0.029099788516759872
33.7,3.639407157897949,-2.1210784912109375,-1.3371111154556274,-1.4713428020477295,-1.1229301691055298,-0.22087612748146057
33.75,3.389705181121826,0.363532155752182,1.1103956699371338,-1.0786917209625244,-0.6802811026573181,-0.08462747186422348
33.8,-2.902116298675537,2.880805015563965,1.87158203125,-0.653087854385376,-0.0953637883067131,0.24326710402965546
33.85,-3.859116792678833,2.3853836059570312,1.0843102931976318,-0.3325434625148773,-0.09158775210380554,0.19376634061336517
33.9,-1.275634765625,0.4372272193431854,0.4536190629005432,0.07666808366775513,-0.7818313837051392,-0.04502534121274948
33.95,0.544340968132019,-1.5813684463500977,0.7418882250785828,0.6968274712562561,-1.1035723686218262,-0.514431893825531
34.0,4.801373481750488,-1.2465819120407104,1.946323275566101,0.41285696625709534,-0.5069615244865417,-0.09536075592041016
34.05,3.6170599460601807,-1.0695875883102417,1.0514031648635864,-0.18390482664108276,0.6158657073974609,0.5475040674209595
34.1,-2.5702614784240723,-1.1231002807617188,-1.9861505031585693,-0.14157511293888092,1.60191011428833,0.19336412847042084
34.15,-6.1155219078063965,0.05975421890616417,-1.4636096954345703,-0.21430516242980957,0.8595739603042603,-0.13131070137023926
34.2,-1.7534259557724,0.0011300761252641678,-1.9242594242095947,-0.39303314685821533,-0.5052075386047363,-0.46519193053245544
34.25,2.4349682331085205,0.4222145676612854,-0.10705666244029999,-0.5011146664619446,-0.8514352440834045,-0.18674913048744202
34.3,2.743318796157837,1.8921270370483398,1.643479585647583,-0.2581871747970581,-0.31312575936317444,0.31543463468551636
34.35,-3.5006277561187744,1.5565003156661987,0.49775874614715576,0.0312841534614563,-0.0034993207082152367,0.425912469625473
34.4,-4.0512542724609375,-0.0194312185049057,-0.7069230079650879,-0.0784955620765686,-0.3468945026397705,0.1095917671918869
34.45,3.2939159870147705,-1.8224653005599976,-0.9477136731147766,-0.3105809986591339,-0.8576005101203918,-0.32667478919029236
34.5,3.1948091983795166,-0.8420609831809998,0.7324098944664001,-0.2176305055618286,-0.09348861128091812,-0.14880365133285522
34.55,-2.513313055038452,0.19217388331890106,0.26955366134643555,-0.30609405040740967,0.4804036617279053,0.3239554166793823
34.6,-4.935274124145508,-1.1761046648025513,-0.9713137745857239,-0.6380292177200317,-0.0205223448574543,0.07709260284900665
34.65,1.4645779132843018,-1.5851593017578125,-1.336556315422058,-0.9095579385757446,-1.0551501512527466,0.006677089259028435
34.7,4.048396110534668,-1.5917786359786987,-0.7787696719169617,-0.6081664562225342,-0.8442544341087341,-0.2597053647041321
34.75,-0.24833974242210388,0.38103199005126953,-0.14022478461265564,-0.6382145285606384,-0.13667084276676178,0.20598940551280975
34.8,-1.769512414932251,0.33792588114738464,-0.4589107036590576,-0.779697597026825,-0.09379401057958603,0.13111649453639984
34.85,0.08733868598937988,-0.1527681201696396,-1.3431575298309326,-0.9945564866065979,-0.15498483180999756,0.02146163210272789
34.9,0.47976329922676086,-0.2882175147533417,-1.3409721851348877,-0.9548016786575317,-0.03291582688689232,-0.06922107934951782
34.95,0.17836220562458038,0.27733707427978516,-0.06871159374713898,-0.9039905667304993,0.03197643905878067,-0.12339717149734497
35.0,-0.4266807734966278,0.9504766464233398,0.7929900288581848,-0.8162834644317627,0.08207503706216812,-0.21887415647506714
35.05,-0.7737135887145996,0.23352906107902527,0.8633004426956177,-0.7951855659484863,0.07199905067682266,-0.3052290380001068
35.1,-0.5484649538993835,0.22830484807491302,0.5574027299880981,-0.7077995538711548,-0.053305674344301224,-0.24887455999851227
35.15,-0.4153841733932495,0.03969858959317207,-0.011894716881215572,-0.556403636932373,-0.07461173832416534,-0.25819095969200134
35.2,-0.34844771027565,-0.30643749237060547,-0.1790660172700882,-0.4246833324432373,0.005620977375656366,-0.28607770800590515
35.25,-0.11184199154376984,0.06527996063232422,-0.3468347191810608,-0.3497028946876526,0.12990671396255493,-0.2343142032623291
35.3,0.0608297735452652,0.31241703033447266,-0.4394061863422394,-0.3490065336227417,0.20869822800159454,-0.24542510509490967
35.35,-0.001536533236503601,-0.2609825134277344,-0.49216681718826294,-0.40665262937545776,0.17500276863574982,-0.264749139547348
35.4,0.1612553596496582,0.6132698059082031,0.09549391269683838,-0.360502153635025,0.10502361506223679,-0.051465149968862534
35.45,-0.13835977017879486,0.13005447387695312,0.06421619653701782,-0.20210793614387512,0.1287144124507904,-0.04830054193735123
35.5,0.014627624303102493,0.2573566436767578,-0.15841040015220642,-0.0861479640007019,0.13448314368724823,0.06818712502717972
35.55,-0.12362794578075409,0.06243324279785156,-0.40328794717788696,-0.0430404394865036,0.2510807514190674,-0.027450233697891235
35.6,-0.042138323187828064,0.11766624450683594,-0.4194050431251526,-0.06643129140138626,0.3522340655326843,-0.15446564555168152
35.65,-0.033216897398233414,0.4122018814086914,-0.22754652798175812,-0.08813401311635971,0.3442818522453308,-0.2611237168312073
35.7,-0.3091347813606262,-0.02326679788529873,-0.19764453172683716,-0.11345023661851883,0.30284667015075684,-0.295997679233551
35.75,-0.2388995885848999,0.2429819107055664,-0.16406460106372833,-0.09654498100280762,0.18773528933525085,-0.14300577342510223
35.8,-0.45205968618392944,-0.1578245311975479,-0.18960249423980713,-0.09026847034692764,0.10847341269254684,-0.04578756168484688
35.85,-0.07611431926488876,0.5188169479370117,-0.09198067337274551,-0.040986087173223495,0.03010908141732216,0.16928280889987946
35.9,-0.3177078664302826,-0.0030403209384530783,-0.15348687767982483,-0.06005319207906723,-0.004141312558203936,0.21729770302772522
35.95,-0.1613992601633072,0.25264644622802734,-0.15608419477939606,-0.09177814424037933,-0.07647208124399185,0.7380849123001099
36.0,-0.251369833946228,0.6817350387573242,0.11333393305540085,-0.15482908487319946,-0.13138623535633087,1.3732010126113892
36.05,-0.20853948593139648,1.868992805480957,-0.11496994644403458,-0.2941346764564514,-0.046778496354818344,1.712237000465393
36.1,-0.42065662145614624,1.7416276931762695,-0.06494685262441635,-0.44552820920944214,0.012322550639510155,1.1128698587417603
36.15,-0.34713807702064514,1.1745891571044922,0.22475633025169373,-0.5532630681991577,0.04171587526798248,0.4812072515487671
36.2,-0.34757640957832336,0.42785167694091797,0.1989092379808426,-0.592360258102417,0.14336997270584106,0.09492646902799606
36.25,-0.18144075572490692,-0.10950470715761185,0.15423788130283356,-0.5739716291427612,0.19905754923820496,-0.08689656108617783
36.3,0.0038796402513980865,-0.31760215759277344,0.0662684217095375,-0.45459866523742676,0.21936409175395966,-0.13413496315479279
36.35,0.18357601761817932,-0.6533689498901367,-0.17772920429706573,-0.33103230595588684,0.21354879438877106,-0.06370469182729721
36.4,0.1322101354598999,-0.9733715057373047,-0.5268580913543701,-0.2750483453273773,0.20137928426265717,0.04122688248753548
36.45,0.05931791663169861,-1.0630035400390625,-0.8137986063957214,-0.26356086134910583,0.2042122781276703,0.13780774176120758
36.5,-0.1759786605834961,-1.259242057800293,-0.8135011196136475,-0.17562788724899292,0.19713900983333588,0.1299706995487213
36.55,-0.5272637009620667,-1.1636419296264648,-0.7244863510131836,-0.01843108795583248,0.2101932317018509,0.08240951597690582
36.6,-0.6044877767562866,-0.45525169372558594,-0.5457207560539246,0.13701000809669495,0.2117164433002472,0.10508403182029724
36.65,-0.7168419361114502,-0.03843023255467415,-0.27852338552474976,0.2127041220664978,0.2221309095621109,0.11128818243741989
36.7,-0.7537597417831421,0.2225189059972763,-0.028347395360469818,0.14506857097148895,0.20841243863105774,0.060808032751083374
36.75,-0.5760918259620667,0.162595734000206,-0.065046526491642,0.06125614792108536,0.17844098806381226,-0.011086721904575825
36.8,-0.4115636944770813,0.02999495342373848,-0.042980700731277466,0.007772920653223991,0.13118430972099304,-0.038947805762290955
36.85,-0.35419079661369324,0.031096450984477997,-0.24121475219726562,-0.03327124938368797,0.10565033555030823,-0.011707398109138012
36.9,-0.24662750959396362,-0.09724999219179153,-0.09855107218027115,-0.059105586260557175,0.07030439376831055,-0.04130386933684349
36.95,-0.16036160290241241,-0.16643714904785156,-0.16779351234436035,-0.060002461075782776,0.09433511644601822,-0.05000443384051323
37.0,-0.1067141443490982,-0.1559581756591797,-0.1800343245267868,-0.026593457907438278,0.10875358432531357,-0.06012038141489029
37.05,-0.1130291000008583,-0.1210622787475586,-0.16295325756072998,0.013919083401560783,0.10205825418233871,-0.04915042594075203
37.1,-0.21903091669082642,0.021246906369924545,-0.1721877157688141,0.051233384758234024,0.10483872145414352,0.00554921617731452
37.15,-0.18096604943275452,-0.1109304428100586,-0.12872754037380219,0.05710911005735397,0.1005214974284172,-0.007495320402085781
37.2,-0.2212677299976349,-0.03416920080780983,-0.12252870202064514,0.03876929730176926,0.11095020920038223,-0.01774062216281891
37.25,-0.26324960589408875,0.11717318743467331,-0.027432698756456375,0.03743015602231026,0.10586152970790863,-0.002562244888395071
37.3,-0.25843358039855957,0.06347750872373581,-0.09689955413341522,0.04348600655794144,0.08270414173603058,-0.0003731700999196619
37.35,-0.25686442852020264,0.10705374926328659,-0.10681658238172531,0.027372846379876137,0.06318140029907227,0.0018685786053538322
37.4,-0.3005366921424866,-0.009411819279193878,-0.091850645840168,0.014653121121227741,0.05149257183074951,-0.007661490701138973
37.45,-0.21424171328544617,-0.07321453839540482,-0.17333368957042694,-0.0025981953367590904,0.049898430705070496,-0.019470706582069397
37.5,-0.2221240997314453,-0.09620381146669388,-0.16064833104610443,-0.0015388245228677988,0.02176531031727791,-0.012268868274986744
37.55,-0.1482081115245819,-0.12405967712402344,-0.12618683278560638,0.0010399987222626805,-0.006167168729007244,-0.003431849181652069
37.6,-0.16629405319690704,-0.04777050390839577,-0.08239684998989105,5.517899990081787e-05,-0.00670836353674531,0.03398209437727928
37.65,-0.19186830520629883,-0.015933040529489517,-0.16490772366523743,0.002605732064694166,-0.01639115996658802,0.004714324604719877
37.7,-0.18130944669246674,-0.023023609071969986,-0.09474120289087296,0.018979275599122047,-0.004956380929797888,-0.0007274301606230438
37.75,-0.17333558201789856,0.012258525006473064,-0.05311150103807449,0.02778669074177742,0.003511507762596011,0.005567214451730251
37.8,-0.18413954973220825,0.0001907305559143424,-0.07411988079547882,0.019876591861248016,0.00930001586675644,0.015382821671664715
37.85,-0.14935189485549927,-0.1341390609741211,-0.03964594379067421,0.019807446748018265,0.009296420030295849,-0.013071942143142223
37.9,-0.22514189779758453,-0.016222959384322166,-0.12124353647232056,0.028361793607473373,0.015196227468550205,0.03511401265859604
37.95,-0.28754520416259766,0.08112525194883347,-0.13624602556228638,0.020896736532449722,0.0163226667791605,-0.0012085516937077045
38.0,-0.25798138976097107,0.10702323168516159,-0.1081673800945282,0.02561485767364502,0.01750240847468376,-0.018209539353847504
38.05,-0.3451763391494751,0.11575984209775925,-0.0637531578540802,0.03298790752887726,0.0035881977528333664,-0.001066892291419208
38.1,-0.44931092858314514,0.44069766998291016,0.03693780303001404,0.056622590869665146,-0.023384658619761467,0.0057183015160262585
38.15,-0.3898410201072693,0.38678836822509766,-0.12348468601703644,0.04749034345149994,-0.054938770830631256,0.0016298110131174326
38.2,-0.16948772966861725,0.1309070587158203,-0.2898593842983246,-0.09391388297080994,-0.11404889822006226,-0.07315372675657272
38.25,-0.1903470754623413,-0.11841106414794922,-0.2876233458518982,-0.1686192750930786,-0.14493124186992645,-0.026223205029964447
38.3,-0.1750199943780899,-0.3252277374267578,-0.2383662909269333,-0.1758391261100769,-0.12590810656547546,0.01811324432492256
38.35,-0.0025114640593528748,-0.46573448181152344,-0.24229735136032104,-0.13118699193000793,-0.09633661806583405,-0.018664605915546417
38.4,-0.15052089095115662,-0.3630685806274414,-0.218047097325325,-0.051050182431936264,-0.05715939402580261,0.010568475350737572
38.45,-0.15152987837791443,-0.2363739013671875,-0.19455686211585999,0.00013905297964811325,-0.03027432970702648,0.006360543891787529
38.5,-0.08972987532615662,-0.1562948226928711,-0.11523714661598206,0.046328432857990265,-0.0265966709703207,0.017273670062422752
38.55,-0.10803716629743576,-0.032514575868844986,-0.04580947756767273,0.06746198982000351,-0.012546134181320667,0.03932565450668335
38.6,-0.20068584382534027,0.14262104034423828,-0.10562217980623245,0.07039061933755875,-0.00652196304872632,0.04241640120744705
38.65,-0.23801037669181824,0.04598616808652878,-0.033707812428474426,0.05080438032746315,-0.0014205898623913527,0.02795705944299698
38.7,-0.2977822422981262,0.0780944749712944,0.039071980863809586,0.024207426235079765,0.016002662479877472,0.032309260219335556
38.75,-0.2605891227722168,-0.0011062697740271688,0.02901528775691986,0.029869861900806427,0.008811794221401215,0.006112077739089727
38.8,-0.20041970908641815,-0.13855743408203125,0.03442083299160004,0.03717310354113579,0.0060089402832090855,0.034226346760988235
38.85,-0.03806689754128456,-0.33705997467041016,0.1247507855296135,0.061701614409685135,-0.020102214068174362,0.044217728078365326
38.9,0.1397152543067932,-0.5238037109375,0.10975609719753265,0.1436057835817337,-0.061587534844875336,0.2069413959980011
38.95,0.31296971440315247,-0.7404012680053711,0.11305557936429977,0.24224793910980225,-0.12886498868465424,0.4373832046985626
39.0,0.4559483826160431,-0.9546995162963867,0.09860728681087494,0.3316851556301117,-0.22394609451293945,0.7636446356773376
39.05,0.44750750064849854,-0.3644571304321289,0.12392916530370712,0.3949282765388489,-0.3129623532295227,1.132305383682251
39.1,0.02303234487771988,-0.6469736099243164,-0.006728830747306347,0.4148591160774231,-0.27447444200515747,1.168739914894104
39.15,-0.3624778389930725,-0.3269977569580078,-0.08649741113185883,0.4379996657371521,-0.2514411211013794,1.1385393142700195
39.2,-0.5486469864845276,0.13828562200069427,-0.09969838708639145,0.3475106954574585,-0.2247420847415924,0.8133025169372559
39.25,-0.565399706363678,-0.33960723876953125,-0.1942863017320633,0.2528126537799835,-0.15453888475894928,0.5467365980148315
39.3,-0.4305773377418518,1.2380485534667969,0.20235224068164825,0.17535783350467682,-0.13808712363243103,0.5523983240127563
39.35,-0.021823151037096977,-0.024325372651219368,0.05324229225516319,0.10786618292331696,-0.13578177988529205,0.7362861037254333
39.4,-0.7603372931480408,-0.6149358749389648,-0.2587019205093384,0.024910420179367065,-0.29322049021720886,0.9922438263893127
39.45,-0.940734326839447,-0.5818853974342346,0.5305285453796387,0.07258713245391846,-0.6415024995803833,1.070931315422058
39.5,-0.005740217864513397,-0.05551719665527344,0.13630306720733643,-0.20931383967399597,-0.6482228636741638,1.0052692890167236
39.55,-0.027855128049850464,0.4532032012939453,-0.18159162998199463,-0.33075594902038574,-0.5952386260032654,0.9600062370300293
39.6,-0.14566777646541595,0.053537361323833466,0.14396867156028748,-0.25254112482070923,-0.4785718321800232,0.6984726786613464
39.65,-0.47093555331230164,0.4923877716064453,0.05167436599731445,-0.31508132815361023,-0.29386937618255615,0.5343728065490723
39.7,-0.33807432651519775,0.10428141802549362,0.10277450829744339,-0.33448469638824463,-0.17254094779491425,0.29555898904800415
39.75,-0.48720473051071167,0.07838724553585052,-0.13214229047298431,-0.342142790555954,-0.12806960940361023,0.21847636997699738
39.8,-0.6310036182403564,-0.19578172266483307,-0.43339303135871887,-0.31110048294067383,-0.07963544130325317,0.1971464604139328
39.85,-0.256948858499527,-0.5824670791625977,-0.14732493460178375,-0.19091519713401794,-0.0743376836180687,-0.010617764666676521
39.9,-0.031254880130290985,-0.09920597076416016,0.05619848147034645,-0.25811758637428284,0.0018425806192681193,0.03963577002286911
39.95,-0.5355024337768555,-0.26554393768310547,-0.0035629053600132465,-0.13088752329349518,0.16768689453601837,-0.05105210840702057
40.0,-0.6072522401809692,-0.3346891403198242,-0.5282856225967407,0.016499139368534088,0.3897567391395569,0.1831810623407364
40.05,-0.5300212502479553,-0.0048761493526399136,-0.20528177917003632,0.42562252283096313,0.6949604153633118,0.163004070520401
40.1,-0.6064381003379822,0.16976259648799896,-0.2107250839471817,0.4433092176914215,0.8217953443527222,0.0717594251036644
40.15,-0.4316321909427643,-0.2402677685022354,-0.29342183470726013,0.4700612425804138,0.7031489610671997,0.04426608234643936
40.2,-0.14586526155471802,-0.553868293762207,-0.03156066685914993,0.5635318160057068,0.4298750162124634,0.17473725974559784
40.25,-0.12126155197620392,-0.4850788116455078,-0.28504765033721924,0.22306524217128754,0.17607879638671875,-0.04460487514734268
40.3,0.50865238904953,-0.47910118103027344,0.0928700864315033,0.061870232224464417,0.012348555028438568,-0.2963886260986328
40.35,0.25776925683021545,-0.21111679077148438,0.10121221095323563,0.026418007910251617,-0.05386250466108322,-0.18570846319198608
40.4,-0.2641524076461792,-0.6019020080566406,0.11468300223350525,-0.06107575073838234,-0.20947368443012238,-0.09012539684772491
40.45,-0.2512545585632324,-0.2958345413208008,-0.11101096868515015,-0.04697407782077789,-0.3634375333786011,-0.06364013254642487
40.5,-0.07842118293046951,-0.3735847473144531,-0.20177453756332397,0.016376934945583344,-0.31620118021965027,-0.2088148593902588
40.55,-0.302887886762619,0.29015064239501953,0.10620061308145523,0.05522380396723747,-0.28938984870910645,-0.19103938341140747
40.6,-0.20473496615886688,0.2439556121826172,-0.3172495663166046,0.0956701934337616,-0.21440531313419342,-0.24956390261650085
40.65,-0.021399080753326416,-0.03542899712920189,-0.3220219314098358,0.25805380940437317,-0.27899593114852905,0.0737348273396492
40.7,-0.13791824877262115,-0.14913463592529297,-0.3534238636493683,0.3139958083629608,-0.3132639229297638,0.3191691040992737
40.75,-0.3593733310699463,-0.2059030681848526,-0.22204992175102234,0.33215004205703735,-0.3358715772628784,0.4126572608947754
40.8,-0.5847280025482178,-0.23302079737186432,-0.30241090059280396,0.29932814836502075,-0.31088772416114807,0.22725671529769897
40.85,-0.18455590307712555,-0.04206371679902077,-0.17866374552249908,0.11662769317626953,-0.3534506857395172,0.09033843874931335
40.9,-0.01460077241063118,0.04658794403076172,-0.13248690962791443,0.0635470524430275,-0.276002436876297,-0.004886115901172161
40.95,-0.19932718575000763,-0.15160274505615234,-0.1467050313949585,0.10815884172916412,-0.24381603300571442,0.07878579944372177
41.0,-0.5137854218482971,0.018662435933947563,0.21371625363826752,0.21288467943668365,-0.20377790927886963,0.2188657522201538
41.05,-0.33484697341918945,-0.26404762268066406,0.038654834032058716,0.2639443576335907,0.010050497017800808,0.0933963879942894
41.1,-0.40370529890060425,-0.24486352503299713,0.214993417263031,0.27717623114585876,0.20839466154575348,0.015805548056960106
41.15,-0.4496501386165619,-0.2947826385498047,0.03553898632526398,0.18667952716350555,0.3663695156574249,-0.12678293883800507
41.2,-0.6246861815452576,-0.09443475306034088,-0.4202991724014282,0.24279853701591492,0.4493587911128998,-0.0774652287364006
41.25,-0.42640620470046997,0.2716331481933594,-0.11545539647340775,0.10529465973377228,0.523351788520813,-0.05505930259823799
41.3,-0.6126263737678528,-0.21171189844608307,-0.27702680230140686,0.05707161873579025,0.5522337555885315,0.07802041620016098
41.35,-0.3699532449245453,-0.6736965179443359,-0.5202219486236572,0.23650223016738892,0.4786686599254608,0.21218374371528625
41.4,0.015214597806334496,0.008118629455566406,0.003955937922000885,0.20016494393348694,0.41628554463386536,0.07985768467187881
41.45,0.2681719660758972,-0.49481964111328125,-0.23488105833530426,0.16993534564971924,0.45678725838661194,0.013940776698291302
41.5,-0.6677021980285645,0.06024644523859024,0.22515185177326202,0.2783247232437134,0.38338515162467957,0.33864253759384155
41.55,-0.3325711488723755,-0.08942986279726028,-0.14381623268127441,0.04834609478712082,0.5076974034309387,0.07260432839393616
41.6,-0.33230865001678467,0.05229567736387253,-0.31230708956718445,-0.059756141155958176,0.4460555911064148,0.14793303608894348
41.65,-0.27846604585647583,0.3387327194213867,-0.0427849106490612,-0.01990845985710621,0.34086963534355164,0.06061018630862236
41.7,-0.15357549488544464,0.5496006011962891,-0.3615887761116028,-0.11817365884780884,0.3211532533168793,-0.13252384960651398
41.75,-0.6168158650398254,0.9983129501342773,-0.35614776611328125,-0.2279742956161499,0.3945739269256592,-0.08685465902090073
41.8,-1.040339708328247,0.8382530212402344,-0.2816177308559418,-0.49714863300323486,0.29822441935539246,-0.15296418964862823
41.85,-0.8264392614364624,0.17646120488643646,-0.5280268788337708,-0.7529397010803223,0.17772908508777618,-0.12419746071100235
41.9,-0.619462251663208,-0.513493537902832,-0.760692834854126,-0.8320661783218384,0.06554249674081802,-0.07150411605834961
41.95,-0.14048032462596893,-1.0427093505859375,-0.30495935678482056,-0.7660797834396362,-0.11128023266792297,-0.021519575268030167
42.0,-0.33567604422569275,-0.40438079833984375,-0.7229142189025879,-0.6653795838356018,-0.19250762462615967,0.14297252893447876
42.05,0.5849796533584595,-0.7757978439331055,-0.10588889569044113,-0.4628109335899353,-0.46806609630584717,-0.27092063426971436
42.1,0.6251576542854309,-0.37834644317626953,0.23302337527275085,-0.3438635766506195,-0.5536920428276062,-0.038617610931396484
42.15,0.46352118253707886,0.1274862438440323,0.340545654296875,-0.36410433053970337,-0.5680586099624634,0.06675200909376144
42.2,0.49816420674324036,-0.20717619359493256,0.26802995800971985,-0.4210536479949951,-0.5058231353759766,0.07946031540632248
42.25,0.1499762088060379,0.041805267333984375,0.4292190670967102,-0.606894850730896,-0.5831009149551392,0.23910339176654816
42.3,0.23960506916046143,0.048303600400686264,0.90650874376297,-0.5838891863822937,-0.5934663414955139,0.18926922976970673
42.35,-0.002234160900115967,0.7142162322998047,0.7622277736663818,-0.6056117415428162,-0.5297211408615112,0.4393998682498932
42.4,-0.3229594826698303,0.8446311950683594,0.7605946063995361,-0.6755667328834534,-0.6234933137893677,0.4817045331001282
42.45,-0.46868014335632324,0.6140537261962891,0.8006378412246704,-0.8550413846969604,-0.6928709149360657,0.3306533694267273
42.5,-0.48709753155708313,-0.18147946894168854,0.07705917954444885,-1.005159616470337,-0.45793870091438293,0.00887246523052454
42.55,-0.8444623947143555,-0.48681166768074036,-0.3676973581314087,-0.9736382961273193,-0.30214646458625793,-0.2982672154903412
42.6,-0.5540542006492615,-1.1811723709106445,-0.43980279564857483,-0.9054560661315918,-0.2675139307975769,-0.608489453792572
42.65,-0.8210687041282654,-1.233926773071289,-0.5973379015922546,-0.8335517644882202,-0.02223481424152851,-0.6441377401351929
42.7,-0.9118061065673828,-1.5762968063354492,-0.40148746967315674,-0.6492277383804321,0.28883352875709534,-0.9634509682655334
42.75,-0.06534086912870407,-1.9582805633544922,-0.03812691569328308,-0.21682938933372498,0.712644636631012,-1.2117114067077637
42.8,-0.4163789451122284,-1.4010953903198242,0.19807469844818115,0.30916500091552734,1.504694938659668,-0.5944127440452576
42.85,-0.8596404194831848,-0.9471778869628906,-0.06639063358306885,0.5536745190620422,2.1225874423980713,-0.2118283361196518
42.9,-0.4480554759502411,-0.4806842803955078,-0.5904331803321838,1.0243650674819946,2.288174867630005,-0.007989785633981228
42.95,-1.0962315797805786,1.0387001037597656,-0.3428664207458496,1.285794973373413,1.7990281581878662,0.6455948948860168
43.0,-1.1304513216018677,0.9859856963157654,0.5663890242576599,0.5698689818382263,0.6401455402374268,0.8879106044769287
43.05,-0.38127267360687256,-0.09383393824100494,0.2945135831832886,0.01929721236228943,0.03336678817868233,0.9406900405883789
43.1,-0.38762688636779785,-0.9073829650878906,0.08395427465438843,-0.1464962363243103,-0.2535651922225952,1.001003384590149
43.15,0.7519974708557129,-1.3069381713867188,-0.21141837537288666,-0.19460244476795197,-0.5248346328735352,0.5817793011665344
43.2,0.9343069195747375,-0.5478143692016602,0.22421593964099884,-0.10860462486743927,-0.5728241205215454,0.43165305256843567
43.25,-0.30082759261131287,0.018683426082134247,-0.03789101541042328,-0.03497471660375595,-0.01938520558178425,0.23698224127292633
43.3,-1.5956416130065918,1.0297355651855469,-0.8609464168548584,0.11408106982707977,0.3891879916191101,-0.5249548554420471
43.35,-2.1651017665863037,1.747110366821289,-0.6391585469245911,0.1780468225479126,0.1766756922006607,-1.5152040719985962
43.4,-1.922710657119751,1.8989534378051758,-0.9058635830879211,-0.06124305725097656,0.0749424621462822,-1.96709144115448
43.45,-2.256862163543701,3.3885793685913086,-1.4975696802139282,-0.2845245897769928,-0.18922129273414612,-1.7816364765167236
43.5,-1.8332396745681763,3.7119264602661133,-2.1300857067108154,-0.5870069265365601,-0.8394586443901062,-2.1550514698028564
43.55,-1.4824378490447998,3.136312484741211,-2.6932623386383057,-0.813042938709259,-1.4857105016708374,-2.5748684406280518
43.6,-1.0334776639938354,4.204658508300781,-2.8034543991088867,-0.8634225130081177,-2.198899745941162,-2.824847459793091
43.65,0.0678856372833252,3.6079635620117188,-1.9862710237503052,-0.9623234868049622,-2.7054264545440674,-3.562427520751953
43.7,0.4357620179653168,2.33251953125,-1.6420342922210693,-0.8762738108634949,-2.873528480529785,-3.801928997039795
43.75,0.6746876835823059,0.580503523349762,-1.5397558212280273,-0.8778768181800842,-3.193939208984375,-4.099365711212158
43.8,-0.371182382106781,-2.7906579971313477,-0.8815686702728271,-0.9057350158691406,-3.6731560230255127,-4.289987564086914
43.85,-1.1812456846237183,-4.948227405548096,-0.28533998131752014,-1.358057975769043,-3.783655881881714,-3.0426807403564453
43.9,-1.555866003036499,-6.139712333679199,1.2245862483978271,-2.2811241149902344,-3.591195583343506,-1.5724431276321411
43.95,-1.2118299007415771,-4.955112457275391,2.967255115509033,-2.5163283348083496,-2.9748945236206055,0.09989485144615173
44.0,0.842923641204834,-1.5264806747436523,3.943699598312378,-1.3749358654022217,-2.633363723754883,1.3795310258865356
44.05,0.2865232229232788,-1.6037378311157227,3.7332873344421387,1.1916332244873047,-2.650167226791382,1.4531446695327759
44.1,3.0563316345214844,-0.3625029921531677,3.244407892227173,2.290320634841919,-1.2130961418151855,1.4727503061294556
44.15,2.6325550079345703,-1.4173078536987305,2.9351015090942383,2.7147538661956787,-0.36781543493270874,1.3404648303985596
44.2,2.0735507011413574,-2.2954015731811523,0.6881177425384521,1.908008337020874,0.6347572207450867,1.2254953384399414
44.25,2.5340614318847656,-0.7635735869407654,-0.08866103738546371,0.6541138291358948,0.8673459887504578,1.5948456525802612
44.3,1.9059170484542847,-0.6838778853416443,-1.7464985847473145,0.8304733037948608,0.40927204489707947,1.361708402633667
44.35,5.667743682861328,3.7463467121124268,-0.7015070915222168,-0.9784244894981384,1.5587087869644165,0.4971558749675751
44.4,1.5382161140441895,-0.01194851752370596,-2.326354503631592,-0.10823500156402588,0.796404242515564,-1.1429518461227417
44.45,4.61454963684082,3.509061098098755,-1.033417820930481,-0.0716143548488617,0.5130841135978699,-0.8296601176261902
44.5,2.2856197357177734,0.7176123261451721,-0.6874803900718689,-0.3120935261249542,0.06661433726549149,-1.8190510272979736
44.55,0.6739769577980042,-0.5724954605102539,1.2979267835617065,-1.3866066932678223,0.9040458798408508,-1.0930968523025513
44.6,3.5834851264953613,0.5806131958961487,3.3962156772613525,-1.318748950958252,1.7924467325210571,-0.4459249973297119
44.65,1.152286410331726,-2.456496238708496,3.101093053817749,-0.17450836300849915,1.3262407779693604,-1.34622061252594
44.7,-0.8347715139389038,-4.863988399505615,3.7959327697753906,0.11424195766448975,1.643918514251709,-1.2472732067108154
44.75,-0.6669461727142334,-5.162214756011963,2.7709996700286865,0.510894775390625,2.508845329284668,-0.048275113105773926
44.8,-1.555573582649231,-5.2056169509887695,0.7280922532081604,0.8326717615127563,3.126319408416748,0.7320740818977356
44.85,-1.2451274394989014,-3.4973955154418945,-0.758746862411499,0.4854065775871277,3.5353028774261475,1.4722222089767456
44.9,-0.8059307336807251,-1.3371410369873047,-3.9149160385131836,0.4254789650440216,3.1645724773406982,1.6792775392532349
44.95,-3.348426342010498,1.8958711624145508,-5.86562442779541,-0.3716321587562561,1.3616480827331543,1.009116291999817
45.0,-0.011818945407867432,1.041823387145996,-2.8616528511047363,-1.488923192024231,0.6404044032096863,0.6412643790245056
45.05,1.8168234825134277,-0.3009576201438904,0.4407339096069336,-1.075371503829956,-0.06895449757575989,-0.05785146728157997
45.1,2.631967544555664,-0.3908796012401581,2.7632405757904053,0.8110926151275635,0.26211321353912354,0.5674619674682617
45.15,3.002687692642212,2.8403186798095703,-0.8884299397468567,1.7765424251556396,1.7430415153503418,1.4960814714431763
45.2,0.3499256372451782,3.905594825744629,-3.183124542236328,0.2996580898761749,1.5811493396759033,0.5706251859664917
45.25,-0.09567320346832275,2.2639236450195312,-0.264218270778656,-0.9692728519439697,1.0800899267196655,0.3330811858177185
45.3,-0.725099503993988,1.3712158203125,-1.7116283178329468,0.3325306177139282,1.5375252962112427,0.361761212348938
45.35,-0.3146384358406067,1.2149553298950195,-0.16285745799541473,0.33978182077407837,1.5905734300613403,1.2958638668060303
45.4,1.000885009765625,1.5599946975708008,-1.3689392805099487,0.6602099537849426,1.8783010244369507,2.043928384780884
45.45,1.8297744989395142,-0.9480199217796326,0.30475202202796936,0.843733549118042,1.7073841094970703,1.4566513299942017
45.5,0.22717298567295074,-0.6271820068359375,-0.6418235898017883,0.8455061912536621,1.8930736780166626,0.6235997080802917
45.55,-0.602056086063385,-0.038785941898822784,-1.0046591758728027,0.5351171493530273,1.4219152927398682,0.13618960976600647
45.6,-1.98361074924469,0.5308703780174255,-1.367109775543213,0.6219722628593445,0.787353515625,0.19896768033504486
45.65,-1.1593315601348877,-0.2215757519006729,-2.276257276535034,0.6926825046539307,-0.04801702871918678,0.03775356709957123
45.7,-1.940117359161377,1.7199115753173828,-1.2361533641815186,0.6421778202056885,-0.13180048763751984,0.28259938955307007
45.75,-1.213181972503662,1.539799690246582,-0.5687733292579651,0.4422984719276428,-0.11371798068284988,0.19910255074501038
45.8,-3.29563570022583,1.239047884941101,-0.4820314347743988,0.10061825811862946,0.26160237193107605,-0.18439312279224396
45.85,-3.0780563354492188,1.5394257307052612,-1.7817981243133545,-0.14208047091960907,0.7405727505683899,-0.10041255503892899
45.9,-2.653306007385254,-0.9042044281959534,-1.6282997131347656,-0.0793205201625824,0.5886127948760986,0.10036804527044296
45.95,-1.7701234817504883,0.04871078580617905,-1.206958293914795,0.6082981824874878,0.1730012744665146,0.6538597345352173
46.0,-1.3767470121383667,1.4224376678466797,-0.6287768483161926,0.7400835752487183,-0.023404397070407867,0.6060042381286621
46.05,-2.690011739730835,0.6098260283470154,-0.4706813395023346,0.17536687850952148,-0.05085783451795578,-0.0594157800078392
46.1,-2.0253384113311768,-0.12530428171157837,-0.12517625093460083,0.2636414170265198,-0.29168230295181274,-0.01347258035093546
46.15,-0.3824528753757477,-0.2014475017786026,-0.1406671702861786,0.32487553358078003,-0.32139185070991516,0.10265754908323288
46.2,-0.9428021907806396,-0.24467280507087708,0.16434018313884735,0.13586433231830597,-0.14643217623233795,0.14022895693778992
46.25,-1.5906429290771484,-1.0627403259277344,0.5118967890739441,0.038128335028886795,-0.1741436868906021,0.09397373348474503
46.3,-1.7363260984420776,-0.2568359971046448,2.0731403827667236,0.12580528855323792,-0.08343545347452164,0.13918517529964447
46.35,-1.6490862369537354,0.05969233065843582,0.5679742693901062,0.6644660830497742,0.514410138130188,-0.13920457661151886
46.4,1.4108209609985352,-0.06891722232103348,-1.1300939321517944,1.8183703422546387,1.2462773323059082,0.6135652661323547
46.45,-0.45875757932662964,0.42059803009033203,-1.2621935606002808,2.0099220275878906,1.8995835781097412,1.2505171298980713
46.5,-1.0960413217544556,1.061387062072754,0.45211702585220337,1.7282350063323975,1.365197777748108,1.4336661100387573
46.55,-0.36718717217445374,0.15220068395137787,0.36294248700141907,1.3936669826507568,1.084368109703064,1.1648269891738892
46.6,-0.7026715874671936,0.4270314872264862,0.5151700973510742,0.8016862869262695,0.7966574430465698,0.6465687155723572
46.65,0.40473294258117676,0.08003999292850494,-0.3461810350418091,-0.10848357528448105,-0.04560425505042076,-0.5127454996109009
46.7,0.14799785614013672,1.3254270553588867,0.9030846953392029,-0.3280888795852661,-0.5362365245819092,-1.10221266746521
46.75,0.060052283108234406,-0.8864450454711914,0.23434126377105713,-1.1899217367172241,-0.6483111381530762,-1.9416698217391968
46.8,-0.41397660970687866,-0.5700845718383789,-0.29221391677856445,-1.0462278127670288,-0.8121812343597412,-1.4381723403930664
46.85,-0.18337087333202362,0.392669677734375,-0.21534469723701477,-0.8666528463363647,-0.9642491340637207,-0.9036690592765808
46.9,-0.7794692516326904,0.4228067100048065,-0.06590749323368073,-0.9701259136199951,-1.1028846502304077,-0.686532199382782
46.95,-0.5589191317558289,-0.4973287582397461,-0.12201085686683655,-1.0050650835037231,-1.1277084350585938,-0.609754741191864
47.0,-0.8412914276123047,-0.15391448140144348,-0.032691482454538345,-0.7381371259689331,-1.1557235717773438,-0.29360461235046387
47.05,-1.9292837381362915,-0.9937706589698792,0.5117406845092773,-0.3022061586380005,-1.0879883766174316,-0.19678591191768646
47.1,-0.9398900866508484,-1.380040168762207,1.7677943706512451,0.7655712366104126,-0.8905082941055298,0.5845404863357544
47.15,0.22263753414154053,2.7689075469970703,0.30864647030830383,1.6578450202941895,0.23701775074005127,1.8734819889068604
47.2,2.8550918102264404,0.9150095582008362,0.08321574330329895,0.8729814291000366,0.7315657734870911,0.8072842359542847
47.25,1.0107988119125366,-0.2235850989818573,-0.04484254866838455,0.2847146987915039,1.0897297859191895,0.27802804112434387
47.3,-3.098325729370117,-1.534551739692688,-0.9308791756629944,0.22946086525917053,1.0202618837356567,0.9526055455207825
47.35,-1.130047082901001,-0.36464694142341614,-0.512706995010376,0.26480525732040405,0.24178652465343475,1.0440312623977661
47.4,-0.9922285676002502,1.8829097747802734,0.31736183166503906,0.31043484807014465,0.2724675238132477,0.9488317370414734
