Time [s],Acc_x [m/s^2],Acc_y [m/s^2],Acc_z [m/s^2],Gyro_x [1/s],Gyro_y [1/s],Gyro_z [1/s]
0.0,0.017601316794753075,0.051212310791015625,-0.0125002171844244,-0.0028771315701305866,-0.008813092485070229,-0.011760691180825233
0.05,0.023181265220046043,0.05005645751953125,-0.014400366693735123,-0.0028779315762221813,-0.008813699707388878,-0.011760041117668152
0.1,-0.015429262071847916,0.02394580841064453,-0.008771940134465694,-0.004955580923706293,-0.0014961173292249441,-0.01028905063867569
0.15,-0.021364567801356316,0.01707172393798828,-0.061528291553258896,-0.003803904866799712,-0.005146062932908535,-0.008208769373595715
0.2,0.0011707395315170288,0.021923065185546875,-0.06600609421730042,-0.0015105062630027533,0.0024956506676971912,-0.011511694639921188
0.25,0.027147440239787102,0.0782766342163086,-0.07728482782840729,-0.002213158179074526,0.0005763525259681046,-0.010905998758971691
0.3,0.05445204675197601,0.05777263641357422,-0.03125951811671257,-0.00470264907926321,-0.0015123180346563458,-0.009078135713934898
0.35,0.06795184314250946,0.030879976227879524,-0.029031626880168915,-0.00597049854695797,-0.012679063715040684,-0.005338238086551428
0.4,0.02654223144054413,0.0670166015625,-0.05434728413820267,-0.012607528828084469,0.0007553232717327774,-0.006546694785356522
0.45,-0.018885264173150063,0.027571678161621094,-0.05154076963663101,-0.007167540490627289,0.013036292046308517,-0.0073911529034376144
0.5,-0.00549718551337719,-0.021025657653808594,-0.08563748747110367,0.0020405142568051815,-6.328961899271235e-05,-0.004868741612881422
0.55,0.033437859266996384,0.03444194793701172,-0.024276018142700195,-0.0007828837260603905,0.009736069478094578,-0.007801699917763472
0.6,0.00733174430206418,0.059101104736328125,-3.2997559173963964e-05,-0.0002011978067457676,0.02073766477406025,-0.015211017802357674
0.65,0.005053820088505745,0.054961204528808594,-0.006783489137887955,-0.0009399526752531528,0.019340457394719124,-0.020468750968575478
0.7,0.010805172845721245,0.037497520446777344,-0.033134233206510544,-0.005232682451605797,0.009982716292142868,-0.026608845219016075
0.75,0.017249997705221176,0.09173202514648438,0.0030453545041382313,-0.011095238849520683,0.004138562828302383,-0.02638954296708107
0.8,0.02876238152384758,0.07968902587890625,0.05107336491346359,-0.008784143254160881,-0.0063733006827533245,-0.027885552495718002
0.85,0.07156803458929062,0.04687023162841797,0.04588380083441734,-0.0065066213719546795,-0.018569137901067734,-0.030613739043474197
0.9,-0.014764891937375069,0.06077384948730469,-0.014934975653886795,-0.008330858312547207,-0.029162604361772537,-0.02725621871650219
0.95,-0.09478037059307098,-0.027355195954442024,-0.1158570796251297,-0.009715207852423191,-0.049322061240673065,-0.033765364438295364
1.0,0.0750967264175415,-0.22622013092041016,-0.39333003759384155,-0.03295590355992317,-0.12010593712329865,-0.08551621437072754
1.05,0.3148654103279114,-0.11911295354366302,-0.5324031114578247,-0.13105759024620056,-0.02950502373278141,-0.16742469370365143
1.1,0.11253970861434937,-0.05125903710722923,-0.19961051642894745,-0.1768670231103897,0.12549734115600586,-0.2006939947605133
1.15,-0.04566548019647598,0.14968395233154297,0.38025200366973877,-0.018003027886152267,0.14092296361923218,-0.15157049894332886
1.2,-0.48726093769073486,0.37025925517082214,0.6796015501022339,0.20886121690273285,0.02254810743033886,0.0024335242342203856
1.25,-0.30856654047966003,0.15511320531368256,0.11346443742513657,0.3006030321121216,-0.17089727520942688,0.08566864579916
1.3,0.16360679268836975,0.05468655750155449,-0.6768937706947327,0.2069682776927948,-0.1843290477991104,0.07346298545598984
1.35,0.20958945155143738,0.21751119196414948,-0.4487263560295105,0.1310405731201172,0.04691367968916893,0.020592669025063515
1.4,0.03116186335682869,0.13717269897460938,0.01621904782950878,0.1625484675168991,0.0853501632809639,0.017516495659947395
1.45,-0.2528749108314514,0.003142347326502204,0.2359989881515503,0.17228692770004272,0.019783589988946915,0.04893340915441513
1.5,-0.22291173040866852,0.03461360186338425,0.10191251337528229,0.15620571374893188,-0.07650641351938248,0.05245860666036606
1.55,-0.07189588993787766,0.15767669677734375,-0.09823387116193771,0.14513950049877167,-0.10144209861755371,0.052214253693819046
1.6,-0.11214391887187958,0.24384498596191406,-0.06865418702363968,0.15099075436592102,-0.10115614533424377,0.07918157428503036
1.65,-0.12948957085609436,0.14995384216308594,-0.08504851162433624,0.155583918094635,-0.1100960299372673,0.12123836576938629
1.7,-0.009866204112768173,0.13295841217041016,-0.18057216703891754,0.15490415692329407,-0.11098375916481018,0.1533065140247345
1.75,0.20461760461330414,0.5444536209106445,-0.2562611401081085,0.17271456122398376,-0.01823233626782894,0.21262548863887787
1.8,0.1858101338148117,0.6905622482299805,-0.09363751113414764,0.3013625741004944,0.04872759059071541,0.3646264374256134
1.85,0.23456494510173798,0.6218452453613281,-0.2869252562522888,0.27585524320602417,0.03218332305550575,0.460139662027359
1.9,0.030238449573516846,0.1522350311279297,-0.4260437488555908,0.05028068274259567,0.07257638871669769,0.4744802713394165
1.95,-0.014299362897872925,0.06338310241699219,-0.15591025352478027,-0.2221764326095581,0.24868042767047882,0.3632684350013733
2.0,-0.05912047624588013,-0.05887223035097122,0.3916372060775757,-0.3006470799446106,0.16318653523921967,0.27580469846725464
2.05,-0.06081254035234451,-0.33825111389160156,0.16933520138263702,-0.2620123624801636,-0.14927934110164642,0.13902612030506134
2.1,0.22198069095611572,0.1498270034790039,0.5833824872970581,-0.40977728366851807,-0.07974723726511002,0.002979827579110861
2.15,0.06755909323692322,0.1607513278722763,1.2734835147857666,-0.7559077739715576,0.05096493288874626,-0.0728003978729248
2.2,-0.08627769351005554,0.23721788823604584,1.3367798328399658,-0.9164407849311829,-0.11905597895383835,-0.10012543201446533
2.25,-0.18987047672271729,0.011274323798716068,0.8245640397071838,-0.8575969338417053,-0.4905821681022644,-0.03845115005970001
2.3,0.09828970581293106,-0.4615755081176758,0.20516273379325867,-0.6853039860725403,-0.6799476146697998,0.010947147384285927
2.35,0.34020623564720154,-0.7030057907104492,-0.09132453054189682,-0.5046966075897217,-0.6708008646965027,-0.052186597138643265
2.4,0.404548704624176,-0.6381149291992188,-0.14228180050849915,-0.2754665017127991,-0.5166363716125488,-0.11229093372821808
2.45,0.18407654762268066,-0.22688007354736328,0.05837482213973999,0.013948686420917511,-0.47395312786102295,-0.13618911802768707
2.5,-0.005792513489723206,-0.25728702545166016,0.3243810534477234,0.21429328620433807,-0.5910755395889282,-0.1873948574066162
2.55,0.2197490930557251,0.0035944057162851095,-0.10582324862480164,0.34279894828796387,-0.6752638816833496,-0.27574101090431213
2.6,1.1294779777526855,0.9355831146240234,0.43138834834098816,0.21455073356628418,-0.4922782778739929,-0.11230745911598206
2.65,-0.15422703325748444,-0.06116677448153496,0.7775033712387085,-0.06389905512332916,-0.2824474573135376,0.1298893541097641
2.7,0.20051592588424683,-0.12235831469297409,-0.25101742148399353,0.1182650476694107,-0.7387042045593262,0.13726437091827393
2.75,0.4330816864967346,-0.30263805389404297,0.33604735136032104,-0.09243948012590408,-0.4994174838066101,-0.11840551346540451
2.8,0.2889089584350586,-0.09518050402402878,0.2569674849510193,-0.2238430231809616,-0.33769798278808594,-0.2368733137845993
2.85,0.1613011211156845,0.47026920318603516,-0.1093633770942688,-0.1608639359474182,-0.4715203642845154,-0.1633777618408203
2.9,0.4712618589401245,0.003107090014964342,-0.5506033897399902,0.07826505601406097,-0.5244371294975281,-0.10455692559480667
2.95,0.11781299859285355,-0.2973489761352539,-0.28177449107170105,0.08013000339269638,-0.37055760622024536,-0.09131544083356857
3.0,-0.15166056156158447,-0.10401248931884766,-0.17612050473690033,-0.026392556726932526,-0.2569001317024231,-0.16789557039737701
3.05,0.09287573397159576,0.10963153839111328,-0.045419301837682724,-0.0010047480463981628,-0.10974801331758499,-0.2734912633895874
3.1,-0.04121316224336624,0.1629047393798828,0.24670426547527313,0.013930343091487885,-0.09714961796998978,-0.2747681736946106
3.15,-0.14575916528701782,0.021536823362112045,0.05368486046791077,0.0014629736542701721,-0.20052066445350647,-0.20098164677619934
3.2,-0.12907275557518005,-0.13678646087646484,-0.04697989672422409,0.010053262114524841,-0.19561591744422913,-0.19971363246440887
3.25,-0.10294672846794128,0.04846572503447533,0.07292617857456207,0.03841814398765564,-0.158684641122818,-0.21225811541080475
3.3,-0.18184639513492584,0.16373348236083984,0.11161433160305023,0.03937734663486481,-0.15232276916503906,-0.20492249727249146
3.35,-0.2783387005329132,0.1980590671300888,0.2064030021429062,0.011333316564559937,-0.1779302954673767,-0.19364751875400543
3.4,-0.15990324318408966,0.16327667236328125,0.09046072512865067,-0.012120634317398071,-0.23739108443260193,-0.16958005726337433
3.45,0.04320128634572029,0.1189422607421875,-0.05491642281413078,-0.014671724289655685,-0.2669627070426941,-0.13758067786693573
3.5,0.08679864555597305,0.19667625427246094,-0.038730572909116745,-0.0044310614466667175,-0.24773520231246948,-0.11974894255399704
3.55,-0.07882247120141983,0.2646503448486328,0.030106227844953537,-0.02286442741751671,-0.23070360720157623,-0.09876809269189835
3.6,0.08645415306091309,0.2925405502319336,-0.07819735258817673,-0.03255721554160118,-0.24867507815361023,-0.05892760679125786
3.65,0.17176875472068787,0.26353931427001953,-0.0503450371325016,-0.03907187283039093,-0.2329559624195099,-0.012891343794763088
3.7,0.01896480843424797,0.13679218292236328,-0.033376600593328476,-0.056979961693286896,-0.19781272113323212,0.03328099474310875
3.75,0.01313137635588646,0.04462909698486328,-0.12903077900409698,-0.04844643920660019,-0.18716108798980713,0.07679387927055359
3.8,0.06290797889232635,-0.03186893090605736,-0.07392149418592453,-0.006793200969696045,-0.17093123495578766,0.1103295162320137
3.85,-0.09012391418218613,-0.140869140625,-0.03651706501841545,0.03853233531117439,-0.14767442643642426,0.11127100139856339
3.9,-0.32197168469429016,-0.36452388763427734,-0.16066719591617584,0.07133157551288605,-0.15506961941719055,0.08223289996385574
3.95,-0.31615161895751953,-0.4784393310546875,-0.16410373151302338,0.10657437145709991,-0.15081673860549927,-0.002735019428655505
4.0,-0.1385197639465332,-0.037720683962106705,-0.1813819706439972,0.07116902619600296,-0.060296617448329926,-0.2263266146183014
4.05,0.12168258428573608,0.270538330078125,-0.48330891132354736,-0.1675059199333191,0.07036790251731873,-0.49279192090034485
4.1,0.39656153321266174,0.398192435503006,-0.7696440815925598,-0.39362186193466187,0.2689077854156494,-0.7027913928031921
4.15,0.46317845582962036,0.7753286361694336,0.11236494034528732,-0.5417975783348083,0.9898388981819153,-0.9583507776260376
4.2,-0.4350903034210205,0.46222397685050964,0.7147243022918701,-0.45840805768966675,1.340438961982727,-0.8870795369148254
4.25,-0.23587115108966827,-0.2872915267944336,0.30632084608078003,-0.37055808305740356,0.9968587756156921,-0.4085712432861328
4.3,0.24696387350559235,-1.1343622207641602,-0.576945960521698,-0.2494814693927765,0.7306602001190186,-0.14609132707118988
4.35,-0.19630101323127747,-0.48174285888671875,-1.567068099975586,0.0435100719332695,0.677338182926178,-0.12615671753883362
4.4,-0.3876110911369324,-0.07229042053222656,-0.695300817489624,0.2348831295967102,0.7521923780441284,-0.08437982201576233
4.45,-0.03494192659854889,0.6475915908813477,0.3927914798259735,0.4273340106010437,0.8611236214637756,-0.21376299858093262
4.5,0.18265753984451294,1.201188087463379,2.065958261489868,0.46578752994537354,1.0062650442123413,-0.29692110419273376
4.55,-0.043148934841156006,1.0232000350952148,2.4156012535095215,0.30084171891212463,0.5164272785186768,-0.06092984601855278
4.6,-0.12386006116867065,0.2792043685913086,1.014572262763977,0.040589939802885056,-0.19845858216285706,0.28251856565475464
4.65,-0.25990769267082214,-0.4725637435913086,-0.0835951417684555,-0.11654667556285858,-0.3674343228340149,0.28696152567863464
4.7,-0.3319369852542877,-0.6382827758789062,-0.24254751205444336,-0.16063475608825684,-0.12411295622587204,0.06675149500370026
4.75,0.14183767139911652,-0.3464689254760742,-0.042663298547267914,-0.10927817225456238,0.02063818834722042,-0.07948938012123108
4.8,0.5644276738166809,0.12190820276737213,0.33616337180137634,0.053694404661655426,0.05992067605257034,-0.12429818511009216
4.85,0.307918906211853,0.30681800842285156,0.47677135467529297,0.15663839876651764,-0.024895673617720604,-0.03522402048110962
4.9,0.2531977891921997,0.11640835553407669,0.2037057876586914,0.2171536087989807,-0.19857117533683777,0.0997013971209526
4.95,0.19817321002483368,0.3136863708496094,0.4200907051563263,0.2615160346031189,-0.23145094513893127,0.13240858912467957
5.0,-0.08001652359962463,0.3996315002441406,0.9155430793762207,0.3116757869720459,-0.282210111618042,0.2172735184431076
5.05,-0.4439064860343933,-0.07632067054510117,0.7201996445655823,0.324971467256546,-0.6255847215652466,0.3724288046360016
5.1,-0.12613528966903687,-0.36142444610595703,-0.19242627918720245,0.38343656063079834,-1.0316503047943115,0.4588119089603424
5.15,0.5368519425392151,0.334415465593338,-0.6587408781051636,0.405729740858078,-0.9287235736846924,0.3946954309940338
5.2,1.2761532068252563,1.3174543380737305,-0.1943299025297165,0.3616107106208801,-0.4581674039363861,0.2793866991996765
5.25,1.0412802696228027,1.7361745834350586,0.7601032853126526,0.287264883518219,-0.1576290726661682,0.4411385953426361
5.3,0.05012926459312439,1.0963926315307617,1.1946641206741333,0.103231281042099,-0.29534199833869934,0.7266929745674133
5.35,-0.2400917112827301,0.37793824076652527,0.9403400421142578,-0.25416532158851624,-0.423616498708725,0.7925174236297607
5.4,-0.7947897911071777,-0.1658201515674591,0.9354240894317627,-0.7220157384872437,-0.3764861226081848,0.5621099472045898
5.45,-0.5656988024711609,-0.19160844385623932,0.3556322455406189,-1.2401612997055054,-0.3904051184654236,0.20645830035209656
5.5,0.04324561357498169,-0.5194854736328125,-0.5336245894432068,-1.6104034185409546,-0.3922445476055145,-0.278079092502594
5.55,0.6484496593475342,-0.9475002288818359,-0.9284473657608032,-1.745007872581482,-0.3310936391353607,-0.5619751214981079
5.6,0.9502567648887634,-0.685600221157074,-0.6106346249580383,-1.5752222537994385,0.08417930454015732,-0.8535789847373962
5.65,1.1179652214050293,-0.13058850169181824,-0.24215973913669586,-1.1864399909973145,0.3258764445781708,-0.8820843696594238
5.7,1.2251578569412231,-0.20083899796009064,-0.4328766465187073,-0.8574355840682983,0.21274055540561676,-0.4778052568435669
5.75,0.09926475584506989,-0.4099435806274414,0.035519544035196304,-0.5505746006965637,0.3255178928375244,-0.1540096402168274
5.8,0.3469567894935608,-0.06775187700986862,0.20569664239883423,-0.35045701265335083,0.27494555711746216,-0.41493192315101624
5.85,-0.5130640268325806,0.29821106791496277,0.7638748288154602,-0.35503071546554565,0.19021391868591309,-0.40004754066467285
5.9,-2.1387200355529785,0.30921071767807007,1.2392711639404297,-0.2446882724761963,-0.43545758724212646,0.31347712874412537
5.95,-1.5962294340133667,0.03786464035511017,0.17011266946792603,-0.31800132989883423,-1.2226817607879639,0.9009492993354797
6.0,-0.5841100215911865,-0.5809822082519531,-0.8093444108963013,-0.704981803894043,-1.2014775276184082,0.39362990856170654
6.05,0.6549279689788818,-0.256775826215744,-0.9654447436332703,-0.6758514642715454,-0.6091213822364807,-0.6419413089752197
6.1,1.0810619592666626,-0.0611848421394825,-0.9464476108551025,-0.3660094439983368,0.001559445052407682,-1.7428861856460571
6.15,1.80535888671875,0.018717823550105095,-0.6263980269432068,-0.16683852672576904,0.08139015734195709,-1.7532464265823364
6.2,1.5478661060333252,-0.0429658368229866,-0.9797917604446411,-0.07044245302677155,0.0014228892978280783,-0.8507012724876404
6.25,0.7195751070976257,-0.48877713084220886,-1.0743224620819092,-0.02588002011179924,0.04666382074356079,0.11276454478502274
6.3,-0.16632026433944702,-0.6435356140136719,-0.5924230813980103,0.1917962282896042,0.011810691095888615,0.38613569736480713
6.35,-0.6341379284858704,-0.5406732559204102,-0.2973657548427582,0.4441976547241211,-0.08111416548490524,0.3548012971878052
6.4,-0.25676229596138,0.2494373321533203,-0.23134052753448486,0.44515347480773926,-0.03227939456701279,0.31387847661972046
6.45,0.25983911752700806,0.6021909713745117,0.13915780186653137,0.4742179214954376,0.11663497239351273,0.16293051838874817
6.5,0.36782020330429077,0.9686489105224609,0.05584148317575455,0.3247109651565552,0.2345789223909378,-0.030648931860923767
6.55,0.23434363305568695,0.9283361434936523,0.020213639363646507,0.12719406187534332,0.3952248692512512,-0.013636169023811817
6.6,0.052548252046108246,0.5946025848388672,0.2354351431131363,0.06438549607992172,0.49524426460266113,0.06732668727636337
6.65,-0.2117665410041809,0.2555103302001953,0.34107083082199097,0.039882078766822815,0.4130370020866394,0.15927006304264069
6.7,-0.08834536373615265,-0.13200664520263672,0.38456496596336365,0.049710266292095184,0.32059431076049805,0.1871543675661087
6.75,-0.0534200444817543,-0.05740261450409889,0.052120037376880646,-0.029047030955553055,0.26548367738723755,0.15803703665733337
6.8,0.22393688559532166,-0.17947101593017578,0.11683572828769684,0.08631373941898346,0.24492815136909485,0.13713102042675018
6.85,0.18755263090133667,-0.07088088989257812,0.3859102427959442,0.2090741991996765,0.21182343363761902,0.11313509941101074
6.9,0.4086223542690277,-0.07582663744688034,0.31304606795310974,0.2024664431810379,0.06003516539931297,0.23412376642227173
6.95,0.5535037517547607,-0.17563532292842865,0.22522100806236267,0.2476787269115448,0.011082220822572708,0.28560173511505127
7.0,0.5453007221221924,0.02389908954501152,0.36147361993789673,0.295024573802948,-0.0077530983835458755,0.2277573198080063
7.05,0.7253113985061646,0.09357930719852448,0.39891475439071655,0.31788769364356995,-0.05484888702630997,0.19985221326351166
7.1,0.8136095404624939,0.10806085914373398,0.21904417872428894,0.31130313873291016,-0.07360529154539108,0.2261449694633484
7.15,0.6949442028999329,0.1380491405725479,0.07837583869695663,0.30809110403060913,-0.06815572828054428,0.24556609988212585
7.2,0.6716516613960266,0.18420125544071198,0.102493517100811,0.30419737100601196,-0.07416991144418716,0.2606346607208252
7.25,0.6598589420318604,-0.019383413717150688,0.06355783343315125,0.293290376663208,-0.07814241200685501,0.2739664912223816
7.3,0.5407111644744873,-0.0765228122472763,0.10984054207801819,0.27535280585289,-0.015571126714348793,0.21050965785980225
7.35,0.2958134412765503,0.051775939762592316,0.24113240838050842,0.2697494626045227,0.057391323149204254,0.139966681599617
7.4,0.28025487065315247,0.08674813061952591,0.19956684112548828,0.2857869565486908,0.05094136297702789,0.13029100000858307
7.45,0.18772053718566895,0.04288959875702858,0.22291061282157898,0.26802194118499756,0.033588849008083344,0.11799115687608719
7.5,0.15297554433345795,0.15755844116210938,0.17371708154678345,0.23200830817222595,0.030745496973395348,0.07134733349084854
7.55,0.07772382348775864,0.2843894958496094,0.28383633494377136,0.1771639734506607,0.05591988563537598,-0.002133088419213891
7.6,-0.02184271439909935,0.11896419525146484,0.16973522305488586,0.10059867054224014,0.028759369626641273,-0.03248327970504761
7.65,0.09362994134426117,0.08214855194091797,0.14314115047454834,0.032621558755636215,-0.017701108008623123,-0.04052380099892616
7.7,0.19188973307609558,0.06391049176454544,0.12754607200622559,0.004997866228222847,-0.041017062962055206,-0.07492974400520325
7.75,0.09372686594724655,0.07735919952392578,0.0868910402059555,-0.0019503142684698105,-0.04554610699415207,-0.08943288028240204
7.8,0.06875891983509064,0.06554317474365234,0.13955113291740417,0.022431397810578346,-0.062374792993068695,-0.06637226045131683
7.85,0.036799944937229156,0.008008003234863281,0.09141059964895248,0.04833255335688591,-0.0982980728149414,-0.042296189814805984
7.9,0.24647390842437744,-0.2750682830810547,-0.051094360649585724,0.06689196079969406,-0.14654462039470673,-0.01980292983353138
7.95,0.36160027980804443,-0.4029569625854492,-0.1842842549085617,0.1493314802646637,-0.11571189016103745,-0.09722365438938141
8.0,0.20771783590316772,0.12660598754882812,-0.14036189019680023,0.3072656989097595,-0.057092420756816864,-0.13322362303733826
8.05,-0.27441346645355225,0.48564624786376953,0.5888813138008118,0.5032167434692383,-0.09075954556465149,0.016499636694788933
8.1,-1.00288987159729,0.504818856716156,0.967477560043335,0.6157513856887817,-0.40120625495910645,0.3590919077396393
8.15,-1.0736851692199707,0.13385672867298126,0.8091166019439697,0.5771783590316772,-0.8851544857025146,0.6406055092811584
8.2,-0.5599555969238281,0.015961626544594765,0.3974354863166809,0.42269444465637207,-1.2231438159942627,0.6657506227493286
8.25,-0.5977330803871155,0.15831945836544037,0.019775306805968285,0.28594502806663513,-1.2438452243804932,0.4182854890823364
8.3,0.02108408510684967,0.35509777069091797,0.05392318591475487,0.17630425095558167,-1.4304401874542236,0.2996687889099121
8.35,0.37120476365089417,0.4332761764526367,0.05010237917304039,0.1105164885520935,-1.4570435285568237,0.23573504388332367
8.4,0.8191649913787842,0.08682539314031601,-0.03177928552031517,0.07179269194602966,-1.3878360986709595,0.1804276555776596
8.45,1.284016728401184,-0.12518782913684845,-0.2902183532714844,0.1029680073261261,-1.1798617839813232,0.0914381816983223
8.5,1.846848964691162,-0.2083539366722107,-0.5105118751525879,0.12079047411680222,-0.7246828079223633,0.00495819840580225
8.55,0.3032052218914032,-0.4264392554759979,-0.9838976263999939,0.09445750713348389,-0.039257507771253586,0.03371109813451767
8.6,0.039780497550964355,0.2864857017993927,-1.5584311485290527,0.027238424867391586,0.5326036214828491,-0.09102634340524673
8.65,0.22070494294166565,0.6039447784423828,-0.3808067739009857,0.21992148458957672,1.0303022861480713,-0.11665026843547821
8.7,-0.46502411365509033,1.0578727722167969,0.4064197838306427,0.16260342299938202,1.464780330657959,-0.0062068747356534
8.75,-1.6924259662628174,0.3980054557323456,-0.3613436818122864,-0.031814560294151306,1.2157559394836426,0.4017004668712616
8.8,-1.5616676807403564,-0.31446459889411926,-0.9240605235099792,-0.0896257609128952,1.0642865896224976,0.5504282712936401
8.85,-1.456342101097107,-0.31868746876716614,-1.0418932437896729,-0.07779285311698914,1.237536907196045,0.576406717300415
8.9,-1.2602663040161133,0.08194062113761902,-0.6643315553665161,0.04646486043930054,1.661973476409912,0.4992606043815613
8.95,-1.2910507917404175,0.34300705790519714,-0.05388425663113594,0.3628585934638977,2.086935520172119,0.3729148805141449
9.0,-1.177642822265625,0.6724643111228943,1.052342414855957,0.6069400906562805,2.1272401809692383,0.36282825469970703
9.05,-0.4947683811187744,1.1881074905395508,2.0478551387786865,0.7795964479446411,1.7610762119293213,0.45056891441345215
9.1,0.15408122539520264,0.8530282974243164,2.1157047748565674,0.825511634349823,1.1893603801727295,0.6508225798606873
9.15,0.5820236206054688,0.7550010681152344,1.3536630868911743,0.7328921556472778,0.7842679023742676,0.6870270371437073
9.2,0.9902348518371582,0.4535398781299591,0.4273050129413605,0.6174014806747437,0.6761305332183838,0.7345927953720093
9.25,1.1193934679031372,0.032952334731817245,0.40271058678627014,0.46477311849594116,0.740462064743042,0.7525312304496765
9.3,1.0613467693328857,-0.2828473746776581,0.4406272768974304,0.3411131501197815,0.7254514098167419,0.7394837141036987
9.35,0.6184288859367371,-0.3838825225830078,0.6928818821907043,0.21268241107463837,0.7657275199890137,0.674773097038269
9.4,0.7864319086074829,-0.4931955337524414,0.6664974093437195,0.1696648895740509,0.8257302045822144,0.5864071846008301
9.45,0.31631675362586975,-0.8068170547485352,1.1775753498077393,0.15087036788463593,0.7545240521430969,0.4929277300834656
9.5,0.5346391797065735,-0.6764907836914062,0.5222640633583069,0.14769653975963593,0.5567810535430908,0.3952804207801819
9.55,0.5670937299728394,-0.3208742141723633,0.47727563977241516,0.059931427240371704,0.5267529487609863,0.27648112177848816
9.6,0.651702344417572,-0.36829280853271484,0.4489413797855377,-0.03913435339927673,0.47759920358657837,0.15548734366893768
9.65,0.5521222352981567,-0.17988966405391693,0.3309524953365326,-0.05283895879983902,0.3592180013656616,0.07791618257761002
9.7,0.4850946366786957,-0.17546938359737396,0.17881141602993011,-0.06857173889875412,0.3090062737464905,0.024265477433800697
9.75,0.40437453985214233,-0.09984397143125534,0.12240961194038391,-0.06281723082065582,0.3003670573234558,-0.04678496718406677
9.8,0.1907576322555542,0.14001083374023438,0.28094482421875,-0.044689249247312546,0.3292912542819977,-0.0700569674372673
9.85,0.24650143086910248,0.2607259750366211,0.36166802048683167,-0.0002941060811281204,0.307368665933609,-0.07631851732730865
9.9,0.2386438101530075,0.20555400848388672,0.2802763283252716,0.01182970218360424,0.21950621902942657,-0.07018392533063889
9.95,0.19955246150493622,0.003611566498875618,0.3463807702064514,-0.04490092396736145,0.18130512535572052,-0.05379987508058548
10.0,0.10126066952943802,0.08531665802001953,0.3661193251609802,-0.07039882987737656,0.1559453308582306,-0.053318385034799576
10.05,0.21276679635047913,0.13385295867919922,0.0991596132516861,-0.07008843123912811,0.10646899789571762,-0.07505334168672562
10.1,0.1713380217552185,-0.013972276821732521,-0.11627408862113953,-0.1636408567428589,0.0957813709974289,-0.08544519543647766
10.15,0.21560978889465332,-0.09748172014951706,0.117000512778759,-0.24882163107395172,0.15364573895931244,-0.08102802187204361
10.2,0.13036370277404785,0.00797748751938343,0.150883287191391,-0.22733885049819946,0.10950704663991928,-0.09013310074806213
10.25,0.052122775465250015,0.045622825622558594,0.06987010687589645,-0.20861616730690002,0.08166936039924622,-0.08740326762199402
10.3,0.15890014171600342,-0.06006145104765892,0.12909197807312012,-0.21887093782424927,0.10912420600652695,-0.10451433062553406
10.35,0.22276517748832703,-0.04059123620390892,0.26268401741981506,-0.2167070060968399,0.08945920318365097,-0.12991280853748322
10.4,0.28010523319244385,-0.008467672392725945,0.5692337155342102,-0.19083786010742188,0.07587923854589462,-0.14804184436798096
10.45,0.3721710741519928,0.13210678100585938,0.6880829334259033,-0.11765521764755249,6.783598655601963e-05,-0.1590195745229721
10.5,0.324420303106308,0.07849311828613281,0.9422673583030701,-0.026212580502033234,-0.10744281113147736,-0.164792999625206
10.55,0.24386951327323914,-0.19896793365478516,0.856917679309845,0.04037933424115181,-0.24411103129386902,-0.18290624022483826
10.6,0.2637929618358612,-0.4059114456176758,0.5916633605957031,0.036791667342185974,-0.38660356402397156,-0.20096905529499054
10.65,0.2632369101047516,-0.3931417465209961,0.478035032749176,-0.02934357523918152,-0.4477715492248535,-0.2563581168651581
10.7,0.042958781123161316,-0.12002850323915482,0.5225359797477722,-0.09191951900720596,-0.48742079734802246,-0.31905099749565125
10.75,0.045788586139678955,0.12364768981933594,0.16809269785881042,-0.12505735456943512,-0.5498749017715454,-0.35930120944976807
10.8,-0.15176983177661896,0.37775135040283203,-0.2375526875257492,-0.16001367568969727,-0.5642930269241333,-0.37713703513145447
10.85,-0.21437445282936096,0.45748043060302734,-0.444655179977417,-0.17931964993476868,-0.501021146774292,-0.36332088708877563
10.9,0.00827692449092865,0.23419475555419922,-0.40200120210647583,-0.1476486325263977,-0.36901748180389404,-0.3495032787322998
10.95,-0.03715367615222931,0.30559825897216797,-0.33817416429519653,-0.12894602119922638,-0.27176302671432495,-0.2995769679546356
11.0,0.012105859816074371,0.34301280975341797,-0.2593240439891815,-0.1073039099574089,-0.1896224170923233,-0.2306697815656662
11.05,-0.002119157463312149,0.2974357604980469,-0.13708019256591797,-0.041878025978803635,-0.11375655233860016,-0.18750445544719696
11.1,-0.13153381645679474,0.13895130157470703,0.06135449931025505,0.0008726418018341064,-0.08628438413143158,-0.1315789520740509
11.15,-0.19549058377742767,-0.02509213052690029,0.008509303443133831,0.013937398791313171,-0.10014013946056366,-0.07415611296892166
11.2,-0.13818468153476715,0.10641193389892578,-0.1046103984117508,0.01596510410308838,-0.11267046630382538,-0.05389198288321495
11.25,-0.08758369833230972,0.1392841339111328,-0.24415595829486847,-0.0015235543251037598,-0.09765630960464478,-0.05898396670818329
11.3,-0.0457291379570961,0.17081737518310547,-0.1558218151330948,-0.023547625169157982,-0.03143377974629402,-0.07886094599962234
11.35,-0.01740049570798874,0.10877037048339844,0.07574930042028427,-0.044468846172094345,0.019306842237710953,-0.07439672201871872
11.4,-0.05157025158405304,0.03914355859160423,0.21450023353099823,-0.0657568871974945,0.030030759051442146,-0.06033901125192642
11.45,-0.0622798427939415,0.032996173948049545,0.16900239884853363,-0.055818744003772736,-0.0032733147963881493,-0.04652950167655945
11.5,-0.13403357565402985,-0.10456753522157669,0.027749352157115936,-0.043529585003852844,-0.018916144967079163,-0.05172790586948395
11.55,-0.08812081068754196,-0.143341064453125,0.0181940458714962,-0.04066929221153259,-0.010022297501564026,-0.078880175948143
11.6,-0.02559790015220642,-0.04091358557343483,0.11319006979465485,-0.026106731966137886,0.007818563841283321,-0.11036977171897888
11.65,0.021580196917057037,0.003716467646881938,0.16289807856082916,0.006531067192554474,-0.009153345599770546,-0.1269765943288803
11.7,0.15876060724258423,0.11461544781923294,0.058138784021139145,0.03962480649352074,-0.05842297151684761,-0.12402987480163574
11.75,0.16237130761146545,0.12148667126893997,-0.07496396452188492,0.0437861904501915,-0.06846283376216888,-0.11796025931835175
11.8,0.11468031257390976,0.18774700164794922,-0.10635264962911606,0.033397506922483444,-0.022294433787465096,-0.10683190077543259
11.85,0.016576535999774933,0.21947288513183594,-0.017900973558425903,0.03392087295651436,0.037534501403570175,-0.0978955626487732
11.9,0.05130395293235779,0.23803043365478516,0.034129995852708817,0.04519731551408768,0.07381942868232727,-0.08035247027873993
11.95,0.05749140679836273,0.18151569366455078,0.08143968135118484,0.049386702477931976,0.0880265161395073,-0.05729107931256294
12.0,0.10034499317407608,0.16566181182861328,0.030091138556599617,0.05812683701515198,0.09540567547082901,-0.032398421317338943
12.05,0.06687724590301514,0.13312721252441406,0.1014731302857399,0.07454142719507217,0.08726345002651215,-0.014652159065008163
12.1,0.03618774563074112,0.1259298324584961,0.20533977448940277,0.0820121318101883,0.09569982439279556,-0.0028734421357512474
12.15,0.013736188411712646,0.0192489605396986,0.263705849647522,0.08752130717039108,0.09597197920084,-0.008949452079832554
12.2,0.08424139022827148,0.005084990989416838,0.26400211453437805,0.0901188924908638,0.06478860974311829,-0.007331835106015205
12.25,0.06892441213130951,0.027709005400538445,0.2983555197715759,0.08914834260940552,0.022641677409410477,-0.009269089438021183
12.3,0.04320181906223297,0.036513328552246094,0.280450701713562,0.07474824041128159,-0.007121534552425146,-0.008778013288974762
12.35,0.031210772693157196,0.05515098199248314,0.27485722303390503,0.07488656044006348,-0.029444674029946327,-0.01565355248749256
12.4,0.0015485882759094238,0.08743953704833984,0.3043936491012573,0.07437223196029663,-0.06464036554098129,-0.0159925427287817
12.45,-0.03387248516082764,0.04829501733183861,0.22029681503772736,0.06680983304977417,-0.11941830813884735,-0.01103806309401989
12.5,0.004496283829212189,0.03415679931640625,0.16322322189807892,0.049072835594415665,-0.1536557823419571,-0.012887583114206791
12.55,0.06713931262493134,0.030628206208348274,0.047085706144571304,0.03021065704524517,-0.17233245074748993,-0.01245199702680111
12.6,0.06845089048147202,0.058012012392282486,-0.04712296277284622,0.013315161690115929,-0.17680852115154266,-0.021137939766049385
12.65,0.029893476516008377,0.026276590302586555,-0.10554984211921692,0.008141539990901947,-0.16534580290317535,-0.027081463485956192
12.7,0.15345147252082825,0.043348319828510284,-0.17556554079055786,0.01089373417198658,-0.13808108866214752,-0.022599324584007263
12.75,0.17648252844810486,0.061350829899311066,-0.21118032932281494,0.012080318294465542,-0.08672937005758286,-0.008013579063117504
12.8,0.16534769535064697,0.05227566510438919,-0.2079434096813202,0.025206640362739563,-0.05095348507165909,0.005474954377859831
12.85,0.14518947899341583,0.027749067172408104,-0.22169379889965057,0.03151021525263786,0.007005492690950632,0.011760682798922062
12.9,0.08353303372859955,0.019484523683786392,-0.15218469500541687,0.038158394396305084,0.0680713951587677,0.014200398698449135
12.95,0.11666076630353928,0.060850147157907486,-0.09786258637905121,0.05069444701075554,0.11716029047966003,0.010599849745631218
13.0,0.12569710612297058,0.004693988710641861,-0.023811660706996918,0.05160420760512352,0.15061987936496735,0.008940835483372211
13.05,0.11060479283332825,-0.0038099256344139576,-0.026911059394478798,0.0457494780421257,0.16999001801013947,0.00299345375970006
13.1,0.0785893127322197,0.0852041244506836,0.033237311989068985,0.03981536626815796,0.192724347114563,-0.005879244767129421
13.15,0.1298484057188034,0.0715017318725586,0.04185088351368904,0.02842043898999691,0.20143115520477295,-0.01800663210451603
13.2,0.07963468134403229,0.09216499328613281,0.016065947711467743,0.019939221441745758,0.2040855437517166,-0.023342369124293327
13.25,0.10794567316770554,0.04005909338593483,0.0768137201666832,0.01998165249824524,0.22364714741706848,-0.023966416716575623
13.3,0.09397558122873306,-0.007298467215150595,0.04222220927476883,0.01859041303396225,0.22775450348854065,-0.022734984755516052
13.35,0.04654278606176376,0.032688140869140625,0.1588190346956253,0.012000171467661858,0.2520214915275574,-0.015021950006484985
13.4,0.02138620987534523,0.011104581877589226,0.19755232334136963,0.020334750413894653,0.24111661314964294,-0.015552166849374771
13.45,0.024331435561180115,-0.027486803010106087,0.27832329273223877,0.0228867307305336,0.21489748358726501,-0.01477737631648779
13.5,-0.06426066160202026,-0.004375462885946035,0.2987786531448364,0.017897453159093857,0.1641855090856552,-0.024195978417992592
13.55,-0.015755977481603622,0.018587110564112663,0.1767556369304657,0.017641860991716385,0.09457671642303467,-0.02164146676659584
13.6,0.10255590081214905,0.04933643341064453,0.11001193523406982,0.03710324317216873,0.06080884486436844,-0.02790680341422558
13.65,0.13827957212924957,0.09005355834960938,0.1018618494272232,0.06412377953529358,0.05370309576392174,-0.03516703099012375
13.7,0.036972373723983765,0.11058330535888672,0.09508205205202103,0.07975328713655472,0.05861604958772659,-0.030458267778158188
13.75,0.04038363695144653,0.036009788513183594,0.22540800273418427,0.08320127427577972,0.04856623336672783,-0.019786344841122627
13.8,0.0240606889128685,0.029465671628713608,0.34972241520881653,0.09040325880050659,-0.0037193179596215487,-0.012491300702095032
13.85,-0.08864954113960266,-0.07038307934999466,0.29269230365753174,0.09082957357168198,-0.06598030030727386,-0.023201650008559227
13.9,-0.04666433483362198,-0.04091072455048561,0.26763415336608887,0.07639007270336151,-0.1157471090555191,-0.04090931639075279
13.95,-0.07966284453868866,-0.007918363437056541,0.3103301525115967,0.05505521595478058,-0.136635884642601,-0.06406477093696594
14.0,-0.06612757593393326,0.024799341335892677,0.26662471890449524,0.04565770551562309,-0.1772330403327942,-0.07622171193361282
14.05,0.06600247323513031,0.09862136840820312,0.18870525062084198,0.04114752262830734,-0.20963096618652344,-0.07421737164258957
14.1,0.1095731109380722,0.061176300048828125,0.16142186522483826,0.04462018981575966,-0.20588485896587372,-0.05961283668875694
14.15,0.0831405520439148,0.10553836822509766,0.1582745611667633,0.047257158905267715,-0.20184820890426636,-0.037933386862277985
14.2,0.04439134523272514,0.1013326644897461,0.19576677680015564,0.05004870146512985,-0.20477762818336487,-0.011058283038437366
14.25,-0.03786177188158035,0.11476898193359375,0.2102540284395218,0.05564315617084503,-0.2230052500963211,0.008064297027885914
14.3,-0.0728977769613266,0.10753916949033737,0.19379176199436188,0.049600981175899506,-0.25654253363609314,0.022366369143128395
14.35,-0.14041875302791595,0.04634475335478783,0.1402493715286255,0.043285198509693146,-0.27179741859436035,0.032114170491695404
14.4,-0.11988260596990585,0.055429454892873764,0.1525944620370865,0.038389429450035095,-0.2918608486652374,0.03320121392607689
14.45,-0.13167518377304077,0.07063865661621094,-0.0016918161418288946,0.03288741782307625,-0.30860212445259094,0.031453728675842285
14.5,-0.08443117886781693,0.00019073310249950737,-0.053731292486190796,0.020541228353977203,-0.3059140145778656,0.023073913529515266
14.55,0.008662663400173187,0.04602336883544922,-0.09118707478046417,0.01027733739465475,-0.3023394048213959,0.013459557667374611
14.6,-0.02079922892153263,0.05196571350097656,-0.08784861117601395,-0.0061900801956653595,-0.2691470682621002,0.01031433790922165
14.65,0.036252543330192566,0.034519195556640625,-0.05870375037193298,-0.017045069485902786,-0.23742233216762543,0.009913213551044464
14.7,0.007905597798526287,0.0901031494140625,-0.013442199677228928,-0.013803675770759583,-0.21272806823253632,0.012711378745734692
14.75,0.05164572596549988,0.09712791442871094,-0.032556623220443726,-0.0002824696712195873,-0.1959230601787567,0.02085798606276512
14.8,0.10360540449619293,0.0747833251953125,-0.04985012114048004,0.00812184251844883,-0.18623919785022736,0.031739242374897
14.85,0.14370834827423096,0.03973293676972389,-0.11337953805923462,0.005059724673628807,-0.17521125078201294,0.039285238832235336
14.9,0.16543228924274445,0.009103781543672085,-0.13945023715496063,-0.012399829924106598,-0.14326848089694977,0.042205121368169785
14.95,0.23425154387950897,0.05999661237001419,-0.09756609797477722,-0.02315424755215645,-0.09580287337303162,0.032077606767416
15.0,0.170047327876091,0.06743527203798294,-0.03754200041294098,-0.025846416130661964,-0.048613741993904114,0.015708116814494133
15.05,0.1316634714603424,0.07993984967470169,-0.07029633224010468,-0.035566095262765884,-0.024790113791823387,0.013532095588743687
15.1,0.1227952092885971,0.022998813539743423,-0.08432920277118683,-0.039239004254341125,0.014402944594621658,0.008813884109258652
15.15,0.09137368202209473,-0.022070880979299545,-0.1374078094959259,-0.041222333908081055,0.04920516535639763,0.001760155544616282
15.2,0.0481751374900341,-0.0842123031616211,-0.16734611988067627,-0.060223303735256195,0.08030190318822861,0.0027146940119564533
15.25,0.04566160589456558,0.02123737521469593,-0.12788276374340057,-0.07134778797626495,0.14045456051826477,0.0032971897162497044
15.3,0.02470320276916027,0.11849212646484375,-0.08091282099485397,-0.05844195559620857,0.18069450557231903,0.002810688456520438
15.35,0.014115184545516968,0.13812541961669922,-0.00619354285299778,-0.04477019980549812,0.20925399661064148,0.0024368546437472105
15.4,0.008731026202440262,0.1378488540649414,0.08399878442287445,-0.03969135135412216,0.24171793460845947,0.006700593512505293
15.45,0.0431523397564888,0.12935447692871094,0.12117726355791092,-0.043289706110954285,0.2286609411239624,0.019778696820139885
15.5,0.005637906491756439,0.024816513061523438,0.08579199761152267,-0.056651972234249115,0.17556403577327728,0.03285123407840729
15.55,-0.03359585255384445,-0.025426868349313736,0.20635268092155457,-0.07821629196405411,0.1900704950094223,0.038835566490888596
15.6,-0.02895059436559677,0.015080448240041733,0.2761072516441345,-0.0647515058517456,0.17203223705291748,0.03874703124165535
15.65,-0.0632832944393158,-0.030651096254587173,0.23629292845726013,-0.04397564381361008,0.128752201795578,0.03574342280626297
15.7,-0.15368784964084625,-0.06116677075624466,0.1577059030532837,-0.03676231950521469,0.07269727438688278,0.031061885878443718
15.75,-0.24320580065250397,-0.08507633954286575,0.0974029079079628,-0.026200300082564354,0.05008908361196518,0.025948548689484596
15.8,-0.1654384732246399,0.009322159923613071,0.13810284435749054,-0.01557084359228611,0.038687098771333694,0.008667360059916973
15.85,-0.13499122858047485,0.027516359463334084,0.23557645082473755,-0.008814014494419098,0.029986480250954628,-0.006590262521058321
15.9,-0.09222356975078583,0.05861186236143112,0.37465113401412964,-0.004855934530496597,0.014471892267465591,-0.01040137279778719
15.95,-0.12687547504901886,0.0385274812579155,0.41174712777137756,0.008432835340499878,-0.054575398564338684,-0.007030710112303495
16.0,-0.19021295011043549,0.007255545351654291,0.3412550091743469,0.01655929908156395,-0.13942073285579681,-0.004355349112302065
16.05,-0.09972977638244629,0.026379579678177834,0.31468647718429565,0.0006494519766420126,-0.2132863700389862,-0.0019389367662370205
16.1,-0.11363275349140167,0.09689902514219284,0.20973649621009827,-0.017874810844659805,-0.27002283930778503,-0.009660757146775723
16.15,-0.09106749296188354,0.1308765411376953,0.044930484145879745,-0.029464498162269592,-0.3200725018978119,-0.007749455980956554
16.2,-0.03353200852870941,0.1431865692138672,0.02847207337617874,-0.036741599440574646,-0.33084172010421753,-0.007930929772555828
16.25,-0.043417446315288544,0.12587451934814453,0.05082528293132782,-0.039555516093969345,-0.33517879247665405,-0.0010219120886176825
16.3,-0.06298716366291046,0.15515708923339844,-0.02825201489031315,-0.040202368050813675,-0.36532506346702576,0.018204642459750175
16.35,-0.051323872059583664,0.11175251007080078,-0.12780384719371796,-0.047091044485569,-0.3699280619621277,0.031353481113910675
16.4,0.04408447444438934,0.029689792543649673,-0.2253827154636383,-0.049289751797914505,-0.3773380517959595,0.0354975126683712
16.45,0.057570651173591614,0.011880879290401936,-0.2768063545227051,-0.05626058205962181,-0.33759599924087524,0.028364649042487144
16.5,0.09654472023248672,0.061101920902729034,-0.272860050201416,-0.05834188684821129,-0.28345394134521484,0.02253463678061962
16.55,0.22748687863349915,0.08155442029237747,-0.3137846291065216,-0.05485966429114342,-0.24876976013183594,0.028835495933890343
16.6,0.31867945194244385,0.09340383112430573,-0.32636579871177673,-0.048949215561151505,-0.18196198344230652,0.03394769877195358
16.65,0.30246439576148987,0.1050109937787056,-0.21172821521759033,-0.04429563879966736,-0.08345486223697662,0.04713693633675575
16.7,0.23263846337795258,0.08232975751161575,-0.07689420133829117,-0.031191805377602577,-0.0030577185098081827,0.06595450639724731
16.75,0.18565057218074799,0.05424023047089577,0.0757184624671936,-0.02057189680635929,0.04488500580191612,0.0800616666674614
16.8,0.09643640369176865,0.004248620942234993,0.09119480848312378,-0.024106422439217567,0.06102658808231354,0.08382892608642578
16.85,-0.04289286583662033,0.007682798430323601,0.06379368901252747,-0.03340050205588341,0.07244749367237091,0.08093547821044922
16.9,-0.07846534997224808,0.0004091230221092701,0.10093814134597778,-0.037625640630722046,0.06871993839740753,0.06569851189851761
16.95,-0.045982133597135544,0.04255961999297142,0.1655770093202591,-0.04483378678560257,0.049596525728702545,0.03867834806442261
17.0,-0.02587691694498062,0.03275584802031517,0.2481391727924347,-0.0567697174847126,0.022788358852267265,0.023670032620429993
17.05,-0.02265382558107376,0.03388023003935814,0.2773788571357727,-0.06997564435005188,-0.012423140928149223,0.013468596152961254
17.1,-0.06189058721065521,0.03416251763701439,0.24926349520683289,-0.07660221308469772,-0.0798487737774849,0.020950928330421448
17.15,-0.020863499492406845,0.0014486289583146572,0.1637277603149414,-0.08801842480897903,-0.13214203715324402,0.033189885318279266
17.2,0.07199554145336151,-0.050897594541311264,0.012126708403229713,-0.10184583067893982,-0.16272667050361633,0.031802963465452194
17.25,-0.036520566791296005,-0.03899097442626953,-0.03929288312792778,-0.12016154825687408,-0.16630741953849792,0.007258480880409479
17.3,-0.02879653126001358,0.03514385223388672,-0.00876473169773817,-0.13391274213790894,-0.16335691511631012,-0.025288021191954613
17.35,0.024802379310131073,0.1289081573486328,0.00668934965506196,-0.14232942461967468,-0.1747657060623169,-0.03842678293585777
17.4,0.08245547115802765,0.11208152770996094,0.01828176900744438,-0.150216743350029,-0.19318240880966187,-0.03448544815182686
17.45,0.007252746261656284,0.04342460632324219,0.031022410839796066,-0.15079434216022491,-0.19119468331336975,-0.03656572103500366
17.5,-0.0010744035243988037,0.005551337264478207,0.06343477964401245,-0.14690572023391724,-0.1998814344406128,-0.02901090867817402
17.55,-0.06740781664848328,0.05482196807861328,-0.08317353576421738,-0.1438370794057846,-0.22186598181724548,-0.024637296795845032
17.6,-0.03995278850197792,0.08333778381347656,-0.28103309869766235,-0.1534116566181183,-0.2306663990020752,-0.031859390437603
17.65,0.04186924546957016,0.016956333070993423,-0.2943074703216553,-0.16917714476585388,-0.1811942756175995,-0.05236838757991791
17.7,-0.04052111133933067,-0.03621196746826172,-0.23430882394313812,-0.17900925874710083,-0.08833622187376022,-0.06871712952852249
17.75,-0.0003473646938800812,-0.06881141662597656,-0.12965841591358185,-0.17094217240810394,-0.021229352802038193,-0.06698629260063171
17.8,-0.025656500831246376,0.009873390197753906,-0.05813489854335785,-0.1337159425020218,0.024933990091085434,-0.06982773542404175
17.85,-0.03409026563167572,0.05553722381591797,-0.02854052558541298,-0.08979468792676926,0.05335170030593872,-0.05713113769888878
17.9,-0.019702095538377762,0.015273095108568668,-0.12748834490776062,-0.03593594953417778,0.07074185460805893,-0.04139134660363197
17.95,-0.029519177973270416,-0.03706932067871094,-0.13511085510253906,0.016514908522367477,0.11160534620285034,-0.046750955283641815
18.0,-0.11051825433969498,-0.08966064453125,-0.03779531270265579,0.07552136480808258,0.16623525321483612,-0.05776781216263771
18.05,-0.1320866495370865,-0.048383716493844986,-0.03152916207909584,0.12667079269886017,0.1864006072282791,-0.06231264770030975
18.1,-0.05090569704771042,-0.011873246170580387,-0.01977105811238289,0.15613672137260437,0.19201847910881042,-0.07809347659349442
18.15,-0.046377986669540405,0.17582321166992188,-0.06912277638912201,0.1662704348564148,0.21778719127178192,-0.09840654581785202
18.2,0.04959309101104736,0.1660785675048828,-0.11673220247030258,0.16712215542793274,0.2491942048072815,-0.0923292264342308
18.25,-0.021901588886976242,0.2730264663696289,-0.011319654993712902,0.16499698162078857,0.3375113010406494,-0.07325837761163712
18.3,-0.07174354046583176,0.3636598587036133,0.03271183371543884,0.15949225425720215,0.3949730098247528,-0.04460575059056282
18.35,-0.16348901391029358,0.26030731201171875,0.16044451296329498,0.15249502658843994,0.463448703289032,-0.018527531996369362
18.4,-0.22243735194206238,0.15645025670528412,0.2845379710197449,0.14642256498336792,0.4975220263004303,0.00617106631398201
18.45,-0.1694503277540207,0.05927657335996628,0.2462863028049469,0.13332721590995789,0.46219512820243835,0.02812923677265644
18.5,-0.0782841369509697,0.04046249017119408,0.11160102486610413,0.1114816814661026,0.4275093674659729,0.027184901759028435
18.55,0.05313728004693985,0.009921074844896793,0.0076638818718492985,0.0949028730392456,0.4014938771724701,0.017465971410274506
18.6,0.17030049860477448,0.09616566449403763,-0.06993235647678375,0.08992386609315872,0.37745368480682373,0.01608218438923359
18.65,0.29106780886650085,0.184755340218544,-0.050176359713077545,0.09016278386116028,0.3566804528236389,0.0376114659011364
18.7,0.3221179246902466,0.14922429621219635,-0.014148320071399212,0.11389417946338654,0.336249440908432,0.06815913319587708
18.75,0.251930832862854,0.08685780316591263,0.07940971106290817,0.13633543252944946,0.3129986524581909,0.09394281357526779
18.8,0.25601726770401,0.04203701764345169,-0.01047199871391058,0.12991511821746826,0.26389390230178833,0.12124757468700409
18.85,0.28215423226356506,0.01719284988939762,-0.08135445415973663,0.10272002965211868,0.2352861762046814,0.1268540471792221
18.9,0.3197290897369385,-0.012461652979254723,-0.006551251281052828,0.05964963510632515,0.22821447253227234,0.10324990004301071
18.95,0.2947513163089752,-0.11593436449766159,0.11172886937856674,0.020812422037124634,0.22359904646873474,0.06007394567131996
19.0,0.26242777705192566,-0.26116466522216797,0.20401905477046967,0.00865870714187622,0.2247651219367981,0.012639633379876614
19.05,0.43500465154647827,-0.22278498113155365,0.2087365686893463,0.02888818085193634,0.2413066178560257,-0.026137959212064743
19.1,0.44019657373428345,0.01773739792406559,0.20867854356765747,0.0476493164896965,0.27032265067100525,-0.06960558146238327
19.15,0.3879123628139496,0.24448776245117188,0.31888246536254883,0.052609626203775406,0.27778536081314087,-0.07287254184484482
19.2,0.2526678442955017,0.2189044952392578,0.43086305260658264,0.059149377048015594,0.24542006850242615,-0.01420750841498375
19.25,0.10165823251008987,0.07006359100341797,0.3429880738258362,0.06218535453081131,0.15751966834068298,0.03983643278479576
19.3,0.06088804081082344,0.0014162050792947412,0.2793605327606201,0.04386831820011139,0.10588706284761429,0.05519508197903633
19.35,0.02676219493150711,-0.04917812719941139,0.2637782394886017,0.016128750517964363,0.06329121440649033,0.03255900740623474
19.4,0.17697541415691376,-0.0643148422241211,0.23185966908931732,-0.014287304133176804,-0.006908060517162085,-0.010925184935331345
19.45,0.2865649461746216,-0.07483958452939987,0.22976240515708923,-0.06479857861995697,-0.08074666559696198,-0.05457310751080513
19.5,0.42385122179985046,0.03610707446932793,0.10329373180866241,-0.12229849398136139,-0.16465690732002258,-0.0934922844171524
19.55,0.5125644207000732,0.1637716442346573,0.021737879142165184,-0.1604653298854828,-0.2082204669713974,-0.12445937842130661
19.6,0.588272213935852,0.21231557428836823,0.1169363483786583,-0.1657196283340454,-0.23348170518875122,-0.11605561524629593
19.65,0.5849097967147827,0.10048200190067291,0.15569624304771423,-0.16533558070659637,-0.26434236764907837,-0.06863639503717422
19.7,0.44944995641708374,-0.03693674877285957,0.21144945919513702,-0.17978520691394806,-0.28341585397720337,-0.027636056765913963
19.75,0.36069178581237793,-0.04006480425596237,0.1463019996881485,-0.195072203874588,-0.32794255018234253,-0.024045387282967567
19.8,0.2841763496398926,0.025027284398674965,-0.10465206205844879,-0.19911301136016846,-0.393487811088562,-0.0540340393781662
19.85,0.2281924933195114,0.14408017694950104,-0.2878384590148926,-0.19640995562076569,-0.38290899991989136,-0.10782675445079803
19.9,0.23744884133338928,0.1999673992395401,-0.4373347759246826,-0.18159285187721252,-0.3516976237297058,-0.14374621212482452
19.95,0.14595554769039154,0.1810026317834854,-0.457498162984848,-0.1533355563879013,-0.3053402006626129,-0.14369255304336548
20.0,0.02202368527650833,0.05972767248749733,-0.35574638843536377,-0.10513786971569061,-0.22913113236427307,-0.11556477099657059
20.05,-0.043323859572410583,-0.016872406005859375,-0.19166900217533112,-0.06255639344453812,-0.17980697751045227,-0.07067790627479553
20.1,-0.11114560067653656,-0.0221328753978014,-0.05730642378330231,-0.00019190460443496704,-0.138309046626091,-0.04910046234726906
20.15,-0.18016822636127472,-0.030251510441303253,0.17733420431613922,0.062036871910095215,-0.0871858298778534,-0.04461446776986122
20.2,-0.23407632112503052,0.0825500413775444,0.28377968072891235,0.11007410287857056,-0.11471816897392273,-0.013951310887932777
20.25,-0.24907387793064117,0.11781501024961472,0.2717013657093048,0.1251809149980545,-0.1816275268793106,0.019908228889107704
20.3,-0.3071117699146271,0.058804500848054886,0.15749000012874603,0.10381986200809479,-0.23231184482574463,0.032789528369903564
20.35,-0.34015166759490967,0.05814169719815254,0.06982314586639404,0.0712967962026596,-0.2665633261203766,0.027714107185602188
20.4,-0.23046857118606567,0.09854411333799362,0.03180721774697304,0.053709130734205246,-0.2758792042732239,0.015187815763056278
20.45,-0.1901228278875351,0.12491511553525925,0.024625703692436218,0.03814541921019554,-0.2818003296852112,0.016764787957072258
20.5,-0.20427894592285156,0.117522232234478,0.00024978420697152615,0.025755222886800766,-0.27260443568229675,0.029555808752775192
20.55,-0.2454366534948349,0.10816573351621628,-0.017387215048074722,0.020785734057426453,-0.24978695809841156,0.04369371756911278
20.6,-0.17910136282444,0.08125399798154831,-0.05765392631292343,0.007413212209939957,-0.2323882281780243,0.053983256220817566
20.65,-0.09805986285209656,0.05301666259765625,-0.09407717734575272,-0.008540145121514797,-0.2064748853445053,0.04257820546627045
20.7,-0.06408650428056717,0.02985382080078125,-0.12239865213632584,-0.021918542683124542,-0.17162556946277618,0.025869285687804222
20.75,-0.025383953005075455,0.025549888610839844,-0.11535826325416565,-0.03623547777533531,-0.12445222586393356,0.011193868704140186
20.8,0.00985109992325306,0.03321361541748047,-0.08294139057397842,-0.04108685627579689,-0.06727072596549988,0.002754039829596877
20.85,0.04103517532348633,0.022675516083836555,-0.09920753538608551,-0.03595912456512451,-0.02473204769194126,0.005353301763534546
20.9,0.06385117769241333,0.04212665930390358,-0.15324440598487854,-0.02417275868356228,0.0170342605561018,0.008319701999425888
20.95,0.11973121762275696,0.10868645459413528,-0.1430281102657318,-0.009810665622353554,0.06914714723825455,0.014211265370249748
21.0,0.13024063408374786,0.1364879608154297,-0.0019167099380865693,0.003929082304239273,0.12470895797014236,0.02182750776410103
21.05,0.058390624821186066,0.1494731903076172,0.07011223584413528,0.010009022429585457,0.15311479568481445,0.03464161977171898
21.1,0.07965567708015442,0.13177013397216797,0.11342652142047882,0.015279252082109451,0.15602730214595795,0.05282445624470711
21.15,0.1158338189125061,0.04857254400849342,0.11516368389129639,0.019140327349305153,0.14116862416267395,0.07113513350486755
21.2,0.05057240277528763,0.041412353515625,0.10327748954296112,0.01573990285396576,0.14505210518836975,0.07158128172159195
21.25,0.07548387348651886,0.011445999145507812,0.1838867962360382,0.011105743236839771,0.14184248447418213,0.06720364093780518
21.3,0.12820196151733398,-0.030890464782714844,0.24645204842090607,0.009190547280013561,0.11448340862989426,0.05735049769282341
21.35,0.10095585882663727,-0.019036293029785156,0.2691437005996704,0.012038282118737698,0.07878178358078003,0.04000724107027054
21.4,0.09206192195415497,-0.011317253112792969,0.26752129197120667,0.015021909028291702,0.032554082572460175,0.026036661118268967
21.45,0.1464640349149704,0.004734994377940893,0.2655610740184784,0.017106838524341583,-0.008466335013508797,0.010587433353066444
21.5,0.12018541991710663,0.02370643801987171,0.19555410742759705,0.011547209694981575,-0.05369254946708679,-0.000370496156392619
21.55,0.09930288791656494,-0.019143102690577507,0.06955210864543915,-0.00024640001356601715,-0.1008216068148613,-0.008357756771147251
21.6,0.1253623515367508,-0.04910564050078392,-0.06256972998380661,-0.01602698490023613,-0.1290469765663147,-0.024510417133569717
21.65,0.19072552025318146,-0.021785728633403778,-0.12243801355361938,-0.02642369642853737,-0.12791331112384796,-0.04475553706288338
21.7,0.2067970335483551,0.06059170514345169,-0.17312580347061157,-0.03387211263179779,-0.11060492694377899,-0.060368992388248444
21.75,0.21414166688919067,0.10686684399843216,-0.1740584820508957,-0.041854631155729294,-0.08767905831336975,-0.06688086688518524
21.8,0.16115184128284454,0.07875729352235794,-0.19480597972869873,-0.042964380234479904,-0.04459916055202484,-0.06395464390516281
21.85,0.12983272969722748,0.04160309582948685,-0.24882933497428894,-0.04540768265724182,-0.013763435184955597,-0.04803874343633652
21.9,0.11919000744819641,0.05846882238984108,-0.18947817385196686,-0.04996456205844879,0.038906462490558624,-0.04360850527882576
21.95,0.08128707110881805,0.06776142120361328,-0.11884097754955292,-0.04744865745306015,0.09269554167985916,-0.0468565858900547
22.0,0.004679124802350998,0.11234092712402344,-0.0522732175886631,-0.04791487753391266,0.1301887482404709,-0.04408064857125282
22.05,-0.04911725968122482,0.0628499984741211,-0.009826532565057278,-0.049461111426353455,0.15393686294555664,-0.038987427949905396
22.1,-0.028074607253074646,0.04087638854980469,0.03262309730052948,-0.04447227716445923,0.16329601407051086,-0.039084695279598236
22.15,-0.019812025129795074,0.03261375427246094,0.04625004157423973,-0.03165222704410553,0.1694970577955246,-0.04150773212313652
22.2,-0.050804898142814636,0.06026458367705345,0.0959651991724968,-0.012855096720159054,0.18605712056159973,-0.047308821231126785
22.25,-0.008491557091474533,0.07102680206298828,0.13029971718788147,-0.0016870945692062378,0.19739635288715363,-0.04776947572827339
22.3,-0.00861278548836708,0.035831451416015625,0.11676831543445587,0.01139154750853777,0.19731663167476654,-0.04545660316944122
22.35,-0.0401926264166832,0.00024413909704890102,0.03774338960647583,0.033437952399253845,0.19047793745994568,-0.043052975088357925
22.4,0.028313081711530685,0.007269860245287418,-0.018917303532361984,0.05643473565578461,0.19288942217826843,-0.04747798293828964
22.45,0.011826874688267708,0.03201580047607422,0.08241043984889984,0.060711510479450226,0.2099485695362091,-0.05444804206490517
22.5,0.02081015333533287,-0.000604630506131798,0.14344298839569092,0.06257345527410507,0.20265793800354004,-0.04762282222509384
22.55,-0.013688582926988602,0.034714698791503906,0.10582825541496277,0.06865197420120239,0.19015325605869293,-0.043677061796188354
22.6,-0.0365104079246521,0.05347442254424095,0.14294041693210602,0.07821889221668243,0.17984578013420105,-0.042345836758613586
22.65,-0.021249372512102127,0.04597091302275658,0.16188494861125946,0.09273339807987213,0.1698160171508789,-0.04042597860097885
22.7,0.06315857172012329,0.062163352966308594,0.23934116959571838,0.10302616655826569,0.16233457624912262,-0.03248237445950508
22.75,0.10604847222566605,0.11247539520263672,0.24211399257183075,0.10901658982038498,0.12479044497013092,-0.019423631951212883
22.8,0.07683032006025314,0.08913040161132812,0.23409539461135864,0.11332523822784424,0.10006292164325714,-0.008826223202049732
22.85,0.058748241513967514,0.01890373043715954,0.26998311281204224,0.11647137254476547,0.06785771250724792,0.0020719452295452356
22.9,0.04168335348367691,-0.05134964361786842,0.3271981179714203,0.1187111884355545,0.021336419507861137,-0.0006619648193009198
22.95,-0.0070768967270851135,-0.07928657531738281,0.315345823764801,0.11383901536464691,-0.021990973502397537,-0.01906154677271843
23.0,0.021403424441814423,-0.09233760833740234,0.28993603587150574,0.10100848227739334,-0.05059405416250229,-0.03768409788608551
23.05,-0.05535738170146942,-0.02390194498002529,0.32595306634902954,0.09536877274513245,-0.06928595900535583,-0.055876635015010834
23.1,-0.16954919695854187,0.06571482867002487,0.35229042172431946,0.10549629479646683,-0.10578108578920364,-0.05963263660669327
23.15,-0.2318032681941986,0.08915328234434128,0.31323790550231934,0.12954097986221313,-0.17014899849891663,-0.051558710634708405
23.2,-0.3511888384819031,0.06944654881954193,0.19766153395175934,0.15484172105789185,-0.2478334903717041,-0.042646221816539764
23.25,-0.4212290644645691,0.1310720294713974,-0.02382027730345726,0.16876953840255737,-0.30206096172332764,-0.032728374004364014
23.3,-0.43672606348991394,0.18811796605587006,-0.13923507928848267,0.17487984895706177,-0.28902149200439453,-0.038223303854465485
23.35,-0.31944307684898376,0.2148914337158203,-0.16574236750602722,0.1935971975326538,-0.24218259751796722,-0.052479058504104614
23.4,-0.21310415863990784,0.16784381866455078,-0.1613398790359497,0.21770313382148743,-0.18930214643478394,-0.05060431733727455
23.45,-0.21941645443439484,0.08377932757139206,-0.1246161162853241,0.20589399337768555,-0.1363910585641861,-0.017099697142839432
23.5,-0.24290215969085693,0.0962667390704155,-0.2577744126319885,0.14788074791431427,-0.12045244127511978,0.04520781338214874
23.55,-0.07656942307949066,0.23381423950195312,-0.4367574155330658,0.08996206521987915,-0.054852571338415146,0.08695245534181595
23.6,0.23759722709655762,0.15244103968143463,-0.31111133098602295,0.10843153297901154,0.1253831684589386,0.06136387959122658
23.65,0.37801116704940796,0.016705522313714027,0.04694690555334091,0.17068681120872498,0.2741535007953644,0.010687408037483692
23.7,0.29770272970199585,-0.00583266606554389,0.21044084429740906,0.1479688286781311,0.26306024193763733,0.03778475150465965
23.75,0.16707587242126465,0.01562691107392311,0.04932207986712456,0.09097462892532349,0.21215057373046875,0.09614285826683044
23.8,0.23782207071781158,-0.020260803401470184,-0.0732015073299408,0.06834559142589569,0.20237596333026886,0.10566424578428268
23.85,0.45694175362586975,-0.09472082555294037,-0.20886170864105225,0.10309609770774841,0.219679594039917,0.07760223746299744
23.9,0.4924660325050354,-0.008225427009165287,-0.022146329283714294,0.12196619808673859,0.30854466557502747,0.043161485344171524
23.95,0.3881998062133789,0.04354191571474075,0.29821479320526123,0.12993498146533966,0.34107205271720886,0.042532969266176224
24.0,0.3246024549007416,0.049256332218647,0.2690489888191223,0.14852027595043182,0.2454073131084442,0.06640548259019852
24.05,0.27173346281051636,0.020193105563521385,0.19240537285804749,0.15840455889701843,0.1661423295736313,0.0793347954750061
24.1,0.20061400532722473,0.0026693374384194613,0.2247789055109024,0.144688218832016,0.13773590326309204,0.08202152699232101
24.15,0.14610405266284943,-0.026005743071436882,0.21538914740085602,0.1264469027519226,0.09535487741231918,0.07645292580127716
24.2,0.14079344272613525,-0.05128002166748047,0.2118835300207138,0.10815699398517609,0.03622348979115486,0.06283040344715118
24.25,0.17171290516853333,-0.01039027888327837,0.22437161207199097,0.08145517110824585,-0.011588677763938904,0.04189975559711456
24.3,0.1475275754928589,0.001993180951103568,0.2344026267528534,0.05125411972403526,-0.05512549728155136,0.01531642209738493
24.35,0.10220300406217575,-0.052657127380371094,0.19886967539787292,0.02823757939040661,-0.11423603445291519,-0.005005340091884136
24.4,0.06317727267742157,-0.023618698120117188,0.15021897852420807,0.006022681947797537,-0.1677859127521515,-0.016956491395831108
24.45,0.06559352576732635,0.043182373046875,0.04496364668011665,-0.016787977889180183,-0.19544212520122528,-0.029457025229930878
24.5,0.11307917535305023,0.0692138671875,-0.03212426230311394,-0.029286567121744156,-0.20195749402046204,-0.03686040639877319
24.55,0.1523091346025467,0.05690288916230202,-0.05840346962213516,-0.028212130069732666,-0.19844581186771393,-0.041551604866981506
24.6,0.14767323434352875,0.030602458864450455,-0.03989921882748604,-0.02193937636911869,-0.18948139250278473,-0.03599480912089348
24.65,0.12128423899412155,0.0283966101706028,-0.047409407794475555,-0.011854441836476326,-0.17753522098064423,-0.02551102638244629
24.7,0.09772008657455444,0.0441589392721653,-0.0874253362417221,0.00018081814050674438,-0.16012604534626007,-0.016994496807456017
24.75,0.09100610017776489,0.062127117067575455,-0.13611194491386414,0.012649365700781345,-0.13773909211158752,-0.011926637962460518
24.8,0.09373784065246582,0.078156478703022,-0.1552945226430893,0.016222858801484108,-0.10503818839788437,-0.011228451505303383
24.85,0.08303467184305191,0.11168479919433594,-0.0860818475484848,0.01139817200601101,-0.062067266553640366,-0.011255684308707714
24.9,0.08426924049854279,0.1271514892578125,-0.058363378047943115,0.0026417961344122887,-0.03199152275919914,-0.01089252345263958
24.95,0.12729395925998688,0.10671139508485794,-0.06215484440326691,-0.00988883338868618,-0.01248354185372591,-0.0075250971131026745
25.0,0.099582739174366,0.1042022705078125,-0.04963976517319679,-0.021413488313555717,0.015857841819524765,-0.0028727403841912746
25.05,0.05692269653081894,0.09450531005859375,-0.020595774054527283,-0.027079980820417404,0.04301712289452553,0.005799006670713425
25.1,0.05918801575899124,0.07106208801269531,0.07336776703596115,-0.03482570871710777,0.06393349170684814,0.01312183402478695
25.15,0.05879833921790123,0.051422119140625,0.14242801070213318,-0.047940630465745926,0.06724177300930023,0.015731649473309517
25.2,0.07311630249023438,0.05248546600341797,0.14281883835792542,-0.06363694369792938,0.0475546270608902,0.018562832847237587
25.25,0.10318101197481155,0.03450203314423561,0.06548623740673065,-0.07372869551181793,0.029141748324036598,0.015821540728211403
25.3,0.12431158870458603,-0.03467082604765892,0.02345680631697178,-0.07842543721199036,0.031589191406965256,0.005108020268380642
25.35,0.1516200453042984,-0.06094932183623314,0.01758267916738987,-0.07489988952875137,0.0252414308488369,-0.01314153429120779
25.4,0.20268818736076355,-0.02115153707563877,0.00896314438432455,-0.06708315014839172,0.008006397634744644,-0.03401241451501846
25.45,0.21844998002052307,0.044375427067279816,-0.04373856633901596,-0.059878699481487274,0.005888341460376978,-0.04471323639154434
25.5,0.15036727488040924,0.07588768750429153,-0.005103291478008032,-0.052795857191085815,0.02889598347246647,-0.045050717890262604
25.55,0.11963400989770889,0.06009579077363014,0.10745124518871307,-0.044134147465229034,0.033658940345048904,-0.03453522175550461
25.6,0.0859411209821701,0.03810596466064453,0.13632312417030334,-0.05177289992570877,0.0023209142964333296,-0.020997600629925728
25.65,0.05706175044178963,0.028939247131347656,0.17924168705940247,-0.07448099553585052,-0.03172033652663231,-0.014601138420403004
25.7,0.084081269800663,0.015920639038085938,0.1821749061346054,-0.1058490127325058,-0.06001455336809158,-0.02204694040119648
25.75,0.17964400351047516,-0.04009818658232689,0.16418230533599854,-0.13823340833187103,-0.09789520502090454,-0.04117532819509506
25.8,0.26236167550086975,-0.11062907427549362,0.14448782801628113,-0.15867385268211365,-0.14128383994102478,-0.06314139813184738
25.85,0.33453288674354553,-0.13393305242061615,0.10187365859746933,-0.16781772673130035,-0.19760021567344666,-0.0808858647942543
25.9,0.30275899171829224,-0.039766304194927216,0.029733872041106224,-0.1652011275291443,-0.25863492488861084,-0.0954529419541359
25.95,0.22728924453258514,0.09216690808534622,-0.07598055899143219,-0.15663912892341614,-0.3010508418083191,-0.09908664226531982
26.0,0.2806715965270996,0.1633453518152237,-0.07658683508634567,-0.14522847533226013,-0.305137574672699,-0.0855269506573677
26.05,0.2544136643409729,0.1494131088256836,0.03357797488570213,-0.14417396485805511,-0.2824818789958954,-0.07071296125650406
26.1,0.09682033210992813,0.025645257905125618,0.11421866714954376,-0.16454511880874634,-0.27985748648643494,-0.055758461356163025
26.15,-0.1206214651465416,-0.043920520693063736,0.1808624565601349,-0.18923808634281158,-0.27559366822242737,-0.05571975186467171
26.2,-0.36778074502944946,0.032623276114463806,0.2810611426830292,-0.2144816666841507,-0.26695069670677185,-0.06540452688932419
26.25,-0.6385068893432617,0.14078329503536224,0.3109852969646454,-0.2382574826478958,-0.2903410792350769,-0.06605751067399979
26.3,-0.7570220828056335,0.2997541129589081,0.1651274412870407,-0.2761163115501404,-0.3233738839626312,-0.06624351441860199
26.35,-0.6888248324394226,0.47385308146476746,-0.19423262774944305,-0.3287290334701538,-0.3492795526981354,-0.07396865636110306
26.4,-0.4543275535106659,0.5326852798461914,-0.5440947413444519,-0.38110485672950745,-0.34024035930633545,-0.08404874801635742
26.45,-0.29737186431884766,0.3326530456542969,-0.5783029794692993,-0.4281666874885559,-0.22943603992462158,-0.10685094445943832
26.5,-0.3020362854003906,-0.0322570838034153,-0.39023557305336,-0.4622965157032013,-0.06910280138254166,-0.13349634408950806
26.55,-0.2991902530193329,-0.17147064208984375,-0.3848661482334137,-0.46438610553741455,0.04457523301243782,-0.12613545358181
26.6,-0.18801943957805634,-0.17151451110839844,-0.5416166186332703,-0.4155026972293854,0.13868717849254608,-0.09435416013002396
26.65,-0.10745032131671906,-0.05994510278105736,-0.6265166401863098,-0.3003094792366028,0.2826344668865204,-0.07775008678436279
26.7,0.1451289802789688,0.08461190015077591,-0.33833426237106323,-0.12343952059745789,0.4608173966407776,-0.07200764864683151
26.75,0.44094109535217285,0.013897905126214027,0.22922778129577637,0.10882923007011414,0.5953343510627747,-0.0702400803565979
26.8,0.36136576533317566,-0.09225845336914062,0.6960346102714539,0.27389955520629883,0.5468676090240479,-0.015392026863992214
26.85,0.09366656094789505,-0.008145335130393505,0.5079677700996399,0.26554590463638306,0.3046460747718811,0.1370815485715866
26.9,0.12131375074386597,0.02567005529999733,-0.10321217030286789,0.19595691561698914,0.1527206152677536,0.22194336354732513
26.95,0.33525344729423523,0.05292988941073418,-0.23758429288864136,0.17252084612846375,0.2243114709854126,0.14245186746120453
27.0,0.4848812222480774,0.23867036402225494,-0.012861482799053192,0.17646442353725433,0.3303193151950836,0.06184925138950348
27.05,0.5974531769752502,0.4147157669067383,0.18898510932922363,0.15232199430465698,0.3657676577568054,0.07331828027963638
27.1,0.591869056224823,0.43804168701171875,0.33049339056015015,0.11753387749195099,0.35308563709259033,0.13367147743701935
27.15,0.5205129384994507,0.24275685846805573,0.27267181873321533,0.09850982576608658,0.3040302097797394,0.21579515933990479
27.2,0.5132426023483276,0.00689317099750042,0.1162300854921341,0.07903764396905899,0.2765042781829834,0.26211628317832947
27.25,0.43488332629203796,-0.10334109514951706,0.11531813442707062,0.04300326108932495,0.31600552797317505,0.2366262525320053
27.3,0.36487752199172974,-0.04055117815732956,0.22632740437984467,0.009053517132997513,0.3522883951663971,0.18699587881565094
27.35,0.30290481448173523,0.11880780011415482,0.31398338079452515,-0.014203682541847229,0.33626213669776917,0.1637241244316101
27.4,0.25380241870880127,0.2658252716064453,0.3268062472343445,-0.033399805426597595,0.27672070264816284,0.1734739989042282
27.45,0.22244049608707428,0.32807445526123047,0.2837517261505127,-0.05203135684132576,0.2017098367214203,0.20192667841911316
27.5,0.19353047013282776,0.2682380676269531,0.25237464904785156,-0.0698203444480896,0.13690342009067535,0.24265459179878235
27.55,0.159803569316864,0.1623544692993164,0.2291630357503891,-0.07667731493711472,0.0891791582107544,0.2790863513946533
27.6,0.09383054822683334,0.026946067810058594,0.3044562041759491,-0.08239365369081497,0.058284688740968704,0.29124757647514343
27.65,0.10408194363117218,-0.1193389892578125,0.38317736983299255,-0.08744513988494873,-0.003961930982768536,0.28333497047424316
27.7,0.11412573605775833,-0.19194507598876953,0.26990461349487305,-0.08715257048606873,-0.11002693325281143,0.2617441415786743
27.75,0.03712420165538788,-0.2026386260986328,0.027828475460410118,-0.10776372253894806,-0.186274915933609,0.2246457040309906
27.8,0.07833194732666016,-0.12241077423095703,-0.12794949114322662,-0.13109329342842102,-0.19330209493637085,0.17183852195739746
27.85,0.18609653413295746,0.012920386157929897,-0.11096969246864319,-0.12643024325370789,-0.16406378149986267,0.12100586295127869
27.9,0.19305896759033203,0.10087109357118607,-0.014794216491281986,-0.10414612293243408,-0.14589127898216248,0.10437720268964767
27.95,0.11441093683242798,0.07190990447998047,0.03757208585739136,-0.07529616355895996,-0.1556703746318817,0.11503463238477707
28.0,0.04247745871543884,-0.05054759979248047,0.05127156898379326,-0.04250701144337654,-0.17598176002502441,0.11809264868497849
28.05,0.005727357696741819,-0.11957740783691406,0.03707665205001831,-0.012318801134824753,-0.19127419590950012,0.09987923502922058
28.1,-0.029559601098299026,-0.08575153350830078,0.05751710757613182,0.002749202772974968,-0.20164695382118225,0.06529513746500015
28.15,0.015461168251931667,-0.0011243823682889342,0.07339741289615631,0.01115262322127819,-0.23342351615428925,0.03381424769759178
28.2,0.11906921863555908,0.03506183996796608,-0.022877270355820656,0.013197246938943863,-0.2787817418575287,0.014227362349629402
28.25,0.18614965677261353,0.0022821491584181786,-0.13152286410331726,0.0042999605648219585,-0.28246206045150757,-0.010958438739180565
28.3,0.23839791119098663,-0.026156418025493622,-0.1178978681564331,-0.005513993091881275,-0.2538301348686218,-0.04421454295516014
28.35,0.19996705651283264,-0.025845522060990334,0.07500696182250977,-0.015466589480638504,-0.23848405480384827,-0.09110527485609055
28.4,0.07594717293977737,-0.09136486053466797,0.23978173732757568,-0.04144003987312317,-0.2788916230201721,-0.17068606615066528
28.45,-0.08817560970783234,-0.16901683807373047,0.21258367598056793,-0.12004709243774414,-0.3721145987510681,-0.3097655177116394
28.5,-0.09900753945112228,-0.09060287475585938,0.04758334532380104,-0.2587360739707947,-0.47657257318496704,-0.4656360149383545
28.55,0.09616318345069885,0.00562763586640358,-0.10252043604850769,-0.4169614911079407,-0.5189263224601746,-0.5522958636283875
28.6,0.20067600905895233,0.06388283520936966,-0.04825880005955696,-0.4616546332836151,-0.4960574805736542,-0.5374195575714111
28.65,0.16294655203819275,0.13037776947021484,-0.008260704576969147,-0.25697556138038635,-0.5166996717453003,-0.4188758134841919
28.7,0.18763335049152374,0.12450314313173294,-0.09296735376119614,0.09360922873020172,-0.5980327129364014,-0.25123950839042664
28.75,0.2823585569858551,-0.0590047761797905,-0.013058820739388466,0.35453519225120544,-0.6108380556106567,-0.10476759076118469
28.8,0.07825838774442673,-0.26247119903564453,-0.0018394741928204894,0.49866965413093567,-0.5562271475791931,-0.054565057158470154
28.85,-0.16682025790214539,-0.08752728253602982,0.13437220454216003,0.5763461589813232,-0.5089038610458374,-0.10498949140310287
28.9,-0.13142529129981995,0.24341295659542084,0.6366872787475586,0.5744881629943848,-0.4663536250591278,-0.10614116489887238
28.95,-0.2639439105987549,0.23709772527217865,0.9509127736091614,0.5323418378829956,-0.5835636258125305,-0.009010362438857555
29.0,-0.5977329015731812,-0.05318930372595787,0.8287655711174011,0.48327818512916565,-0.9350026845932007,0.09252455830574036
29.05,-0.5403364896774292,-0.23255445063114166,0.31210407614707947,0.4407244324684143,-1.3162678480148315,0.15282867848873138
29.1,-0.16922539472579956,-0.163177490234375,-0.30720800161361694,0.3856355547904968,-1.4963968992233276,0.14471550285816193
29.15,0.4230458438396454,0.06536485999822617,-1.014283299446106,0.29890531301498413,-1.4227638244628906,0.07436873018741608
29.2,0.95650315284729,0.42962267994880676,-1.1865792274475098,0.2076505571603775,-1.0472261905670166,-0.03870413079857826
29.25,0.809299886226654,0.3164348900318146,-0.8733872175216675,0.14545302093029022,-0.4510354995727539,-0.15366177260875702
29.3,0.8967211246490479,0.050491366535425186,-0.7349397540092468,0.20164214074611664,-0.06098002567887306,-0.16942355036735535
29.35,1.196850299835205,0.1369066685438156,-0.629925012588501,0.2972121238708496,0.1831175833940506,-0.09329744428396225
29.4,0.9725120067596436,0.3166647255420685,-0.5650966763496399,0.29876405000686646,0.5971892476081848,-0.032123010605573654
29.45,0.5365715026855469,0.43518927693367004,-0.423997163772583,0.22817814350128174,1.0770787000656128,0.01459352858364582
29.5,-0.04621114954352379,0.4333820343017578,-0.10140839964151382,0.1596384346485138,1.4637641906738281,0.056355688720941544
29.55,-0.6121233105659485,0.37975308299064636,0.38888972997665405,0.11257204413414001,1.6623406410217285,0.065187968313694
29.6,-0.9134426116943359,0.226985901594162,0.9405128955841064,0.034830059856176376,1.6229290962219238,0.05110625922679901
29.65,-0.7530111074447632,0.06891915202140808,1.0795469284057617,-0.042878635227680206,1.3112537860870361,0.043714530766010284
29.7,-0.576757550239563,-0.002690341090783477,0.9069926738739014,-0.08055788278579712,0.9075093865394592,0.06777149438858032
29.75,-0.6568400263786316,-0.0835275948047638,0.8153012990951538,-0.08131115883588791,0.5470504760742188,0.06722361594438553
29.8,-0.7177337408065796,-0.19135192036628723,0.604180097579956,-0.02074914053082466,0.1816396862268448,0.0034249809104949236
29.85,-0.5523738265037537,-0.21000005304813385,0.3755914568901062,0.09655790030956268,-0.15989039838314056,-0.05693580210208893
29.9,-0.24114447832107544,-0.20101262629032135,0.17154651880264282,0.2513606548309326,-0.41000160574913025,-0.08155148476362228
29.95,0.1359240561723709,-0.07885550707578659,-0.03432586416602135,0.4021368622779846,-0.5154411196708679,-0.09622594714164734
30.0,0.4883789122104645,0.08672620356082916,0.03315380588173866,0.45650923252105713,-0.40803781151771545,-0.09004487842321396
30.05,0.5526660680770874,0.2162485271692276,0.2418244630098343,0.36145734786987305,-0.18548688292503357,-0.05549560859799385
30.1,0.48946958780288696,0.3126544952392578,0.27168071269989014,0.13468146324157715,-0.014618968591094017,-0.00047212137724272907
30.15,0.40954524278640747,0.22078897058963776,0.12955397367477417,-0.10455936193466187,0.1461571455001831,0.048058319836854935
30.2,0.25812914967536926,0.06441498547792435,0.05530882999300957,-0.23688797652721405,0.323154479265213,0.07014383375644684
30.25,0.16708426177501678,-0.07610130310058594,0.14338929951190948,-0.24486826360225677,0.44892171025276184,0.027957504615187645
30.3,0.14935797452926636,-0.1873340606689453,0.16857269406318665,-0.1979856789112091,0.5066255331039429,-0.06741827726364136
30.35,-0.16227313876152039,-0.062391288578510284,0.17579102516174316,-0.1562938690185547,0.5001387596130371,-0.10004623234272003
30.4,-0.4311794638633728,-0.0643177181482315,0.2779163122177124,-0.16666767001152039,0.30455851554870605,-0.0681440457701683
30.45,-0.2947506308555603,-0.20853520929813385,0.014814541675150394,-0.1454019397497177,0.0559040829539299,-0.07944867759943008
30.5,-0.044705793261528015,-0.2333850860595703,-0.2496713101863861,-0.03757922351360321,-0.05156142637133598,-0.1112128496170044
30.55,0.20820657908916473,-0.2468557208776474,-0.20022034645080566,0.13079555332660675,-0.07795543223619461,-0.11947417259216309
30.6,0.24946172535419464,-0.1901836395263672,-0.021425126120448112,0.3134593367576599,-0.05640539899468422,-0.09959104657173157
30.65,0.020496167242527008,-0.0751028060913086,0.0864325538277626,0.4280117154121399,-0.026639098301529884,-0.027951277792453766
30.7,-0.20028159022331238,0.03974150866270065,0.12451659142971039,0.46370983123779297,-0.01227277796715498,0.05289171636104584
30.75,-0.2662941813468933,0.2657279968261719,0.07541899383068085,0.4385356903076172,0.01552564650774002,0.0594630241394043
30.8,-0.2978636920452118,0.4744281768798828,0.15043425559997559,0.3133964240550995,0.09579607099294662,0.015275458805263042
30.85,-0.30663001537323,0.4711112976074219,0.1991140991449356,0.08983432501554489,0.2011949121952057,-0.003278681542724371
30.9,-0.26276063919067383,0.6466608047485352,-0.08437250554561615,-0.15442925691604614,0.24858438968658447,0.000931914837565273
30.95,0.21970641613006592,0.5179300308227539,-0.27190741896629333,-0.33313146233558655,0.29443368315696716,0.03082793392241001
31.0,0.6961241960525513,0.028641721233725548,-0.03300255537033081,-0.2792455554008484,0.44978779554367065,0.009594535455107689
31.05,0.6931872963905334,-0.2151794284582138,0.3784758448600769,-0.15080401301383972,0.47295695543289185,-0.0190306194126606
31.1,0.6112754940986633,-0.5013999938964844,0.10327732563018799,-0.14277590811252594,0.2543468177318573,0.08167243748903275
31.15,0.5021542906761169,-0.6687784194946289,-0.5266934037208557,-0.12194837629795074,0.15419486165046692,0.12774565815925598
31.2,0.5276676416397095,-0.4706840217113495,-0.6376140117645264,-0.005472937598824501,0.2799546718597412,0.006172630004584789
31.25,0.8464427590370178,-0.1822051703929901,-0.21879014372825623,0.102942556142807,0.5093152523040771,-0.13846880197525024
31.3,0.9530413150787354,0.1227274090051651,0.776887059211731,0.1679551750421524,0.7395177483558655,-0.2236700803041458
31.35,0.7961397767066956,0.26511478424072266,1.7470567226409912,0.2626936137676239,0.7366635203361511,-0.2255869060754776
31.4,0.6794770359992981,0.09213446825742722,2.213883638381958,0.3372872769832611,0.44848448038101196,-0.16779808700084686
31.45,0.6012749671936035,-0.03538227453827858,2.0009171962738037,0.32099780440330505,0.015827441588044167,-0.11288334429264069
31.5,0.5761080384254456,0.17893123626708984,1.4264103174209595,0.22222258150577545,-0.3166101574897766,-0.09908806532621384
31.55,0.5987206697463989,0.5665063858032227,0.8989959359169006,0.14355629682540894,-0.491740882396698,-0.11839988082647324
31.6,0.44920724630355835,0.5358381271362305,0.2896117866039276,0.15682584047317505,-0.657537043094635,-0.12059551477432251
31.65,0.16381075978279114,0.1873808056116104,-0.371553897857666,0.16343910992145538,-0.8120255470275879,-0.04298613965511322
31.7,-0.16419069468975067,-0.08103084564208984,-0.7179914712905884,0.1102524846792221,-0.8061395287513733,0.08866875618696213
31.75,-0.3865920901298523,-0.2277994155883789,-0.7255035042762756,0.10232698172330856,-0.632645308971405,0.1278819590806961
31.8,-0.3984343409538269,-0.13701915740966797,-0.438545286655426,0.15902811288833618,-0.429585337638855,0.06464913487434387
31.85,-0.2877119481563568,-0.06080055981874466,-0.05201879143714905,0.20098593831062317,-0.31248417496681213,0.008688991889357567
31.9,-0.29321548342704773,-0.10417080670595169,0.13448433578014374,0.1997525691986084,-0.30160871148109436,-0.009126996621489525
31.95,-0.2804141640663147,-0.09994698315858841,0.04727695509791374,0.16741889715194702,-0.36788833141326904,-0.011353977024555206
32.0,-0.2261841595172882,-0.14307498931884766,-0.12603865563869476,0.12313836067914963,-0.3806951940059662,-0.0281242523342371
32.05,-0.18329185247421265,-0.0921316146850586,-0.18879827857017517,0.08981603384017944,-0.3401170074939728,-0.0681903064250946
32.1,-0.10000655055046082,0.10389137268066406,-0.14454083144664764,0.05881427973508835,-0.3218405544757843,-0.10370897501707077
32.15,-0.052512820810079575,0.2284679412841797,-0.19937662780284882,0.020724225789308548,-0.29103317856788635,-0.11495106667280197
32.2,0.02449963241815567,0.1274862289428711,-0.210159033536911,0.01439623162150383,-0.22192582488059998,-0.10238111764192581
32.25,0.0812896192073822,0.1737957000732422,-0.19196036458015442,0.01976277306675911,-0.16993054747581482,-0.07282818108797073
32.3,0.23081223666667938,0.22174645960330963,-0.15643596649169922,0.00988505594432354,-0.1265358030796051,-0.03421119228005409
32.35,0.42494142055511475,0.2310638576745987,-0.0033605177886784077,-0.0016318116104230285,-0.05076362565159798,-0.009845038875937462
32.4,0.45552903413772583,0.12654782831668854,0.13299572467803955,-0.006133059039711952,0.021339282393455505,0.026379156857728958
32.45,0.17265647649765015,-0.10030460357666016,0.24513044953346252,0.01070789247751236,0.06402398645877838,0.08390417695045471
32.5,-0.037175849080085754,-0.23952674865722656,0.32869938015937805,0.029438186436891556,0.038562409579753876,0.10754072666168213
32.55,0.1293308436870575,-0.10096454620361328,0.1522771418094635,0.03028208017349243,-0.052334342151880264,0.0674813911318779
32.6,0.3426669239997864,0.10981941968202591,-0.03864618018269539,0.0010174172930419445,-0.09128045290708542,0.005588713567703962
32.65,0.4826095700263977,0.13383199274539948,-0.03820626065135002,-0.01989339292049408,-0.06812365353107452,-0.02101866342127323
32.7,0.5312902927398682,0.050572410225868225,0.011019038036465645,-0.017113657668232918,-0.028191611170768738,-0.011044900864362717
32.75,0.4925333559513092,0.02308560721576214,0.03245648741722107,-0.022650446742773056,0.03109745867550373,0.018687307834625244
32.8,0.3936913311481476,-0.058217037469148636,0.13239897787570953,-0.0225469172000885,0.09087372571229935,0.05117560550570488
32.85,0.28135740756988525,-0.10234736651182175,0.23746788501739502,-0.01023746095597744,0.09906016290187836,0.06087145209312439
32.9,0.22861462831497192,-0.06966685503721237,0.24086293578147888,-0.009217070415616035,0.052543673664331436,0.04293562471866608
32.95,0.25158005952835083,-0.1258258819580078,0.10282807797193527,-0.0024458649568259716,0.008741024881601334,0.01961977407336235
33.0,0.25066977739334106,-0.10023974627256393,0.08981278538703918,0.023366041481494904,0.006818366702646017,0.0071012843400239944
33.05,0.2429679036140442,-0.08436392992734909,0.18958410620689392,0.04672490432858467,0.001023683580569923,0.0017091752961277962
33.1,0.14241443574428558,0.04722309112548828,0.24408265948295593,0.04939776659011841,-0.0230700820684433,-0.005598004441708326
33.15,0.21089482307434082,0.1746053695678711,0.1277880072593689,0.02104092575609684,-0.06850731372833252,-0.021718008443713188
33.2,0.30239439010620117,0.16614247858524323,-0.006421694997698069,0.011026449501514435,-0.06234635040163994,-0.020549792796373367
33.25,0.25755396485328674,0.016075141727924347,0.054102279245853424,-0.0005915454821661115,-0.005758347455412149,-0.0061443340964615345
33.3,0.38286250829696655,-0.009120930917561054,0.026043862104415894,-0.01464200858026743,-0.008545106276869774,-0.007732017431408167
33.35,0.3244227170944214,0.008171089924871922,0.08104053884744644,-0.014347423799335957,0.0021347978617995977,0.005531467031687498
33.4,0.1399444192647934,0.06268501281738281,0.16420193016529083,0.00023560691624879837,-0.015253696590662003,0.04670198634266853
33.45,0.011844735592603683,0.2752723693847656,0.21368326246738434,0.012060936540365219,-0.07897820323705673,0.09676718711853027
33.5,0.08241961896419525,0.3835420608520508,0.18137226998806,-0.013902176171541214,-0.13993695378303528,0.11569251865148544
33.55,0.25859135389328003,0.33691883087158203,0.04163774475455284,-0.07285618782043457,-0.18312469124794006,0.10473000258207321
33.6,0.1241687536239624,0.1739063262939453,0.0664944127202034,-0.15263855457305908,-0.15632346272468567,0.125599205493927
33.65,-0.02900502271950245,0.25157737731933594,0.06896518915891647,-0.19794875383377075,-0.16210104525089264,0.17069515585899353
33.7,0.14443935453891754,0.3645172119140625,-0.006888002622872591,-0.22112643718719482,-0.23417367041110992,0.19381463527679443
33.75,0.28137269616127014,0.17825700342655182,-0.11363634467124939,-0.23165014386177063,-0.27075377106666565,0.1965150088071823
33.8,0.21780624985694885,-0.12421321123838425,-0.3060707449913025,-0.2799457013607025,-0.27145200967788696,0.17611251771450043
33.85,0.25991401076316833,-0.48931312561035156,-0.35936617851257324,-0.3218427896499634,-0.2178354114294052,0.1633622944355011
33.9,0.1422862708568573,-0.5329322814941406,-0.08594653010368347,-0.26821422576904297,-0.10354112833738327,0.12020207941532135
33.95,-0.048998989164829254,-0.14032459259033203,0.24056358635425568,-0.18070630729198456,-0.05969893932342529,0.0863274335861206
34.0,-0.02685628831386566,0.005616184789687395,0.22486096620559692,-0.12263025343418121,-0.15127241611480713,0.07925483584403992
34.05,0.2111510932445526,0.07924652844667435,-0.26959383487701416,-0.11620378494262695,-0.26403549313545227,0.022062262520194054
34.1,0.5278939008712769,-0.0013923433143645525,-0.6074802279472351,-0.17186419665813446,-0.21079660952091217,-0.07389738410711288
34.15,0.6833430528640747,0.04044535383582115,-0.49112755060195923,-0.19824589788913727,-0.023552540689706802,-0.1258525252342224
34.2,0.3445081114768982,0.15990449488162994,0.02289063297212124,-0.16208572685718536,0.1817823350429535,-0.046381108462810516
34.25,0.0310127642005682,0.12175655364990234,0.13920782506465912,-0.06630071252584457,0.17939156293869019,0.11970556527376175
34.3,0.07428744435310364,-0.060233112424612045,-0.16233855485916138,-0.0014790967106819153,0.08829151839017868,0.18088360130786896
34.35,-0.05132735148072243,-0.06577587127685547,-0.17768290638923645,-0.027951495721936226,0.13495737314224243,0.09179148823022842
34.4,-0.17147515714168549,-0.015823371708393097,0.19110190868377686,-0.08142460137605667,0.19116957485675812,0.037407755851745605
34.45,-0.13468411564826965,-0.030117040500044823,0.22017139196395874,-0.05654309317469597,0.13412535190582275,0.05656566843390465
34.5,-0.07101631909608841,0.10550117492675781,0.019742075353860855,-0.03287529945373535,0.04772260785102844,0.051486581563949585
34.55,0.06083926185965538,0.08305549621582031,-0.05421100929379463,-0.053482785820961,0.01397771667689085,0.008243427611887455
34.6,0.08212912082672119,0.24972820281982422,-0.04736042767763138,-0.0994729995727539,0.013362045399844646,-0.02127779647707939
34.65,0.14878717064857483,0.19277000427246094,-0.04686016961932182,-0.12317649275064468,0.00038256298284977674,0.04013338312506676
34.7,0.11956299841403961,-0.03164004907011986,-0.022875260561704636,-0.07768592983484268,0.007278963923454285,0.1244860589504242
34.75,-0.06446625292301178,0.03220367431640625,-0.06741155683994293,-0.04048314690589905,-0.010157373733818531,0.14039812982082367
34.8,0.01887327991425991,0.06879520416259766,-0.013111899606883526,-0.05505036190152168,-0.0455135703086853,0.11557602137327194
34.85,0.1050742045044899,0.06365299224853516,-0.014748262241482735,-0.09770213067531586,-0.051527444273233414,0.06965484470129013
34.9,0.19441525638103485,0.05892658606171608,0.03759898617863655,-0.12059622257947922,-0.04935075342655182,0.06267856806516647
34.95,0.11527054011821747,-0.092559814453125,-0.003248761408030987,-0.10605379939079285,-0.07181967794895172,0.08918051421642303
35.0,0.0018229521811008453,-0.19620513916015625,-0.11943424493074417,-0.08653362840414047,-0.12229343503713608,0.09291643649339676
35.05,0.03505108132958412,-0.16841411590576172,-0.19313091039657593,-0.08597603440284729,-0.1499517410993576,0.04828495532274246
35.1,0.24490100145339966,-0.05615900829434395,-0.2941606640815735,-0.09738315641880035,-0.13686464726924896,-0.016295770183205605
35.15,0.3773110508918762,0.024904264137148857,-0.2113063633441925,-0.10887161642313004,-0.08143983036279678,-0.03773251920938492
35.2,0.3043287694454193,0.049372684210538864,-0.1115608736872673,-0.10714268684387207,-0.027775658294558525,-0.011164014227688313
35.25,0.18239082396030426,0.007878310047090054,-0.11014458537101746,-0.09838360548019409,-0.005582775454968214,0.0335531122982502
35.3,0.11724085360765457,-0.054030414670705795,-0.1355447769165039,-0.09735431522130966,0.013837235979735851,0.05116451159119606
35.35,0.09908308833837509,-0.06524752825498581,-0.1096833124756813,-0.10588303953409195,0.0339495912194252,0.041569627821445465
35.4,0.14703498780727386,0.014752392657101154,-0.06676270812749863,-0.12636002898216248,0.03955647349357605,0.03317169472575188
35.45,0.2200794219970703,0.13721656799316406,-0.046595677733421326,-0.14054086804389954,0.04523243382573128,0.031899645924568176
35.5,0.29661494493484497,0.21323587000370026,0.044036805629730225,-0.14830149710178375,0.060138896107673645,0.03824789822101593
35.55,0.22783267498016357,0.1563863754272461,0.14295105636119843,-0.14048899710178375,0.061456773430109024,0.051683954894542694
35.6,0.03434401750564575,0.011388777755200863,0.13400216400623322,-0.13019439578056335,0.03801419958472252,0.05252830311655998
35.65,-0.040094777941703796,-0.10361480712890625,0.06343540549278259,-0.12487994879484177,0.0067022405564785,0.021969687193632126
35.7,-0.00949286762624979,-0.09328174591064453,0.03415904566645622,-0.11829887330532074,-0.010596278123557568,-0.034788861870765686
35.75,0.027488015592098236,-0.01000881101936102,-0.0064009372144937515,-0.10384893417358398,-0.015694966539740562,-0.07795010507106781
35.8,0.08418998122215271,0.05046463385224342,0.030876008793711662,-0.08621948957443237,-0.01294822059571743,-0.08609196543693542
35.85,0.062260277569293976,0.08864879608154297,0.06519004702568054,-0.058833714574575424,-0.008859802968800068,-0.07643438875675201
35.9,0.024657391011714935,0.10771846771240234,0.017567194998264313,-0.05256754904985428,-0.017130056396126747,-0.07648302614688873
35.95,0.025537973269820213,0.11446952819824219,-0.016453208401799202,-0.06857873499393463,-0.02627621404826641,-0.09728874266147614
36.0,0.09828744828701019,0.049225810915231705,-0.038367971777915955,-0.07973217964172363,-0.015377228148281574,-0.14499177038669586
36.05,0.10930078476667404,-0.05646323785185814,-0.05682675912976265,-0.07426092028617859,0.017788976430892944,-0.19618088006973267
36.1,0.08811549097299576,-0.2144155502319336,-0.017367931082844734,-0.049729399383068085,0.05422596633434296,-0.2260897010564804
36.15,-0.06545063108205795,-0.11076545715332031,0.011927640996873379,0.012841939926147461,0.10618730634450912,-0.23394963145256042
36.2,-0.15123790502548218,0.21008586883544922,0.056629352271556854,0.08610399812459946,0.11597102880477905,-0.21907050907611847
36.25,0.05187933146953583,0.3981504440307617,-0.09679830074310303,0.11233596503734589,0.04587225615978241,-0.20179714262485504
36.3,0.191983163356781,0.3126087188720703,-0.27158576250076294,0.05332743376493454,-0.004569500684738159,-0.19834615290164948
36.35,0.22468766570091248,0.15699292719364166,-0.2784698009490967,-0.04527078941464424,0.02611670084297657,-0.20513634383678436
36.4,0.13069553673267365,0.08681774884462357,-0.11258746683597565,-0.1210184395313263,0.08514551818370819,-0.2154027670621872
36.45,0.08972064405679703,0.07737445831298828,-0.02235899679362774,-0.15435682237148285,0.10122905671596527,-0.21860450506210327
36.5,0.18433840572834015,0.09680367261171341,-0.07665611803531647,-0.1510804295539856,0.06415476649999619,-0.19076752662658691
36.55,0.2339412122964859,0.1416788250207901,-0.1070067286491394,-0.1278805285692215,0.04492691531777382,-0.14701063930988312
36.6,0.19792377948760986,0.05510712414979935,-0.10300815105438232,-0.10253165662288666,0.049983274191617966,-0.11894316971302032
36.65,0.15836621820926666,-0.024954790249466896,-0.10084948688745499,-0.07452546805143356,0.04910879209637642,-0.08855894207954407
36.7,0.21533671021461487,-0.09481143206357956,-0.04562949761748314,-0.040539197623729706,0.04194779694080353,-0.05806836858391762
36.75,0.26848459243774414,-0.10714434832334518,0.015947025269269943,-0.005683373659849167,0.049521319568157196,-0.03978867083787918
36.8,0.24912363290786743,-0.06720828264951706,-0.00410483218729496,0.009110738523304462,0.061660055071115494,-0.034583259373903275
36.85,0.21394720673561096,0.006340032909065485,-0.01888609305024147,0.009502219036221504,0.06774343550205231,-0.040809523314237595
36.9,0.18092334270477295,0.06636524945497513,0.022784648463129997,0.007097146473824978,0.07408032566308975,-0.043156903237104416
36.95,0.23519834876060486,0.14284706115722656,0.06184499338269234,0.006639275699853897,0.07706992328166962,-0.03502258285880089
37.0,0.2098313421010971,0.18851757049560547,0.10004285722970963,0.008287480100989342,0.07425617426633835,-0.01606396958231926
37.05,0.16370056569576263,0.12623882293701172,0.12188876420259476,0.007648218423128128,0.06269115954637527,0.010946758091449738
37.1,0.1601082682609558,0.0724325180053711,0.13438862562179565,0.013073775917291641,0.044121433049440384,0.028971001505851746
37.15,0.09469864517450333,-0.015096662566065788,0.10093031823635101,0.014132434502243996,0.028763266280293465,0.03110756352543831
37.2,0.02946344017982483,0.03811454772949219,0.06403244286775589,0.015904128551483154,0.026860274374485016,0.024401705712080002
37.25,0.029742661863565445,0.03894233703613281,0.07820745557546616,0.020241104066371918,0.021848928183317184,0.013497934676706791
37.3,0.04473677650094032,0.0232086181640625,0.03687434643507004,0.02177027240395546,-0.00819132849574089,0.010300960391759872
37.35,0.036568980664014816,0.04109954833984375,0.01121505070477724,0.018301967531442642,-0.021375931799411774,0.0012068412033841014
37.4,0.08514325320720673,0.05699539557099342,0.0021643450018018484,0.016635676845908165,-0.02155519463121891,-0.007355574984103441
37.45,0.09364693611860275,0.0786905288696289,-0.046669360250234604,0.014448756352066994,-0.020964037626981735,-0.014177117496728897
37.5,0.13668860495090485,0.07075405865907669,-0.04714972898364067,0.006236462853848934,-0.024746421724557877,-0.009435556828975677
37.55,0.10458618402481079,0.03940582647919655,-0.06032538786530495,0.0014159067068248987,-0.01218672376126051,-0.006572342943400145
37.6,0.04388671740889549,0.014571191743016243,-0.03983931615948677,0.003337359521538019,0.0065257311798632145,-0.007454251404851675
37.65,0.04745320975780487,0.059990882873535156,0.023361455649137497,0.00694803474470973,0.01255215983837843,-0.0038483175449073315
37.7,0.0510033443570137,0.08212089538574219,0.028421303257346153,0.011335568502545357,0.0009935667039826512,0.001579710515215993
37.75,0.053307607769966125,0.06015968322753906,0.04539402201771736,0.015648046508431435,-0.003445274196565151,0.00015091233944986016
37.8,0.03313906118273735,0.04405498504638672,-0.004038868937641382,0.015152093023061752,-0.008510081097483635,-0.0009051396045833826
37.85,0.013172246515750885,0.08620929718017578,-0.03677397593855858,0.009876341558992863,-0.011159490793943405,-0.005248127970844507
37.9,0.048714298754930496,0.1262807846069336,0.016177445650100708,0.009843649342656136,-0.01016293466091156,-0.00506901741027832
37.95,0.04918184131383896,0.18281078338623047,0.08801916241645813,0.004094804171472788,-0.010113999247550964,-0.00460726348683238
38.0,0.017187103629112244,0.24999237060546875,0.20580299198627472,-0.01247388031333685,-0.024395650252699852,-0.02395225130021572
38.05,-0.13457134366035461,0.26309680938720703,0.06685620546340942,-0.024814963340759277,-0.023671954870224,-0.0984388142824173
38.1,-0.07034207135438919,0.142913818359375,-0.10258840024471283,-0.13119976222515106,-0.06774204969406128,-0.17089231312274933
38.15,0.26960355043411255,-0.12541674077510834,-0.3453364372253418,-0.2636421322822571,-0.12702107429504395,-0.2109094113111496
38.2,0.19010353088378906,-0.17939947545528412,-0.34261029958724976,-0.32115408778190613,-0.039209768176078796,-0.2502908706665039
38.25,0.06950190663337708,-0.0717325210571289,-0.12296342849731445,-0.22362825274467468,0.05599332973361015,-0.2094525396823883
38.3,0.20096316933631897,0.06082917004823685,-0.030149033293128014,-0.05081246420741081,-0.009296937845647335,-0.07280980050563812
38.35,0.12399037182331085,0.12725448608398438,0.029711436480283737,0.06391748785972595,-0.06569816172122955,0.03819878771901131
38.4,-0.066522017121315,0.00930690485984087,0.05625095218420029,0.09825234115123749,-0.08406832814216614,0.08787176012992859
38.45,-0.0628679096698761,-0.03493785858154297,-0.07936976850032806,0.08963625133037567,-0.13923250138759613,0.083454430103302
38.5,-0.0025306735187768936,0.00872135255485773,-0.09858175367116928,0.06279608607292175,-0.13704708218574524,0.03153752163052559
38.55,0.16048438847064972,0.04676342383027077,-0.047398388385772705,0.024611324071884155,-0.11839958280324936,-0.009992003440856934
38.6,0.19464485347270966,0.045148853212594986,-0.013223233632743359,0.018420880660414696,-0.08681243658065796,-0.014619803987443447
38.65,0.06812834739685059,0.03341865539550781,0.06332027167081833,0.052628375589847565,-0.055743806064128876,0.009875232353806496
38.7,7.014535367488861e-05,0.005173682700842619,0.0471993051469326,0.0838639885187149,-0.062328848987817764,0.049760498106479645
38.75,-0.17570973932743073,0.0009622520301491022,0.04311046004295349,0.08249196410179138,-0.06853886693716049,0.06698350608348846
38.8,-0.4255797863006592,0.014724716544151306,0.29698431491851807,0.08609351515769958,-0.06837252527475357,0.06071621552109718
38.85,-0.7309774160385132,0.052252739667892456,0.7677041292190552,0.07989223301410675,-0.16484792530536652,0.04411368444561958
38.9,-1.2828264236450195,0.020032834261655807,1.251801609992981,0.012499633245170116,-0.4325185716152191,0.009351583197712898
38.95,-1.16299307346344,0.05916781723499298,1.1517795324325562,-0.09689164906740189,-0.8746369481086731,-0.021145300939679146
39.0,-0.5708756446838379,0.08798501640558243,0.49086445569992065,-0.15588590502738953,-1.3469051122665405,0.06482139229774475
39.05,-0.10313474386930466,-0.012306212447583675,-0.34498053789138794,-0.16412031650543213,-1.6423406600952148,0.18403233587741852
39.1,0.2972833812236786,-0.09154509007930756,-0.8096915483474731,-0.10654526948928833,-1.5913621187210083,0.1304926872253418
39.15,1.0483524799346924,-0.1363486796617508,-0.9046144485473633,-0.05516514927148819,-1.256758689880371,0.04538290202617645
39.2,0.934771716594696,0.09434321522712708,-0.5008895397186279,-0.012721380218863487,-0.88709557056427,0.015086246654391289
39.25,1.053383231163025,0.4924040138721466,0.10647673904895782,0.03152791038155556,-0.600064218044281,0.03725672885775566
39.3,0.5082861185073853,0.6210002899169922,0.2148817926645279,0.00305299274623394,-0.3847220838069916,0.06617545336484909
39.35,0.06455551832914352,0.3500823974609375,-0.1710456907749176,-0.10151617228984833,-0.28456392884254456,0.12087363004684448
39.4,0.3618713915348053,0.1686258465051651,-0.09763598442077637,-0.14776049554347992,-0.09274081885814667,0.15126922726631165
39.45,-0.18483573198318481,0.0942239761352539,-0.13388584554195404,-0.19991637766361237,0.14427416026592255,0.08257477730512619
39.5,-0.4629562199115753,0.12348078191280365,0.08626510202884674,-0.2247689962387085,0.19613444805145264,0.002280434826388955
39.55,-0.58394855260849,0.0759868398308754,0.3029208183288574,-0.25348976254463196,0.21798262000083923,-0.11506319791078568
39.6,-0.2586832344532013,0.21738718450069427,0.4462449550628662,-0.2971534729003906,0.2108101099729538,-0.1917579174041748
39.65,0.25442755222320557,0.09174633771181107,0.21064165234565735,-0.3281247019767761,0.2150576114654541,-0.22008919715881348
39.7,0.361880898475647,-0.068266861140728,-0.04495222494006157,-0.30465567111968994,0.19071979820728302,-0.20905433595180511
39.75,0.3158445358276367,-0.04284190014004707,-0.1301952451467514,-0.2707919776439667,0.16462984681129456,-0.18628628551959991
39.8,0.4560841917991638,-0.07377146184444427,-0.026319878175854683,-0.2792835235595703,0.17416833341121674,-0.16179165244102478
39.85,0.09195847809314728,-0.08420085906982422,-0.08031624555587769,-0.25893500447273254,0.21418187022209167,-0.10954352468252182
39.9,-0.02114228904247284,-0.013859747909009457,-0.16277171671390533,-0.25462329387664795,0.16722314059734344,-0.008308264426887035
39.95,-0.16423538327217102,0.050642963498830795,-0.2330743968486786,-0.21160773932933807,0.060292478650808334,0.061733096837997437
40.0,0.03723222017288208,0.052840232849121094,-0.03665778040885925,-0.17493966221809387,0.023402469232678413,0.0748063251376152
40.05,-0.13162806630134583,-0.011152269318699837,-0.12354873865842819,-0.13991673290729523,0.06925764679908752,0.035598281770944595
40.1,-0.2554795444011688,-0.08855725079774857,-0.1520470678806305,-0.1228092759847641,0.02346939966082573,0.045941926538944244
40.15,-0.12851274013519287,-0.2749300003051758,-0.29430320858955383,-0.039310649037361145,-0.09083331376314163,0.10712100565433502
40.2,0.04923182725906372,-0.14813613891601562,-0.07575584203004837,0.023642342537641525,-0.09165176749229431,0.07806622236967087
40.25,-0.19032274186611176,0.057866089046001434,0.18459844589233398,0.06405450403690338,-0.02193623222410679,-0.02171015925705433
40.3,-0.03859833627939224,0.15027904510498047,0.2240849733352661,0.09521354734897614,0.0005675837164744735,-0.04864928126335144
40.35,-0.07209019362926483,0.17484188079833984,0.15148939192295074,0.059495583176612854,0.02584225870668888,-0.06637867540121078
40.4,0.08401982486248016,0.26004886627197266,0.2131398320198059,0.027653556317090988,0.03443308174610138,-0.09671098738908768
40.45,0.04719480127096176,0.25156307220458984,0.1351722627878189,-0.019599059596657753,0.03937459737062454,-0.13350868225097656
40.5,0.0506865531206131,0.20536327362060547,0.04091460257768631,-0.07948096096515656,-0.01100634504109621,-0.11837543547153473
40.55,0.04634415730834007,0.17667102813720703,-0.011765027418732643,-0.11319813877344131,-0.049962032586336136,-0.08567047119140625
40.6,0.09925021231174469,0.09470463544130325,-0.13713321089744568,-0.11359617859125137,-0.064268097281456,-0.08334966748952866
40.65,0.09242095053195953,0.14250946044921875,-0.251956045627594,-0.124037966132164,-0.04954884946346283,-0.10257750749588013
40.7,-0.009491927921772003,0.1424398422241211,-0.21843595802783966,-0.105321004986763,-0.044403787702322006,-0.1080566942691803
40.75,-0.009614795446395874,0.06293773651123047,-0.20662832260131836,-0.08013999462127686,-0.057036757469177246,-0.10215330868959427
40.8,0.06534998118877411,0.17661380767822266,-0.02127847447991371,-0.07098925858736038,-0.04966374486684799,-0.1265294849872589
40.85,0.03545388579368591,0.23052024841308594,0.033807892352342606,-0.08050857484340668,-0.05197720229625702,-0.13253937661647797
40.9,-0.024319259449839592,0.17104625701904297,0.08609046787023544,-0.09309673309326172,-0.094535693526268,-0.08220663666725159
40.95,-0.026858830824494362,0.011786459013819695,0.07996395230293274,-0.1026904508471489,-0.13737846910953522,-0.029922276735305786
41.0,0.021744422614574432,-0.12322616577148438,-0.0314105786383152,-0.09179682284593582,-0.16147172451019287,0.01049055065959692
41.05,0.3459029793739319,-0.1512746661901474,-0.057191114872694016,-0.06578979641199112,-0.1456637680530548,0.0194303747266531
41.1,0.2420896589756012,0.019341478124260902,-0.18764224648475647,-0.014364742673933506,-0.08129098266363144,-0.059246622025966644
41.15,0.08402010053396225,0.2568674087524414,-0.3026607036590576,-0.04128372669219971,-0.04483547434210777,-0.10489284247159958
41.2,0.3730737864971161,0.16135884821414948,-0.1600097119808197,-0.15423113107681274,-0.10174328088760376,-0.06550153344869614
41.25,0.23306593298912048,-0.016887661069631577,0.2622571587562561,-0.15495061874389648,-0.019236262887716293,-0.09092758595943451
41.3,-0.5968829989433289,0.23154543340206146,0.29827117919921875,-0.03148259222507477,0.15346381068229675,-0.17917397618293762
41.35,-0.5545902848243713,0.07030867040157318,0.1946842223405838,0.013082362711429596,0.05499617010354996,-0.06278499960899353
41.4,-0.11799491196870804,-0.015141491778194904,0.11480428278446198,0.033877793699502945,-0.05445624887943268,-0.011169275268912315
41.45,-0.12148992717266083,0.020672794431447983,-0.043044835329055786,0.05684460699558258,-0.07024681568145752,-0.07897039502859116
41.5,0.02187349647283554,0.19581127166748047,-0.01142769306898117,0.045868318527936935,-0.12520147860050201,-0.07477693259716034
41.55,0.3268221914768219,0.12765218317508698,0.13417840003967285,0.004351913928985596,-0.11058216542005539,-0.08871759474277496
41.6,0.5207891464233398,0.051371585577726364,0.22446326911449432,0.014365237206220627,-0.07042884081602097,-0.1405830979347229
41.65,0.7683746814727783,-0.017554262652993202,0.042840808629989624,0.0010313093662261963,0.07819626480340958,-0.2698109447956085
41.7,1.1007821559906006,-0.15920159220695496,-0.39295899868011475,-0.07227329164743423,0.16262638568878174,-0.24209792912006378
41.75,0.5955092906951904,-0.1970357596874237,-0.6074587106704712,-0.026269923895597458,0.2386063039302826,-0.09724055975675583
41.8,0.03601329028606415,-0.48302459716796875,-0.5871564149856567,0.13838699460029602,0.19278347492218018,0.10771869868040085
41.85,-0.18067166209220886,-0.33957386016845703,-0.6311874985694885,0.33253994584083557,0.0595359280705452,0.1954190731048584
41.9,-0.1850106418132782,-0.11648750305175781,-0.2804698050022125,0.572956919670105,0.13551771640777588,0.02165823057293892
41.95,-0.016698315739631653,0.16534042358398438,0.4505000114440918,0.8094653487205505,0.4173973500728607,-0.26423507928848267
42.0,-0.5136498212814331,0.5933589339256287,1.4553625583648682,0.8455314040184021,0.6455446481704712,-0.44039538502693176
42.05,-0.9006130695343018,0.9812068343162537,1.8194775581359863,0.7781630754470825,0.40125948190689087,-0.3026827573776245
42.1,-0.5819617509841919,0.9092273116111755,1.3451025485992432,0.5370357036590576,-0.01657600700855255,0.006706594955176115
42.15,-0.10572770237922668,0.40399742126464844,0.8148387670516968,0.2067827731370926,-0.31757262349128723,0.1926640421152115
42.2,0.024440255016088486,-0.23866748809814453,0.1623455435037613,0.02775493450462818,-0.37140464782714844,0.14603035151958466
42.25,-0.26042574644088745,-0.13563823699951172,-0.13441751897335052,0.006926452741026878,-0.24518939852714539,-0.0676601231098175
42.3,-0.3428196907043457,-0.23090840876102448,-0.018851324915885925,0.009809382259845734,-0.12344557046890259,-0.3173183798789978
42.35,-0.3145781457424164,0.006657589692622423,0.1854325383901596,0.042528435587882996,-0.0976576879620552,-0.4885486960411072
42.4,-0.18859121203422546,0.26408863067626953,0.33360928297042847,0.04236289858818054,-0.12691473960876465,-0.5487644076347351
42.45,0.08367446064949036,0.31601619720458984,0.29337188601493835,-0.009383469820022583,-0.18143577873706818,-0.4872133135795593
42.5,0.2544032335281372,0.1960134655237198,-0.049985289573669434,-0.07458455860614777,-0.17510706186294556,-0.35941237211227417
42.55,0.3407171964645386,0.1494627147912979,-0.3978375196456909,-0.10208869725465775,-0.11597499251365662,-0.21141919493675232
42.6,0.47621670365333557,0.12483217567205429,-0.5141637325286865,-0.08295693248510361,0.016172613948583603,-0.07922591269016266
42.65,0.48110902309417725,0.12363339960575104,-0.40424543619155884,-0.04011458531022072,0.24913272261619568,0.060947686433792114
42.7,0.47884395718574524,0.09564019739627838,-0.3578084409236908,0.001629076898097992,0.43213820457458496,0.23940454423427582
42.75,0.20046083629131317,0.2210254818201065,-0.4593368470668793,0.03943739831447601,0.5245343446731567,0.39586058259010315
42.8,-0.1474931389093399,0.03468036279082298,-0.17902182042598724,0.060079820454120636,0.6558796167373657,0.48531442880630493
42.85,-0.5471546649932861,0.030863745138049126,0.14148202538490295,0.11786362528800964,0.7912465333938599,0.45914313197135925
42.9,-0.7786213159561157,0.08885857462882996,0.5524616837501526,0.14294438064098358,0.8116782903671265,0.37481775879859924
42.95,-0.8688937425613403,0.17215344309806824,0.9088160395622253,0.12687265872955322,0.750693678855896,0.304241418838501
43.0,-0.8892399072647095,0.0928163155913353,0.936976432800293,0.016790948808193207,0.517580509185791,0.23741887509822845
43.05,-0.7202063202857971,-0.22313502430915833,0.6103297472000122,-0.09675783663988113,0.1819375455379486,0.2487489879131317
43.1,-0.44694313406944275,-0.3875618278980255,0.38009339570999146,-0.13470661640167236,-0.00761658139526844,0.1908578872680664
43.15,-0.33383625745773315,-0.08371926844120026,0.6252073049545288,-0.09222918748855591,0.010753452777862549,0.12228396534919739
43.2,0.4244846701622009,0.2232522964477539,1.0150096416473389,-0.0007881186902523041,-0.14802871644496918,0.16321037709712982
43.25,1.5477163791656494,0.28412726521492004,0.9862077236175537,0.153781920671463,-0.31428763270378113,0.18991391360759735
43.3,1.2329063415527344,0.32183364033699036,1.2380776405334473,0.2630371153354645,-0.15124237537384033,0.2348049432039261
43.35,0.7084932923316956,0.032225605100393295,2.09259295463562,0.1070157140493393,-0.09181852638721466,0.22776678204536438
43.4,-0.3803017735481262,-0.8706322312355042,2.622384548187256,-0.12828974425792694,-0.07231274992227554,0.08587612956762314
43.45,-1.8302183151245117,-0.38564783334732056,1.439538836479187,-0.28618350625038147,-0.26155155897140503,-0.10484275221824646
43.5,-1.9050421714782715,0.10351843386888504,-0.3948681354522705,-0.41226375102996826,-0.8423234224319458,0.039543647319078445
43.55,-1.1799519062042236,0.3516082763671875,-2.1243340969085693,-0.36193376779556274,-1.1544934511184692,0.1917416751384735
43.6,-0.279379665851593,0.5352373123168945,-3.258925437927246,-0.30943188071250916,-1.1001365184783936,-0.05357106402516365
43.65,0.6302339434623718,0.3725586533546448,-2.7514090538024902,-0.3286212980747223,-0.7934576272964478,-0.3340561091899872
43.7,0.34800565242767334,0.5538053512573242,-1.53340744972229,-0.22293417155742645,-0.3169150650501251,-0.6254597306251526
43.75,-0.08139645308256149,0.7976598739624023,-0.1545710414648056,-0.25875651836395264,-0.17974074184894562,-0.6771407723426819
43.8,-0.19834212958812714,0.5754079818725586,-0.32116082310676575,-0.5291152000427246,-0.2560599744319916,-0.4411204159259796
43.85,-0.025335967540740967,-0.08554743230342865,-1.428835153579712,-0.8345314860343933,-0.056546662002801895,-0.30336689949035645
43.9,-0.283992201089859,-0.3646554946899414,-1.5289769172668457,-0.8432252407073975,0.47347453236579895,-0.5051471590995789
43.95,-0.6704714298248291,0.21529673039913177,-0.4101949632167816,-0.4048544764518738,0.9389961361885071,-0.6453988552093506
44.0,-0.7275234460830688,0.9360560774803162,1.6602602005004883,0.019831925630569458,0.7892083525657654,-0.46549302339553833
44.05,-0.18958324193954468,1.228987693786621,2.5171656608581543,-0.07948994636535645,0.07739441096782684,-0.1965649127960205
44.1,0.429260790348053,0.7965259552001953,1.742612600326538,-0.573634147644043,-0.6287955045700073,-0.060823533684015274
44.15,0.7883341312408447,0.04079819470643997,1.17031991481781,-0.8276974558830261,-0.8635364770889282,-0.07856964319944382
44.2,0.9964068531990051,-0.2656697928905487,0.9502886533737183,-0.7904502153396606,-0.9589211940765381,-0.20978178083896637
44.25,0.8316538333892822,-0.20419596135616302,0.639499306678772,-0.7667223215103149,-1.0729565620422363,-0.3037746846675873
44.3,0.981177568435669,-0.08152291923761368,0.2424561083316803,-0.7252650856971741,-1.1261314153671265,-0.33077144622802734
44.35,1.155285120010376,-0.09829041361808777,0.3284491002559662,-0.6057900190353394,-1.1031601428985596,-0.36237087845802307
44.4,1.3077363967895508,-0.2723531424999237,0.2740888297557831,-0.575481116771698,-1.1317509412765503,-0.49523666501045227
44.45,0.8972479104995728,-0.3265323340892792,0.03333829715847969,-0.5563558340072632,-1.0450236797332764,-0.693390965461731
44.5,0.29991403222084045,-0.10856340825557709,-0.3588482737541199,-0.3720700144767761,-0.9708890318870544,-0.8242353796958923
44.55,-0.3461573123931885,-0.013221741653978825,-0.8006251454353333,-0.18012647330760956,-1.0683629512786865,-0.8763133883476257
44.6,-0.1063578799366951,0.2996234893798828,-0.47370627522468567,-0.09408877789974213,-1.4009602069854736,-0.8020569682121277
44.65,1.1083431243896484,-0.3327331244945526,-0.2874631881713867,-0.13288527727127075,-1.6774566173553467,-0.6422703862190247
44.7,2.5316832065582275,-1.093272089958191,0.8321855068206787,-0.29609987139701843,-1.5784049034118652,-0.4498591125011444
44.75,3.5332045555114746,-2.1491031646728516,2.1140177249908447,-0.1884276568889618,-1.103934407234192,-0.12454349547624588
44.8,4.169175148010254,-3.0502891540527344,2.888948917388916,0.3570865988731384,-0.33766207098960876,0.047036122530698776
44.85,4.592202186584473,-2.2881712913513184,1.7835726737976074,0.6578327417373657,0.48532238602638245,0.28445160388946533
44.9,3.506988763809204,0.17742452025413513,0.8252179622650146,0.7796446084976196,1.310009241104126,0.6483619809150696
44.95,1.4274590015411377,1.8265132904052734,-0.3717893362045288,0.9642070531845093,2.1301350593566895,0.8676718473434448
45.0,-1.292975664138794,2.09261417388916,-1.1264568567276,0.8367795348167419,2.253300189971924,1.1188946962356567
45.05,-1.664282202720642,1.5728645324707031,-0.31008243560791016,0.7067562341690063,1.9522323608398438,1.2362219095230103
45.1,-1.5078706741333008,0.5437831282615662,0.423454225063324,0.5324998497962952,1.5831878185272217,1.092128872871399
45.15,-0.40836915373802185,-0.21593286097049713,0.2964891195297241,0.4241514205932617,1.2297873497009277,1.1333039999008179
45.2,0.5852196216583252,-0.22028063237667084,-0.07642150670289993,0.4997556805610657,1.392032265663147,0.946389377117157
45.25,-0.05639778822660446,0.6664104461669922,0.2932242155075073,0.5530754923820496,1.8859210014343262,0.6008859276771545
45.3,-0.7680076956748962,0.4094209372997284,0.7509123086929321,0.5508654117584229,2.1054091453552246,0.4228820502758026
45.35,-1.1557908058166504,0.3420562446117401,0.9556843042373657,0.5944856405258179,1.8648347854614258,0.5160555243492126
45.4,-0.8573116064071655,0.13135239481925964,0.9208975434303284,0.638022780418396,1.481199026107788,0.4923457205295563
45.45,-0.9680308699607849,0.48305603861808777,1.193260908126831,0.6092108488082886,1.2549285888671875,0.3301774561405182
45.5,-0.9456449747085571,0.38088318705558777,0.9671711921691895,0.5849058032035828,0.9456853866577148,0.3731088936328888
45.55,-0.9784977436065674,-0.06729225069284439,0.695015549659729,0.6339287757873535,0.596178412437439,0.4191438853740692
45.6,-0.343913733959198,0.19811151921749115,0.535112202167511,0.5941383838653564,0.430540531873703,0.3311692476272583
45.65,-1.1554601192474365,-0.01285652257502079,0.6655979156494141,0.3902565538883209,0.4206395149230957,0.2520655393600464
45.7,-1.0726319551467896,0.1799468696117401,0.12719106674194336,0.30462464690208435,0.2288082391023636,0.27292048931121826
45.75,-1.0267606973648071,0.2975911796092987,-0.12644483149051666,0.2946770489215851,0.23929378390312195,0.21131078898906708
45.8,-0.8199010491371155,0.4267558753490448,0.24865484237670898,0.2145945429801941,0.313838392496109,0.1351824253797531
45.85,-1.293086051940918,0.3576497435569763,0.9800782203674316,0.18180564045906067,0.2706402540206909,0.06870145350694656
45.9,-1.1172101497650146,0.04317565634846687,0.8002338409423828,0.1387057602405548,-0.21002085506916046,0.1043839231133461
45.95,-1.3402070999145508,-0.0489225760102272,0.11463761329650879,0.18917834758758545,-0.5683460831642151,0.045474499464035034
46.0,-0.88429856300354,-0.7215213775634766,-1.1393306255340576,0.302285373210907,-0.7516195774078369,0.06551485508680344
46.05,-0.8604792952537537,-0.6635732650756836,-1.2469112873077393,0.5498860478401184,-0.4306926429271698,-0.14927992224693298
46.1,-0.0516999214887619,-0.2072916030883789,-0.22051531076431274,0.5704853534698486,0.047651130706071854,-0.3765512704849243
46.15,0.9346327781677246,0.8171272277832031,0.13978788256645203,0.4685807526111603,0.047407083213329315,-0.4594060182571411
46.2,0.6432124376296997,1.0645256042480469,0.5966208577156067,0.22417165338993073,-0.07666749507188797,-0.33422285318374634
46.25,1.473794937133789,0.9518261551856995,-0.5451843738555908,0.06591537594795227,-0.2564254105091095,0.023720886558294296
46.3,0.05063680559396744,0.4468059539794922,0.49913251399993896,0.020786963403224945,-0.001629460253752768,0.3616938889026642
46.35,-0.6162043809890747,0.35553452372550964,0.6640838384628296,-0.21173174679279327,-0.0006200398784130812,0.3796384930610657
46.4,-0.08711355924606323,-0.2307129055261612,0.5963134169578552,-0.32050055265426636,-0.1799451857805252,0.43293243646621704
46.45,-0.37976065278053284,-0.46312621235847473,0.6230814456939697,-0.2626955807209015,-0.141370952129364,0.31482577323913574
46.5,0.010445713996887207,-0.534611701965332,0.2684806287288666,-0.24417422711849213,-0.12424662709236145,0.2386532425880432
46.55,-0.21964131295681,-0.3437366485595703,0.1141553744673729,-0.21533963084220886,0.037456512451171875,-0.022236941382288933
46.6,-0.6401516795158386,-0.48239901661872864,0.23442970216274261,-0.054996997117996216,-0.11536195874214172,-0.13822469115257263
46.65,0.5171246528625488,-0.07101915776729584,0.0028757432010024786,0.15578342974185944,-0.2996981739997864,-0.13317690789699554
46.7,0.8609576225280762,0.4550619423389435,0.13751448690891266,0.1902025043964386,-0.20212094485759735,-0.14217090606689453
