Time [s],Acc_x [m/s^2],Acc_y [m/s^2],Acc_z [m/s^2],Gyro_x [1/s],Gyro_y [1/s],Gyro_z [1/s]
0.0,0.003916990011930466,0.10074615478515625,0.004563828930258751,0.008889628574252129,-0.017480339854955673,-0.007651467341929674
0.05,0.007284658960998058,0.10114097595214844,0.009040125645697117,0.00888993963599205,-0.01748027838766575,-0.007651242893189192
0.1,0.010741537436842918,0.11134719848632812,0.023885726928710938,0.007874574512243271,-0.014535367488861084,-0.007904211059212685
0.15,0.016572557389736176,0.13618946075439453,0.05031788721680641,0.002409508218988776,-0.004079975187778473,-0.008924145251512527
0.2,0.011771977879106998,0.10500335693359375,0.020128943026065826,-0.008824281394481659,-0.0022713516373187304,-0.008849093690514565
0.25,-0.0006505344063043594,0.04343700408935547,-0.010290790349245071,-0.019473662599921227,-0.008876541629433632,-0.006201423238962889
0.3,0.07528872042894363,0.06419849395751953,0.002685198560357094,-0.010439205914735794,-0.00022587644343730062,-0.007147940807044506
0.35,0.02580849640071392,0.051186561584472656,-0.05026164650917053,0.001238364027813077,0.0052083577029407024,-0.007601533085107803
0.4,0.004385900683701038,0.09182167053222656,-0.008669323287904263,-0.005391791462898254,-0.002860184060409665,0.0017726492369547486
0.45,0.007271420676261187,0.044997215270996094,-0.024382853880524635,-0.0027191918343305588,-0.0008893845952115953,-0.00172957475297153
0.5,0.01980169117450714,0.10032939910888672,0.03245610371232033,0.0017226116033270955,-0.00462836679071188,-0.00582977756857872
0.55,0.04967227578163147,0.12293052673339844,-0.010902333073318005,0.001328866695985198,0.0006965742795728147,-0.00996924377977848
0.6,0.0610741451382637,0.08897781372070312,-0.001665617455728352,-0.0006841430440545082,0.0030721037182956934,-0.014436960220336914
0.65,0.0424615815281868,0.10053443908691406,-0.0033044430892914534,-0.008148854598402977,0.00015421019634231925,-0.015993217006325722
0.7,0.011463661678135395,0.11815452575683594,-0.013116132467985153,-0.012816469185054302,0.009838602505624294,-0.01921701990067959
0.75,-0.014496957883238792,0.1417388916015625,0.006636789534240961,-0.012633508071303368,0.021919753402471542,-0.022065110504627228
0.8,-0.02193683758378029,0.1907806396484375,0.01813700795173645,-0.012621593661606312,0.05188767611980438,-0.031329963356256485
0.85,0.03687126934528351,0.1987781524658203,-0.03199971839785576,-0.025027204304933548,0.08293543756008148,-0.0409129373729229
0.9,0.08444693684577942,0.19342613220214844,-0.02590949274599552,-0.049380093812942505,0.09849865734577179,-0.03515281155705452
0.95,0.16317369043827057,0.19040298461914062,0.10723386704921722,-0.06052187830209732,0.12499639391899109,-0.02914361283183098
1.0,0.037703488022089005,-0.05556106194853783,-0.10805628448724747,-0.0858515053987503,0.12234976887702942,-0.048013798892498016
1.05,-0.1413658857345581,0.023682592436671257,-0.14960309863090515,-0.22438177466392517,0.03549807146191597,-0.012787907384335995
1.1,-0.12160997092723846,0.15604209899902344,-0.17368483543395996,-0.32204127311706543,0.08442375063896179,0.015420558862388134
1.15,0.03757099807262421,-0.02553367428481579,-0.13892148435115814,-0.23643535375595093,0.21734052896499634,0.024700051173567772
1.2,0.12673091888427734,-0.07207870483398438,0.06778490543365479,-0.027364183217287064,0.24099843204021454,0.03987104445695877
1.25,0.005254089832305908,-0.15834712982177734,-0.11303719133138657,0.18748942017555237,0.17826983332633972,-0.008508073166012764
1.3,-0.21074143052101135,0.09639071673154831,-0.029093723744153976,0.21204957365989685,0.043708693236112595,0.006055162753909826
1.35,-0.18984222412109375,0.1919832080602646,0.22288565337657928,0.1422625333070755,0.11674785614013672,0.025159038603305817
1.4,0.038300447165966034,-0.02613258548080921,0.2688169777393341,0.1254466027021408,0.30037298798561096,0.01597786881029606
1.45,0.12123497575521469,-0.19355297088623047,0.22097821533679962,0.13763901591300964,0.35287952423095703,0.02172371745109558
1.5,0.056447647511959076,-0.16174888610839844,0.11224986612796783,0.13476841151714325,0.32470017671585083,0.04785022512078285
1.55,-0.06180890277028084,-0.12358856201171875,0.0782388374209404,0.11881048232316971,0.32470157742500305,0.09452503174543381
1.6,-0.1306198537349701,-0.18405437469482422,0.15152855217456818,0.12275514006614685,0.3788183033466339,0.1498182862997055
1.65,-0.12006653845310211,-0.19885730743408203,0.2216600775718689,0.1675032675266266,0.46500417590141296,0.17341889441013336
1.7,-0.18001483380794525,-0.015670783817768097,0.21550136804580688,0.1862460970878601,0.593315839767456,0.19527845084667206
1.75,0.05611129105091095,0.10351943224668503,0.6592443585395813,0.03095659613609314,0.9128983616828918,0.2993641495704651
1.8,0.5493561029434204,-0.12722015380859375,1.1634840965270996,-0.22362689673900604,1.5000368356704712,0.4555526375770569
1.85,0.9404695630073547,-0.23676680028438568,1.327205777168274,-0.4717143774032593,1.8652093410491943,0.6804713010787964
1.9,1.33415687084198,0.09172918647527695,1.2424812316894531,-0.7943735122680664,1.9485645294189453,0.9938660264015198
1.95,1.295519471168518,0.6679534912109375,0.5962709188461304,-1.114403486251831,1.9968630075454712,1.2051048278808594
2.0,0.7478870749473572,1.0233030319213867,-0.19899070262908936,-1.417224645614624,1.8863811492919922,1.4171077013015747
2.05,-0.09171266108751297,1.2231416702270508,-0.49830737709999084,-1.5527284145355225,1.5746533870697021,1.7675247192382812
2.1,-0.6158126592636108,1.3885927200317383,-0.16690272092819214,-1.5805379152297974,1.364371657371521,1.9508306980133057
2.15,-0.5195426940917969,1.697646141052246,-0.25039955973625183,-1.7143946886062622,1.585633397102356,1.4760661125183105
2.2,-0.9731636047363281,0.5800027847290039,-0.9213993549346924,-2.0944721698760986,1.856573224067688,0.6350718140602112
2.25,-1.1982626914978027,0.4892091453075409,-1.4195305109024048,-2.1010851860046387,1.7072546482086182,0.09665089100599289
2.3,-0.643916130065918,-0.29903316497802734,-1.924054741859436,-2.062685966491699,1.3975121974945068,-0.2999604046344757
2.35,-0.41526660323143005,-2.0579662322998047,-1.9432072639465332,-1.7671316862106323,1.205327033996582,-0.37985220551490784
2.4,-0.5056700706481934,-2.2614526748657227,-1.7725828886032104,-0.8683422803878784,1.0696556568145752,-0.4232950806617737
2.45,-0.3232714533805847,-2.2092056274414062,-1.2249858379364014,0.034557029604911804,0.8722602128982544,-0.5983090400695801
2.5,-1.1499533653259277,-1.565140724182129,-1.0757108926773071,0.7368103265762329,0.651379406452179,-0.8764952421188354
2.55,-2.6085875034332275,-0.4359636902809143,-0.5955671072006226,1.0451937913894653,0.2607850730419159,-0.8640404939651489
2.6,1.4543914794921875,1.462967872619629,1.7546534538269043,0.8812251687049866,-0.7474523782730103,0.0374625101685524
2.65,0.4723975658416748,0.11418534070253372,0.5059449076652527,-0.08674442768096924,-0.7482682466506958,0.2889375686645508
2.7,0.24261167645454407,0.01822567731142044,0.019952327013015747,-0.14125369489192963,-0.5176273584365845,0.09316149353981018
2.75,0.5236471891403198,0.14080430567264557,0.10507712513208389,-0.0831533744931221,-0.5432875752449036,-0.038048457354307175
2.8,0.5584010481834412,-0.008021336980164051,-0.1819647252559662,-0.09904568642377853,-0.5036289095878601,-0.1447468400001526
2.85,0.19485698640346527,-0.1556835025548935,-0.2584782540798187,0.048366479575634,-0.5600267648696899,-0.10309429466724396
2.9,0.030424222350120544,-0.06734943389892578,0.17685121297836304,0.21368320286273956,-0.6372389793395996,0.051662664860486984
2.95,0.4060195982456207,0.29086971282958984,0.6329154968261719,0.18003690242767334,-0.5789581537246704,0.029352029785513878
3.0,0.3947054445743561,0.37716197967529297,0.41107624769210815,0.061635345220565796,-0.3750370740890503,-0.15460941195487976
3.05,0.08194448798894882,0.02032947726547718,0.004560757894068956,-0.007926903665065765,-0.2815272808074951,-0.21735867857933044
3.1,-0.012112699449062347,-0.0377655066549778,0.1550809144973755,-0.003151196986436844,-0.2952354848384857,-0.14798453450202942
3.15,0.050598278641700745,-0.13171005249023438,0.11196384578943253,-0.016509413719177246,-0.2419685572385788,-0.1842755377292633
3.2,0.02191673219203949,-0.1842517852783203,-0.15711957216262817,-0.022398289293050766,-0.19930440187454224,-0.22610661387443542
3.25,-0.10703982412815094,-0.025499343872070312,-0.2040940821170807,0.007710784673690796,-0.24760805070400238,-0.1840740442276001
3.3,-0.0463775172829628,0.09264087677001953,-0.06110909953713417,0.020822890102863312,-0.3003564476966858,-0.1384248435497284
3.35,0.024232491850852966,0.016745569184422493,-0.024055328220129013,-0.019850701093673706,-0.30833470821380615,-0.14745204150676727
3.4,0.020174458622932434,-0.053780555725097656,-0.10856884717941284,-0.044730886816978455,-0.3006379306316376,-0.14035078883171082
3.45,0.019693594425916672,-0.013300894759595394,-0.03408287465572357,-0.03349028155207634,-0.3078421950340271,-0.1281277984380722
3.5,0.1731136292219162,-0.022130008786916733,0.025145273655653,-0.034571342170238495,-0.2947882413864136,-0.13510636985301971
3.55,0.2690280079841614,-0.1473827362060547,0.06370662152767181,-0.05701114237308502,-0.25493472814559937,-0.12320651113986969
3.6,0.2033219039440155,-0.33358097076416016,0.04530806466937065,-0.06791965663433075,-0.20518264174461365,-0.08162551373243332
3.65,0.22264216840267181,-0.3907327651977539,0.04125148430466652,-0.046795330941677094,-0.18004009127616882,-0.02357490174472332
3.7,0.27770376205444336,-0.26423072814941406,0.019766516983509064,-0.010223612189292908,-0.18625442683696747,0.050633739680051804
3.75,0.15934914350509644,-0.11797045916318893,-0.07475384324789047,-0.0026272237300872803,-0.19057220220565796,0.10975714772939682
3.8,-0.022528711706399918,0.061501502990722656,-0.18369393050670624,0.013810031116008759,-0.2018216848373413,0.1455799639225006
3.85,-0.13257768750190735,0.36387157440185547,-0.23874065279960632,0.0491732694208622,-0.21194492280483246,0.1401863992214203
3.9,-0.3335729241371155,0.9054632186889648,-0.18049480020999908,0.07954785972833633,-0.22016260027885437,0.08083155006170273
3.95,-0.5744086503982544,1.7779102325439453,0.018247254192829132,-0.011536432430148125,-0.23988623917102814,-0.018079815432429314
4.0,-1.042517066001892,2.1941604614257812,0.1918407678604126,-0.5086297988891602,-0.26867228746414185,-0.271608829498291
4.05,-2.155066967010498,1.2515497207641602,-0.6307171583175659,-1.2622041702270508,-0.37919482588768005,-0.7932411432266235
4.1,-1.6982922554016113,-0.5019674897193909,-0.8373395800590515,-1.5370968580245972,-1.005492925643921,-0.6624652743339539
4.15,-0.3592185378074646,-1.9412264823913574,-0.21785813570022583,-1.3674038648605347,-1.8803458213806152,0.4487167298793793
4.2,0.2929142713546753,-2.092740058898926,0.3532082736492157,-0.863460898399353,-2.3855974674224854,1.114162564277649
4.25,-0.19737711548805237,-2.0152416229248047,-0.23568090796470642,-0.16902735829353333,-2.5176258087158203,1.3481945991516113
4.3,0.5344426035881042,-1.271402359008789,-1.93235182762146,0.6141194701194763,-2.529134750366211,1.2661060094833374
4.35,2.154844045639038,0.4096899926662445,-2.2629098892211914,0.9782404899597168,-2.06978440284729,1.2882752418518066
4.4,1.7785494327545166,0.8404503464698792,0.5749632120132446,0.8619905710220337,-1.0960519313812256,0.6850495934486389
4.45,1.0964618921279907,-0.2873659133911133,1.755479335784912,0.8049571514129639,-0.33974698185920715,0.06614726036787033
4.5,0.5686963200569153,-0.026391034945845604,1.9143474102020264,0.4438563883304596,-0.38269585371017456,0.5726742148399353
4.55,0.06900662183761597,1.0233917236328125,1.9063475131988525,0.11963801085948944,-0.5040104389190674,0.8090280294418335
4.6,-0.26250600814819336,1.168492317199707,0.8081545233726501,0.08773182332515717,-0.08531372249126434,0.291355162858963
4.65,-0.1395302712917328,0.6867198944091797,-0.1516004204750061,0.08248962461948395,0.2959528863430023,-0.041789885610342026
4.7,-0.21515721082687378,0.3018922805786133,-0.6906770467758179,-0.09040816128253937,0.36426401138305664,0.0018929463112726808
4.75,-0.3036549389362335,0.3159036636352539,-0.7133095860481262,-0.2232658565044403,0.2583818733692169,0.05489295721054077
4.8,-0.2272229939699173,0.022947316989302635,-1.028878092765808,-0.19022761285305023,0.20097988843917847,-0.08635115623474121
4.85,-0.07278156280517578,-0.23006437718868256,-1.1072214841842651,-0.08768017590045929,0.1015336811542511,-0.09064091742038727
4.9,0.21405605971813202,-0.28517818450927734,-0.4094199240207672,0.06904055178165436,0.027863051742315292,0.02878839336335659
4.95,0.6611703038215637,-0.1276216357946396,1.001826286315918,0.3916102647781372,0.1928323358297348,0.1313299834728241
5.0,1.6420166492462158,-0.4335632026195526,1.6333204507827759,0.8791799545288086,0.8464622497558594,0.19812172651290894
5.05,2.5713326930999756,-1.364871859550476,1.0216858386993408,1.2557655572891235,1.7722276449203491,0.10910852998495102
5.1,1.8698270320892334,-1.6120147705078125,0.23147036135196686,1.2397528886795044,2.459764003753662,0.025389565154910088
5.15,-0.046414706856012344,-0.5119295120239258,-0.16523538529872894,0.8520213961601257,2.327306032180786,0.28903675079345703
5.2,-1.3739100694656372,0.6399382948875427,-0.2738181948661804,0.482046902179718,1.5395368337631226,0.6449854969978333
5.25,-1.959028959274292,0.8500480055809021,-0.6819832921028137,0.2513585686683655,0.9434354305267334,0.6150486469268799
5.3,-1.598231315612793,0.26003071665763855,-1.1535766124725342,0.1470983773469925,0.46193721890449524,0.501910388469696
5.35,-0.5410041809082031,0.2842588424682617,-0.6306695342063904,0.2677650451660156,-0.14080044627189636,0.630452573299408
5.4,0.06026044487953186,0.3297395706176758,-0.609839916229248,0.24213992059230804,-0.34359198808670044,0.5112190246582031
5.45,0.30620163679122925,0.634918212890625,-0.5706203579902649,0.08041296899318695,-0.36938074231147766,0.35557830333709717
5.5,0.3929378092288971,0.6489458084106445,-0.319528192281723,-0.1857975721359253,-0.28949248790740967,0.284494549036026
5.55,0.029225334525108337,0.37787628173828125,-0.6482084393501282,-0.3498643636703491,-0.08570341765880585,0.13262072205543518
5.6,-0.5029379725456238,0.5307207107543945,-0.6892017126083374,-0.4669397473335266,-0.0347515344619751,0.019793612882494926
5.65,-0.7022749781608582,0.7741508483886719,-1.16270112991333,-0.5666173696517944,-0.11780624836683273,-0.05070175603032112
5.7,-0.7593367099761963,0.1525258868932724,-1.1954026222229004,-0.5668242573738098,-0.274875670671463,-0.06470078974962234
5.75,-0.03958171606063843,0.13073255121707916,-0.932843029499054,-0.34451955556869507,-0.6099240779876709,0.051270741969347
5.8,0.19310159981250763,0.5450782775878906,-0.2950550317764282,-0.1678221970796585,-0.5342016220092773,-0.24544422328472137
5.85,0.5766564607620239,-0.2740125358104706,-0.20674411952495575,-0.22966258227825165,-0.6049165725708008,-0.5056241154670715
5.9,0.6749756336212158,0.09069253504276276,0.5717291235923767,-0.1645796298980713,-0.9777687788009644,-0.14755550026893616
5.95,0.4514927864074707,0.10573101788759232,0.5303385257720947,-0.2250562310218811,-1.0473620891571045,-0.12392939627170563
6.0,0.3846781551837921,0.03192616254091263,0.3096606433391571,-0.2901986241340637,-0.8942645192146301,-0.3498455882072449
6.05,0.4238879978656769,-0.14487266540527344,0.43615633249282837,-0.3928166925907135,-0.769782304763794,-0.37874603271484375
6.1,0.059231825172901154,-0.6396932601928711,0.23339378833770752,-0.42130744457244873,-0.706442654132843,-0.25662291049957275
6.15,-0.2710893154144287,-0.6283998489379883,0.35681846737861633,-0.3160861134529114,-0.6762264370918274,-0.13832193613052368
6.2,-0.6112655401229858,-0.05607416853308678,0.9423866271972656,-0.19879251718521118,-0.6189622282981873,-0.0962713360786438
6.25,-0.643997311592102,0.019531218335032463,1.3228237628936768,-0.1518237590789795,-0.4508281350135803,-0.20332957804203033
6.3,-0.5043584704399109,-0.13519862294197083,1.3388515710830688,-0.08963015675544739,-0.2070876657962799,-0.24934768676757812
6.35,-0.38302910327911377,-0.15672780573368073,1.0376578569412231,-0.041523538529872894,0.016909174621105194,-0.1848989874124527
6.4,-0.31051650643348694,-0.1559448391199112,0.6198075413703918,-0.06863058358430862,0.12943823635578156,-0.089564248919487
6.45,-0.2501334249973297,-0.1773843914270401,0.37073200941085815,-0.13917690515518188,0.21862174570560455,-0.0178616251796484
6.5,-0.33453822135925293,-0.044647227972745895,0.09178367257118225,-0.181022509932518,0.2787661552429199,0.0818626806139946
6.55,-0.34519416093826294,0.011693947948515415,-0.2563348412513733,-0.1505899727344513,0.323690801858902,0.08067266643047333
6.6,-0.2431468665599823,-0.0016870517283678055,-0.4544851779937744,-0.06559108197689056,0.33213141560554504,0.09868305176496506
6.65,-0.24199150502681732,-0.07146167755126953,-0.6191352605819702,-0.018312517553567886,0.2638286054134369,0.13053785264492035
6.7,0.03906355798244476,-0.10902213305234909,-0.5460943579673767,-0.05788005143404007,0.07658844441175461,0.15159566700458527
6.75,0.35351574420928955,0.07562924921512604,-0.45803868770599365,-0.05941522866487503,0.01622149534523487,0.14188361167907715
6.8,0.3160642981529236,-0.05389593541622162,-0.43187403678894043,-0.01217745617032051,0.08725021779537201,0.10993951559066772
6.85,0.3802351951599121,-0.03465746343135834,-0.2547934055328369,0.01844913139939308,0.12089335173368454,0.13071754574775696
6.9,0.49681544303894043,0.017992036417126656,-0.19156570732593536,0.017620179802179337,0.1581398844718933,0.05950555205345154
6.95,0.5646488070487976,0.040020961314439774,-0.23059841990470886,0.023806791752576828,0.14955110847949982,0.027390146628022194
7.0,0.5523772835731506,0.061894435435533524,-0.1507367491722107,0.04650271683931351,0.11034263670444489,0.06530842185020447
7.05,0.5162627100944519,0.15026094019412994,-0.04058369621634483,0.06899552792310715,0.08858218044042587,0.06644497811794281
7.1,0.5367878675460815,0.13159658014774323,-0.001051675295457244,0.07483822852373123,0.07578844577074051,0.037585705518722534
7.15,0.3343181908130646,0.08753205090761185,0.056258950382471085,0.08532224595546722,0.04129370301961899,0.07553767412900925
7.2,0.21849310398101807,0.10491848737001419,0.1533917933702469,0.11885435879230499,0.034616440534591675,0.08895412087440491
7.25,0.27887672185897827,0.1381072998046875,0.2416394054889679,0.14920026063919067,0.07597461342811584,0.024428727105259895
7.3,0.3640468120574951,0.09324932843446732,0.1763158142566681,0.1293213963508606,0.11839781701564789,-0.041713517159223557
7.35,0.31861037015914917,0.07419300824403763,0.060875553637742996,0.09870446473360062,0.1208932101726532,-0.03252601996064186
7.4,0.26362934708595276,0.08898545056581497,0.0089552728459239,0.0542546808719635,0.09966970980167389,-0.01657065935432911
7.45,0.24714234471321106,-0.013850204646587372,-0.05399850755929947,0.012167247012257576,0.06519749760627747,-0.029926510527729988
7.5,0.22911258041858673,-0.026835434138774872,-0.09262298047542572,-0.010271066799759865,0.01213091891258955,-0.02504357323050499
7.55,0.06538689136505127,-0.09478473663330078,-0.1210847944021225,-0.023821048438549042,-0.01831558160483837,-0.016624100506305695
7.6,-0.015135552734136581,-0.021077154204249382,-0.17026081681251526,-0.028802795335650444,-0.03037315420806408,-0.0044815801084041595
7.65,0.004524983465671539,0.051566123962402344,-0.10330459475517273,-0.014132220298051834,-0.049699775874614716,-0.025395657867193222
7.7,0.04705412685871124,0.11123466491699219,-0.11575824022293091,-0.012114251963794231,-0.0721157118678093,-0.05124231055378914
7.75,0.08073790371417999,0.011332515627145767,-0.09454968571662903,-0.023522760719060898,-0.10716009885072708,-0.06348957121372223
7.8,0.1666502207517624,-0.002572054509073496,-0.04015651345252991,-0.027930952608585358,-0.14204759895801544,-0.05508701130747795
7.85,0.13436372578144073,0.06162453070282936,0.05361612141132355,-0.02009030431509018,-0.16027548909187317,-0.05684412643313408
7.9,0.045243389904499054,0.18301773071289062,0.2217572033405304,-0.012408733367919922,-0.1625823974609375,-0.04706995189189911
7.95,0.06625291705131531,0.09597301483154297,0.3296511173248291,-0.04258405789732933,-0.11940331757068634,-0.08354302495718002
8.0,0.08992691338062286,-0.0794515609741211,0.5210383534431458,-0.12957938015460968,-0.06746181100606918,-0.1273268759250641
8.05,0.14121496677398682,-0.1412363052368164,0.875265896320343,-0.18846094608306885,-0.026143524795770645,-0.09867063164710999
8.1,0.09915463626384735,-0.06562615185976028,0.9523565769195557,-0.22250661253929138,0.08457257598638535,-0.03749361261725426
8.15,0.17685627937316895,0.3292827606201172,0.9020707607269287,-0.2280556559562683,0.262365460395813,-0.01442883163690567
8.2,0.2774628698825836,0.32211971282958984,0.3459676504135132,-0.2562636435031891,0.5091692805290222,-0.06542505323886871
8.25,0.3191561996936798,0.034652721136808395,-0.10095846652984619,-0.259909063577652,0.7042059302330017,-0.06940636783838272
8.3,0.3999682068824768,0.20523549616336823,-0.14515280723571777,-0.18740344047546387,0.8291494846343994,-0.08892403542995453
8.35,0.40024539828300476,-0.10974501073360443,-0.4927656352519989,-0.18781621754169464,0.9595024585723877,-0.23817065358161926
8.4,-0.26530003547668457,-0.32947254180908203,-1.0006322860717773,-0.1690312772989273,0.9723857045173645,-0.2064811885356903
8.45,-1.7535042762756348,0.3319806754589081,-1.3536293506622314,0.015848785638809204,0.8341552019119263,-0.18721581995487213
8.5,-3.5728251934051514,1.5650070905685425,-0.4769900441169739,0.09769251942634583,0.42740437388420105,-0.41780799627304077
8.55,-3.4822146892547607,2.1039295196533203,0.7591530680656433,-0.15941192209720612,-0.04018509387969971,-1.0584982633590698
8.6,-3.2708470821380615,2.0224103927612305,1.1515833139419556,-0.5863078832626343,-0.34523263573646545,-1.5322734117507935
8.65,-1.9856634140014648,1.3911923170089722,1.3354177474975586,-1.0501865148544312,-0.7931752800941467,-1.4157963991165161
8.7,-1.4584293365478516,0.6597785353660583,0.7955530881881714,-1.3962867259979248,-0.9081662893295288,-1.3986811637878418
8.75,-0.45769721269607544,-0.3379679024219513,0.5679375529289246,-1.7097346782684326,-1.140351414680481,-1.3775538206100464
8.8,0.539430558681488,-1.0043230056762695,0.4905180335044861,-1.9202988147735596,-1.2032396793365479,-1.0969610214233398
8.85,0.7279496788978577,-1.1657772064208984,0.36182689666748047,-2.150761604309082,-0.8168584704399109,-0.6482600569725037
8.9,0.43462011218070984,-1.1231231689453125,0.03426205739378929,-2.1197450160980225,-0.42131245136260986,-0.3576463460922241
8.95,0.2953123152256012,-1.4169855117797852,-0.01141821313649416,-1.7390546798706055,-0.073695108294487,-0.32539504766464233
9.0,0.607735812664032,-1.5812711715698242,-0.11089117079973221,-1.027098536491394,0.08173588663339615,-0.3262169361114502
9.05,0.7331216931343079,-1.5144624710083008,-0.15740500390529633,-0.2654569149017334,0.11609764397144318,-0.30629420280456543
9.1,1.1651391983032227,-1.0397186279296875,-0.1138584315776825,0.3285107910633087,0.10071191191673279,-0.1945057213306427
9.15,1.173038125038147,-0.4766387641429901,0.2625744044780731,0.6792140007019043,0.05407514423131943,-0.15773539245128632
9.2,1.0961166620254517,0.14377692341804504,0.5098503828048706,0.8132757544517517,0.16137874126434326,-0.13429269194602966
9.25,1.7931556701660156,0.9689589142799377,0.25148728489875793,0.8434659838676453,0.252840131521225,-0.18673096597194672
9.3,1.5775249004364014,0.6781626343727112,-0.3392903506755829,0.7566829919815063,0.27715185284614563,-0.7324843406677246
9.35,1.4191287755966187,0.8821726441383362,-0.8478410243988037,0.6668562889099121,0.39019259810447693,-1.043607473373413
9.4,0.2919040024280548,-0.0632619708776474,-0.4247620701789856,0.5562649965286255,0.581657886505127,-1.2606017589569092
9.45,0.6015439629554749,0.09352399408817291,-0.16745012998580933,0.8274477124214172,0.6370320320129395,-0.9086655378341675
9.5,1.3162083625793457,0.27411845326423645,-0.24957166612148285,1.3532445430755615,0.6706395745277405,-1.1296391487121582
9.55,0.7323418259620667,-0.15269562602043152,-0.6758993864059448,1.5012791156768799,0.783421516418457,-1.7587655782699585
9.6,-0.20967146754264832,-0.5107498168945312,-0.9147612452507019,1.353169560432434,0.7642839550971985,-1.6192309856414795
9.65,-0.127682626247406,0.4584226608276367,-1.071602702140808,1.148514747619629,0.4624427855014801,-0.8747767210006714
9.7,-0.6682467460632324,0.233121857047081,-0.810468852519989,0.7064892053604126,0.20160794258117676,-0.5317623615264893
9.75,0.13446293771266937,-0.514042854309082,-0.7714701890945435,0.6113722324371338,-0.1253630518913269,-0.08587854355573654
9.8,1.5965940952301025,0.2474527806043625,-0.42120182514190674,0.5807666182518005,-0.046300940215587616,0.26590558886528015
9.85,0.33888810873031616,0.19387340545654297,0.4128025770187378,0.20550504326820374,0.4147791266441345,0.009248425252735615
9.9,-0.929425835609436,-0.2905445396900177,0.13228552043437958,0.16133475303649902,0.38951626420021057,-0.01980004459619522
9.95,-0.44143250584602356,-0.1934366375207901,-0.1287970393896103,0.32110363245010376,-0.12084376066923141,0.3556649088859558
10.0,-0.20352309942245483,0.04597567766904831,0.07475282996892929,0.06465098261833191,-0.5627924203872681,0.6801281571388245
10.05,0.16671723127365112,0.25313377380371094,0.04894615337252617,-0.28419816493988037,-0.8563846349716187,0.5632806420326233
10.1,0.3080252408981323,0.15256406366825104,-0.046720508486032486,-0.3136870265007019,-0.8605118989944458,0.24778670072555542
10.15,0.49629881978034973,-0.1848897784948349,-0.5076497793197632,-0.0922132357954979,-0.7526266574859619,0.07608883827924728
10.2,1.107221245765686,0.6510058045387268,-0.31955888867378235,0.16700536012649536,-0.31124964356422424,-0.05676834285259247
10.25,-0.5068448781967163,1.6241979598999023,-0.6559904217720032,0.2661786377429962,0.39324498176574707,-0.2160712033510208
10.3,-0.4833938181400299,1.969630241394043,-1.244616150856018,-0.036704711616039276,0.25558018684387207,0.14838272333145142
10.35,0.24761946499347687,0.6775493621826172,-0.5894752740859985,-0.523587703704834,0.35421523451805115,0.4224727749824524
10.4,-0.2346796840429306,1.7062654495239258,-0.595382809638977,-0.8161889910697937,0.5827100276947021,0.37190669775009155
10.45,-1.0198770761489868,0.8772258758544922,-0.05199805274605751,-1.2421661615371704,0.4238086938858032,0.25967419147491455
10.5,-0.506829023361206,0.6211576461791992,-0.01959719881415367,-1.229149341583252,-0.018271364271640778,0.24153368175029755
10.55,-0.18650753796100616,-0.24666118621826172,-0.1413782685995102,-1.002266526222229,-0.39024507999420166,0.07119850814342499
10.6,0.34573429822921753,-0.589085578918457,-0.37432661652565,-0.7397423982620239,-0.7367408871650696,0.025860093533992767
10.65,0.5690767765045166,-0.8683137893676758,-0.28956466913223267,-0.6441957950592041,-0.9529305100440979,0.1585664451122284
10.7,0.47932717204093933,-0.891758918762207,-0.06528175622224808,-0.6010428667068481,-1.0467840433120728,0.45683202147483826
10.75,0.3572356104850769,-0.7395782470703125,0.24392668902873993,-0.5055336356163025,-1.0615053176879883,0.7016966938972473
10.8,0.18604367971420288,-0.7134494781494141,0.410855770111084,-0.3545699119567871,-1.0307658910751343,0.7885318994522095
10.85,0.1378728151321411,-0.39852046966552734,0.5461623668670654,-0.2245934009552002,-0.9121854305267334,0.8577435612678528
10.9,0.24709315598011017,-0.4398069381713867,0.5513429045677185,-0.19536471366882324,-0.7444437146186829,0.7922499179840088
10.95,0.24772357940673828,-0.46919822692871094,0.45027491450309753,-0.20565666258335114,-0.6134185791015625,0.6500755548477173
11.0,0.17565491795539856,-0.5233783721923828,0.5269110202789307,-0.20226147770881653,-0.45989152789115906,0.5899617671966553
11.05,0.08565295487642288,-0.2963571548461914,0.5050522685050964,-0.09674103558063507,-0.35509127378463745,0.6427720785140991
11.1,-0.1083994209766388,0.08475589007139206,0.462344229221344,0.11325738579034805,-0.28623515367507935,0.5478708744049072
11.15,-0.12907156348228455,0.3851919174194336,0.30637645721435547,0.28469303250312805,-0.24305880069732666,0.40399104356765747
11.2,-0.1678265631198883,0.6295986175537109,0.033151283860206604,0.31786853075027466,-0.16063474118709564,0.2558257579803467
11.25,-0.14422453939914703,1.1885290145874023,-0.1897897720336914,0.1880807727575302,-0.05243247374892235,0.16323895752429962
11.3,-0.2506248354911804,1.508636474609375,-0.1434444636106491,-0.07997585833072662,0.05673285946249962,-0.0002924950676970184
11.35,-0.2546091675758362,1.3571290969848633,-0.045363228768110275,-0.36571061611175537,0.16116078197956085,-0.12995794415473938
11.4,-0.014489036053419113,1.245528221130371,0.06351623684167862,-0.587000846862793,0.23719458281993866,-0.20849129557609558
11.45,0.28733035922050476,0.6580171585083008,0.2999744117259979,-0.7462774515151978,0.35702723264694214,-0.3526991605758667
11.5,0.3526087999343872,0.012011533603072166,0.4123006761074066,-0.8231467604637146,0.5164369344711304,-0.45634159445762634
11.55,0.38698872923851013,-0.3353872299194336,0.6247018575668335,-0.8236546516418457,0.6622763276100159,-0.4642546474933624
11.6,0.4125353991985321,-0.7780618667602539,0.8853291869163513,-0.6865421533584595,0.778388261795044,-0.5355253219604492
11.65,0.31325051188468933,-1.0410442352294922,0.9137484431266785,-0.4250354766845703,0.9024455547332764,-0.5263032913208008
11.7,0.3150252401828766,-1.1038131713867188,0.7962174415588379,-0.11830552667379379,1.0002386569976807,-0.4825074374675751
11.75,0.0741502195596695,-1.078373908996582,0.41451919078826904,0.18754945695400238,1.0356500148773193,-0.4730168879032135
11.8,-0.1663934290409088,-0.9711446762084961,0.2676422894001007,0.4023053050041199,1.0275777578353882,-0.39042776823043823
11.85,-0.2816241383552551,-0.5513811111450195,-0.01185409165918827,0.5349138379096985,0.9814462065696716,-0.23878870904445648
11.9,-0.3875415325164795,-0.24736978113651276,-0.21023577451705933,0.6099903583526611,0.8830334544181824,-0.1668887436389923
11.95,-0.36590003967285156,0.12441157549619675,-0.36599212884902954,0.6282637715339661,0.7802464365959167,-0.09906969219446182
12.0,-0.4021671414375305,0.34125804901123047,-0.5263928771018982,0.5659369826316833,0.6719551086425781,-0.1128276139497757
12.05,-0.5074874758720398,0.5599269866943359,-0.5893729329109192,0.46126681566238403,0.5798346400260925,-0.13955157995224
12.1,-0.6976540684700012,0.6170520782470703,-0.645235538482666,0.3508903980255127,0.46213796734809875,-0.174960657954216
12.15,-0.6588214635848999,0.5393953323364258,-0.6546123027801514,0.2464139461517334,0.3061458468437195,-0.23188482224941254
12.2,-0.7426823377609253,0.3122072219848633,-0.6570178866386414,0.18681484460830688,0.16771097481250763,-0.2670971751213074
12.25,-0.6264472603797913,0.33988285064697266,-0.6981701850891113,0.17436881363391876,0.02075239270925522,-0.20562589168548584
12.3,-0.4350429177284241,0.3585519790649414,-0.6021521687507629,0.14224836230278015,-0.09784507751464844,-0.22765550017356873
12.35,-0.36156758666038513,0.2590970993041992,-0.3561863899230957,0.09915990382432938,-0.16368627548217773,-0.24736568331718445
12.4,-0.18285036087036133,0.28591060638427734,-0.22403524816036224,0.0946185365319252,-0.2030068039894104,-0.2064720094203949
12.45,-0.07009270042181015,0.27980804443359375,-0.13104160130023956,0.06795665621757507,-0.23394033312797546,-0.18165183067321777
12.5,0.06837914884090424,0.22223377227783203,-0.06752105057239532,0.02901914343237877,-0.24378779530525208,-0.16340602934360504
12.55,0.03519872575998306,0.11342811584472656,-0.015332535840570927,-0.011530023068189621,-0.2154044359922409,-0.13216964900493622
12.6,0.036459073424339294,0.10786628723144531,-0.005324354395270348,-0.0399654321372509,-0.21125081181526184,-0.07902565598487854
12.65,0.031576238572597504,0.11861133575439453,0.03942762687802315,-0.06014060974121094,-0.21029910445213318,-0.04223953187465668
12.7,0.17743968963623047,0.10333061218261719,0.2266431599855423,-0.07543333619832993,-0.1940077543258667,0.00337797193787992
12.75,0.2812272310256958,0.10602665692567825,0.3117760419845581,-0.08475380390882492,-0.1514734923839569,0.006359678693115711
12.8,0.39903491735458374,0.017075544223189354,0.46012312173843384,-0.08445093780755997,-0.09677842259407043,-0.012518036179244518
12.85,0.45288950204849243,0.04131794720888138,0.4873313307762146,-0.05372713506221771,-0.019409330561757088,-0.016827547922730446
12.9,0.49212056398391724,-0.09611033648252487,0.5338078737258911,-0.03322482109069824,0.08047863841056824,-0.024838993325829506
12.95,0.4945647716522217,-0.13253401219844818,0.5247148275375366,-0.01241970993578434,0.18493354320526123,-0.030856624245643616
13.0,0.482766330242157,-0.09068679064512253,0.40017497539520264,0.0071693966165184975,0.28062140941619873,-0.010668330825865269
13.05,0.3590331971645355,-0.044217102229595184,0.2740584909915924,0.01875825971364975,0.3735496401786804,-0.011997731402516365
13.1,0.2437027096748352,0.030648237094283104,0.18008370697498322,0.032189298421144485,0.44674357771873474,-0.005574565846472979
13.15,0.08365388214588165,0.04767799377441406,0.07033589482307434,0.05237387865781784,0.4960755705833435,0.013109749183058739
13.2,-0.015382353216409683,0.047951698303222656,-0.015119364485144615,0.062336958944797516,0.5025768280029297,0.03948502615094185
13.25,-0.0031070224940776825,0.001791001413948834,-0.11024156212806702,0.05951722711324692,0.47967150807380676,0.07867972552776337
13.3,0.03668253868818283,0.01229954045265913,-0.18770018219947815,0.05570792034268379,0.4623294174671173,0.11928913742303848
13.35,-0.02400636300444603,0.11280155181884766,-0.16029563546180725,0.050089407712221146,0.4687126576900482,0.13402089476585388
13.4,-0.07759569585323334,0.16389942169189453,-0.08583700656890869,0.05513284355401993,0.47198814153671265,0.1221587210893631
13.45,-0.09982649981975555,0.14022445678710938,-0.18275591731071472,0.06193289905786514,0.45763975381851196,0.08409547060728073
13.5,-0.21186169981956482,0.09941577166318893,-0.17774483561515808,0.07503948360681534,0.43463170528411865,0.05836055055260658
13.55,-0.16522160172462463,0.1099386215209961,-0.1360107958316803,0.0971473902463913,0.4178711175918579,0.04887136444449425
13.6,-0.1865217238664627,0.052370067685842514,-0.0676317811012268,0.08326885849237442,0.3821028470993042,0.04054715111851692
13.65,-0.24070602655410767,0.09945391863584518,-0.08496537804603577,0.08166377246379852,0.3340669870376587,0.07371174544095993
13.7,-0.24989053606987,0.14337444305419922,-0.08777882903814316,0.09210062026977539,0.28207239508628845,0.11134982109069824
13.75,-0.24969717860221863,0.12660884857177734,-0.14416371285915375,0.08369909226894379,0.24162036180496216,0.11554791778326035
13.8,-0.20142289996147156,0.1705617904663086,-0.21291571855545044,0.0817769318819046,0.22118160128593445,0.11163394898176193
13.85,-0.26578280329704285,0.206939697265625,-0.25192680954933167,0.07174421101808548,0.20802640914916992,0.09578856825828552
13.9,-0.35724571347236633,0.3351144790649414,-0.28037145733833313,0.05894184857606888,0.2111426442861557,0.08179312199354172
13.95,-0.4176265597343445,0.3576517105102539,-0.3394937813282013,0.04158609360456467,0.21316295862197876,0.07524540275335312
14.0,-0.5407751798629761,0.29880237579345703,-0.3159560561180115,0.00885443389415741,0.18655304610729218,0.04816668480634689
14.05,-0.5780082941055298,0.2064199298620224,-0.3974422216415405,0.010064557194709778,0.13786722719669342,0.040450453758239746
14.1,-0.573247492313385,0.10500715672969818,-0.4051463007926941,0.022176945582032204,0.0742398351430893,0.011328600347042084
14.15,-0.6537184715270996,0.17605112493038177,-0.4705011248588562,0.045977964997291565,0.01432434469461441,-0.030033458024263382
14.2,-0.5732325315475464,0.16985605657100677,-0.3597472906112671,0.05035813897848129,-0.04784826561808586,-0.06968119740486145
14.25,-0.5311629176139832,0.2228059619665146,-0.2654642164707184,0.04675046354532242,-0.13046705722808838,-0.10341455042362213
14.3,-0.40139883756637573,0.21945856511592865,-0.19281810522079468,0.0287419892847538,-0.21545180678367615,-0.12192003428936005
14.35,-0.26503682136535645,0.24421405792236328,-0.12506580352783203,0.012372907251119614,-0.31413960456848145,-0.12968716025352478
14.4,-0.16016608476638794,0.1909770965576172,-0.04931775853037834,0.002106431871652603,-0.41184306144714355,-0.13375629484653473
14.45,-0.0676427036523819,0.22423553466796875,0.014495891518890858,-0.0011608563363552094,-0.4734343886375427,-0.1294497847557068
14.5,0.0989532470703125,0.2760438919067383,0.12459669262170792,-0.008167419582605362,-0.5000205039978027,-0.1578938364982605
14.55,0.14760679006576538,0.08051872253417969,0.17146490514278412,-0.026734348386526108,-0.5300780534744263,-0.1860032081604004
14.6,0.23602135479450226,0.01569080725312233,0.18783533573150635,-0.01869765669107437,-0.566069483757019,-0.1657734215259552
14.65,0.21157851815223694,-0.03733539208769798,0.21262222528457642,-0.012512024492025375,-0.5976591110229492,-0.1552804410457611
14.7,0.33708131313323975,0.002047546673566103,0.14284691214561462,0.007204357534646988,-0.6134282350540161,-0.10679994523525238
14.75,0.34594205021858215,0.0013094032183289528,0.11879348754882812,0.0011629313230514526,-0.5974090099334717,-0.10072094202041626
14.8,0.2990867793560028,0.11781788617372513,0.09298837184906006,-0.00575106218457222,-0.5669171214103699,-0.08592738211154938
14.85,0.3074719309806824,0.19089889526367188,0.1137690544128418,-0.02810114435851574,-0.5212188959121704,-0.06807971745729446
14.9,0.4129837453365326,0.13282205164432526,0.1620805561542511,-0.04707123339176178,-0.470325231552124,-0.03982052952051163
14.95,0.46290916204452515,0.1311655193567276,0.32643914222717285,-0.06300780922174454,-0.40846776962280273,-0.011222307570278645
15.0,0.5632171630859375,0.14087487757205963,0.520484983921051,-0.08570007234811783,-0.32401782274246216,0.004843972157686949
15.05,0.6695718765258789,0.085634246468544,0.5889548063278198,-0.10144151002168655,-0.19318315386772156,0.0008357035112567246
15.1,0.5537141561508179,-0.04705905169248581,0.703852653503418,-0.0849466472864151,-0.02771756611764431,-0.02134161815047264
15.15,0.5737022161483765,-0.06617545336484909,0.6899805068969727,-0.029589060693979263,0.14743204414844513,0.009163739159703255
15.2,0.49922695755958557,-0.13190172612667084,0.5660910606384277,0.005200381390750408,0.3099995255470276,0.019305234774947166
15.25,0.31693047285079956,-0.12381171435117722,0.4132940471172333,0.021668577566742897,0.45093923807144165,0.032634079456329346
15.3,0.2376827597618103,-0.17507076263427734,0.29813966155052185,0.011803774163126945,0.5345618724822998,0.07111121714115143
15.35,0.20080116391181946,-0.1587991714477539,0.1810116022825241,-0.0011360570788383484,0.5841646790504456,0.11427053809165955
15.4,0.12996375560760498,-0.17583751678466797,0.1414596140384674,0.011582285165786743,0.6346297264099121,0.16245180368423462
15.45,0.15422484278678894,-0.14321422576904297,0.02375708520412445,0.03237167000770569,0.6698746681213379,0.1917906254529953
15.5,0.2019421011209488,-0.24683856964111328,-0.06567163020372391,0.012423552572727203,0.690044641494751,0.22687740623950958
15.55,0.032354921102523804,-0.16729068756103516,-0.08365508168935776,-0.011903181672096252,0.657468318939209,0.32014209032058716
15.6,-0.2408648431301117,0.22919940948486328,-0.18349917232990265,-0.012961283326148987,0.5886677503585815,0.38430818915367126
15.65,-0.5612499713897705,0.48618602752685547,-0.2852553725242615,-0.025282174348831177,0.5105945467948914,0.3521880507469177
15.7,-0.7870848178863525,0.5477590560913086,-0.50138920545578,-0.027758173644542694,0.4371313154697418,0.28413233160972595
15.75,-1.017265796661377,0.576716423034668,-0.6993361711502075,-0.05135947838425636,0.3135576844215393,0.18075020611286163
15.8,-1.084449052810669,0.5994958877563477,-0.8692419528961182,-0.06441770493984222,0.18619321286678314,0.09666668623685837
15.85,-1.1998839378356934,0.4639119803905487,-0.8304985761642456,-0.0891234278678894,0.06065249443054199,0.01451835222542286
15.9,-1.1656277179718018,0.3457631766796112,-0.823341965675354,-0.06979705393314362,-0.11831491440534592,-0.0628405436873436
15.95,-0.9880561828613281,0.40872666239738464,-0.8506383299827576,-0.04272442311048508,-0.33148956298828125,-0.15303179621696472
16.0,-0.7843945026397705,0.33207130432128906,-0.8055392503738403,-0.04618491604924202,-0.5126923322677612,-0.24246610701084137
16.05,-0.5645391345024109,0.30523014068603516,-0.7344837784767151,-0.07160347700119019,-0.6603478193283081,-0.30757513642311096
16.1,-0.26607978343963623,0.3992586135864258,-0.5926629304885864,-0.11107204854488373,-0.8110531568527222,-0.3490263819694519
16.15,0.0631546825170517,0.3540678024291992,-0.32764944434165955,-0.16184571385383606,-0.9300815463066101,-0.408780962228775
16.2,0.40668800473213196,0.2151355892419815,0.1485501527786255,-0.14861136674880981,-0.9503130912780762,-0.43613746762275696
16.25,0.612700343132019,0.095429427921772,0.6272962093353271,-0.12064017355442047,-0.891194224357605,-0.4725714921951294
16.3,0.5612374544143677,-0.2736635208129883,1.0711084604263306,-0.127969428896904,-0.8123985528945923,-0.5058658719062805
16.35,0.5446217656135559,-0.549555778503418,1.221898078918457,-0.09159011393785477,-0.7206794023513794,-0.4329485595226288
16.4,0.5471184253692627,-0.8339967727661133,1.2179161310195923,-0.06615303456783295,-0.62703537940979,-0.31646648049354553
16.45,0.5587787628173828,-0.8189754486083984,1.0541661977767944,-0.076233871281147,-0.5171757936477661,-0.14909325540065765
16.5,0.3709588050842285,-0.5154228210449219,0.5756011605262756,-0.10940712690353394,-0.4119871258735657,-0.009147179313004017
16.55,0.2652626633644104,-0.18052862584590912,-0.038320086896419525,-0.11792857199907303,-0.3309665322303772,0.0926198735833168
16.6,0.10140958428382874,0.14309026300907135,-0.6782456636428833,-0.1069570779800415,-0.2665897607803345,0.13953761756420135
16.65,0.011523932218551636,0.3048257827758789,-0.9423114657402039,-0.08745802193880081,-0.1904325634241104,0.2133232057094574
16.7,-0.07423403859138489,0.2395486980676651,-0.9281098246574402,-0.07009168714284897,-0.12717658281326294,0.21209628880023956
16.75,0.06216055154800415,0.29753971099853516,-0.6388198733329773,-0.04818018153309822,-0.12622079253196716,0.19367621839046478
16.8,0.08647575974464417,0.3260946273803711,-0.23709948360919952,-0.0223630852997303,-0.09632916003465652,0.13824455440044403
16.85,0.14454789459705353,0.3444700241088867,0.04415653273463249,0.0025455541908740997,-0.07079775631427765,0.11194027960300446
16.9,0.19114914536476135,0.31491565704345703,-0.018407804891467094,0.013004250824451447,-0.060748085379600525,0.08470509946346283
16.95,0.07068812847137451,0.2840852737426758,-0.22051876783370972,0.014948232099413872,-0.03665439039468765,0.10827162861824036
17.0,-0.027349598705768585,0.3216695785522461,-0.37490493059158325,0.00953727401793003,-0.038744740188121796,0.11485876888036728
17.05,-0.096961110830307,0.23044872283935547,-0.24536997079849243,0.010053843259811401,-0.10658219456672668,0.07661204785108566
17.1,-0.036311957985162735,0.41314697265625,-0.06070740520954132,0.04921502247452736,-0.15737447142601013,0.05886748060584068
17.15,0.021726209670305252,0.23183345794677734,0.07536716014146805,0.031724680215120316,-0.18553736805915833,-0.03555675223469734
17.2,-0.02476450428366661,0.037055011838674545,0.16618043184280396,0.02236248552799225,-0.19115354120731354,-0.07901743799448013
17.25,-0.07617656141519547,0.05311107262969017,0.22011461853981018,-0.02083650603890419,-0.22406958043575287,-0.10073218494653702
17.3,0.010662168264389038,0.04588603973388672,0.1455763727426529,-0.11428460478782654,-0.2512160539627075,-0.08096841722726822
17.35,0.09697769582271576,0.13329601287841797,-0.10918053239583969,-0.18579457700252533,-0.2335210144519806,-0.00473454175516963
17.4,-0.04913310706615448,0.015436172485351562,-0.09935107082128525,-0.21247544884681702,-0.19291384518146515,0.00507734902203083
17.45,-0.1206522285938263,-0.08655548840761185,0.16500169038772583,-0.19474780559539795,-0.15320751070976257,0.011929652653634548
17.5,-0.14953085780143738,-0.2906465530395508,0.6464212536811829,-0.17732863128185272,-0.1297706514596939,0.01615244895219803
17.55,-0.12522989511489868,-0.1295776516199112,0.8686522245407104,-0.1459478735923767,-0.08243290334939957,0.04156814143061638
17.6,-0.24758611619472504,0.020978912711143494,0.7970811724662781,-0.13546238839626312,-0.013052325695753098,0.037050485610961914
17.65,-0.32065531611442566,-0.1057586818933487,0.8626168966293335,-0.16352465748786926,0.09132977575063705,0.04610634222626686
17.7,-0.3902472257614136,-0.1460600048303604,0.6273762583732605,-0.1965779960155487,0.1951298713684082,0.08859297633171082
17.75,-0.3649691939353943,-0.06343938410282135,0.2790631055831909,-0.2040162980556488,0.2104857861995697,0.1317417323589325
17.8,-0.42432165145874023,-0.009233486838638783,0.016820788383483887,-0.16878294944763184,0.19038468599319458,0.21347132325172424
17.85,-0.35036566853523254,0.1301278918981552,-0.19255460798740387,-0.10849011689424515,0.12744630873203278,0.30404427647590637
17.9,-0.5714297294616699,0.3163337707519531,-0.2760716378688812,-0.08238580822944641,0.018813109025359154,0.2873668372631073
17.95,-0.4882816672325134,0.044756874442100525,0.09178296476602554,-0.03614551201462746,-0.11350692808628082,0.19623209536075592
18.0,-0.3681167662143707,-0.5165882110595703,0.5107124447822571,0.15053319931030273,-0.1510390341281891,0.19637425243854523
18.05,-0.39507585763931274,-0.8997335433959961,0.7920715808868408,0.5479137897491455,-0.04559950903058052,0.39186757802963257
18.1,-0.4732586741447449,-0.9127950668334961,0.6844373345375061,1.021035075187683,0.04683741182088852,0.6612228751182556
18.15,-0.07234829664230347,0.3890829086303711,0.037773121148347855,1.2853736877441406,0.015317047946155071,0.9832549095153809
18.2,-0.7197173833847046,0.9135560989379883,-0.19086489081382751,1.0935149192810059,0.05179565027356148,1.0899089574813843
18.25,-1.0944886207580566,1.2613210678100586,-0.5564423203468323,0.7691302299499512,-0.07775602489709854,1.3177412748336792
18.3,-1.2618038654327393,1.647904396057129,-0.7204334139823914,0.3720175325870514,-0.33143147826194763,1.425676703453064
18.35,-1.0091215372085571,1.1314849853515625,-0.4285513162612915,-0.11822131276130676,-0.6079410910606384,1.3707510232925415
18.4,-0.5040040016174316,1.2197628021240234,0.02250088006258011,-0.46524128317832947,-0.8568378686904907,1.2215595245361328
18.45,-0.18822962045669556,0.42203235626220703,0.2767544090747833,-0.7562418580055237,-0.9411630630493164,0.7705181837081909
18.5,0.21377025544643402,0.4706754684448242,1.095995545387268,-0.9138712286949158,-0.9998012185096741,0.44410908222198486
18.55,0.03646405041217804,0.2799253463745117,0.518498957157135,-0.895756721496582,-0.8988008499145508,-0.21219104528427124
18.6,0.4813340902328491,-0.1411733627319336,0.90313321352005,-0.7016478776931763,-0.7915736436843872,-0.8358014822006226
18.65,0.7488247156143188,-0.688868522644043,1.4081716537475586,-0.26342958211898804,-0.4350026249885559,-1.1853735446929932
18.7,0.9264734983444214,-0.8677778244018555,1.510169506072998,0.41596609354019165,0.0543091781437397,-1.3567347526550293
18.75,1.3007924556732178,-0.8156394958496094,1.3718268871307373,1.168646216392517,0.4014025032520294,-1.579474687576294
18.8,1.3908206224441528,-0.6024236083030701,0.7637643814086914,1.5849416255950928,0.6015574336051941,-1.7253117561340332
18.85,1.1348639726638794,-0.5487985014915466,-0.734907865524292,1.7514142990112305,0.7144445180892944,-1.9078667163848877
18.9,0.5170557498931885,-0.8186215758323669,-1.919721245765686,1.6215447187423706,0.8296087980270386,-1.959829568862915
18.95,-0.43057781457901,-0.3350667655467987,-3.2208385467529297,1.3157719373703003,0.9211668372154236,-1.5342254638671875
19.0,-1.2622039318084717,0.2353830337524414,-3.2931535243988037,0.8020883202552795,0.7349563837051392,-0.724129319190979
19.05,-2.448869228363037,0.7653712630271912,-3.28725004196167,0.2638794481754303,0.31622934341430664,0.09859833866357803
19.1,-2.2780895233154297,1.0977563858032227,-2.421482801437378,-0.37227919697761536,-0.4012286961078644,1.0182303190231323
19.15,-0.790840744972229,1.8029212951660156,-1.6121246814727783,-0.741744339466095,-0.879458487033844,1.420974612236023
19.2,0.20096169412136078,1.2264413833618164,-0.5874127149581909,-0.9860106706619263,-0.8324894309043884,1.1595537662506104
19.25,0.7928980588912964,0.6781253814697266,0.12071823328733444,-1.111968755722046,-0.5801377892494202,0.7401795983314514
19.3,0.7645460367202759,-0.06548117101192474,0.5269324779510498,-1.1534345149993896,-0.4239429533481598,0.29873377084732056
19.35,0.5279287695884705,-0.6386232376098633,0.5597773194313049,-1.0480766296386719,-0.38717758655548096,0.15018273890018463
19.4,0.4321773052215576,-0.9644136428833008,0.4641953408718109,-0.848337709903717,-0.3694567084312439,0.2691338360309601
19.45,0.3252526521682739,-1.1070432662963867,0.10250145941972733,-0.5895578861236572,-0.4283734858036041,0.38222411274909973
19.5,0.4291225075721741,-0.7325878143310547,-0.22661547362804413,-0.36219820380210876,-0.4856530725955963,0.5637204647064209
19.55,0.5506218671798706,0.07425405085086823,-0.2521492838859558,-0.2673344016075134,-0.4106409549713135,0.7285853624343872
19.6,0.6804486513137817,0.7447538375854492,-0.21207313239574432,-0.31900134682655334,-0.23074109852313995,0.6501700282096863
19.65,0.7112584710121155,1.0435295104980469,0.03246104717254639,-0.49001264572143555,-0.015294688753783703,0.40132004022598267
19.7,0.6203793883323669,0.8647956848144531,0.055968668311834335,-0.6749264001846313,0.24171428382396698,0.1987670660018921
19.75,0.6414923667907715,0.5997076034545898,-0.005667445249855518,-0.7286719679832458,0.43794679641723633,0.022853819653391838
19.8,0.4867172837257385,-0.05986689403653145,0.2365829050540924,-0.6449899673461914,0.5527065396308899,-0.17541487514972687
19.85,0.16785091161727905,-0.4908294677734375,0.10248129069805145,-0.44192415475845337,0.6026358604431152,-0.2937110662460327
19.9,-0.2569369375705719,-0.6037044525146484,-0.11448845267295837,-0.16680610179901123,0.6358548402786255,-0.31557971239089966
19.95,-0.40948131680488586,-0.4796476364135742,-0.2708793878555298,0.10293980687856674,0.6339634656906128,-0.3221031129360199
20.0,-0.4868931770324707,-0.6251325607299805,-0.465263307094574,0.3109668791294098,0.5162950158119202,-0.48876550793647766
20.05,-0.7929005026817322,-0.6648130416870117,-0.5806877017021179,0.4192022681236267,0.41532307863235474,-0.5111758708953857
20.1,-0.6854299902915955,-0.11674214899539948,-0.5560207366943359,0.49099141359329224,0.29781854152679443,-0.3152782917022705
20.15,-0.5724436640739441,0.08469198644161224,-0.39898014068603516,0.5052922964096069,0.13485100865364075,-0.3164571523666382
20.2,-0.6357832551002502,0.28751084208488464,-0.09808651357889175,0.46766388416290283,0.007081644143909216,-0.28823351860046387
20.25,-0.6312189102172852,0.3392610251903534,-0.007399161346256733,0.41919174790382385,-0.060776516795158386,-0.18310581147670746
20.3,-0.5544302463531494,0.27933213114738464,0.06844013184309006,0.3207443654537201,-0.1692958027124405,-0.15908074378967285
20.35,-0.6024266481399536,0.014304141514003277,0.229635551571846,0.2198442816734314,-0.22625145316123962,-0.15271562337875366
20.4,-0.5297129154205322,0.07030199468135834,0.2755719721317291,0.15434081852436066,-0.27923500537872314,-0.024569913744926453
20.45,-0.43374907970428467,0.1476869434118271,0.40246903896331787,0.11123925447463989,-0.32609468698501587,0.020660562440752983
20.5,-0.4429057240486145,0.2032785266637802,0.5228387117385864,0.06176675856113434,-0.3117617964744568,-0.010119372978806496
20.55,-0.5063863396644592,0.17747782170772552,0.44301000237464905,0.01696936786174774,-0.28507089614868164,-0.007944745942950249
20.6,-0.45577090978622437,0.1138753741979599,0.5298157930374146,-0.017274465411901474,-0.2623191177845001,0.004701028577983379
20.65,-0.3957017660140991,0.10618685185909271,0.6311375498771667,-0.02612195536494255,-0.2359895408153534,0.030107488855719566
20.7,-0.23150569200515747,0.11033819615840912,0.6819727420806885,-0.024788036942481995,-0.18170465528964996,0.03138956055045128
20.75,-0.2715112268924713,0.1104888767004013,0.7814915180206299,-0.04520121216773987,-0.08418761193752289,-2.1736783310188912e-05
20.8,-0.28228694200515747,0.099515900015831,0.8056980967521667,-0.055699076503515244,0.03531469777226448,-0.009428680874407291
20.85,-0.21318991482257843,0.0896444171667099,0.6293648481369019,-0.03829644247889519,0.13410606980323792,0.00072554248617962
20.9,-0.1376073807477951,0.06805896013975143,0.37854674458503723,-0.034181155264377594,0.19859039783477783,-0.03741926699876785
20.95,-0.26678743958473206,-0.017029771581292152,0.12940925359725952,-0.041967153549194336,0.22938206791877747,-0.055037721991539
21.0,-0.329948753118515,-0.04364681988954544,-0.05528175085783005,-0.04152684658765793,0.20146876573562622,-0.027721213176846504
21.05,-0.18582221865653992,0.024237629026174545,-0.15042993426322937,-0.030107013881206512,0.138791024684906,0.013727013021707535
21.1,-0.17540228366851807,0.07836055755615234,-0.2970632314682007,-0.025581950321793556,0.07736600935459137,0.05180799216032028
21.15,-0.08342789858579636,0.29965877532958984,-0.49604085087776184,-0.022323837503790855,0.05152122676372528,0.07698383927345276
21.2,-0.045299917459487915,0.23203086853027344,-0.7585022449493408,-0.03826313093304634,0.027933914214372635,0.05326753482222557
21.25,-0.06087377667427063,0.21297074854373932,-0.8996508717536926,-0.06301454454660416,0.006460502278059721,0.06636828184127808
21.3,-0.08632884919643402,0.18011188507080078,-0.9078227281570435,-0.06760592013597488,-0.04401371628046036,0.066536545753479
21.35,-0.08643341064453125,0.19705772399902344,-0.7965577840805054,-0.026399241760373116,-0.0973501056432724,0.05817841738462448
21.4,0.06951569020748138,0.2879619598388672,-0.49020135402679443,0.02775355614721775,-0.11518041789531708,0.04447483643889427
21.45,0.11020900309085846,0.26798439025878906,-0.06933045387268066,0.06574961543083191,-0.10174152255058289,-0.023128729313611984
21.5,0.17375436425209045,0.07356071472167969,0.2825198173522949,0.08927037566900253,-0.06988883018493652,-0.093425452709198
21.55,0.15998463332653046,-0.10580825805664062,0.3906823396682739,0.12627257406711578,-0.009818370454013348,-0.09409313648939133
21.6,0.19976767897605896,-0.31763267517089844,0.5832124352455139,0.1250763237476349,0.057147033512592316,-0.045808110386133194
21.65,0.12833088636398315,-0.3210792541503906,0.6357192993164062,0.1031888872385025,0.14043587446212769,0.022403568029403687
21.7,0.02345837652683258,0.03779887780547142,0.5422646999359131,0.09163825958967209,0.23668791353702545,0.09509605914354324
21.75,-0.17355288565158844,0.05625246837735176,0.5191436409950256,0.07766973972320557,0.3246009945869446,0.08027873188257217
21.8,-0.20180898904800415,0.116667740046978,0.3964757025241852,0.06533947587013245,0.39004603028297424,0.08597085624933243
21.85,-0.14582303166389465,0.09979533404111862,0.36336082220077515,0.05013017728924751,0.4464234709739685,0.08669112622737885
21.9,-0.20161542296409607,0.0666341707110405,0.28686726093292236,0.0578325092792511,0.4865124821662903,0.07361465692520142
21.95,-0.12640514969825745,0.09904574602842331,0.23120206594467163,0.06748756766319275,0.5173593759536743,0.06941274553537369
22.0,-0.21994228661060333,0.07604312151670456,0.20968779921531677,0.05105948448181152,0.5443663597106934,0.07964881509542465
22.05,-0.20887328684329987,0.1693582534790039,0.14551423490047455,0.022644486278295517,0.5465702414512634,0.09257283806800842
22.1,-0.27496033906936646,0.0982208177447319,0.183630108833313,0.010226324200630188,0.537771999835968,0.09138192236423492
22.15,-0.1901356428861618,0.20725440979003906,0.17908421158790588,0.012324569746851921,0.5160777568817139,0.11205369979143143
22.2,-0.1467713713645935,0.22611331939697266,0.10187706351280212,-0.004745779559016228,0.5203379988670349,0.09234792739152908
22.25,-0.13903558254241943,0.16257667541503906,0.11645058542490005,-0.025710755959153175,0.5448099374771118,0.0738312155008316
22.3,-0.14589577913284302,0.13176918029785156,0.05472484230995178,-0.032513584941625595,0.5495571494102478,0.05868566036224365
22.35,-0.14261920750141144,0.19518375396728516,-0.08898011595010757,-0.02400311827659607,0.5512673854827881,0.0451151467859745
22.4,-0.2336616814136505,0.2361459732055664,-0.15894266963005066,-0.024097822606563568,0.5712740421295166,0.0032117420341819525
22.45,-0.3476257026195526,0.045961372554302216,-0.14085188508033752,-0.024941330775618553,0.569826602935791,-0.03682467341423035
22.5,-0.25886717438697815,0.09935092180967331,-0.18986274302005768,0.0009451340883970261,0.5397700667381287,-0.03317565470933914
22.55,-0.2941952049732208,0.08599185198545456,-0.22207675874233246,0.005754736252129078,0.4991440773010254,-0.0384468175470829
22.6,-0.3588182330131531,-0.033559806644916534,-0.18150588870048523,-0.0037224553525447845,0.46382421255111694,-0.03327448293566704
22.65,-0.36389049887657166,-0.050204284489154816,-0.21245934069156647,-0.007059215568006039,0.4164937734603882,-0.02371363528072834
22.7,-0.38634157180786133,0.061769478023052216,-0.20684872567653656,-0.016013843938708305,0.3437109589576721,-0.024815835058689117
22.75,-0.3802487850189209,0.146146759390831,-0.14613378047943115,-0.019400443881750107,0.26188886165618896,-0.02378435805439949
22.8,-0.3381187915802002,0.20483015477657318,-0.06939739733934402,-0.03743204474449158,0.15541492402553558,-0.021524550393223763
22.85,-0.34375402331352234,0.1269378513097763,0.000924762396607548,-0.06450354307889938,0.05056833103299141,-0.028494196012616158
22.9,-0.3828616142272949,0.18700502812862396,-0.0794299840927124,-0.07980993390083313,-0.04205432906746864,-0.06927800178527832
22.95,-0.42270851135253906,0.24274347722530365,-0.1520196497440338,-0.07322343438863754,-0.13905474543571472,-0.1334090232849121
23.0,-0.386992871761322,0.31052684783935547,-0.18671561777591705,-0.07192504405975342,-0.23325443267822266,-0.16874083876609802
23.05,-0.32689785957336426,0.3386697769165039,-0.010847468860447407,-0.09272274374961853,-0.27480435371398926,-0.19026035070419312
23.1,-0.3371010422706604,0.23730657994747162,0.2866289019584656,-0.11436903476715088,-0.27713873982429504,-0.21724505722522736
23.15,-0.28797078132629395,0.08968637883663177,0.5941357612609863,-0.09913484752178192,-0.2901615500450134,-0.25427016615867615
23.2,-0.29866278171539307,-0.0132494131103158,0.6866422295570374,-0.03796001151204109,-0.32788991928100586,-0.24792833626270294
23.25,-0.245941162109375,-0.0115480562672019,0.6204720735549927,0.003211408853530884,-0.3354429006576538,-0.21030867099761963
23.3,-0.18802864849567413,-0.14324094355106354,0.5478278994560242,-0.00432940199971199,-0.2676682770252228,-0.17082786560058594
23.35,-0.1626187562942505,-0.2123289257287979,0.5132670402526855,-0.01922355219721794,-0.1775258183479309,-0.11498319357633591
23.4,-0.21364477276802063,-0.1354513317346573,0.5263456702232361,-0.03096211515367031,-0.06085999682545662,-0.06616540998220444
23.45,-0.21146677434444427,-0.22450639307498932,0.5095728039741516,-0.06325490772724152,0.06935076415538788,-0.04413312301039696
23.5,-0.0991981029510498,-0.32201480865478516,0.4214508831501007,-0.07087593525648117,0.1715487837791443,-0.038946133106946945
23.55,0.079756960272789,-0.21994686126708984,0.18902836740016937,-0.031674955040216446,0.2288254201412201,-0.004474240820854902
23.6,0.06860065460205078,-0.049361228942871094,0.08515256643295288,0.02398345246911049,0.23599007725715637,0.00042465567821636796
23.65,0.14713940024375916,0.07073879987001419,-0.1427801549434662,0.06773001700639725,0.23233312368392944,-0.0035122898407280445
23.7,0.023884054273366928,-0.06838321685791016,-0.17283277213573456,0.058573294430971146,0.2000967264175415,-0.05378331243991852
23.75,0.0340389721095562,-0.01771068200469017,-0.18255750834941864,0.08088331669569016,0.17684240639209747,-0.04583682492375374
23.8,0.10149789601564407,0.14298629760742188,-0.23753634095191956,0.12093045562505722,0.14158542454242706,-0.037590764462947845
23.85,0.1710139811038971,0.13428594172000885,-0.4000474214553833,0.11948437243700027,0.09247829765081406,-0.08886444568634033
23.9,0.07034529745578766,0.04163742810487747,-0.5057886242866516,0.11280515789985657,0.055182669311761856,-0.14203029870986938
23.95,-0.01637609302997589,-0.0035648299381136894,-0.47519969940185547,0.12399075925350189,0.008426649495959282,-0.16951331496238708
24.0,-0.05823299288749695,0.13169097900390625,-0.4332466125488281,0.12984579801559448,-0.03261084854602814,-0.18391752243041992
24.05,-0.12319977581501007,0.14275550842285156,-0.49127712845802307,0.1370851993560791,-0.06986452639102936,-0.195722758769989
24.1,-0.20496191084384918,0.2341909408569336,-0.5646722316741943,0.1432061493396759,-0.10915852338075638,-0.206065833568573
24.15,-0.2405213862657547,0.33106327056884766,-0.6179373264312744,0.13325458765029907,-0.13705410063266754,-0.21036452054977417
24.2,-0.2918849289417267,0.3626585006713867,-0.6370631456375122,0.1040511354804039,-0.16445571184158325,-0.24044668674468994
24.25,-0.36450448632240295,0.35454654693603516,-0.6562417149543762,0.07666479051113129,-0.1905224323272705,-0.278604120016098
24.3,-0.3657723665237427,0.3892030715942383,-0.6424208283424377,0.06524800509214401,-0.2214953750371933,-0.2675740718841553
24.35,-0.33852776885032654,0.31557273864746094,-0.5091058015823364,0.02077925205230713,-0.260195791721344,-0.2696889042854309
24.4,-0.3201887011528015,0.25994396209716797,-0.40493708848953247,-0.02058282494544983,-0.30953869223594666,-0.27212271094322205
24.45,-0.20129166543483734,0.3632478713989258,-0.33365729451179504,-0.02537943422794342,-0.35239022970199585,-0.21669039130210876
24.5,-0.1523008495569229,0.3402566909790039,-0.13070853054523468,-0.046547211706638336,-0.35330867767333984,-0.23968520760536194
24.55,-0.011491551995277405,0.23608875274658203,-0.043231479823589325,-0.051308829337358475,-0.3552308678627014,-0.31005731225013733
24.6,0.13510683178901672,0.1279897689819336,-0.013837829232215881,-0.039312221109867096,-0.36324697732925415,-0.3454887270927429
24.65,0.15305005013942719,0.01678944006562233,0.052304498851299286,-0.03889833390712738,-0.37096932530403137,-0.360196977853775
24.7,0.2328651249408722,0.03269100561738014,0.11321035772562027,-0.027942605316638947,-0.3889705240726471,-0.3381653130054474
24.75,0.23027800023555756,0.1778726577758789,0.10340731590986252,-0.009301207959651947,-0.39663785696029663,-0.31889498233795166
24.8,0.2993413507938385,0.16086387634277344,0.2690392732620239,-0.009210474789142609,-0.3780508041381836,-0.30659711360931396
24.85,0.480277419090271,0.12232399731874466,0.36674293875694275,-0.014688439667224884,-0.3442096412181854,-0.30905938148498535
24.9,0.5654668807983398,-0.044468868523836136,0.4273063540458679,-0.017489947378635406,-0.2913191020488739,-0.30309492349624634
24.95,0.7520914077758789,-0.18037699162960052,0.4178404211997986,-0.006138220429420471,-0.21207569539546967,-0.25822073221206665
25.0,0.8875545859336853,-0.2421541064977646,0.3753429055213928,-0.004073679447174072,-0.05279718339443207,-0.1621370017528534
25.05,0.8754206299781799,-0.21284006536006927,0.38287219405174255,-0.018647704273462296,0.17851395905017853,-0.03439157083630562
25.1,0.7580218315124512,-0.1135701984167099,0.3878721296787262,-0.03205391764640808,0.4078018069267273,0.0840315967798233
25.15,0.48839670419692993,0.058794986456632614,0.30342286825180054,-0.044131241738796234,0.5799896717071533,0.12830787897109985
25.2,0.03770166635513306,0.3248271942138672,0.03454897925257683,-0.0638432502746582,0.6592391729354858,0.13127414882183075
25.25,-0.545718252658844,0.5197591781616211,-0.26408687233924866,-0.10847681015729904,0.6258209943771362,0.10138531774282455
25.3,-0.9330248832702637,0.6320466995239258,-0.5648502111434937,-0.14511434733867645,0.46308496594429016,0.06811339408159256
25.35,-1.2106845378875732,0.5397872924804688,-0.7362003326416016,-0.15367738902568817,0.20786461234092712,-0.029664399102330208
25.4,-1.0189015865325928,0.3918904960155487,-0.8205463290214539,-0.1394209861755371,-0.056046221405267715,-0.14560961723327637
25.45,-0.37844598293304443,0.3735647201538086,-0.653433084487915,-0.13060763478279114,-0.2260555624961853,-0.20960265398025513
25.5,0.2552420496940613,0.15430165827274323,-0.13340997695922852,-0.1326170116662979,-0.2742379903793335,-0.27818962931632996
25.55,0.7900477647781372,-0.08874987065792084,0.38024449348449707,-0.09042729437351227,-0.2517637014389038,-0.3134375512599945
25.6,1.1738295555114746,-0.2811393439769745,0.5352234840393066,-0.029269099235534668,-0.13951241970062256,-0.2693125009536743
25.65,1.0976178646087646,-0.3755302131175995,0.429525762796402,0.006815850734710693,0.06691324710845947,-0.2052488476037979
25.7,0.6176823973655701,-0.4298066794872284,0.16761930286884308,-0.012004174292087555,0.21967166662216187,-0.11110904067754745
25.75,0.047439105808734894,-0.43207645416259766,-0.2088451385498047,-0.031047480180859566,0.21961472928524017,0.08456818014383316
25.8,-0.6129814386367798,-0.6680173873901367,-0.37305721640586853,-0.028843209147453308,0.02249903604388237,0.33168283104896545
25.85,-0.7953030467033386,-1.0954904556274414,-0.6852768063545227,0.020208463072776794,-0.38675302267074585,0.6843845844268799
25.9,-0.4130951166152954,-1.077855110168457,-0.6479006409645081,0.01718008518218994,-0.9038184881210327,1.2492785453796387
25.95,-0.17491860687732697,-0.33098411560058594,-0.5807615518569946,0.026311635971069336,-1.1996747255325317,1.899444580078125
26.0,0.09703673422336578,0.6011905670166016,-0.3918558359146118,-0.010816752910614014,-1.240645408630371,2.2706470489501953
26.05,-0.1544075608253479,0.39536571502685547,-0.42008867859840393,-0.11765414476394653,-1.1758872270584106,2.1953699588775635
26.1,-0.27787941694259644,0.08649253845214844,-0.4497576057910919,-0.18955838680267334,-1.1507258415222168,2.2666358947753906
26.15,-0.3901674747467041,0.32691478729248047,-0.5652135014533997,-0.25131624937057495,-1.1322264671325684,2.437270402908325
26.2,-0.525992214679718,0.25511837005615234,-0.17881181836128235,-0.2283916473388672,-1.0141741037368774,2.2539968490600586
26.25,-0.6630584597587585,1.0841131210327148,0.4543381631374359,0.09537702798843384,-0.7314659953117371,1.7230836153030396
26.3,-0.5184950232505798,1.196824073791504,1.0448815822601318,0.31741461157798767,-0.33697742223739624,0.8879928588867188
26.35,-0.7266865372657776,2.0114517211914062,1.2209199666976929,0.03848917782306671,-0.12568441033363342,0.38704681396484375
26.4,-1.4424984455108643,2.3817100524902344,1.1211837530136108,-0.571337878704071,-0.08932176977396011,0.2662207782268524
26.45,-1.5106408596038818,1.4347858428955078,0.6880267262458801,-1.0187764167785645,-0.08740390837192535,-0.14321023225784302
26.5,-1.280683159828186,0.3724336326122284,0.29517772793769836,-1.2465150356292725,-0.17055828869342804,-0.3162324130535126
26.55,-1.0682642459869385,-0.5573587417602539,0.0021973683033138514,-1.1850038766860962,-0.3568977415561676,-0.5437812805175781
26.6,-0.9050252437591553,-1.0451383590698242,-0.10122615098953247,-0.9383421540260315,-0.5125102996826172,-0.7032876014709473
26.65,-0.6725400686264038,-1.1802234649658203,-0.22731509804725647,-0.5865738391876221,-0.5978255867958069,-0.8328176736831665
26.7,-0.259581595659256,-1.3173532485961914,-0.11558052152395248,-0.12970155477523804,-0.637817919254303,-0.9777559638023376
26.75,0.15179374814033508,-1.677506446838379,0.37892279028892517,0.4024334251880646,-0.6460520625114441,-1.0538643598556519
26.8,0.6669430136680603,-1.4989042282104492,0.8181763291358948,0.960113525390625,-0.6554988026618958,-1.0844793319702148
26.85,0.9677492380142212,-1.2358293533325195,1.2514843940734863,1.502227544784546,-0.5649439096450806,-1.201592206954956
26.9,0.9297378063201904,-1.086909294128418,1.3371230363845825,1.7528225183486938,-0.30532801151275635,-1.0614497661590576
26.95,0.5649008750915527,-0.39238834381103516,1.0329487323760986,1.689968466758728,-0.11087138205766678,-0.7288970351219177
27.0,0.4987625479698181,0.28040027618408203,0.6377295255661011,1.5247859954833984,-0.1058882549405098,-0.5934985876083374
27.05,0.10962625592947006,0.20346927642822266,-0.03260253369808197,1.2618447542190552,-0.06055446341633797,-0.5267280340194702
27.1,0.0845000296831131,0.40948486328125,-0.3822439908981323,0.8513980507850647,0.02118929661810398,-0.007639556657522917
27.15,0.2003655582666397,1.5254526138305664,-0.6404698491096497,0.5005762577056885,0.10631242394447327,0.12964214384555817
27.2,-0.6379634141921997,0.6662759780883789,-1.0803663730621338,0.2190394550561905,0.24569325149059296,-0.18752232193946838
27.25,-0.57637619972229,0.6957921981811523,-1.0557910203933716,-0.12137074768543243,0.19009721279144287,0.10602907091379166
27.3,-0.30635055899620056,0.6345624923706055,-0.8290392756462097,-0.341194748878479,0.0870845690369606,0.2687327563762665
27.35,-0.31163179874420166,0.6455907821655273,-0.3920309841632843,-0.3628472685813904,-0.022371556609869003,0.1408560574054718
27.4,-0.24233216047286987,-0.1643829345703125,-0.1435379534959793,-0.3303801715373993,-0.17761893570423126,0.012810582295060158
27.45,0.19878506660461426,-0.5378227233886719,-0.33069220185279846,-0.2842869162559509,-0.28178519010543823,0.1777305155992508
27.5,0.2834662199020386,-0.8010740280151367,-0.39868980646133423,-0.2699905037879944,-0.3295021653175354,0.24700947105884552
27.55,0.45486077666282654,-0.5481376647949219,-0.2126225233078003,-0.39066627621650696,-0.26447010040283203,0.48305684328079224
27.6,0.34500154852867126,0.17269136011600494,0.06687358021736145,-0.49932077527046204,-0.12012112885713577,0.5212445855140686
27.65,-0.07943682372570038,0.25978851318359375,0.18582937121391296,-0.46506983041763306,-0.10773009061813354,0.36474406719207764
27.7,-0.23497724533081055,0.08411215990781784,-0.019840633496642113,-0.28899770975112915,-0.16688546538352966,0.2792728543281555
27.75,0.1053478941321373,0.1835470199584961,0.1944320648908615,-0.12072178721427917,-0.20760302245616913,0.3208998739719391
27.8,0.2548677921295166,-0.0748739168047905,0.04769819602370262,-0.043501242995262146,-0.10935256630182266,0.19945073127746582
27.85,0.36881211400032043,0.2288065105676651,-0.10109084099531174,-0.12984250485897064,-0.016430703923106194,0.15032517910003662
27.9,0.3917420208454132,0.13891126215457916,-0.14709040522575378,-0.3502587378025055,0.17461715638637543,0.16917867958545685
27.95,0.546640932559967,0.6376419067382812,-0.109613336622715,-0.5790727734565735,0.4247279465198517,0.18669885396957397
28.0,0.4862174987792969,0.1832895427942276,-0.13928934931755066,-0.7432661056518555,0.7168200016021729,-0.02338283695280552
28.05,0.6069652438163757,0.1056223064661026,0.013327541761100292,-0.8833508491516113,1.0471855401992798,-0.020887432619929314
28.1,0.6610453724861145,0.22756387293338776,0.13859009742736816,-0.9095667600631714,1.3673028945922852,-0.03378291800618172
28.15,0.43930619955062866,-0.31935977935791016,0.16515463590621948,-0.7884852886199951,1.5920300483703613,-0.13197046518325806
28.2,0.43224573135375977,-0.7136821746826172,0.3289174437522888,-0.5476058721542358,1.7531404495239258,-0.04047573357820511
28.25,0.42824023962020874,-0.7460575103759766,0.19013647735118866,-0.17890366911888123,1.8720040321350098,0.11204666644334793
28.3,0.4613035321235657,-1.132035255432129,0.07601694017648697,0.20660658180713654,1.8562395572662354,0.23044273257255554
28.35,0.42759406566619873,-1.0078439712524414,0.07256431877613068,0.6666678190231323,1.8526713848114014,0.43626028299331665
28.4,-0.10981575399637222,-0.4371194839477539,0.16478857398033142,1.2527475357055664,1.954329252243042,0.6150588989257812
28.45,-0.8378145098686218,1.0695085525512695,0.19367139041423798,1.7849349975585938,1.7800644636154175,0.618881106376648
28.5,-1.0866848230361938,1.3764896392822266,0.2937833070755005,1.6329985857009888,1.3430413007736206,0.04507742449641228
28.55,-1.510357141494751,1.1968297958374023,0.12143386155366898,1.1589653491973877,1.206959843635559,-0.16558706760406494
28.6,-2.001889705657959,0.8725699782371521,0.11007746309041977,0.8588031530380249,0.8887097239494324,0.052544888108968735
28.65,-1.8820215463638306,0.7280434966087341,-0.19908951222896576,0.7773101329803467,0.5921961665153503,0.2564588189125061
28.7,-1.394782304763794,0.385799378156662,-0.2677185535430908,0.6530163288116455,0.32905861735343933,0.14501649141311646
28.75,-0.7321574687957764,-0.253849059343338,-0.3568166196346283,0.4891083538532257,-0.0056134178303182125,-0.16683107614517212
28.8,-0.035908445715904236,-1.166020393371582,-0.5653164386749268,0.5174786448478699,-0.1353306919336319,-0.31578078866004944
28.85,-0.857962965965271,-0.1039591059088707,-0.13313528895378113,0.7534164786338806,-0.34118813276290894,-0.05562401935458183
28.9,-0.1397094577550888,0.5865631103515625,0.7276169061660767,0.7653399109840393,-0.7551034092903137,0.016485609114170074
28.95,0.12461798638105392,0.07171249389648438,0.520003080368042,0.7403200268745422,-0.5620569586753845,-0.07810156047344208
29.0,-0.17117111384868622,-0.28234291076660156,0.12301931530237198,0.6427754759788513,-0.3542816638946533,-0.15049827098846436
29.05,-0.3228282332420349,-0.2581520080566406,-0.14354874193668365,0.5891584157943726,-0.449606329202652,-0.10970442742109299
29.1,-0.727424144744873,-0.36841678619384766,-0.795777440071106,0.5546517968177795,-0.5735691785812378,-0.04090023413300514
29.15,-1.4847509860992432,0.05905911326408386,-1.072856068611145,0.5796471238136292,-0.7905327677726746,-0.07786030322313309
29.2,-0.305424302816391,1.1881484985351562,0.33746543526649475,0.5281322002410889,-1.1586990356445312,-0.06330204755067825
29.25,-1.1997458934783936,0.471680611371994,0.1306096762418747,0.14409136772155762,-1.1142123937606812,-0.33269575238227844
29.3,-0.9792341589927673,0.8136253356933594,-0.22002661228179932,0.2234935462474823,-1.3867722749710083,-0.31251588463783264
29.35,0.15093035995960236,1.0817327499389648,0.7686119675636292,0.17686666548252106,-1.4223287105560303,-0.20012252032756805
29.4,0.38840532302856445,-0.2200164645910263,0.2763160765171051,0.0872373878955841,-0.9997130632400513,-0.6055316925048828
29.45,0.7509506940841675,0.15293695032596588,0.7421545386314392,0.1875923126935959,-0.8610016703605652,-0.45717689394950867
29.5,0.567678689956665,-0.21519947052001953,0.9612400531768799,0.14135007560253143,-0.4257325828075409,-0.602053165435791
29.55,0.47690486907958984,-0.5876836776733398,1.2105746269226074,0.11640672385692596,-0.20897555351257324,-0.4602327048778534
29.6,0.9976328611373901,-0.8419513702392578,1.0113542079925537,0.2878991663455963,0.028020819649100304,-0.16119518876075745
29.65,-0.17920750379562378,-0.3378620445728302,1.0283466577529907,0.3447364866733551,0.3168931007385254,-0.04320231452584267
29.7,-0.30971571803092957,-0.19380666315555573,1.1150659322738647,0.1822206676006317,0.3118899166584015,-0.06661690026521683
29.75,-0.2476140409708023,-0.1955404430627823,0.6899253129959106,0.15034034848213196,0.3238758146762848,-0.04598674178123474
29.8,-0.1278490126132965,-0.07249356061220169,0.20578791201114655,0.1501627266407013,0.37795281410217285,-0.0746937245130539
29.85,-0.2240748107433319,-0.09362698346376419,-0.10271034389734268,0.15669462084770203,0.49082574248313904,-0.1998470276594162
29.9,-0.3370699882507324,-0.08612824231386185,-0.14086857438087463,0.11013507097959518,0.4245237410068512,-0.20270507037639618
29.95,-0.26104313135147095,0.24704264104366302,0.4575726091861725,0.03005172684788704,0.2716336250305176,-0.14929533004760742
30.0,-0.2546369135379791,0.4438733756542206,0.8325010538101196,-0.15034419298171997,0.2353314757347107,-0.17569003999233246
30.05,-0.20658603310585022,0.7226848602294922,0.636228621006012,-0.3438650071620941,0.22988176345825195,-0.2633815407752991
30.1,-0.5004385709762573,0.6087665557861328,-0.3537738621234894,-0.5140994191169739,0.1329907774925232,-0.36647337675094604
30.15,-0.4027687609195709,0.39015769958496094,-0.6625069975852966,-0.6357505321502686,-0.12921978533267975,-0.4093782305717468
30.2,-0.019673287868499756,0.44982337951660156,-0.5506595969200134,-0.6010628342628479,-0.2891201078891754,-0.42698556184768677
30.25,0.30757707357406616,0.4415464401245117,0.043740637600421906,-0.5276272296905518,-0.27999913692474365,-0.48128455877304077
30.3,0.294220894575119,0.6733779907226562,0.8230665326118469,-0.41234874725341797,0.022063719108700752,-0.7729969024658203
30.35,0.3173064589500427,0.3341035842895508,0.9532553553581238,-0.23971563577651978,0.44257238507270813,-1.2684346437454224
30.4,0.6900235414505005,-0.09402941167354584,0.5937049388885498,-0.10264724493026733,0.639552891254425,-1.4530413150787354
30.45,0.8130258917808533,0.03091432712972164,0.24244338274002075,-0.1123274564743042,0.665940523147583,-1.3925005197525024
30.5,0.28982606530189514,0.09225846827030182,-0.4369887411594391,-0.17315581440925598,0.7242907285690308,-1.2468883991241455
30.55,-0.07865312695503235,-0.14628218114376068,-1.105841040611267,-0.10763996839523315,0.6129526495933533,-1.1111879348754883
30.6,-0.1430092304944992,-0.1418609619140625,-0.9840381741523743,-0.02088502049446106,0.35404449701309204,-0.8648765087127686
30.65,-0.2554503381252289,-0.08987712860107422,-0.37066352367401123,0.061651572585105896,0.05621964484453201,-0.4468803405761719
30.7,-0.08907175064086914,-0.18167495727539062,0.4439038038253784,0.2563532590866089,-0.17338784039020538,-0.2024880051612854
30.75,0.43553316593170166,0.0033683807123452425,0.8483411073684692,0.46472495794296265,-0.10012097656726837,-0.36450910568237305
30.8,0.4031352400779724,-0.9481477737426758,1.1785213947296143,0.39087074995040894,0.19510583579540253,-0.6199806928634644
30.85,0.3663756251335144,-0.881678581237793,0.749724805355072,0.34338852763175964,0.47606906294822693,-0.4959408640861511
30.9,0.728667140007019,-1.1628236770629883,0.5663804411888123,0.3966628909111023,0.7154124975204468,-0.5051871538162231
30.95,1.0949019193649292,-1.0279035568237305,-0.04279214143753052,0.5222651362419128,0.932624101638794,-0.30541056394577026
31.0,1.3507965803146362,0.01484779641032219,-0.30031871795654297,0.650265097618103,1.1948801279067993,-0.16391991078853607
31.05,0.4493006467819214,0.28956320881843567,-0.7253417372703552,0.446659654378891,1.4526441097259521,-0.2664896845817566
31.1,0.38283419609069824,0.649409294128418,-0.4622461497783661,0.24318023025989532,1.2698439359664917,0.04765114188194275
31.15,0.3632183074951172,0.4921579360961914,-0.06630991399288177,0.13735362887382507,1.0484206676483154,0.16165266931056976
31.2,0.3871661126613617,0.5131320953369141,0.09233445674180984,0.11750322580337524,0.844237208366394,0.03443644195795059
31.25,0.39109548926353455,0.6352663040161133,-0.10688971728086472,0.18935471773147583,0.656002938747406,-0.18492724001407623
31.3,-0.06876923143863678,0.2640218734741211,-0.4617961049079895,0.24044302105903625,0.5397927165031433,-0.3873412609100342
31.35,-0.1579597294330597,0.014842034317553043,-0.46296459436416626,0.3309258818626404,0.22249256074428558,-0.38415566086769104
31.4,0.07171480357646942,-0.11550425738096237,-0.4494801163673401,0.3663707673549652,-0.050601646304130554,-0.367801308631897
31.45,0.3477626144886017,0.09166814386844635,-0.4086068570613861,0.3366813063621521,-0.13565778732299805,-0.38474029302597046
31.5,0.26293331384658813,0.45684337615966797,-0.3194173574447632,0.18264152109622955,-0.2039957195520401,-0.359138548374176
31.55,-0.11860130727291107,0.9828996658325195,-0.2689663767814636,0.01777368038892746,-0.353862464427948,-0.21630068123340607
31.6,-0.4351465702056885,1.1670074462890625,0.019162064418196678,-0.04355527460575104,-0.40200018882751465,-0.21621094644069672
31.65,-0.09763447940349579,0.39916229248046875,0.2704855501651764,-0.09229987114667892,-0.3550868630409241,-0.29011765122413635
31.7,0.11570930480957031,-1.0898170471191406,0.7156694531440735,-0.06663575023412704,-0.3242853879928589,-0.34454065561294556
31.75,0.4592167139053345,-1.3213586807250977,0.5094838738441467,0.15469615161418915,-0.3780999183654785,-0.5196681618690491
31.8,-0.047451309859752655,-0.3624153137207031,-0.1846732348203659,0.2290959358215332,-0.3057800829410553,-0.64693284034729
31.85,-0.49899905920028687,0.507594108581543,-0.5222774744033813,0.10479719936847687,-0.38054728507995605,-0.44827932119369507
31.9,0.054181478917598724,0.6944999694824219,-0.1983315646648407,-0.06069551035761833,-0.5589286088943481,-0.12277626991271973
31.95,0.11499466001987457,0.5731143951416016,0.18678711354732513,-0.11356644332408905,-0.4218517541885376,-0.07564997673034668
32.0,-0.08493001759052277,-0.07585430890321732,0.12861669063568115,-0.018250305205583572,-0.2541998326778412,-0.20010937750339508
32.05,0.15053518116474152,-0.29203128814697266,0.3116026222705841,0.03533440828323364,-0.2508377432823181,-0.25572046637535095
32.1,-0.1028335765004158,-0.21796321868896484,0.01154582854360342,-0.10826899111270905,-0.29462772607803345,-0.2063073068857193
32.15,0.28675806522369385,0.4065885543823242,-0.3995897173881531,-0.18912513554096222,-0.4227355718612671,0.1381359100341797
32.2,-0.264043927192688,0.16028976440429688,-0.20771223306655884,-0.19462811946868896,-0.22560855746269226,0.350053071975708
32.25,-0.13833023607730865,0.061673153191804886,0.5390784740447998,-0.1839255690574646,-0.16027092933654785,0.3282555639743805
32.3,-0.26944148540496826,0.11446856707334518,0.2743976414203644,-0.1212780624628067,-0.08409488946199417,0.07258357852697372
32.35,-0.41249600052833557,0.6878061294555664,-0.6957192420959473,-0.010845189914107323,-0.1014677882194519,-0.07962184399366379
32.4,0.48225536942481995,1.005305290222168,-0.8478995561599731,-0.08368916064500809,-0.1522059589624405,0.28995513916015625
32.45,0.37072664499282837,-0.10908030718564987,0.261649489402771,-0.28119927644729614,0.11953388154506683,0.5400509834289551
32.5,0.30345815420150757,-0.7361812591552734,0.8658303618431091,-0.24763146042823792,0.1324693113565445,0.47230905294418335
32.55,0.0184156596660614,-0.3263425827026367,0.9674962162971497,0.011237263679504395,0.13476905226707458,0.2260405570268631
32.6,-0.10727491974830627,-0.16976357996463776,0.7318642139434814,0.055477265268564224,0.07341472804546356,-0.04706386849284172
32.65,0.2440447062253952,-0.29676342010498047,0.49288052320480347,0.027626289054751396,-0.1433238983154297,-0.09692404419183731
32.7,0.4098200500011444,-0.008193005807697773,0.11129994690418243,0.0879904255270958,-0.16137567162513733,-0.11625444144010544
32.75,0.24509567022323608,0.34667015075683594,-0.15269115567207336,0.1005868911743164,-0.07397783547639847,-0.09933452308177948
32.8,0.10409443080425262,0.4936094284057617,-0.2925589382648468,-0.02417857199907303,-0.08284788578748703,0.015394264832139015
32.85,0.2854524254798889,0.7561283111572266,-0.24596631526947021,-0.05303246155381203,-0.10879696905612946,0.10314559936523438
32.9,0.1659284085035324,0.4994478225708008,0.004234939813613892,-0.04798298701643944,-0.054821133613586426,0.030424950644373894
32.95,0.0700111910700798,0.23717784881591797,0.0981525257229805,-0.11787281930446625,-0.037661392241716385,0.015007485635578632
33.0,0.1707039624452591,-0.49886417388916016,0.23016856610774994,-0.17736031115055084,-0.034062229096889496,-0.08403737843036652
33.05,0.5578060746192932,-0.9104776382446289,0.28634122014045715,-0.004074182361364365,-0.0819433405995369,-0.1791277378797531
33.1,0.5974782705307007,-0.752507209777832,-0.19312848150730133,0.2442726045846939,-0.028804412111639977,-0.2447376400232315
33.15,0.8267149329185486,0.3919048607349396,-0.8136973977088928,0.3296937644481659,0.080035001039505,0.06633399426937103
33.2,-0.12154391407966614,0.7397117614746094,-0.5675191283226013,0.18689872324466705,0.4728293716907501,0.427126944065094
33.25,-1.5404622554779053,0.5963954329490662,-1.1178258657455444,-0.020767942070961,0.41522449254989624,0.2575174868106842
33.3,-1.4746003150939941,-0.21731093525886536,-1.7005668878555298,-0.12011198699474335,-0.12861515581607819,0.03712661564350128
33.35,0.23611995577812195,-1.1751031875610352,-1.1215592622756958,-0.08362189680337906,-0.7020645141601562,0.08289725333452225
33.4,1.5769567489624023,-1.726069450378418,-0.2984488308429718,0.1748552918434143,-0.8080790042877197,0.36462321877479553
33.45,1.3039578199386597,-0.8763636946678162,0.4904828369617462,0.5737777948379517,-0.4551912844181061,0.6871634125709534
33.5,-1.0744177103042603,0.7459249496459961,-0.020106293261051178,0.566490650177002,-0.18013207614421844,0.6950944066047668
33.55,-1.097419023513794,0.8265800476074219,-1.0553909540176392,-0.36801958084106445,-1.096011757850647,0.516163170337677
33.6,1.0326991081237793,-0.9101953506469727,0.5609227418899536,-1.2014483213424683,-2.3126654624938965,0.6819313168525696
33.65,1.660380482673645,-0.2732371985912323,2.375032663345337,-0.7014252543449402,-2.0160932540893555,0.8640215992927551
33.7,-0.5909131169319153,2.2633371353149414,2.5577802658081055,-0.03150051832199097,-0.6190485954284668,0.9249738454818726
33.75,-2.2864935398101807,2.4494800567626953,0.8720210790634155,-0.23603640496730804,-0.059338897466659546,0.6264702677726746
33.8,-1.3101310729980469,0.9037112593650818,0.915051281452179,-0.9598078727722168,-0.7812141180038452,0.2667069137096405
33.85,-0.25372132658958435,0.16208551824092865,1.260352373123169,-1.2453994750976562,-1.2558584213256836,0.1035366877913475
33.9,0.3173752725124359,-0.14632129669189453,0.9781392216682434,-0.863794207572937,-1.0808786153793335,-0.02934757061302662
33.95,2.3685550689697266,1.038395881652832,1.7649562358856201,-0.37035423517227173,-0.3988378345966339,0.3187846541404724
34.0,1.4169126749038696,-0.39134785532951355,0.7620962858200073,0.08370859920978546,1.1953983306884766,-0.049219802021980286
34.05,-1.243168592453003,-1.1173667907714844,-1.6549233198165894,0.22137920558452606,1.455115795135498,-0.25803637504577637
34.1,-2.4093387126922607,-0.09163478761911392,-2.5397894382476807,-0.15472134947776794,-0.13553279638290405,-0.17286992073059082
34.15,-0.11172419786453247,0.2557697296142578,0.27093592286109924,-0.30755615234375,-1.439846396446228,0.07177193462848663
34.2,0.9826252460479736,1.180769920349121,0.3771936297416687,0.1291615515947342,-0.7513861656188965,0.14932313561439514
34.25,-0.09416888654232025,1.0451345443725586,0.48890918493270874,0.20926329493522644,0.33585014939308167,0.24177446961402893
34.3,-1.6318719387054443,-0.7794409394264221,-0.7085059881210327,-0.098871611058712,0.2861301302909851,-0.03451836109161377
34.35,-0.17684349417686462,-0.975407600402832,0.9849837422370911,-0.4323907494544983,-1.1332899332046509,0.052545446902513504
34.4,1.2645772695541382,0.867283821105957,1.6641415357589722,-0.013652719557285309,-0.7928875684738159,0.2053084522485733
34.45,0.5263416767120361,-0.6017513275146484,0.08162866532802582,0.3956489861011505,0.7258408069610596,-0.07032307982444763
34.5,-0.5987567901611328,-1.164459228515625,-1.4558109045028687,0.136848583817482,0.5423785448074341,0.12164783477783203
34.55,-0.9443002939224243,-1.4794855117797852,-0.8879507184028625,-0.30528101325035095,-0.9253358840942383,0.34997043013572693
34.6,0.3080633878707886,0.5451650619506836,0.016345271840691566,-0.12391361594200134,-1.446367859840393,0.6180093288421631
34.65,0.5160249471664429,0.5985546112060547,0.6668033599853516,0.16449512541294098,-0.4797343909740448,0.416159987449646
34.7,-0.4532266855239868,0.38019275665283203,-0.34665483236312866,0.23644858598709106,0.2440551370382309,0.39242348074913025
34.75,-0.5413869619369507,-0.42291831970214844,-1.1711076498031616,0.07551376521587372,-0.13137111067771912,0.2760753333568573
34.8,0.0012386888265609741,0.35133934020996094,-0.6018797755241394,0.04930427670478821,-0.5381592512130737,0.5060438513755798
34.85,-0.04387463629245758,0.0019664831925183535,-0.7353092432022095,0.18075132369995117,-0.17712363600730896,0.3039100170135498
34.9,-0.27599668502807617,0.44504547119140625,0.47226256132125854,0.2573992908000946,-0.010943040251731873,0.3292274475097656
34.95,-0.5394791960716248,0.2676343619823456,1.1944217681884766,0.16781514883041382,0.04842771962285042,0.213703915476799
35.0,-0.6280373334884644,0.038746803998947144,1.0223679542541504,0.05022585391998291,-0.06668905168771744,0.16772042214870453
35.05,-0.5675653219223022,0.21320246160030365,0.5587944984436035,0.037089359015226364,-0.16179324686527252,0.13705728948116302
35.1,-0.5705176591873169,0.2145700305700302,0.13961046934127808,0.03944855183362961,-0.10340802371501923,0.03843916207551956
35.15,-0.38946300745010376,0.03951071575284004,-0.11559775471687317,0.056110478937625885,-0.05533556267619133,0.010467607527971268
35.2,-0.16138295829296112,0.04364299401640892,-0.08626936376094818,0.07254282385110855,-0.044393837451934814,0.024844570085406303
35.25,-0.11262287199497223,-0.04372406378388405,-0.0363641120493412,0.029551267623901367,-0.020641323179006577,0.032548561692237854
35.3,-0.2482217699289322,0.045526497066020966,0.10295511782169342,-0.023669807240366936,-0.02373533509671688,0.08743465691804886
35.35,-0.2906690537929535,0.20453833043575287,0.29037901759147644,-0.09308144450187683,-0.03238367661833763,0.152226984500885
35.4,-0.36967623233795166,0.0902700275182724,0.11546331644058228,-0.15366289019584656,0.028193574398756027,0.13505351543426514
35.45,-0.2741425633430481,0.3401985168457031,0.019209997728466988,-0.15310883522033691,0.09387479722499847,0.09979501366615295
35.5,-0.06693963706493378,0.15305328369140625,-0.18854163587093353,-0.14243507385253906,0.19285477697849274,0.009381251409649849
35.55,-0.03649461269378662,0.19625091552734375,-0.05974530428647995,-0.11874321848154068,0.1931394785642624,-0.01703786663711071
35.6,-0.11770448088645935,0.2710428237915039,0.08424291014671326,-0.12174181640148163,0.14030557870864868,-0.009379949420690536
35.65,-0.2501164376735687,0.19986818730831146,0.128164142370224,-0.11803881824016571,0.10204613208770752,-0.009014972485601902
35.7,-0.2778714895248413,0.22460459172725677,0.17428621649742126,-0.1099126785993576,0.056272219866514206,0.00562700442969799
35.75,-0.3000880777835846,0.05323313921689987,0.042940445244312286,-0.09828302264213562,0.048673421144485474,-0.009417561814188957
35.8,-0.2789548635482788,0.31010913848876953,0.07857593148946762,-0.10275083035230637,0.01941991224884987,0.018759725615382195
35.85,-0.32182013988494873,0.3290863037109375,-0.01784333400428295,-0.1405564695596695,0.02701706439256668,0.01849769800901413
35.9,-0.3906109035015106,0.5157241821289062,0.14824162423610687,-0.2498786449432373,0.022183535620570183,0.08416200429201126
35.95,-0.4421235918998718,0.679351806640625,0.09776665270328522,-0.3784356713294983,0.05566636472940445,0.05211243778467178
36.0,-0.25200319290161133,0.8480100631713867,0.338893860578537,-0.4884750247001648,0.07659827917814255,-0.0025571263395249844
36.05,-0.27595311403274536,0.539006233215332,0.21911032497882843,-0.5843559503555298,0.17646543681621552,-0.08443187922239304
36.1,-0.22201624512672424,0.3549327850341797,0.3962741196155548,-0.6647698879241943,0.1585949808359146,-0.10841364413499832
36.15,-0.16700994968414307,0.02985190600156784,0.3426714837551117,-0.6731934547424316,0.2059115618467331,-0.17293134331703186
36.2,-0.030446916818618774,-0.2147045135498047,0.36768007278442383,-0.6251371502876282,0.2148420661687851,-0.20886370539665222
36.25,0.13712942600250244,-0.3902597427368164,0.19816294312477112,-0.5819424986839294,0.21936888992786407,-0.17216072976589203
36.3,0.20993615686893463,-0.6675710678100586,-0.16165059804916382,-0.5409395098686218,0.23696427047252655,-0.09778433293104172
36.35,0.14276358485221863,-0.7853851318359375,-0.4328925311565399,-0.46528542041778564,0.25351715087890625,0.017859958112239838
36.4,-0.01672762632369995,-0.758357048034668,-0.5162041187286377,-0.3304734528064728,0.25478941202163696,0.11370893567800522
36.45,-0.25393080711364746,-0.6062955856323242,-0.5397869348526001,-0.14311984181404114,0.2557840347290039,0.17700494825839996
36.5,-0.4319048225879669,-0.2553882598876953,-0.39170801639556885,0.031779929995536804,0.2331835925579071,0.18427078425884247
36.55,-0.4935232698917389,0.06596086919307709,-0.22720885276794434,0.12541620433330536,0.2205791473388672,0.1617107093334198
36.6,-0.47128748893737793,0.28656673431396484,-0.030193766579031944,0.13973821699619293,0.21112048625946045,0.09949291497468948
36.65,-0.39571475982666016,0.3258810043334961,0.11670085042715073,0.10048456490039825,0.18594098091125488,0.036415841430425644
36.7,-0.2430339753627777,0.2392434924840927,0.07755275070667267,0.032879605889320374,0.15876267850399017,0.001972295343875885
36.75,-0.1459711641073227,0.09211253374814987,-0.007941585965454578,-0.024616725742816925,0.1330435872077942,-0.028779495507478714
36.8,-0.14881089329719543,0.021813388913869858,-0.06381146609783173,-0.04207991063594818,0.10743320733308792,-0.044295307248830795
36.85,-0.10359913110733032,-0.04456806555390358,-0.03013421595096588,-0.04208796098828316,0.0872228667140007,-0.04795096069574356
36.9,-0.03944883868098259,-0.06380844116210938,-0.0277892854064703,-0.02383306622505188,0.08077218383550644,-0.05026319622993469
36.95,-0.07713041454553604,-0.14045238494873047,-0.014405744150280952,0.0011359844356775284,0.08761131763458252,-0.042122405022382736
37.0,-0.02011476643383503,-0.07228374481201172,0.00494568282738328,0.028720160946249962,0.089628666639328,-0.02144806832075119
37.05,-0.01653977297246456,-0.039757728576660156,-0.02236042730510235,0.04249439388513565,0.08740679174661636,-0.005041369237005711
37.1,-0.05066540092229843,0.05241107940673828,0.0002078578545479104,0.046443235129117966,0.08693428337574005,-0.008479772135615349
37.15,-0.09289327263832092,0.05374526605010033,0.021319733932614326,0.045794613659381866,0.0823606327176094,-0.013292125426232815
37.2,-0.1258169412612915,0.06021499261260033,0.058052342385053635,0.034437671303749084,0.06473338603973389,-0.004957808181643486
37.25,-0.14478762447834015,0.0626220628619194,0.01778370700776577,0.03095286898314953,0.05710965767502785,-0.011217642575502396
37.3,-0.17905740439891815,0.04646777734160423,0.015593809075653553,0.02278568595647812,0.048951130360364914,-0.02122778631746769
37.35,-0.16066375374794006,0.06906413286924362,0.028103921562433243,0.00850567314773798,0.02324553206562996,-0.01699833944439888
37.4,-0.13845472037792206,0.019932743161916733,-0.015572632662951946,0.004142750985920429,0.00921317096799612,-0.023330088704824448
37.45,-0.10871419310569763,0.012714383192360401,0.01605168916285038,0.003826049156486988,-0.0045036859810352325,-0.0206398107111454
37.5,-0.14389736950397491,-0.05930996313691139,-0.004760602489113808,0.0034535620361566544,-0.010283161886036396,-0.017954418435692787
37.55,-0.10041336715221405,0.04440593346953392,0.07586446404457092,0.01119043305516243,-0.026559405028820038,0.008407366462051868
37.6,-0.133555606007576,0.05690288171172142,0.08122701197862625,0.01814919523894787,-0.01687810942530632,-0.004941321909427643
37.65,-0.12539860606193542,0.027802463620901108,0.09259182959794998,0.02338465116918087,-0.011077710427343845,-0.003021010896191001
37.7,-0.17352069914340973,0.01414679829031229,0.12371265888214111,0.027661552652716637,-0.0004524421819951385,-0.007470493204891682
37.75,-0.16508327424526215,0.08977221697568893,0.10719247907400131,0.026357756927609444,-0.0018988309893757105,0.003833506256341934
37.8,-0.1941695362329483,0.03716181963682175,0.02949819527566433,0.02469579316675663,0.008176554925739765,-0.009942073374986649
37.85,-0.19289931654930115,0.08538436144590378,0.027390940114855766,0.027036987245082855,0.007865330204367638,0.003062905976548791
37.9,-0.12813922762870789,0.04691600427031517,0.03662984073162079,0.025737009942531586,0.01187118235975504,-0.019759394228458405
37.95,-0.11432038992643356,0.1471548080444336,0.04655797407031059,0.02898503467440605,-0.0029062023386359215,-0.014040671288967133
38.0,-0.1285426765680313,0.35010814666748047,0.09605995565652847,0.03407019376754761,-0.01601160131394863,-0.028829485177993774
38.05,-0.16052168607711792,0.30675792694091797,0.09671811759471893,-0.0016487445682287216,-0.04873362183570862,-0.054866280406713486
38.1,-0.10225328803062439,0.14272689819335938,0.07244299352169037,-0.08315834403038025,-0.10629389435052872,-0.07281661033630371
38.15,-0.16925789415836334,-0.04372311010956764,-0.13326936960220337,-0.14055375754833221,-0.1054801493883133,-0.09450149536132812
38.2,-0.19401337206363678,-0.18336009979248047,-0.10911097377538681,-0.16729716956615448,-0.09426649659872055,-0.06089155375957489
38.25,-0.12394027411937714,-0.19855594635009766,-0.04275789111852646,-0.13183042407035828,-0.07695192843675613,-0.046881940215826035
38.3,-0.14578287303447723,-0.21556472778320312,0.022048048675060272,-0.07540953904390335,-0.05519016459584236,-0.033171020448207855
38.35,-0.09899237751960754,-0.14365005493164062,0.014354300685226917,-0.016277361661195755,-0.03293745219707489,-0.002824720460921526
38.4,-0.0874776840209961,-0.01014805119484663,0.05285821110010147,0.026505246758461,-0.023257043212652206,0.008989150635898113
38.45,-0.11649376153945923,0.1111287996172905,0.09060823917388916,0.05348086357116699,-0.016071505844593048,0.03335335850715637
38.5,-0.14856880903244019,0.08543013781309128,0.08448760211467743,0.06437386572360992,9.948051229002886e-06,0.02421058714389801
38.55,-0.18455839157104492,0.04611872881650925,0.10693347454071045,0.051599182188510895,0.009605935774743557,0.023373592644929886
38.6,-0.1867145597934723,0.10060309618711472,0.22074761986732483,0.04148310050368309,0.009557335637509823,0.02378470078110695
38.65,-0.14238837361335754,0.12967681884765625,0.30561205744743347,0.03921428695321083,0.016411999240517616,0.02427300624549389
38.7,-0.1663728952407837,-0.0012159420875832438,0.24933579564094543,0.04470228776335716,0.03369523584842682,0.00444292277097702
38.75,-0.08456366509199142,-0.02208901010453701,0.24010035395622253,0.061095766723155975,0.05154445767402649,-0.007651349995285273
38.8,-0.0010540708899497986,-0.1365680694580078,0.29712989926338196,0.08292235434055328,0.08283627778291702,0.0015287386486306787
38.85,0.1416657716035843,-0.20876407623291016,0.3735901117324829,0.11297424137592316,0.13770531117916107,0.04475618526339531
38.9,0.2512865364551544,-0.29184913635253906,0.42647063732147217,0.15480037033557892,0.251494824886322,0.05356554687023163
38.95,0.20536725223064423,-0.34287548065185547,0.3992609977722168,0.2067163586616516,0.35384759306907654,0.1266596019268036
39.0,0.031626295298337936,-0.35159873962402344,0.18000370264053345,0.2729003429412842,0.4557117521762848,0.20129843056201935
39.05,-0.10952544212341309,-0.3842439651489258,0.1573472023010254,0.33410051465034485,0.50567626953125,0.23786889016628265
39.1,-0.20224717259407043,-0.22770214080810547,0.11144430190324783,0.40866315364837646,0.5194706916809082,0.2275582104921341
39.15,-0.3858253061771393,-0.241975799202919,-0.08180661499500275,0.42946287989616394,0.5374875068664551,0.16898106038570404
39.2,-0.3209473490715027,-0.03753281757235527,0.10725237429141998,0.46647322177886963,0.4937847852706909,0.23047257959842682
39.25,-0.160233274102211,0.1286449283361435,0.38065433502197266,0.4932720363140106,0.4857482314109802,0.3313119411468506
39.3,-0.3360678255558014,-0.09148122370243073,0.2895572781562805,0.4159654378890991,0.4913136959075928,0.42234158515930176
39.35,-0.7418748140335083,-0.07736971229314804,-0.14705397188663483,0.3569478988647461,0.3717859983444214,0.4993536174297333
39.4,-0.3757612705230713,0.26190757751464844,-0.0039284746162593365,0.308216392993927,0.1163124293088913,0.4702504873275757
39.45,0.0010745488107204437,0.39287853240966797,0.12611441314220428,0.17794032394886017,0.057407014071941376,0.41218021512031555
39.5,-0.03267949819564819,0.27406883239746094,0.04985613375902176,0.09799885749816895,0.05641430243849754,0.5113556385040283
39.55,-0.26033565402030945,0.49865055084228516,0.2018141895532608,0.07609076052904129,0.1167137622833252,0.4715054929256439
39.6,-0.3766067326068878,0.6282243728637695,0.13925029337406158,0.0021389424800872803,0.19804972410202026,0.3195320665836334
39.65,-0.46476536989212036,0.4072446823120117,0.06775296479463577,-0.05829814821481705,0.22122974693775177,0.21678195893764496
39.7,-0.5150163769721985,0.19027899205684662,-0.039966024458408356,-0.11033863574266434,0.21449559926986694,0.12283169478178024
39.75,-0.5195387601852417,0.07967661321163177,-0.09596367180347443,-0.1175733134150505,0.21052102744579315,0.03146263211965561
39.8,-0.4975939989089966,0.19743727147579193,-0.05642058700323105,-0.10467493534088135,0.199261873960495,-0.05853518098592758
39.85,-0.40647634863853455,0.27568721771240234,0.038707435131073,-0.1354808360338211,0.17313003540039062,-0.10119850188493729
39.9,-0.5335526466369629,0.038068756461143494,-0.0660078227519989,-0.10663489997386932,0.10275721549987793,-0.04499324783682823
39.95,-0.6052274107933044,0.2823495864868164,-0.2324296534061432,-0.08665790408849716,0.007461355067789555,-0.04509654641151428
40.0,-0.32134807109832764,0.08994292467832565,-0.20557516813278198,-0.18164142966270447,-0.001993351150304079,-0.11668863147497177
40.05,-0.02926689013838768,-0.01725292205810547,-0.019356269389390945,-0.166180819272995,-0.047283630818128586,-0.06289361417293549
40.1,0.11600197851657867,-0.2258310317993164,0.12893860042095184,-0.11565012484788895,-0.11235394328832626,0.02054077573120594
40.15,0.2111189067363739,-0.298309326171875,0.32578304409980774,-0.007615949958562851,-0.1167307198047638,0.02373226173222065
40.2,0.28003251552581787,-0.17955780029296875,0.39389321208000183,0.06279906630516052,0.020596113055944443,-0.13733071088790894
40.25,0.23101367056369781,-0.18317031860351562,0.29239383339881897,0.06177011504769325,0.11749952286481857,-0.17560532689094543
40.3,0.05037744343280792,-0.13277626037597656,0.3473694324493408,0.04972708597779274,0.13623546063899994,-0.07837081700563431
40.35,-0.1463313102722168,-0.23804569244384766,0.22301122546195984,0.04014717787504196,0.10193513333797455,-0.08234663307666779
40.4,-0.04503276199102402,-0.07693862915039062,0.014813071116805077,0.04965043067932129,0.09511611610651016,-0.1072574108839035
40.45,-0.23103494942188263,0.017120355740189552,-0.025575578212738037,0.06979498267173767,0.1068575382232666,-0.09011946618556976
40.5,-0.23472385108470917,0.3450174331665039,0.05078496038913727,0.06365447491407394,0.08573378622531891,-0.020923880860209465
40.55,-0.1677035689353943,0.15983295440673828,-0.18996396660804749,0.009090118110179901,0.03739716112613678,0.06309890002012253
40.6,-0.09084808826446533,0.07126140594482422,-0.18138910830020905,0.028193999081850052,-0.03855913132429123,0.21733906865119934
40.65,-0.2065858542919159,-0.10495663434267044,-0.10349101573228836,0.05037819221615791,-0.0439644418656826,0.2405591458082199
40.7,-0.13409189879894257,-0.06574821472167969,-0.00388912670314312,0.1161688044667244,-0.060802485793828964,0.2955472469329834
40.75,-0.05229831859469414,0.059088703244924545,0.08557145297527313,0.16091930866241455,-0.047161538153886795,0.2496548593044281
40.8,-0.08600346744060516,0.1596231460571289,-0.01853150688111782,0.11160643398761749,0.05677459388971329,0.08636688441038132
40.85,-0.23443306982517242,0.16096782684326172,-0.04888342693448067,0.03186504915356636,0.10851900279521942,0.04534623771905899
40.9,-0.34201371669769287,0.07079409807920456,0.03227952495217323,0.005997117608785629,0.04525628313422203,0.1251911073923111
40.95,-0.2876315116882324,0.21157263219356537,0.16261789202690125,-0.01927873119711876,0.02995316870510578,0.07687743008136749
41.0,-0.3204994797706604,0.03518866375088692,0.09906390309333801,-0.07349413633346558,0.06327226758003235,-0.042561616748571396
41.05,-0.32609236240386963,0.12637899816036224,0.08965940773487091,-0.09185003489255905,0.10412583500146866,-0.140936478972435
41.1,-0.5218706727027893,-0.007602704223245382,-0.16686752438545227,-0.1222115159034729,0.09797806292772293,-0.18256139755249023
41.15,-0.3904264569282532,0.19118307530879974,-0.1537438929080963,-0.11277803778648376,0.011722923256456852,-0.08302384614944458
41.2,-0.21595418453216553,0.14116668701171875,-0.02717742696404457,-0.16385842859745026,0.01622924581170082,-0.0808384120464325
41.25,0.046117283403873444,-0.15976619720458984,-0.14584000408649445,-0.11856456100940704,-0.03127656504511833,-0.025234239175915718
41.3,0.15666332840919495,0.017153745517134666,-0.0805620551109314,-0.026160836219787598,-0.05805741250514984,-0.0660395622253418
41.35,0.136610746383667,0.024416929110884666,-0.09766596555709839,-0.03102591633796692,-0.023930992931127548,-0.11566182971000671
41.4,-0.05252315476536751,-0.04230022430419922,-0.13471317291259766,-0.0055760229006409645,-0.04181935265660286,-0.028140399605035782
41.45,-0.1215137243270874,0.0881805419921875,0.01707448996603489,-0.01532795000821352,-0.055989526212215424,-0.06407903134822845
41.5,-0.030378011986613274,0.10082626342773438,-0.016207300126552582,-0.08453772962093353,0.00784253515303135,-0.19913212954998016
41.55,0.056427355855703354,0.38060760498046875,-0.16715162992477417,-0.07003125548362732,-0.005786731839179993,-0.15972429513931274
41.6,-0.1085747480392456,0.6299324035644531,-0.3694083094596863,-0.09016953408718109,0.015048409812152386,-0.1813003569841385
41.65,-0.3825821876525879,0.560694694519043,-0.7330238223075867,-0.1773054301738739,0.04512891545891762,-0.2338528037071228
41.7,-0.49407249689102173,0.6491422653198242,-0.912115752696991,-0.25613707304000854,-0.020880524069070816,-0.15687264502048492
41.75,-0.46011969447135925,0.2560434341430664,-0.9028759598731995,-0.3943372964859009,-0.16150684654712677,-0.12465833127498627
41.8,-0.10271230340003967,-0.19774723052978516,-0.6907216310501099,-0.4365529417991638,-0.3697510361671448,-0.05613289400935173
41.85,0.2346554398536682,-0.28027915954589844,-0.41052573919296265,-0.3784174621105194,-0.510209321975708,0.02781662344932556
41.9,0.5892700552940369,-0.1627359241247177,-0.02385937236249447,-0.30400052666664124,-0.6085840463638306,-0.033099573105573654
41.95,0.6095782518386841,-0.24538515508174896,0.101796455681324,-0.2141820788383484,-0.6073883175849915,-0.14508022367954254
42.0,0.5833890438079834,-0.07584761083126068,0.2665504217147827,-0.12240567803382874,-0.6403337121009827,-0.1402851641178131
42.05,0.5979282855987549,-0.023946749046444893,0.36930277943611145,-0.12096249312162399,-0.6916826963424683,-0.0943291187286377
42.1,0.4988265633583069,-0.02694510482251644,0.43664324283599854,-0.1791088581085205,-0.7207079529762268,-0.035025704652071
42.15,0.4366421699523926,-0.02570342645049095,0.7182091474533081,-0.21062079071998596,-0.7378415465354919,0.0312955416738987
42.2,0.2791469693183899,0.17871379852294922,1.0154482126235962,-0.2486492246389389,-0.6663329601287842,0.06619899719953537
42.25,0.22578218579292297,0.29895591735839844,1.0079418420791626,-0.33587926626205444,-0.5841071009635925,0.012519692070782185
42.3,-0.02414688467979431,0.298858642578125,0.9911362528800964,-0.48771050572395325,-0.5249103307723999,0.061546921730041504
42.35,-0.2922656834125519,0.4875898063182831,0.9019155502319336,-0.6584259867668152,-0.44401291012763977,0.09051826596260071
42.4,-0.4621788263320923,0.024656277149915695,0.47284895181655884,-0.8037954568862915,-0.28402775526046753,-0.11048699170351028
42.45,-0.4535258114337921,-0.31568145751953125,0.15644745528697968,-0.8049885630607605,-0.17865881323814392,-0.2151297926902771
42.5,-0.7118617296218872,-0.6988697052001953,-0.19755971431732178,-0.7184087038040161,-0.10328986495733261,-0.2352667599916458
42.55,-0.976828396320343,-0.7409629821777344,-0.43651339411735535,-0.5597302317619324,-0.05615617334842682,-0.19652843475341797
42.6,-1.0951000452041626,-0.7188024520874023,-0.5106813311576843,-0.3355482220649719,0.004964806139469147,-0.1637001633644104
42.65,-1.0273617506027222,-0.32445815205574036,-0.2759716510772705,-0.056658364832401276,0.05276601389050484,-0.16213634610176086
42.7,-1.0100120306015015,-0.41703036427497864,-0.2240462452173233,0.08232643455266953,0.07862624526023865,-0.2020246684551239
42.75,-0.7164118885993958,-0.18048669397830963,-0.15868999063968658,0.14748597145080566,0.041153475642204285,-0.09642482548952103
42.8,-0.31684401631355286,0.017705906182527542,0.27479690313339233,0.15935668349266052,-0.055285144597291946,-0.10021492093801498
42.85,0.16850942373275757,-0.1696004867553711,0.3523821234703064,0.1471870094537735,-0.07747174054384232,0.005585914012044668
42.9,0.3173897862434387,-0.13391970098018646,0.0809866338968277,0.07222277671098709,-0.037747424095869064,0.26765310764312744
42.95,0.29005229473114014,-0.12968158721923828,0.1983802616596222,-0.08391345292329788,-0.11727682501077652,0.3240097165107727
43.0,0.34945452213287354,-0.4870462417602539,0.34156620502471924,-0.15985485911369324,-0.22027485072612762,0.3240158259868622
43.05,0.4204062223434448,-0.42123985290527344,0.4508386552333832,-0.029489144682884216,-0.14478637278079987,0.3257535696029663
43.1,0.4139772057533264,-0.09494876116514206,0.46292445063591003,0.20020286738872528,0.10485345125198364,0.19137100875377655
43.15,0.21268261969089508,0.15433311462402344,-0.06349746882915497,0.3555760681629181,0.33717095851898193,0.06332530826330185
43.2,0.06591594219207764,0.6470584869384766,-0.7436545491218567,0.4017447829246521,0.3499506413936615,-0.05304623022675514
43.25,-0.3566059470176697,1.3066949844360352,-1.3699815273284912,0.4103661775588989,0.21347562968730927,-0.23703092336654663
43.3,-0.39597630500793457,2.142672538757324,-1.660101056098938,0.34402403235435486,-0.13911418616771698,-0.46303170919418335
43.35,0.23415523767471313,2.7601146697998047,-1.9009519815444946,0.133754163980484,-0.6630914211273193,-0.9281221628189087
43.4,0.7314026355743408,2.527318000793457,-2.0821406841278076,-0.2422729730606079,-1.2427724599838257,-1.4939243793487549
43.45,0.6239973902702332,2.2360305786132812,-1.6604945659637451,-0.5904961228370667,-1.8643368482589722,-1.777893304824829
43.5,0.07133841514587402,2.420225143432617,-1.0319840908050537,-0.7906591892242432,-2.3626959323883057,-1.9467591047286987
43.55,-0.4146588444709778,2.225644111633301,-0.25785374641418457,-0.9250248074531555,-2.5664758682250977,-2.330095052719116
43.6,-0.1675529181957245,1.4141464233398438,0.3892936110496521,-0.9704944491386414,-2.5667994022369385,-2.8724937438964844
43.65,-0.5442644953727722,-0.39519408345222473,0.5793677568435669,-0.823665976524353,-2.6704652309417725,-3.357571601867676
43.7,-1.2610222101211548,-1.8224706649780273,1.1618983745574951,-0.7974363565444946,-2.8963146209716797,-3.178863763809204
43.75,-2.001828193664551,-2.3899717330932617,1.6525825262069702,-1.01909601688385,-3.10945463180542,-2.4206011295318604
43.8,-2.5163662433624268,-2.419820785522461,1.4857505559921265,-1.3004395961761475,-3.045835494995117,-1.460067868232727
43.85,-1.561385154724121,-2.045536994934082,0.8495488166809082,-1.6614718437194824,-2.498137950897217,-0.3439173698425293
43.9,-0.33240675926208496,-0.9676427841186523,1.0635141134262085,-1.7286182641983032,-1.8137067556381226,0.35175710916519165
43.95,0.7071553468704224,-0.20981693267822266,1.3520524501800537,-0.9657447934150696,-1.6659080982208252,0.651546061038971
44.0,1.8169403076171875,-0.784049928188324,1.1164827346801758,0.2231474667787552,-1.8002008199691772,0.7461211085319519
44.05,2.4020657539367676,-1.2406529188156128,0.6053730845451355,0.9359689950942993,-1.4804877042770386,0.5298329591751099
44.1,2.0615768432617188,-1.244868278503418,0.5129829049110413,1.1595823764801025,-0.5795090198516846,0.23569516837596893
44.15,1.9799978733062744,-0.720094621181488,0.895355224609375,1.206922173500061,0.04782697558403015,0.17318019270896912
44.2,1.5892702341079712,-1.3197746276855469,-0.32895731925964355,1.3277502059936523,0.017155904322862625,0.22483545541763306
44.25,1.6663340330123901,-0.8268193602561951,-0.7812370657920837,0.7654433250427246,0.2519359588623047,0.2118096500635147
44.3,2.22633957862854,0.6261110901832581,-0.046796660870313644,-0.08160433173179626,0.7201858162879944,0.1619970202445984
44.35,2.505326986312866,0.14121922850608826,-1.3075822591781616,-0.3860871195793152,0.6933517456054688,-0.16206364333629608
44.4,2.1351921558380127,1.1069327592849731,-0.36039575934410095,-0.9131789207458496,0.9284624457359314,-0.7831317186355591
44.45,1.7067676782608032,1.5477228164672852,0.8790315985679626,-0.9046450257301331,1.356366753578186,-1.1546452045440674
44.5,1.1678167581558228,0.41475963592529297,1.6771434545516968,-0.3687745928764343,1.304735779762268,-1.3323568105697632
44.55,0.6928975582122803,-0.21990299224853516,2.213596820831299,0.239343523979187,1.3870465755462646,-1.5311481952667236
44.6,-0.4967353940010071,-1.4151201248168945,2.0718865394592285,0.9958643913269043,1.5602049827575684,-1.615370512008667
44.65,-1.44108247756958,-2.4946861267089844,2.316322088241577,1.408015489578247,1.9821934700012207,-1.2956759929656982
44.7,-2.288647174835205,-3.125124931335449,2.4018759727478027,1.5837002992630005,2.658799171447754,-0.6773793697357178
44.75,-1.534873127937317,-3.303309440612793,1.8830654621124268,1.4651795625686646,3.134371280670166,0.30553704500198364
44.8,-0.6145316958427429,-3.4390907287597656,0.399753212928772,1.3738524913787842,3.0706393718719482,1.0621601343154907
44.85,0.19509321451187134,-1.7881689071655273,-1.9857550859451294,1.0473964214324951,2.6149990558624268,1.6310609579086304
44.9,0.5015071034431458,-0.6398133635520935,-2.7800607681274414,0.5289320945739746,1.9468169212341309,1.946871280670166
44.95,1.5164873600006104,1.4098119735717773,0.09440796077251434,-0.006688117980957031,1.4956154823303223,2.392854928970337
45.0,1.907546043395996,1.8913469314575195,1.824630618095398,0.3332672417163849,1.4328364133834839,2.252448558807373
45.05,1.6220914125442505,1.0000667572021484,1.7764954566955566,1.2248460054397583,1.6387836933135986,1.9448082447052002
45.1,1.3007104396820068,1.7489843368530273,-0.09902478009462357,1.6681157350540161,1.8677120208740234,1.5128260850906372
45.15,-0.14153984189033508,1.8417596817016602,-1.7101655006408691,1.483341097831726,1.7847894430160522,0.8008296489715576
45.2,-0.45111358165740967,1.791438102722168,-2.1241750717163086,1.1009666919708252,1.418763518333435,0.8241734504699707
45.25,0.6168583631515503,1.931783676147461,-1.3444709777832031,0.9000886082649231,1.097783088684082,0.9932646155357361
45.3,0.7403966188430786,0.7517175674438477,0.0635097548365593,0.5123187303543091,0.9754329323768616,0.9348964691162109
45.35,1.0340657234191895,0.6502418518066406,0.6380929350852966,0.5454113483428955,1.0127613544464111,0.9803469181060791
45.4,1.2139043807983398,-0.0796785056591034,0.3819376230239868,0.8588457107543945,1.1896426677703857,0.6041640639305115
45.45,1.9374186992645264,1.3069267272949219,0.641571044921875,0.9098207354545593,1.2905035018920898,0.15865583717823029
45.5,3.3253586292266846,4.614957809448242,2.259070634841919,0.7430251240730286,1.1499220132827759,0.07687237113714218
45.55,-1.0662986040115356,0.38950440287590027,-0.9578979015350342,0.7075614333152771,0.9246169924736023,0.20069222152233124
45.6,-1.3013801574707031,0.34703633189201355,-0.9877200722694397,0.6913870573043823,0.8062743544578552,0.21776758134365082
45.65,-2.0814192295074463,1.0652275085449219,-1.1391997337341309,0.5854493379592896,0.8420300483703613,0.2082201987504959
45.7,-1.9745932817459106,0.455140084028244,-1.1507620811462402,0.331035852432251,0.7372524738311768,0.06445547193288803
45.75,-2.0188791751861572,0.22681137919425964,-1.7799808979034424,0.34345415234565735,0.4734461307525635,0.03121160715818405
45.8,-1.6544253826141357,0.27808091044425964,-1.5115207433700562,0.4553602933883667,0.1809147298336029,0.32362431287765503
45.85,-1.5803942680358887,0.1414308249950409,-0.9644629955291748,0.4927350878715515,0.023635612800717354,0.3500309884548187
45.9,-1.2631256580352783,0.6513938307762146,-0.40068140625953674,0.5492640733718872,0.022547751665115356,0.23349694907665253
45.95,-1.6178702116012573,0.7195920348167419,-0.23303692042827606,0.3343072235584259,0.09245718270540237,-0.05911741033196449
46.0,-1.8482571840286255,0.6792907118797302,-0.11112413555383682,0.16501399874687195,0.04826004058122635,-0.16679507493972778
46.05,-0.968187689781189,0.26981446146965027,0.17802506685256958,0.09670666605234146,-0.04722726717591286,-0.18624281883239746
46.1,-0.6874598264694214,-0.36687758564949036,0.19077180325984955,0.02161289006471634,0.017352845519781113,-0.23336192965507507
46.15,-1.4014599323272705,-0.4667949974536896,-0.02122516743838787,0.04065549001097679,0.002816940890625119,-0.1849273145198822
46.2,-1.8267970085144043,0.19806094467639923,-0.12889111042022705,-0.009973905980587006,-0.2725202739238739,-0.2344156801700592
46.25,-1.6673723459243774,0.6644143462181091,0.022356471046805382,-0.3039660155773163,-0.6033169031143188,-0.48392024636268616
46.3,0.08585216850042343,-1.0306625366210938,0.41240033507347107,-0.5090298652648926,-0.8789553046226501,-0.46660754084587097
46.35,0.7168706655502319,-0.22123144567012787,0.407455712556839,0.033018313348293304,-0.7180593013763428,0.019650766626000404
46.4,-0.0977545976638794,-0.23775196075439453,0.42845943570137024,0.25489604473114014,-0.364215224981308,0.15994514524936676
46.45,-0.08593055605888367,0.20873449742794037,0.4977991282939911,0.22199848294258118,-0.425465852022171,0.26148590445518494
46.5,0.5572952032089233,-0.014213550835847855,0.3785652816295624,0.14016611874103546,-0.3706115484237671,0.2015088051557541
46.55,1.0772064924240112,-0.48236462473869324,0.44414693117141724,0.11315692216157913,-0.09436336159706116,0.05312146991491318
46.6,0.7618721723556519,-0.2909078299999237,0.4434303939342499,0.17337444424629211,0.138202965259552,0.24394875764846802
46.65,0.09863938391208649,-0.4862098693847656,0.3266262710094452,0.016754843294620514,0.3160392940044403,0.24727533757686615
46.7,-0.5440003871917725,-0.9917173385620117,-0.29851844906806946,-0.10117796063423157,0.2757197916507721,0.014274694956839085
46.75,-0.20328977704048157,-0.03629589080810547,-0.4352410137653351,0.07757346332073212,-0.01631167158484459,0.3531460464000702
46.8,-0.38166293501853943,-0.024549493566155434,-0.11240984499454498,-0.01087845116853714,-0.12188582122325897,0.3381975293159485
46.85,-0.5811112523078918,0.4402160346508026,0.2277565598487854,0.012831278145313263,-0.2511443793773651,0.25207221508026123
46.9,-0.8471918106079102,0.2406911551952362,0.2065485119819641,0.01581965759396553,-0.28621813654899597,0.1239108070731163
46.95,-1.4155120849609375,0.7937001585960388,0.48166266083717346,0.15241797268390656,-0.2409682422876358,0.07351288199424744
47.0,-1.7685576677322388,1.5240793228149414,0.5640259385108948,0.26812267303466797,-0.1465340107679367,-0.06977104395627975
47.05,-0.3237486481666565,0.6408567428588867,0.21513701975345612,0.19178526103496552,-0.13844865560531616,-0.25261762738227844
47.1,1.8836311101913452,-0.4589938521385193,0.26353126764297485,0.10820239037275314,0.062418147921562195,-0.3364230990409851
47.15,1.3855805397033691,-1.4638118743896484,-0.18883861601352692,-0.06418420374393463,0.3926476240158081,-0.22969436645507812
47.2,-0.5595519542694092,-0.7381105422973633,-0.3181265890598297,-0.033401139080524445,0.249114990234375,0.32185098528862
