Time [s],Acc_x [m/s^2],Acc_y [m/s^2],Acc_z [m/s^2],Gyro_x [1/s],Gyro_y [1/s],Gyro_z [1/s]
0.0,0.028979593887925148,0.14439868927001953,-0.0006282053655013442,-0.010631097480654716,-0.017180420458316803,-0.0009572492563165724
0.05,-0.012376073747873306,0.18658733367919922,0.010788775980472565,-0.005029013846069574,-0.005602297838777304,-0.00880027562379837
0.1,0.007410284131765366,0.18752193450927734,0.0025301221758127213,-0.008509060367941856,-0.014134259894490242,-0.0030464832670986652
0.15,-0.008675381541252136,0.19864273071289062,-0.15500923991203308,-0.018225181847810745,-0.016259687021374702,0.0013269088231027126
0.2,-0.020707115530967712,0.21122264862060547,0.08596388250589371,-0.00678204745054245,-0.003526674583554268,-0.007548948749899864
0.25,-0.002165062353014946,0.1672821044921875,-0.0027462909929454327,-0.0056681279093027115,-0.013990647159516811,0.004421872552484274
0.3,-0.008082508109509945,0.13778972625732422,-0.01864415407180786,0.0004125300911255181,0.0038654899690300226,-0.002519436413422227
0.35,-0.009403456002473831,0.12874221801757812,-0.0022236208897083998,-0.008614284917712212,-0.0018617433961480856,0.0016449857503175735
0.4,-0.016826508566737175,0.20412158966064453,0.06208012253046036,-0.002496524713933468,0.003275271039456129,-0.0020114171784371138
0.45,-0.020753730088472366,0.06448936462402344,-0.0018828631145879626,-0.014138283208012581,0.0009294341434724629,3.814793308265507e-05
0.5,0.0011866770219057798,0.1759471893310547,0.0005564104649238288,-0.0019722143188118935,0.010010426864027977,-0.009062713012099266
0.55,-0.005545105319470167,0.20797157287597656,0.012838749215006828,-0.003043597564101219,0.008496154099702835,-0.00801267009228468
0.6,-0.02772173285484314,0.1722726821899414,0.03010290116071701,-0.011163200251758099,0.001949093770235777,-0.008424879983067513
0.65,-0.033589497208595276,0.1784982681274414,-0.0148283326998353,-0.015001864172518253,0.001459186663851142,-0.013042870908975601
0.7,-0.025826670229434967,0.14749908447265625,-0.06131013110280037,-0.0012917122803628445,0.005620684940367937,-0.018989237025380135
0.75,-0.03415068984031677,0.20389270782470703,-0.026010053232312202,0.004964801017194986,-0.012329285964369774,-0.012468317523598671
0.8,-0.016891909763216972,0.11585807800292969,-0.03720497339963913,-0.004261034075170755,-0.020348183810710907,-0.0118336733430624
0.85,0.00815838947892189,0.2364358901977539,0.13198499381542206,0.023110445588827133,-0.014091156423091888,-0.03518020361661911
0.9,0.08892371505498886,0.5513315200805664,-0.14128683507442474,0.026765482500195503,-0.007349322084337473,-0.07814028859138489
0.95,0.10442153364419937,0.35549068450927734,-0.3914037346839905,-0.06701809167861938,0.02405499666929245,-0.10928817838430405
1.0,0.0699511468410492,-0.23303604125976562,-0.33250120282173157,-0.19975067675113678,0.006091839633882046,-0.08773888647556305
1.05,-0.12997755408287048,-0.4267005920410156,0.16047124564647675,-0.1616794466972351,0.03325756639242172,-0.1003839522600174
1.1,-0.16583938896656036,-0.38422679901123047,0.6716457605361938,0.009721219539642334,0.033130161464214325,-0.08807875216007233
1.15,-0.4067194163799286,0.5277690887451172,0.3315001428127289,0.19113388657569885,0.01571463793516159,-0.1123075783252716
1.2,-0.040249552577733994,0.5110511779785156,-0.053706634789705276,0.15289407968521118,-0.06569270044565201,-0.05980156734585762
1.25,0.02292558178305626,0.1862812042236328,-0.09491580724716187,0.11313766986131668,-0.043892696499824524,-0.038072507828474045
1.3,0.06139634922146797,-0.010422703810036182,-0.1325601190328598,0.12375131249427795,-0.02618185430765152,-0.01471587736159563
1.35,-0.06811054050922394,0.07822704315185547,-0.13005834817886353,0.1922173649072647,0.02502058446407318,-0.0016151287127286196
1.4,-0.14439338445663452,0.1772899627685547,-0.037759602069854736,0.22473792731761932,0.031851544976234436,0.014252201654016972
1.45,-0.1363745927810669,0.28066158294677734,0.033215876668691635,0.19745616614818573,0.03581633046269417,0.021192649379372597
1.5,-0.10521327704191208,0.19396018981933594,0.2759391963481903,0.15835437178611755,0.03722253814339638,0.038062673062086105
1.55,-0.16215559840202332,0.08544635027647018,0.09210658073425293,0.17514808475971222,0.031264323741197586,0.06729345768690109
1.6,-0.05996009707450867,0.1124114990234375,0.04774104058742523,0.2003491371870041,0.04695400595664978,0.10309771448373795
1.65,-0.06630946695804596,-0.16373443603515625,0.18199405074119568,0.20055288076400757,0.08696002513170242,0.144300639629364
1.7,-0.12919461727142334,-0.1906728893518448,0.5156867504119873,0.2776525914669037,0.15008299052715302,0.1793300360441208
1.75,0.08057833462953568,0.3858222961425781,0.0511772483587265,0.3764178156852722,0.15772396326065063,0.24296079576015472
1.8,0.41211071610450745,0.37602999806404114,-0.37046194076538086,0.31369438767433167,0.2131042778491974,0.3212142288684845
1.85,0.25682634115219116,0.20310212671756744,-0.4144436717033386,0.21416807174682617,0.36351993680000305,0.39977678656578064
1.9,0.06716877222061157,0.2229471206665039,-0.20407390594482422,0.184493750333786,0.4298982620239258,0.4758540391921997
1.95,0.026034191250801086,0.4340543746948242,0.09431200474500656,0.14692538976669312,0.4502028226852417,0.46307480335235596
2.0,0.16346268355846405,0.5537519454956055,0.1707105040550232,0.06907553225755692,0.48555466532707214,0.38921651244163513
2.05,0.09089136868715286,0.2983074188232422,0.13909326493740082,-0.023568354547023773,0.5045315623283386,0.31826046109199524
2.1,-0.1961050033569336,0.29816532135009766,0.13381697237491608,-0.08582760393619537,0.4837680459022522,0.25311973690986633
2.15,-0.4226672649383545,0.4052562713623047,0.06702940911054611,-0.13134503364562988,0.39706629514694214,0.2078884243965149
2.2,-0.428478866815567,0.11646459996700287,0.14495283365249634,-0.16969388723373413,0.23456180095672607,0.1750607192516327
2.25,-0.21259522438049316,0.10004138201475143,0.32144695520401,-0.12842857837677002,0.059635479003190994,0.15762317180633545
2.3,-0.022133126854896545,-0.30950164794921875,0.5708473920822144,-0.1042395532131195,-0.005835138261318207,0.07764697819948196
2.35,0.06563755869865417,0.1768178939819336,0.6603969931602478,-0.056293338537216187,-0.034269459545612335,-0.03766806423664093
2.4,0.057395171374082565,0.24097156524658203,0.2983964681625366,-0.11911278963088989,-0.15566037595272064,-0.04773213341832161
2.45,0.20597228407859802,0.0007581756799481809,0.10646497458219528,-0.19518345594406128,-0.15518125891685486,-0.042108241468667984
2.5,0.13254523277282715,-0.039583202451467514,0.11851970106363297,-0.14711959660053253,-0.1806461215019226,-0.06058751419186592
2.55,-0.2847287654876709,-0.0944213941693306,0.06394736468791962,-0.09942028671503067,-0.2819570004940033,-0.04834370315074921
2.6,0.18306845426559448,0.29691123962402344,0.013303028419613838,-0.13681131601333618,-0.32216590642929077,-0.11866473406553268
2.65,0.5447394847869873,0.5283317565917969,0.09045630693435669,-0.15933607518672943,-0.4494873881340027,-0.12403209507465363
2.7,0.6132461428642273,-0.015442831441760063,0.040977880358695984,-0.19274000823497772,-0.4020202159881592,-0.07843388617038727
2.75,0.25264081358909607,0.3183622360229492,0.12167563289403915,-0.17730143666267395,-0.46064019203186035,-0.0916827917098999
2.8,0.09114108979701996,0.09151649475097656,0.07204209268093109,-0.2223428189754486,-0.46400099992752075,-0.15328684449195862
2.85,0.20932471752166748,-0.13599681854248047,-0.01271894946694374,-0.10404004156589508,-0.30573025345802307,-0.21828506886959076
2.9,0.050051793456077576,-0.03066062740981579,-0.07750610262155533,-0.04635874927043915,-0.3039628267288208,-0.179240882396698
2.95,-0.048205286264419556,0.42165374755859375,0.04289770498871803,-0.05410570278763771,-0.24782496690750122,-0.22697743773460388
3.0,0.11122298985719681,0.2935018539428711,-0.016798656433820724,-0.07299099862575531,-0.23711678385734558,-0.21799178421497345
3.05,-0.07061562687158585,0.06612014770507812,-0.011652924120426178,-0.047732289880514145,-0.20416143536567688,-0.2271214723587036
3.1,-0.17905274033546448,-0.009241108782589436,-0.028910305351018906,-0.056112099438905716,-0.15363666415214539,-0.2492779791355133
3.15,-0.1989324688911438,0.02873324789106846,0.004623585380613804,-0.03058997169137001,-0.1831842064857483,-0.20791161060333252
3.2,-0.1339356154203415,0.16477680206298828,-0.06625332683324814,-0.004108026623725891,-0.1979244202375412,-0.19907040894031525
3.25,-0.15156453847885132,0.24034690856933594,-0.09583353251218796,-0.01793438196182251,-0.19885452091693878,-0.20577079057693481
3.3,-0.19666707515716553,0.16103172302246094,-0.11681949347257614,-0.040971845388412476,-0.22311535477638245,-0.18188127875328064
3.35,-0.09896649420261383,0.10501861572265625,-0.12283968925476074,-0.03382997587323189,-0.25457578897476196,-0.14897169172763824
3.4,-0.06754545867443085,0.1296987533569336,-0.1612965315580368,-0.004131503403186798,-0.26902884244918823,-0.12752081453800201
3.45,-0.052943866699934006,0.04822349548339844,-0.16228248178958893,-0.0314776673913002,-0.2733125388622284,-0.10207437723875046
3.5,0.003930449485778809,0.19780921936035156,-0.049655765295028687,-0.02339283749461174,-0.2554118037223816,-0.08324852585792542
3.55,0.02905380167067051,0.1497516632080078,-0.02095729298889637,-0.012939292937517166,-0.2517748177051544,-0.04479984566569328
3.6,0.06168145686388016,0.210174560546875,0.024812858551740646,-0.009495610371232033,-0.21666638553142548,-0.008997764438390732
3.65,0.07491566240787506,0.06780147552490234,0.06908664107322693,-0.03919502720236778,-0.20387855172157288,0.05553972348570824
3.7,0.06840034574270248,0.14327430725097656,0.05443457514047623,-0.024847758933901787,-0.17428253591060638,0.09306257218122482
3.75,-0.007946519181132317,0.0700836181640625,0.05748830363154411,-0.0175095833837986,-0.14211493730545044,0.10049629211425781
3.8,-0.07461416721343994,0.17274951934814453,-0.02581697516143322,0.03374987468123436,-0.13730858266353607,0.10351450741291046
3.85,-0.14289985597133636,0.25067806243896484,-0.07629794627428055,0.04245059937238693,-0.1346748322248459,0.06393285095691681
3.9,-0.20814627408981323,0.3032541275024414,-0.15635202825069427,0.053248971700668335,-0.13356254994869232,-0.02801659144461155
3.95,0.09112344682216644,0.37088489532470703,-0.2682148516178131,0.04582016170024872,-0.10515433549880981,-0.1770305037498474
4.0,0.2065122127532959,0.3060731887817383,-0.14790166914463043,0.038828492164611816,-0.09626375138759613,-0.28731730580329895
4.05,-0.18627965450286865,0.22451400756835938,-0.1814039945602417,0.014086700975894928,-0.030796241015195847,-0.2651863098144531
4.1,-0.5385729670524597,0.2165832370519638,0.2094242125749588,-0.005589589476585388,0.01773153431713581,-0.16621704399585724
4.15,-0.5048739314079285,0.5223379135131836,0.029707834124565125,-0.011844843626022339,0.03450171276926994,-0.14194688200950623
4.2,-0.32812219858169556,0.23780344426631927,0.1351771056652069,-0.004114564508199692,0.10705626010894775,-0.17565421760082245
4.25,0.17454582452774048,-0.36054325103759766,0.11367721110582352,-0.07076175510883331,0.20071598887443542,-0.2042076736688614
4.3,0.29158028960227966,-0.25484752655029297,0.4783492684364319,-0.03228399530053139,0.2892792224884033,-0.23165901005268097
4.35,0.0049773529171943665,0.09705543518066406,0.19375313818454742,0.010522030293941498,0.4580920338630676,-0.18262173235416412
4.4,0.021975375711917877,0.8556118011474609,-0.19642871618270874,0.03788354992866516,0.5652498006820679,-0.1220768541097641
4.45,-0.25712162256240845,0.578801155090332,-0.22097332775592804,-0.12097883969545364,0.44845545291900635,0.03477565944194794
4.5,-0.11555438488721848,0.03375530242919922,-0.16647757589817047,-0.23610135912895203,0.23849640786647797,0.12346284091472626
4.55,0.06439296156167984,0.11330890655517578,-0.02876485139131546,-0.1526106297969818,0.13471758365631104,0.07329857349395752
4.6,0.09906540811061859,0.20113182067871094,0.08639499545097351,-0.08982334285974503,0.06957588344812393,0.06865651905536652
4.65,-0.14147163927555084,-0.1508159637451172,-0.11054708808660507,-0.10592854022979736,0.06790393590927124,0.03747047856450081
4.7,0.02867894433438778,0.15939998626708984,0.13917000591754913,-0.034279584884643555,0.07071489095687866,-0.03914792090654373
4.75,0.2911243438720703,0.12152863293886185,-0.025826748460531235,-0.04857421666383743,-0.0006626659887842834,-0.021186769008636475
4.8,0.24288137257099152,0.030859000980854034,-0.021597564220428467,-0.03526727482676506,-0.012134244665503502,-0.040560610592365265
4.85,0.20921273529529572,0.06745148450136185,0.02208324708044529,0.025867164134979248,-0.02174120955169201,-0.05509405955672264
4.9,0.20847824215888977,0.02411556988954544,-0.09368091076612473,0.024158596992492676,-0.049031440168619156,-0.014348583295941353
4.95,0.11362451314926147,0.21820831298828125,-0.15778854489326477,0.014560616575181484,-0.13842491805553436,-0.005090529099106789
5.0,0.16380871832370758,-0.05188369378447533,-0.08324506133794785,0.10299493372440338,-0.1843496561050415,-0.005905775353312492
5.05,0.30419620871543884,-0.14649200439453125,0.16068430244922638,0.17104926705360413,-0.12964566051959991,0.058420561254024506
5.1,0.3708311915397644,-0.08098315447568893,0.2972073256969452,0.25026804208755493,-0.06601161509752274,0.11453881859779358
5.15,0.3959810733795166,-0.0027112874668091536,0.21271753311157227,0.3473482131958008,-0.009760462678968906,0.28652575612068176
5.2,0.25926125049591064,0.22219562530517578,0.14583465456962585,0.4949524402618408,0.02271590568125248,0.480191171169281
5.25,0.1707189828157425,0.16683484613895416,-0.27267003059387207,0.4982473850250244,0.07542591542005539,0.6052581667900085
5.3,0.47434401512145996,0.22976304590702057,0.17990480363368988,0.4575280547142029,0.14162394404411316,0.627804696559906
5.35,0.26648008823394775,0.3935537338256836,-0.08259056508541107,0.4117811322212219,0.19658368825912476,0.5234705209732056
5.4,0.16112153232097626,0.3232383728027344,0.01855677179992199,0.36533427238464355,0.22517122328281403,0.4180213212966919
5.45,-0.0573820099234581,0.4389677047729492,0.01534541230648756,0.2661939859390259,0.1639816164970398,0.31312769651412964
5.5,-0.3912583589553833,0.1197357028722763,0.22277775406837463,0.15784934163093567,-0.036453068256378174,0.3171471357345581
5.55,-0.5437374114990234,0.21637724339962006,0.15298210084438324,0.13929396867752075,-0.22853809595108032,0.2969818115234375
5.6,-0.09548456966876984,0.3927116394042969,-0.0038530859164893627,0.06506652384996414,-0.40037062764167786,0.24921908974647522
5.65,0.21786710619926453,0.09673977643251419,-0.24011605978012085,-0.07328048348426819,-0.2955796718597412,0.08366728574037552
5.7,0.09557195007801056,0.12520122528076172,-0.1664876788854599,-0.14328192174434662,-0.11543488502502441,-0.09994083642959595
5.75,-0.13437925279140472,0.28757286071777344,0.254856139421463,-0.12849949300289154,-0.12213645875453949,-0.12814341485500336
5.8,-0.3099292814731598,0.1410817950963974,0.13611501455307007,-0.16826963424682617,-0.2007981538772583,-0.18927714228630066
5.85,-0.3585284352302551,0.03998183086514473,0.02249589003622532,-0.23941177129745483,-0.24752822518348694,-0.2853755056858063
5.9,-0.3573448359966278,0.11767291277647018,0.002124946331605315,-0.17132622003555298,-0.3183664083480835,-0.3398975133895874
5.95,-0.46150144934654236,0.2763833999633789,-0.15103194117546082,-0.10787960886955261,-0.4859023094177246,-0.3415988087654114
6.0,-0.6445631384849548,0.3642100989818573,-0.010789234191179276,-0.14220556616783142,-0.7273133993148804,-0.2678094506263733
6.05,-0.556575357913971,0.14435575902462006,0.04518619552254677,-0.17993572354316711,-0.9396188259124756,-0.1065945103764534
6.1,0.01134047657251358,-0.21782398223876953,0.22362332046031952,-0.1845226287841797,-0.9579300880432129,-0.04489564150571823
6.15,0.3849135637283325,0.025169380009174347,0.3528154492378235,-0.1085992306470871,-0.7031807899475098,-0.08539436757564545
6.2,0.29837867617607117,0.19558429718017578,0.17418602108955383,-0.10111106932163239,-0.30087539553642273,-0.1471216380596161
6.25,0.14816588163375854,0.2753276824951172,0.17558430135250092,-0.1510608196258545,-0.009631863795220852,-0.15403808653354645
6.3,-0.27224642038345337,-0.015248304232954979,-0.18132266402244568,-0.23206327855587006,0.21618850529193878,-0.18592694401741028
6.35,-0.6377357840538025,0.03748033940792084,-0.14248977601528168,-0.13172560930252075,0.28236863017082214,-0.14531731605529785
6.4,-0.49132806062698364,0.2896251678466797,-0.13443218171596527,-0.08251466602087021,0.18552058935165405,-0.04458237811923027
6.45,-0.27044135332107544,0.24802875518798828,-0.2293865978717804,-0.13481850922107697,0.1859394758939743,0.0054422784596681595
6.5,-0.24688653647899628,0.5902090072631836,-0.1527082920074463,-0.13190731406211853,0.2941727340221405,-0.01899179257452488
6.55,-0.23858210444450378,0.4007892608642578,-0.12560731172561646,-0.15866583585739136,0.33948469161987305,0.005016098730266094
6.6,-0.10720552504062653,0.20844650268554688,0.05459911376237869,-0.13472267985343933,0.3498607873916626,0.044544294476509094
6.65,0.018778890371322632,-0.09894943237304688,-0.14554738998413086,-0.15173707902431488,0.31312188506126404,0.0933607891201973
6.7,-0.026398878544569016,0.34842777252197266,0.0011194898979738355,-0.16376139223575592,0.2906978130340576,0.0727720856666565
6.75,-0.17625893652439117,0.12150000780820847,0.03523793816566467,-0.1626441925764084,0.255574107170105,0.050427887588739395
6.8,0.23408222198486328,0.004364973399788141,0.02790834754705429,-0.10540271550416946,0.14755290746688843,0.12895062565803528
6.85,0.29467642307281494,0.15349102020263672,0.10108345746994019,-0.08713947236537933,0.10012687742710114,0.15281786024570465
6.9,0.31709009408950806,-0.10552405565977097,-0.19146829843521118,-0.022477619349956512,0.08365970849990845,0.11891931295394897
6.95,0.41604071855545044,0.04915524646639824,-0.05343284457921982,0.058173954486846924,0.00652659684419632,0.142628476023674
7.0,0.5498062372207642,0.14529134333133698,-0.020071353763341904,0.09405817091464996,-0.04487130790948868,0.167120561003685
7.05,0.3886794447898865,-0.011846530251204967,-0.12592527270317078,0.11750990152359009,-0.0744897648692131,0.16043934226036072
7.1,0.28126633167266846,0.1876087337732315,-0.155491441488266,0.17395341396331787,-0.062187884002923965,0.12555637955665588
7.15,0.4183101952075958,0.24860383570194244,-0.09369945526123047,0.18112652003765106,-0.057026322931051254,0.08977330476045609
7.2,0.27841049432754517,0.32118797302246094,0.12350598722696304,0.12299883365631104,-0.04861578345298767,0.05973772332072258
7.25,0.1850472390651703,0.11650372296571732,0.018997933715581894,0.08776616305112839,-0.005419471301138401,0.014049805700778961
7.3,0.07051527500152588,0.2597322463989258,0.0787094309926033,0.08934337645769119,-0.01971135474741459,-0.012412219308316708
7.35,-0.0041140057146549225,0.23428916931152344,0.012194044888019562,0.06541112065315247,-0.032400768250226974,-0.04265778511762619
7.4,0.1678658425807953,0.21553611755371094,0.12220954149961472,0.0295388326048851,-0.03541199117898941,-0.08150705695152283
7.45,0.10750798135995865,0.11321163177490234,-0.001173060736618936,0.012724515050649643,-0.041183505207300186,-0.09414193034172058
7.5,-0.11978087574243546,0.15518474578857422,-0.012454013340175152,0.008838173002004623,-0.0567297488451004,-0.07994106411933899
7.55,0.012227815575897694,0.1020040512084961,0.04752802848815918,0.0123494453728199,-0.0650164932012558,-0.06881794333457947
7.6,0.003632628358900547,0.20904159545898438,-0.04676862806081772,0.009229859337210655,-0.059488072991371155,-0.06786048412322998
7.65,-0.03611505776643753,0.18288040161132812,-0.13763684034347534,-0.02489185333251953,-0.054613929241895676,-0.06779786199331284
7.7,-0.17016145586967468,0.2116832733154297,0.17546117305755615,-0.029329171404242516,-0.06719743460416794,-0.07088911533355713
7.75,-0.2071417272090912,0.2123422622680664,0.0774446651339531,-0.037084538489580154,-0.11132539808750153,-0.06200787052512169
7.8,-0.23354065418243408,0.1972179263830185,0.10134420543909073,-0.03590834140777588,-0.133655846118927,-0.07031629234552383
7.85,0.10479040443897247,0.11834526062011719,0.12000876665115356,-0.046626631170511246,-0.14478996396064758,-0.10926314443349838
7.9,0.023400327190756798,0.20355606079101562,-0.03843201696872711,-0.057463034987449646,-0.16226844489574432,-0.1442081183195114
7.95,-0.3053603768348694,-0.03394318372011185,-0.10314542055130005,-0.08442908525466919,-0.19722896814346313,-0.15795040130615234
8.0,-0.1834946870803833,0.03108500875532627,0.05112902447581291,-0.04531064257025719,-0.2751719653606415,-0.07767434418201447
8.05,-0.14792445302009583,0.2021932601928711,0.1610470712184906,-0.013460017740726471,-0.3254793882369995,0.0016544711543247104
8.1,0.08845105767250061,0.13956546783447266,0.07765901833772659,-0.0070429835468530655,-0.30852562189102173,0.041943665593862534
8.15,-0.04267381876707077,0.15009689331054688,0.0027423386927694082,0.015173937194049358,-0.26220566034317017,0.029130324721336365
8.2,-0.1553063839673996,0.054320331662893295,0.002487180521711707,0.06555161625146866,-0.2998840808868408,0.04043994098901749
8.25,-0.11407933384180069,0.15845203399658203,0.20315183699131012,0.12626245617866516,-0.38798514008522034,0.12555426359176636
8.3,-0.11522404849529266,0.1681842803955078,0.17887191474437714,0.1955198347568512,-0.46132349967956543,0.20950442552566528
8.35,-0.23001675307750702,0.41689014434814453,0.20964348316192627,0.23103360831737518,-0.48262277245521545,0.23963476717472076
8.4,-0.2734439969062805,0.4666433334350586,0.26928794384002686,0.21140751242637634,-0.4374541640281677,0.15977482497692108
8.45,-0.3268181085586548,-0.18688298761844635,0.17708003520965576,0.12035635113716125,-0.32322582602500916,0.0478154793381691
8.5,-0.8391720056533813,-0.3404741585254669,-0.0863710418343544,0.10207585245370865,-0.06689050048589706,-0.09621644020080566
8.55,-0.9061470627784729,0.8878679275512695,0.32958897948265076,0.2545880377292633,0.11823639273643494,-0.14298570156097412
8.6,-0.8587546348571777,0.8396120071411133,0.2927415072917938,0.1347997635602951,0.45152124762535095,-0.1534571796655655
8.65,-0.5288852453231812,-0.1871204525232315,0.440396785736084,-0.14022551476955414,0.5614522099494934,-0.118599072098732
8.7,-0.761272668838501,-0.20775702595710754,0.19417725503444672,-0.1406126320362091,0.7971146702766418,-0.03569551557302475
8.75,-1.4113177061080933,0.17311091721057892,0.3810819983482361,-0.03009968250989914,1.0140929222106934,-0.0015774336643517017
8.8,-1.6509132385253906,0.24645133316516876,0.32160189747810364,-0.027874121442437172,1.105946660041809,-0.00033959338907152414
8.85,-1.6026333570480347,0.9209794402122498,0.2708521783351898,0.01681855507194996,1.187307357788086,-0.08180353790521622
8.9,-0.6653375625610352,-0.14734460413455963,0.3047695755958557,0.1185029074549675,1.0566688776016235,-0.033952973783016205
8.95,0.03445414826273918,0.20561885833740234,0.1588369756937027,0.2225227952003479,0.834843099117279,0.10862342268228531
9.0,0.703118622303009,-0.14400289952754974,-0.1132076308131218,0.2934100925922394,0.6445869207382202,0.3427010178565979
9.05,1.210204839706421,0.13671401143074036,-0.1845725178718567,0.44723767042160034,0.626434326171875,0.33980026841163635
9.1,1.5345776081085205,0.20409779250621796,-0.42776361107826233,0.5110957622528076,0.6161777973175049,0.4198104441165924
9.15,0.736274778842926,0.04740622267127037,-0.3918626010417938,0.5694776773452759,0.6615724563598633,0.5197478532791138
9.2,0.6857039928436279,-0.15007494390010834,-0.22270357608795166,0.5982983112335205,0.689436674118042,0.522243857383728
9.25,0.8543078303337097,0.15224555134773254,-0.1554202437400818,0.5655113458633423,0.6146665811538696,0.5526918172836304
9.3,0.7005479335784912,0.17762376368045807,0.027458196505904198,0.405622273683548,0.5499571561813354,0.5049622058868408
9.35,0.08116744458675385,0.15073490142822266,-0.06033014878630638,0.40524667501449585,0.5067574381828308,0.38512715697288513
9.4,0.21379947662353516,0.23044872283935547,0.14958830177783966,0.3562065362930298,0.43410664796829224,0.2785191237926483
9.45,0.20334601402282715,0.4389925003051758,0.24961258471012115,0.25796374678611755,0.4312901794910431,0.15445877611637115
9.5,0.008164091035723686,0.10138320922851562,-0.08066820353269577,0.17097914218902588,0.349975049495697,0.10035006701946259
9.55,0.25855645537376404,0.10121918469667435,-0.1449754685163498,0.13880270719528198,0.26608991622924805,0.08575937896966934
9.6,0.18263649940490723,0.09626675397157669,0.06855040788650513,0.10826823860406876,0.2835732698440552,0.0517825186252594
9.65,0.05606752634048462,0.27173328399658203,0.08184926956892014,0.07136234641075134,0.3263798952102661,-0.011207031086087227
9.7,0.04582814872264862,0.19027996063232422,0.04934920370578766,0.01378793828189373,0.3336697518825531,-0.04233105853199959
9.75,-0.24490787088871002,0.10211848467588425,0.13736172020435333,-0.02455141767859459,0.326810359954834,-0.07043635845184326
9.8,-0.3566715717315674,0.273956298828125,0.15224967896938324,-0.036827001720666885,0.287928968667984,-0.06463571637868881
9.85,-0.22607553005218506,0.28166866302490234,-0.04038470238447189,-0.07550511509180069,0.205756276845932,-0.014539756812155247
9.9,0.02722308412194252,0.07750225067138672,0.02478618733584881,-0.0909886360168457,0.15237094461917877,0.013639782555401325
9.95,0.0008395686745643616,0.14986801147460938,0.26894110441207886,-0.06256268918514252,0.15843243896961212,0.0008626981289125979
10.0,-0.09638708084821701,0.2476177215576172,-0.037722185254096985,-0.09581925719976425,0.1726442277431488,0.03856928274035454
10.05,0.06007012724876404,0.25403404235839844,-0.023687781766057014,-0.15125305950641632,0.17826306819915771,0.06741347908973694
10.1,-0.17513424158096313,-0.024496082216501236,-0.09042079001665115,-0.18767213821411133,0.17356932163238525,0.04996822774410248
10.15,-0.32321131229400635,-0.012716301716864109,-0.021223708987236023,-0.17788967490196228,0.16490358114242554,-0.01861070655286312
10.2,-0.295402854681015,0.1284170001745224,0.15252509713172913,-0.19799771904945374,0.11349163204431534,-0.05475444719195366
10.25,0.009854856878519058,0.17776870727539062,0.17636319994926453,-0.21841317415237427,0.01320732943713665,-0.02839161455631256
10.3,0.13387632369995117,0.11101246625185013,-0.04849184677004814,-0.2431287169456482,-0.0013286647154018283,-0.028611280024051666
10.35,-0.004308277741074562,-0.04703712463378906,0.025255706161260605,-0.23123392462730408,-0.0050475019961595535,-0.08214287459850311
10.4,-0.18558526039123535,-0.1188507154583931,0.30849689245224,-0.1884641945362091,-0.05095440149307251,-0.12379060685634613
10.45,-0.10999850183725357,0.06815432757139206,0.3950406312942505,-0.14612768590450287,-0.16639763116836548,-0.12705504894256592
10.5,0.17770996689796448,0.11019135266542435,0.09098383784294128,-0.15332254767417908,-0.2907147705554962,-0.14232675731182098
10.55,0.21386179327964783,0.064301498234272,0.011465447023510933,-0.13797929883003235,-0.37080246210098267,-0.21131886541843414
10.6,0.06043268367648125,0.06156444549560547,-0.013551889918744564,-0.16462551057338715,-0.4416278600692749,-0.2630847990512848
10.65,0.01076151430606842,0.15440940856933594,-0.07780695706605911,-0.19334645569324493,-0.5327482223510742,-0.30746302008628845
10.7,0.17013166844844818,0.2402791976928711,-0.1196204200387001,-0.21223898231983185,-0.6046656966209412,-0.32951322197914124
10.75,0.248097762465477,0.4565458297729492,-0.08493351191282272,-0.21998631954193115,-0.5527663826942444,-0.34673556685447693
10.8,0.16561448574066162,0.31878185272216797,0.14027521014213562,-0.20193493366241455,-0.49099284410476685,-0.31937968730926514
10.85,0.12620693445205688,-0.06901359558105469,0.08474241197109222,-0.16474232077598572,-0.3613499104976654,-0.2570302486419678
10.9,0.13872601091861725,0.0328979529440403,0.0703684538602829,-0.13994210958480835,-0.2548729479312897,-0.19580671191215515
10.95,-0.048133593052625656,0.1493682861328125,-0.0724482536315918,-0.10656461119651794,-0.1698089987039566,-0.13834811747074127
11.0,-0.2479550540447235,0.10213469713926315,-0.0850943922996521,-0.09158793091773987,-0.13844913244247437,-0.09166625142097473
11.05,-0.28542283177375793,-0.02777290903031826,-0.13295942544937134,-0.06775772571563721,-0.15103688836097717,-0.08769151568412781
11.1,-0.19870847463607788,-0.01699543371796608,-0.143390953540802,-0.03229186311364174,-0.14801442623138428,-0.10584916919469833
11.15,0.03609013557434082,0.1635894775390625,-0.1511048823595047,-0.011906232684850693,-0.1372576504945755,-0.07898596674203873
11.2,-0.017471175640821457,0.2757110595703125,-0.18885037302970886,-0.03186562657356262,-0.12687885761260986,-0.030052995309233665
11.25,-0.035404350608587265,0.3117351531982422,0.15143869817256927,-0.060407109558582306,-0.08289170265197754,-0.0202325452119112
11.3,-0.11633909493684769,0.23262691497802734,-0.09113447368144989,-0.08095809072256088,-0.06373937427997589,-0.031049007549881935
11.35,-0.021537231281399727,0.13733577728271484,0.028399324044585228,-0.09267482161521912,-0.04964519664645195,-0.060255683958530426
11.4,-0.03836427628993988,0.046123504638671875,-0.02954709902405739,-0.0824958011507988,-0.0224465299397707,-0.09281300753355026
11.45,-0.0879058688879013,0.19258689880371094,0.06067616119980812,-0.060958363115787506,-0.007414658088237047,-0.106745645403862
11.5,-0.0743885412812233,0.038331981748342514,0.04732745885848999,-0.08410754054784775,-0.017334220930933952,-0.09988149255514145
11.55,-0.02072211354970932,0.07348346710205078,-0.05146550014615059,-0.04711708426475525,-0.009584888815879822,-0.1325155794620514
11.6,0.06215836480259895,0.05759621039032936,-0.05841560661792755,-0.027412766590714455,-0.03162875398993492,-0.1343100219964981
11.65,0.07822465151548386,0.09630393981933594,-0.08563439548015594,-0.009570877999067307,-0.025028055533766747,-0.12887054681777954
11.7,0.08515346795320511,0.05649185553193092,-0.02861024998128414,-0.007639434188604355,-0.022003499791026115,-0.10886791348457336
11.75,0.1301935315132141,0.06481266766786575,-0.042542796581983566,0.007765967398881912,0.010190446861088276,-0.10175284743309021
11.8,0.09400062263011932,0.05070114508271217,0.03011236898601055,0.03234277665615082,0.030804084613919258,-0.08067113161087036
11.85,0.08510273694992065,0.11470985412597656,0.1873597502708435,0.05771864950656891,0.08502651751041412,-0.06513962149620056
11.9,-0.009263674728572369,0.04901409149169922,-0.04769202321767807,0.09746044129133224,0.11140189319849014,-0.03305782750248909
11.95,0.06004900857806206,0.12492179870605469,0.06675494462251663,0.11950995773077011,0.13578687608242035,-0.008706767112016678
12.0,-0.015401957556605339,0.152435302734375,0.0019114500610157847,0.12382406741380692,0.1690303385257721,-0.0019261675188317895
12.05,-0.016328372061252594,0.17547607421875,0.023162158206105232,0.12792493402957916,0.17228516936302185,0.002899197395890951
12.1,-0.033920399844646454,0.2411355972290039,0.06129446625709534,0.12353107333183289,0.14528150856494904,0.014609490521252155
12.15,-0.05840796232223511,0.22852420806884766,0.03104761615395546,0.1010955199599266,0.11968832463026047,0.010480854660272598
12.2,-0.06669792532920837,0.13993072509765625,-0.010328082367777824,0.09068050235509872,0.08430694043636322,-0.006395708303898573
12.25,-0.023512519896030426,0.2061471939086914,0.0871160626411438,0.08067172020673752,0.037609923630952835,-0.023085853084921837
12.3,-0.027423109859228134,0.19572925567626953,0.03731336444616318,0.07587064057588577,-0.011893325485289097,-0.025449741631746292
12.35,0.01737838238477707,0.2030963897705078,0.006238135509192944,0.07086651027202606,-0.061071813106536865,-0.018506499007344246
12.4,-0.0036044600419700146,0.19618606567382812,-0.02422063611447811,0.06412672996520996,-0.09265711903572083,-0.01698056422173977
12.45,-0.05648563429713249,0.13582134246826172,-0.11894723773002625,0.034760452806949615,-0.11613891273736954,-0.016337323933839798
12.5,0.08310465514659882,0.2271728515625,0.007291363086551428,0.03270866349339485,-0.11591536551713943,-0.023083362728357315
12.55,0.1360665261745453,0.18743324279785156,0.04303824156522751,0.01806049421429634,-0.1270211935043335,-0.010001396760344505
12.6,0.11477874964475632,0.1626424789428711,0.008015287108719349,0.024502525106072426,-0.10067206621170044,-0.015817297622561455
12.65,0.13121217489242554,0.1605510711669922,-0.0751374140381813,0.0024058858398348093,-0.08724753558635712,-0.007453481201082468
12.7,0.14846542477607727,0.13643932342529297,-0.019602350890636444,0.00966683216392994,-0.05921688675880432,-0.009342574514448643
12.75,0.1539739966392517,0.06095314398407936,-0.026318250223994255,-0.001036320230923593,-0.02716313675045967,-0.004490248393267393
12.8,0.1528281718492508,0.055387500673532486,-0.04499490559101105,0.02693360298871994,0.018460260704159737,-0.011115161702036858
12.85,0.10405781865119934,0.11153507232666016,0.022111326456069946,0.041898053139448166,0.05170329287648201,-0.009657272137701511
12.9,0.028849970549345016,0.12490367889404297,-0.036153264343738556,0.05489276349544525,0.08955897390842438,-0.012046962976455688
12.95,0.1287437379360199,0.141815185546875,0.004045092035084963,0.05294845625758171,0.13629257678985596,-0.01029584463685751
13.0,0.0885419100522995,0.09314250946044922,0.01741994172334671,0.049550339579582214,0.18054702877998352,-0.009422507137060165
13.05,0.06460630893707275,0.08902740478515625,-0.0030543257016688585,0.04961426183581352,0.20593005418777466,-0.0035768835805356503
13.1,0.14865244925022125,0.1383991241455078,0.1374066174030304,0.04684880003333092,0.23080620169639587,-0.00180892797652632
13.15,0.002353839110583067,0.08983039855957031,-0.020176030695438385,0.056677259504795074,0.24713893234729767,-0.0015090462984517217
13.2,0.04624629393219948,0.12269973754882812,-0.02297944948077202,0.062070753425359726,0.2561515271663666,-0.004178585484623909
13.25,0.013359609059989452,0.1510782241821289,-0.014768868684768677,0.04430077224969864,0.2680289149284363,-0.011241036467254162
13.3,0.03790166974067688,0.1396045684814453,0.08728165924549103,0.05155571922659874,0.26367616653442383,-0.016503363847732544
13.35,-0.00014255382120609283,0.16404151916503906,0.03326602280139923,0.05281202867627144,0.2608039975166321,-0.010934006422758102
13.4,-0.037915416061878204,0.08947467803955078,-0.04607594758272171,0.04672388732433319,0.25899171829223633,-0.015214272774755955
13.45,0.025781119242310524,0.14275074005126953,0.058080777525901794,0.051511116325855255,0.24264763295650482,-0.019835591316223145
13.5,0.034896742552518845,0.1334066390991211,0.08124672621488571,0.06592965126037598,0.22151564061641693,-0.02357265166938305
13.55,-0.01293690875172615,0.09398555755615234,0.07252703607082367,0.0683567076921463,0.20446497201919556,-0.022429410368204117
13.6,0.024274462834000587,0.0687398910522461,-0.02305099554359913,0.08060821890830994,0.18989154696464539,-0.03546445071697235
13.65,-0.017234142869710922,0.1111602783203125,0.011164099909365177,0.08983784168958664,0.16206824779510498,-0.02778623066842556
13.7,-0.03353910148143768,0.07077980041503906,0.012100198306143284,0.08756735920906067,0.15050926804542542,-0.012533972971141338
13.75,-0.015340881422162056,0.05417156219482422,0.01967146433889866,0.11245736479759216,0.1505744755268097,-0.01741161197423935
13.8,-0.06047641113400459,0.11470890045166016,0.03810016065835953,0.11780097335577011,0.13174833357334137,-0.007434237748384476
13.85,-0.05526413023471832,0.2009601593017578,0.075326107442379,0.11695197224617004,0.11624690145254135,-0.01589234359562397
13.9,-0.024939976632595062,0.16333675384521484,0.14245128631591797,0.09515304863452911,0.05916525796055794,-0.007739229127764702
13.95,-0.11656831204891205,0.2399911880493164,0.06226620823144913,0.08839791268110275,0.0046106367371976376,-0.009402524679899216
14.0,-0.0733683779835701,0.1824798583984375,0.09517988562583923,0.06645500659942627,-0.045954082161188126,-0.008806074969470501
14.05,-0.08340875059366226,0.15003490447998047,0.01691845990717411,0.05182521790266037,-0.1059136763215065,-0.017901450395584106
14.1,-0.04303986579179764,0.1249551773071289,0.07489337027072906,0.024735629558563232,-0.16576296091079712,-0.024491185322403908
14.15,0.031292662024497986,0.20416545867919922,-0.0038186577148735523,0.020134955644607544,-0.2070687711238861,-0.029969697818160057
14.2,-0.0073441737331449986,0.1454334259033203,0.022813530638813972,-0.0006218240596354008,-0.25393471121788025,-0.01770351454615593
14.25,0.011428343132138252,0.14212608337402344,0.04717884585261345,-0.014323562383651733,-0.2804410457611084,-0.010508994571864605
14.3,-0.03492807596921921,0.23785400390625,-0.13018469512462616,-0.02134072594344616,-0.3080274164676666,-0.003787706373259425
14.35,0.1035827174782753,0.16805362701416016,0.1882169246673584,-0.04909813404083252,-0.3207893967628479,0.00356852519325912
14.4,0.04502502456307411,0.2122945785522461,0.022204751148819923,-0.0600346215069294,-0.3214973211288452,0.0005141959409229457
14.45,0.0825369581580162,0.11265373229980469,-0.06939941644668579,-0.0637824535369873,-0.3233858346939087,-0.0024656059686094522
14.5,0.08187377452850342,0.11436367779970169,-0.14145204424858093,-0.06449779123067856,-0.3091733455657959,-0.002904267981648445
14.55,0.1336015909910202,0.17100906372070312,-0.013959924690425396,-0.05455639585852623,-0.3146304488182068,0.0034564360976219177
14.6,0.1199495941400528,0.08347415924072266,0.039576996117830276,-0.07089439034461975,-0.29000043869018555,0.01549727376550436
14.65,0.0976794883608818,0.13764476776123047,-0.026267658919095993,-0.060143571346998215,-0.2618931233882904,0.01926710084080696
14.7,0.12250538170337677,0.07960987836122513,-0.05047781765460968,-0.06154092028737068,-0.24896565079689026,0.02649247646331787
14.75,0.16213667392730713,0.17899608612060547,-0.05193526670336723,-0.03538575768470764,-0.22823268175125122,0.029680190607905388
14.8,0.2163357138633728,0.017731674015522003,-0.11192385852336884,-0.03608047217130661,-0.20546822249889374,0.04674476385116577
14.85,0.17450571060180664,0.15985584259033203,0.0018173317657783628,-0.02282291278243065,-0.16096915304660797,0.03743220865726471
14.9,0.1926676332950592,0.23172569274902344,-0.03984551131725311,-0.030963217839598656,-0.12201301008462906,0.03383124619722366
14.95,0.056764453649520874,0.19133663177490234,-0.05282857269048691,-0.05893586575984955,-0.09899325668811798,0.02769787237048149
15.0,0.08232486248016357,0.12940025329589844,-0.1048455610871315,-0.04764959588646889,-0.053122490644454956,0.013455471023917198
15.05,0.07772620022296906,0.15186309814453125,-0.06431282311677933,-0.03758063167333603,-0.03612906113266945,0.017017964273691177
15.1,0.04495362937450409,0.0810403823852539,-0.05487949028611183,-0.023990513756871223,-0.006447280291467905,0.006143371574580669
15.15,-0.012283840216696262,0.041489601135253906,0.007222827989608049,-0.013591545633971691,0.018235888332128525,-0.0023807156831026077
15.2,0.004501194693148136,0.12604999542236328,-0.03483949974179268,-0.010799851268529892,0.055769287049770355,-0.005362517200410366
15.25,0.07753844559192657,0.1817493438720703,-0.0392075777053833,-0.0338662713766098,0.09674657136201859,-0.0009953974513337016
15.3,0.00604456290602684,0.11867904663085938,-0.09824138134717941,-0.07561085373163223,0.13238002359867096,0.013134635053575039
15.35,-0.02179298736155033,0.06630229949951172,-0.09196895360946655,-0.14694832265377045,0.12226551026105881,0.06831536442041397
15.4,-0.0804026648402214,0.03177928924560547,-0.09960940480232239,-0.08566631376743317,0.150453120470047,0.06991655379533768
15.45,-0.08626049011945724,0.1363363265991211,-0.01379483938217163,-0.02957216650247574,0.12473569810390472,0.0815727710723877
15.5,-0.06874225288629532,0.07124710083007812,0.05916376784443855,-0.016858238726854324,0.15244479477405548,0.049470867961645126
15.55,-0.16506078839302063,0.02193736657500267,-0.02043374627828598,-0.03732944279909134,0.11820143461227417,0.0695558413863182
15.6,-0.29457226395606995,-0.005577094852924347,-0.0862651914358139,-0.02578413113951683,0.09023582935333252,0.06000933423638344
15.65,-0.1592399924993515,0.12001609057188034,0.0526156984269619,-0.008072744123637676,0.052021294832229614,0.04847769811749458
15.7,-0.13658498227596283,0.1653728485107422,0.0440836101770401,-0.0038370387628674507,0.029081670567393303,0.04053172469139099
15.75,-0.17520909011363983,0.21257591247558594,0.10358291864395142,-0.023187153041362762,0.0034558791667222977,0.02688780426979065
15.8,-0.1920330971479416,0.1147613450884819,0.041182976216077805,-0.03973251208662987,-0.033332232385873795,0.0313810259103775
15.85,-0.22000299394130707,0.15207958221435547,0.06352517008781433,-0.049840353429317474,-0.07659346610307693,0.02089887671172619
15.9,-0.21027106046676636,0.1261119842529297,0.03843282535672188,-0.0295376218855381,-0.14400288462638855,0.004970137029886246
15.95,-0.22740264236927032,0.19542312622070312,0.01740180514752865,-0.028857730329036713,-0.19883447885513306,-0.01917438954114914
16.0,-0.08564997464418411,0.16215229034423828,-0.008391470648348331,-0.058628153055906296,-0.24893204867839813,-0.018374623730778694
16.05,0.016527798026800156,0.20309925079345703,0.03197358921170235,-0.07131058722734451,-0.28693124651908875,-0.01633286662399769
16.1,-0.0462912879884243,0.1803569793701172,0.011281398124992847,-0.08986896276473999,-0.3006189167499542,-0.012038113549351692
16.15,-0.09176662564277649,0.008748052641749382,-0.08318750560283661,-0.10327861458063126,-0.32972216606140137,-0.0047329687513411045
16.2,0.0027657300233840942,0.15963268280029297,0.1325189769268036,-0.05919843539595604,-0.37328267097473145,-0.005145557224750519
16.25,-0.0014376817271113396,0.23723888397216797,-0.03832473233342171,-0.03849511966109276,-0.3712712228298187,-0.0014415689511224627
16.3,0.09547623991966248,0.09708309918642044,-0.2071470320224762,-0.04673206806182861,-0.37214675545692444,0.01740903966128826
16.35,0.0476464107632637,0.0900716781616211,-0.13698577880859375,-0.02456539496779442,-0.34228673577308655,0.022995783016085625
16.4,0.06250006705522537,0.06673431396484375,-0.11356110870838165,0.004584471695125103,-0.32811811566352844,0.04721491411328316
16.45,0.10840344429016113,0.05833816900849342,-0.028870346024632454,-0.01929594948887825,-0.28727197647094727,0.06279449909925461
16.5,0.1872834861278534,0.10935498028993607,-0.023642726242542267,-0.007779212668538094,-0.21344023942947388,0.08375284820795059
16.55,0.2139318436384201,0.1789712905883789,0.052731405943632126,-0.01748986914753914,-0.1692022681236267,0.11810793727636337
16.6,0.19233839213848114,0.19539165496826172,0.058341871947050095,-0.03010471537709236,-0.09228362888097763,0.12405876070261002
16.65,0.1878088414669037,0.2483844757080078,0.1558142900466919,-0.040560852736234665,-0.023332277312874794,0.11001686751842499
16.7,0.09207790344953537,0.2264232635498047,0.05660764127969742,-0.05110468715429306,0.03062581829726696,0.08128031343221664
16.75,-0.07070501148700714,0.09020137786865234,-0.06187795475125313,-0.06340085715055466,0.060084227472543716,0.07496996223926544
16.8,-0.13149452209472656,0.1967916488647461,0.011514058336615562,-0.06588393449783325,0.09075936675071716,0.061153851449489594
16.85,-0.17878857254981995,0.19288921356201172,-0.03427185118198395,-0.08060166984796524,0.06026167795062065,0.05621258169412613
16.9,-0.17067788541316986,0.2050924301147461,0.007100960705429316,-0.07547260075807571,0.04259810969233513,0.0479968786239624
16.95,-0.06975817680358887,0.16805171966552734,-0.007472623605281115,-0.08256928622722626,-0.002268296666443348,0.05236253887414932
17.0,-0.12905025482177734,0.10455799102783203,-0.09342573583126068,-0.08058349788188934,-0.04243849217891693,0.05004226788878441
17.05,-0.125850111246109,0.14688873291015625,-0.04119367524981499,-0.10653962939977646,-0.08911635726690292,0.04838058724999428
17.1,-0.21927253901958466,0.17629146575927734,-0.07419406622648239,-0.11395630240440369,-0.13515901565551758,0.03263144567608833
17.15,-0.10581481456756592,0.1989431381225586,-0.07224660366773605,-0.13581682741641998,-0.1831670105457306,0.022409019991755486
17.2,-0.031278107315301895,0.11159610748291016,-0.12511944770812988,-0.15266230702400208,-0.21430301666259766,0.008680359460413456
17.25,-0.04608091711997986,0.14333820343017578,-0.06154637783765793,-0.1583528071641922,-0.226652130484581,-0.00196290691383183
17.3,-0.06846687197685242,0.13632678985595703,-0.037718091160058975,-0.17809373140335083,-0.2443501055240631,0.008668109774589539
17.35,-0.14409740269184113,0.04064178094267845,-0.13793443143367767,-0.19928589463233948,-0.2524355351924896,0.014031637459993362
17.4,-0.048228368163108826,0.19425296783447266,0.02295364812016487,-0.18012206256389618,-0.25765177607536316,0.0015982126351445913
17.45,-0.14152386784553528,0.11974811553955078,-0.09814804792404175,-0.1864813268184662,-0.28948813676834106,0.0016613479238003492
17.5,-0.0873245894908905,0.19182777404785156,-0.0929446816444397,-0.19668734073638916,-0.2887801229953766,-0.016885558143258095
17.55,0.024242132902145386,0.22946739196777344,0.04616311565041542,-0.2146880030632019,-0.2844322621822357,-0.016293304041028023
17.6,0.06197357177734375,0.16233539581298828,0.05253507196903229,-0.21082358062267303,-0.24102675914764404,0.008530177175998688
17.65,-0.16812485456466675,0.19293498992919922,0.13519638776779175,-0.2017766237258911,-0.17077793180942535,-0.0024940124712884426
17.7,-0.2038019299507141,0.08372687548398972,0.09119530022144318,-0.15367579460144043,-0.1138797402381897,-0.01784176006913185
17.75,-0.09043386578559875,0.08697222918272018,0.1255907416343689,-0.11935003846883774,-0.09597943723201752,-0.0006669452995993197
17.8,-0.09065486490726471,0.17052936553955078,0.14941363036632538,-0.06211566552519798,-0.04439856857061386,0.008601061068475246
17.85,-0.10693082213401794,0.1915454864501953,0.10474843531847,-0.030511530116200447,0.02441205084323883,-0.013394063338637352
17.9,-0.1295393407344818,0.21219158172607422,0.08213619887828827,0.014025814831256866,0.09751703590154648,-0.036420147866010666
17.95,-0.22778388857841492,0.03505610674619675,0.07678426057100296,0.03165878355503082,0.14118511974811554,-0.05487099662423134
18.0,-0.2355063408613205,0.1224212571978569,0.05451751500368118,0.07968717813491821,0.1935790628194809,-0.09529843181371689
18.05,-0.14360584318637848,0.2073516845703125,-0.030225181952118874,0.09647584706544876,0.20133201777935028,-0.1005602478981018
18.1,-0.06220196187496185,0.08995532989501953,0.09829821437597275,0.1351182460784912,0.22684262692928314,-0.11767276376485825
18.15,-0.10113643854856491,0.1160125657916069,0.08836270868778229,0.15098433196544647,0.24497459828853607,-0.08464719355106354
18.2,-0.13232052326202393,0.20829296112060547,0.1269468516111374,0.18830297887325287,0.3003448247909546,-0.06088322028517723
18.25,-0.19327542185783386,0.2617349624633789,0.12751075625419617,0.18401601910591125,0.3510488271713257,-0.06484276801347733
18.3,-0.28016623854637146,0.28522682189941406,0.08377721905708313,0.2052726000547409,0.38612595200538635,-0.06266516447067261
18.35,-0.2242649644613266,0.21446798741817474,0.1269466131925583,0.20018355548381805,0.3714074194431305,-0.054437290877103806
18.4,-0.08224267512559891,-0.04637432470917702,-0.014878026209771633,0.22503525018692017,0.3843195140361786,-0.0710415318608284
18.45,0.007796014659106731,0.03070545196533203,0.04988162964582443,0.2763132154941559,0.3877018094062805,-0.061446432024240494
18.5,0.01449573040008545,0.07321834564208984,-0.08464460074901581,0.27956894040107727,0.38063663244247437,-0.013247992843389511
18.55,0.04683651402592659,0.00864506047219038,-0.145359605550766,0.2640928626060486,0.4037700295448303,0.011012998409569263
18.6,0.07376225292682648,0.11214160919189453,-0.041336577385663986,0.2863006293773651,0.4407024085521698,0.008848724886775017
18.65,0.019546059891581535,0.18318462371826172,-0.0638604685664177,0.2753323018550873,0.43755704164505005,0.048069968819618225
18.7,0.03490058332681656,0.1600341796875,-0.1344921737909317,0.2588953375816345,0.41921353340148926,0.07389319688081741
18.75,0.04303716868162155,0.08389568328857422,-0.1307375729084015,0.2267628312110901,0.367341011762619,0.1114126518368721
18.8,0.05764244496822357,0.13620948791503906,0.01395334117114544,0.22510021924972534,0.3382498025894165,0.14757364988327026
18.85,0.19798588752746582,0.2232513427734375,0.033874861896038055,0.21895943582057953,0.34962642192840576,0.17451493442058563
18.9,0.3344343304634094,0.2147379070520401,0.10589005053043365,0.20615163445472717,0.4034065902233124,0.16943494975566864
18.95,0.155622661113739,0.0849447250366211,0.25112441182136536,0.16646739840507507,0.44627976417541504,0.13220195472240448
19.0,-0.026667959988117218,0.16431045532226562,0.27262163162231445,0.1541443169116974,0.44581103324890137,0.05515429377555847
19.05,-0.038471564650535583,0.19636154174804688,0.21501097083091736,0.0990992933511734,0.363970011472702,0.019564010202884674
19.1,-0.07342015206813812,0.17046642303466797,0.1601710170507431,0.048972614109516144,0.2825349271297455,-0.009625312872231007
19.15,-0.26275742053985596,0.32862281799316406,0.15973718464374542,0.03811907768249512,0.22716306149959564,-0.0541229285299778
19.2,-0.2343362718820572,0.1663665622472763,0.1564202457666397,-0.004049977287650108,0.18160417675971985,-0.06978462636470795
19.25,-0.18555785715579987,0.18571090698242188,0.08941219002008438,-0.03821529448032379,0.08807626366615295,-0.07152200490236282
19.3,-0.12477301806211472,0.13201141357421875,0.021196821704506874,-0.03062032163143158,-0.002199620008468628,-0.07034304738044739
19.35,0.02048184536397457,0.19082164764404297,0.01838020049035549,-0.048021018505096436,-0.10411202907562256,-0.04273928329348564
19.4,0.16358931362628937,0.1428689956665039,-0.23875272274017334,-0.05660293251276016,-0.1662711799144745,-0.030864505097270012
19.45,0.40549007058143616,0.20790578424930573,-0.06678204238414764,-0.06932489573955536,-0.1837909072637558,-0.051151152700185776
19.5,0.248504638671875,0.10953617841005325,-0.10832910239696503,-0.07545894384384155,-0.21595409512519836,-0.04888888821005821
19.55,0.22331133484840393,0.1764078140258789,0.0010038517648354173,-0.07870300859212875,-0.28774216771125793,-0.024686051532626152
19.6,0.11686751246452332,0.15499210357666016,-0.010599049739539623,-0.10722412168979645,-0.35497432947158813,-0.009618493728339672
19.65,0.18433775007724762,0.1531820297241211,-0.030228231102228165,-0.15431179106235504,-0.3857005536556244,-0.032911986112594604
19.7,0.37225303053855896,0.1819620281457901,-0.040351998060941696,-0.21495717763900757,-0.42620527744293213,-0.06865506619215012
19.75,0.42206090688705444,0.2931957244873047,-0.012776604853570461,-0.2284868359565735,-0.4051460921764374,-0.10734515637159348
19.8,0.3623974323272705,0.13396073877811432,-0.12388113886117935,-0.22766676545143127,-0.3932288885116577,-0.12444735318422318
19.85,0.22040420770645142,0.22211170196533203,-0.012186811305582523,-0.19905251264572144,-0.3568880259990692,-0.1166047751903534
19.9,0.03306066617369652,-0.11736297607421875,0.012286702170968056,-0.1566510647535324,-0.2697643041610718,-0.10529331117868423
19.95,-0.09166885167360306,-0.2244720458984375,0.0029707408975809813,-0.08086805790662766,-0.20646820962429047,-0.07123880833387375
20.0,-0.2176792025566101,0.011788361705839634,0.047719016671180725,-0.010834560729563236,-0.13750748336315155,-0.06238718703389168
20.05,-0.3747861981391907,0.06304358690977097,0.06556493043899536,0.008884234353899956,-0.10858640819787979,-0.056959543377161026
20.1,-0.4413698613643646,0.03452681005001068,0.13010212779045105,0.020045433193445206,-0.17206214368343353,-0.02643737941980362
20.15,-0.3998822569847107,0.1677236407995224,0.10636768490076065,0.021240171045064926,-0.22918984293937683,-0.026018589735031128
20.2,-0.40702536702156067,0.2295236438512802,0.05921067297458649,0.01209920272231102,-0.2723977267742157,-0.03811192139983177
20.25,-0.27534162998199463,0.07077216356992722,0.04429375380277634,0.005216016434133053,-0.30233901739120483,-0.03304621949791908
20.3,-0.11346051096916199,0.0960836336016655,0.13073742389678955,0.016366232186555862,-0.30853572487831116,-0.007239602040499449
20.35,-0.11740689724683762,0.18220233917236328,0.1419602930545807,0.013230530545115471,-0.28752171993255615,0.030634891241788864
20.4,-0.31001222133636475,0.1533346027135849,0.047523099929094315,0.012017978355288506,-0.2750565707683563,0.04378210008144379
20.45,-0.2870458662509918,0.1555623859167099,-0.007446753792464733,0.014416764490306377,-0.2640377879142761,0.04791286960244179
20.5,-0.224846750497818,0.23691940307617188,0.06297466903924942,0.017577894032001495,-0.2583274245262146,0.04766218736767769
20.55,-0.08844038844108582,0.27236080169677734,0.11823070794343948,-0.008904682472348213,-0.24379754066467285,0.05566837638616562
20.6,-0.05006415396928787,0.2510108947753906,0.03736334294080734,-0.027790933847427368,-0.20841138064861298,0.053583815693855286
20.65,-0.06118039786815643,0.14748191833496094,0.0864068940281868,-0.03494648635387421,-0.15692277252674103,0.04398971423506737
20.7,-0.0733422189950943,0.11886787414550781,0.08907436579465866,-0.04403766989707947,-0.11744432151317596,0.042066846042871475
20.75,-0.04488617554306984,0.1459817886352539,0.03336339816451073,-0.03835306316614151,-0.069161556661129,0.03378057852387428
20.8,-0.056286439299583435,0.09554100036621094,-0.03420998156070709,-0.02509397640824318,-0.027758194133639336,0.028826823458075523
20.85,-0.008863430470228195,0.0915517807006836,0.07430573552846909,-0.005159573629498482,0.02794901840388775,0.029113644734025
20.9,0.04500909149646759,0.1544322967529297,0.03318408504128456,0.0015292959287762642,0.0616479367017746,0.046400994062423706
20.95,0.07506024092435837,0.07717704772949219,0.07821673899888992,0.0014367615804076195,0.11587999761104584,0.04903801903128624
21.0,-0.04918418824672699,0.09374141693115234,-0.09844695031642914,0.016587113961577415,0.14252249896526337,0.058219440281391144
21.05,-0.0050878808833658695,0.11168193817138672,-0.017113324254751205,0.028718890622258186,0.14683003723621368,0.06827232986688614
21.1,-0.04180386662483215,0.16181182861328125,-0.0562204010784626,0.030469324439764023,0.145760178565979,0.0689108595252037
21.15,0.011421376839280128,0.15830230712890625,0.03410851210355759,0.026921799406409264,0.12598788738250732,0.0686592161655426
21.2,-0.01391812413930893,0.17744731903076172,-0.0014272801345214248,-0.001670466735959053,0.11319135129451752,0.06514465808868408
21.25,-0.01525156106799841,0.15900707244873047,-0.07279077917337418,-0.0035875607281923294,0.10610084235668182,0.04738926142454147
21.3,-0.02003493532538414,0.19069290161132812,-0.07919787615537643,-0.013779299333691597,0.06123610585927963,0.03062807209789753
21.35,-0.00146421417593956,0.1339254379272461,-0.068598672747612,-0.01152135245501995,0.016453642398118973,0.013692266307771206
21.4,-0.03724506497383118,0.15087032318115234,-0.03959781304001808,-0.027347953990101814,-0.040152110159397125,0.004679616075009108
21.45,-0.0028983578085899353,0.12229728698730469,-0.06625786423683167,-0.025432707741856575,-0.0743950679898262,-0.007740942295640707
21.5,0.023516051471233368,0.1550283432006836,-0.005965467542409897,-0.03943844512104988,-0.11626091599464417,-0.01180994976311922
21.55,0.06000477075576782,0.11933040618896484,-0.004278300330042839,-0.043042704463005066,-0.12148663401603699,-0.028175029903650284
21.6,0.06569643318653107,0.11738777160644531,-0.13770124316215515,-0.03451593220233917,-0.1273418664932251,-0.034944962710142136
21.65,0.04633026570081711,0.15350818634033203,-0.06934304535388947,-0.04020106792449951,-0.1088671088218689,-0.050774432718753815
21.7,0.1177590936422348,0.14238739013671875,-0.10438075661659241,-0.05973034352064133,-0.09160757064819336,-0.0357871912419796
21.75,0.05616370588541031,0.14258766174316406,-0.06812769919633865,-0.0575169213116169,-0.07403580844402313,-0.018152588978409767
21.8,0.0338103324174881,0.11201667785644531,0.0022337264381349087,-0.05752858147025108,-0.01911892555654049,-0.018284106627106667
21.85,0.014422936365008354,0.06127738952636719,-0.06998209655284882,-0.053314246237277985,0.035381898283958435,-0.02534656785428524
21.9,0.0367317870259285,0.06729984283447266,-0.07514925301074982,-0.04296594858169556,0.06983400881290436,-0.01327528990805149
21.95,0.017878640443086624,0.19779014587402344,0.001990721793845296,-0.044943444430828094,0.11870630830526352,-0.018061403185129166
22.0,-0.04001009464263916,0.11039447784423828,0.018385522067546844,-0.06130306050181389,0.16023579239845276,-0.01247646939009428
22.05,-0.07917402684688568,0.13397884368896484,0.004060104954987764,-0.04783443734049797,0.19762396812438965,-0.014177701435983181
22.1,-0.10724028199911118,0.1817951202392578,0.04134412854909897,-0.036533381789922714,0.2066250890493393,-0.009298034012317657
22.15,-0.13271717727184296,0.2071857452392578,0.11146596819162369,-0.029235750436782837,0.24195006489753723,-0.029644809663295746
22.2,-0.01468411460518837,0.04065513610839844,0.05883072316646576,-0.015614887699484825,0.24343056976795197,-0.030979851260781288
22.25,-0.016954373568296432,0.1310892105102539,0.11155004799365997,-0.0011465717107057571,0.24320194125175476,-0.029382195323705673
22.3,-0.09086243063211441,0.1080780029296875,0.03547115623950958,0.004629220813512802,0.2669947147369385,-0.051340024918317795
22.35,-0.040523331612348557,0.10177135467529297,0.022598588839173317,0.018518151715397835,0.2498580813407898,-0.055658672004938126
22.4,0.028914907947182655,0.19523239135742188,0.002326822141185403,0.04314539581537247,0.24605737626552582,-0.05342169106006622
22.45,0.047917529940605164,0.09411430358886719,0.042259082198143005,0.028998512774705887,0.2570878863334656,-0.050450220704078674
22.5,-0.010401662439107895,0.10968303680419922,-0.0029007047414779663,0.04083304479718208,0.26597076654434204,-0.06096524000167847
22.55,-0.06810621917247772,0.1314077377319336,0.022371619939804077,0.037528179585933685,0.25591757893562317,-0.05792367458343506
22.6,-0.08818462491035461,0.1408863067626953,-0.00465197442099452,0.04530343785881996,0.2396000772714615,-0.05326157808303833
22.65,-1.559872180223465e-05,0.16703033447265625,0.041214101016521454,0.04257805272936821,0.20937375724315643,-0.049962058663368225
22.7,-0.0492682158946991,0.12283134460449219,-0.0744747519493103,0.040382012724876404,0.17344893515110016,-0.036533962935209274
22.75,-0.06422636657953262,0.11111831665039062,-0.12445949018001556,0.026359889656305313,0.13329464197158813,-0.028606517240405083
22.8,-0.01478535681962967,0.18858623504638672,0.1665237843990326,0.020429842174053192,0.08811213821172714,-0.03455408290028572
22.85,0.00744204968214035,0.09617137908935547,0.07131019234657288,0.025345461443066597,0.02438872866332531,-0.035859107971191406
22.9,0.10716557502746582,0.13648509979248047,0.029997654259204865,0.04737136885523796,-0.010827264748513699,-0.0422578901052475
22.95,0.07008566707372665,0.04541206359863281,0.12852318584918976,0.05381924659013748,-0.048060886561870575,-0.05433636158704758
23.0,0.009200721979141235,0.06212139129638672,0.13173334300518036,0.07049977779388428,-0.08043929934501648,-0.06594735383987427
23.05,-0.1338518112897873,0.08024787157773972,0.137820303440094,0.08426378667354584,-0.10586865246295929,-0.08280426263809204
23.1,-0.2014804482460022,0.1632089614868164,0.10947787016630173,0.11983466148376465,-0.14841502904891968,-0.0981944128870964
23.15,-0.20697829127311707,0.09172820299863815,0.09497373551130295,0.14338870346546173,-0.1920141875743866,-0.10399910062551498
23.2,-0.14632177352905273,0.18135356903076172,0.18166658282279968,0.19215120375156403,-0.1852819174528122,-0.11558953672647476
23.25,-0.1532171666622162,0.24979496002197266,0.21133843064308167,0.2213553488254547,-0.14654020965099335,-0.10463254898786545
23.3,-0.013389870524406433,0.25209712982177734,0.2013344019651413,0.2466149479150772,-0.07875747233629227,-0.08838928490877151
23.35,-0.04199209064245224,0.04626941308379173,0.2126803994178772,0.2388891577720642,-0.015760628506541252,-0.03397725149989128
23.4,-0.042924314737319946,0.03353976830840111,0.08376459777355194,0.2088482677936554,0.07347824424505234,-0.009088126942515373
23.45,-0.011892890557646751,-0.005432127974927425,-0.1072007417678833,0.22620928287506104,0.19632814824581146,0.006198971066623926
23.5,0.13277117908000946,0.47545623779296875,0.06126945838332176,0.2319672703742981,0.3306805193424225,0.029753612354397774
23.55,-0.014677081257104874,0.3452262878417969,-0.00989025179296732,0.2589355409145355,0.4086524546146393,0.06912179291248322
23.6,0.06083241477608681,0.09142684936523438,-0.039151277393102646,0.2437913715839386,0.29665711522102356,0.11558216065168381
23.65,0.31921660900115967,-0.04783152416348457,-0.1344236135482788,0.233655646443367,0.2844057083129883,0.09987124800682068
23.7,0.3782145082950592,0.1177520900964737,-0.09434796869754791,0.22657139599323273,0.36517906188964844,0.07937551289796829
23.75,0.3359578549861908,0.06409931927919388,-0.11755052953958511,0.2155233770608902,0.4410012364387512,0.06951410323381424
23.8,0.17288465797901154,0.1326284408569336,0.05539867281913757,0.2682740092277527,0.4519576132297516,0.09857840836048126
23.85,0.1608351469039917,-0.007602687459439039,0.03443574160337448,0.22602784633636475,0.37668246030807495,0.11803832650184631
23.9,0.17120714485645294,0.08696556836366653,-0.06373856961727142,0.22770553827285767,0.33211442828178406,0.09581340849399567
23.95,0.1272125542163849,0.106903076171875,-0.003614888060837984,0.24229837954044342,0.33037686347961426,0.07385426014661789
24.0,-0.038840778172016144,0.09956169128417969,-0.03308459743857384,0.2185908854007721,0.2721029818058014,0.0714063048362732
24.05,-0.033458855003118515,0.10028553009033203,0.02451496012508869,0.21455532312393188,0.18936291337013245,0.06259965896606445
24.1,0.05257797986268997,0.08524703979492188,0.08849906176328659,0.1949833631515503,0.10887576639652252,0.05763468146324158
24.15,0.07412087917327881,0.19699478149414062,0.12793007493019104,0.19933031499385834,0.08031424134969711,0.027789825573563576
24.2,0.03288397938013077,0.24073314666748047,0.09118647873401642,0.15144896507263184,0.025941064581274986,0.028536245226860046
24.25,-0.03170473873615265,0.24216365814208984,0.09815531224012375,0.11321485042572021,-0.044790033251047134,0.024169744923710823
24.3,0.014260439202189445,0.2330007553100586,0.0974024310708046,0.0735381692647934,-0.09455549716949463,0.006626547314226627
24.35,0.013890840113162994,0.19891643524169922,0.09562569111585617,0.043514471501111984,-0.12336641550064087,-0.009386368095874786
24.4,0.06762903928756714,0.18920230865478516,0.0445975735783577,-0.0011410964652895927,-0.16085727512836456,-0.014482143335044384
24.45,0.01474351342767477,0.16656017303466797,0.06703043729066849,-0.019365226849913597,-0.19241757690906525,-0.015987493097782135
24.5,0.07806777954101562,0.11029815673828125,0.05330671742558479,-0.02068966254591942,-0.20006877183914185,-0.025234581902623177
24.55,0.09690088033676147,0.09673023223876953,0.09240631759166718,-0.0318944975733757,-0.20691443979740143,-0.024702655151486397
24.6,0.09010335803031921,0.09502983093261719,0.1450699418783188,-0.04407532513141632,-0.18998664617538452,-0.021840551868081093
24.65,0.10169640183448792,0.07532501220703125,-0.05515659227967262,-0.021666735410690308,-0.17074677348136902,-0.027512777596712112
24.7,0.10260796546936035,0.09509658813476562,0.05320161208510399,-0.021907467395067215,-0.16285596787929535,-0.02660355530679226
24.75,0.12284664064645767,0.1185598373413086,0.018957898020744324,-0.0136815644800663,-0.1186918243765831,-0.024079982191324234
24.8,0.13220466673374176,0.12934207916259766,-0.013471916317939758,-0.017779912799596786,-0.09710217267274857,-0.018369659781455994
24.85,0.13044075667858124,0.18439674377441406,0.0026970896869897842,-0.012356100603938103,-0.04436442628502846,-0.016949085518717766
24.9,0.0632740929722786,0.13396453857421875,0.024639088660478592,-0.03176307678222656,-0.011173169128596783,-0.007658164482563734
24.95,0.007963595911860466,0.1564788818359375,-0.05671054497361183,-0.03454798460006714,0.017369551584124565,-0.0016404646448791027
25.0,-0.013203777372837067,0.15023231506347656,0.039216071367263794,-0.04231218621134758,0.030468352138996124,-0.004685417748987675
25.05,-0.03659909963607788,0.09335803985595703,0.03749268501996994,-0.049016062170267105,0.03881426900625229,0.0019375423435121775
25.1,-0.04060048609972,0.10920429229736328,-0.051380228251218796,-0.05734403431415558,0.020728373900055885,0.016877155750989914
25.15,0.047561779618263245,0.04439735412597656,0.023804018273949623,-0.05477546900510788,-0.017601260915398598,0.033498961478471756
25.2,0.07865320146083832,0.12779712677001953,0.07316917926073074,-0.05754753202199936,-0.018372302874922752,0.03438122570514679
25.25,0.09125229716300964,0.09200191497802734,-0.04096041992306709,-0.041871845722198486,-0.019416533410549164,0.02616836503148079
25.3,0.14507251977920532,0.1677541732788086,-0.023426033556461334,-0.04287703335285187,-0.03433745354413986,0.02531263791024685
25.35,0.15947957336902618,0.13992691040039062,-0.08451926708221436,-0.04226735979318619,0.00425734743475914,-0.006259756162762642
25.4,0.16585759818553925,0.17322540283203125,0.01840672828257084,-0.05186839774250984,0.031330861151218414,-0.02824671007692814
25.45,0.022592812776565552,0.22831249237060547,-0.03841836005449295,-0.07842957973480225,0.07017426937818527,-0.04211493209004402
25.5,-0.1044236347079277,0.17886066436767578,-0.12602247297763824,-0.11670877039432526,0.07495670020580292,-0.035706158727407455
25.55,-0.14014919102191925,0.14390277862548828,-0.10182959586381912,-0.13058257102966309,0.029033176600933075,-0.036649107933044434
25.6,-0.13333842158317566,0.2033853530883789,-0.0994473546743393,-0.13380303978919983,-0.02774367481470108,-0.03747996315360069
25.65,-0.0655326098203659,0.131072998046875,-0.07156606763601303,-0.14048199355602264,-0.08738531917333603,-0.029623152688145638
25.7,0.11534830927848816,0.08065987378358841,-0.09689411520957947,-0.1600939929485321,-0.15973466634750366,-0.005737301893532276
25.75,0.22747072577476501,0.07833004742860794,-0.240205317735672,-0.14917820692062378,-0.20933781564235687,0.01357316691428423
25.8,0.3153351843357086,0.07688046246767044,-0.031060760840773582,-0.13764141499996185,-0.22924859821796417,0.011938163079321384
25.85,0.26008832454681396,0.12000466138124466,-0.09956665337085724,-0.1488633006811142,-0.195646733045578,-0.01554933376610279
25.9,0.08511710911989212,0.07047653198242188,-0.09405139088630676,-0.16522476077079773,-0.16162265837192535,-0.04925592243671417
25.95,0.0027717463672161102,0.12906360626220703,-0.10625559836626053,-0.1632220298051834,-0.1892181634902954,-0.02563098631799221
26.0,0.0622868686914444,0.2239551544189453,-0.0672689825296402,-0.18092824518680573,-0.25107109546661377,0.00824161246418953
26.05,-0.0992913693189621,0.1854543685913086,-0.03435434773564339,-0.22373628616333008,-0.2601608335971832,-0.0035279097501188517
26.1,-0.2372545450925827,0.20839403569698334,0.08945249766111374,-0.2328316867351532,-0.2628607153892517,-0.05279649794101715
26.15,-0.35364729166030884,0.3199462890625,0.16133001446723938,-0.2754581570625305,-0.3109452724456787,-0.09930037707090378
26.2,-0.48908862471580505,0.3496570587158203,0.07405178993940353,-0.3189932107925415,-0.3603537678718567,-0.14968085289001465
26.25,-0.5839220285415649,0.3819369971752167,0.0832710713148117,-0.3375009298324585,-0.40064796805381775,-0.16758780181407928
26.3,-0.5604665875434875,0.5061788558959961,0.05278235673904419,-0.3836970925331116,-0.42790842056274414,-0.1453099399805069
26.35,-0.42858386039733887,0.34487342834472656,0.04586401954293251,-0.44138139486312866,-0.3934515118598938,-0.08035224676132202
26.4,-0.2547440230846405,0.2460174411535263,0.05599375441670418,-0.4516278803348541,-0.276262104511261,-0.025239892303943634
26.45,-0.2082400918006897,0.06299113482236862,0.12272250652313232,-0.46833536028862,-0.15107949078083038,0.019184019416570663
26.5,-0.34006670117378235,-0.13903142511844635,0.07145582884550095,-0.43689367175102234,-0.009195107035338879,0.012800320982933044
26.55,-0.41074448823928833,-0.0068674213252961636,0.12687626481056213,-0.39481934905052185,0.1162155419588089,-0.01592966541647911
26.6,-0.3123384714126587,-0.0016212556511163712,0.06394369155168533,-0.346407413482666,0.22957690060138702,-0.056819848716259
26.65,-0.09408821910619736,0.23400402069091797,0.12916530668735504,-0.25121885538101196,0.3012178838253021,-0.06416109204292297
26.7,-0.06373067200183868,-0.24369049072265625,0.019048267975449562,-0.09163034707307816,0.27168750762939453,-0.014661177061498165
26.75,-0.023081853985786438,-0.4784097671508789,-0.2408566027879715,-0.015078473836183548,0.15558962523937225,0.06248943880200386
26.8,0.1376309096813202,-0.18426036834716797,-0.31276100873947144,-0.028908126056194305,0.10983914881944656,0.0852232426404953
26.85,0.2927674949169159,0.13158418238162994,-0.25596848130226135,0.013921789824962616,0.16736707091331482,0.031616028398275375
26.9,0.4652838110923767,0.2610750198364258,-0.08093003928661346,0.03220125660300255,0.14606550335884094,0.06972477585077286
26.95,0.4529149830341339,0.17000676691532135,0.09692401438951492,0.02352006733417511,0.15856075286865234,0.17653442919254303
27.0,0.44674572348594666,-0.058482155203819275,-0.10103071480989456,0.06034581735730171,0.2263558954000473,0.22035248577594757
27.05,0.45512819290161133,0.3551206588745117,-0.034432921558618546,0.152335524559021,0.283638060092926,0.247319296002388
27.1,0.2952251732349396,0.29654979705810547,0.012377441860735416,0.12715426087379456,0.33854204416275024,0.27357572317123413
27.15,0.2409912347793579,0.33776283264160156,-0.06870820373296738,0.09796416014432907,0.4045998454093933,0.2317194938659668
27.2,0.1961185783147812,0.35315608978271484,-0.11709582060575485,0.04701770469546318,0.38779938220977783,0.22068797051906586
27.25,0.1784869283437729,0.28763484954833984,-0.12788215279579163,-0.00129670649766922,0.38057976961135864,0.18644961714744568
27.3,0.007766425609588623,0.2137298583984375,-0.21300996840000153,-0.045364461839199066,0.3663160800933838,0.15127156674861908
27.35,-0.20065909624099731,0.32721805572509766,-0.1397423893213272,-0.07949216663837433,0.3212434649467468,0.15552514791488647
27.4,-0.28940707445144653,0.10234259814023972,-0.25111961364746094,-0.13097932934761047,0.22409307956695557,0.21373260021209717
27.45,-0.3806127905845642,0.08043574541807175,-0.03247222676873207,-0.13048452138900757,0.11466889828443527,0.2634375989437103
27.5,-0.4155246615409851,0.08336543291807175,-0.09599527716636658,-0.11766372621059418,0.015006200410425663,0.31046220660209656
27.55,-0.29590293765068054,0.2994985580444336,0.025060059502720833,-0.11894779652357101,-0.055248238146305084,0.3353284001350403
27.6,-0.15384498238563538,0.1666240692138672,-0.0986945778131485,-0.1436312049627304,-0.13740427792072296,0.35020172595977783
27.65,0.033960916101932526,-0.07791996002197266,-0.16180376708507538,-0.16590318083763123,-0.16822980344295502,0.304727166891098
27.7,0.0076201483607292175,0.16478729248046875,-0.08149444311857224,-0.14141637086868286,-0.18543513119220734,0.24954314529895782
27.75,0.003140699118375778,0.08807659149169922,-0.047989923506975174,-0.12415023148059845,-0.17464978992938995,0.21325525641441345
27.8,-0.08807849884033203,0.0779123306274414,-0.0667617991566658,-0.12098994851112366,-0.15660753846168518,0.18707455694675446
27.85,-0.11652503907680511,0.17932987213134766,0.03498193249106407,-0.10881414264440536,-0.1583637297153473,0.1685236543416977
27.9,-0.1606581211090088,0.1927042007446289,-0.015020804479718208,-0.10884073376655579,-0.17125052213668823,0.1515287607908249
27.95,-0.1688833087682724,0.101500503718853,-0.024508781731128693,-0.09660887718200684,-0.1843908727169037,0.12553344666957855
28.0,-0.13364356756210327,0.07744503021240234,-0.026457851752638817,-0.08129072189331055,-0.1952916830778122,0.10039738565683365
28.05,-0.2209068238735199,0.22783374786376953,0.02219124138355255,-0.04418238624930382,-0.20852981507778168,0.07558012753725052
28.1,-0.10120745003223419,0.1815023422241211,-0.07663925737142563,-0.05942877382040024,-0.2227809727191925,0.06049057096242905
28.15,0.012069261632859707,0.23935604095458984,-0.042858850210905075,-0.03804345056414604,-0.22753870487213135,0.028304576873779297
28.2,0.08797818422317505,0.11752891540527344,-0.06072911247611046,-0.05977017059922218,-0.23051784932613373,0.02066059783101082
28.25,0.08898859471082687,0.12186622619628906,-0.0006305539282038808,-0.0673840120434761,-0.19802799820899963,-0.014322547242045403
28.3,-0.031793929636478424,0.39865970611572266,0.05344671010971069,-0.01766818016767502,-0.18396499752998352,-0.057878829538822174
28.35,0.0964556336402893,0.6674718856811523,-0.042572252452373505,-0.05050574988126755,-0.16358277201652527,-0.12661297619342804
28.4,0.3522758185863495,0.5752696990966797,-0.2715222239494324,-0.11956397444009781,-0.14892569184303284,-0.22061380743980408
28.45,0.16233929991722107,-0.11827182024717331,-0.3380979299545288,-0.1798437237739563,-0.15964855253696442,-0.2925785779953003
28.5,-0.1614922732114792,-0.48447132110595703,-0.13903380930423737,-0.13509002327919006,-0.12881192564964294,-0.2600964307785034
28.55,-0.1595785915851593,-0.5684528350830078,0.14458702504634857,-0.005692385137081146,-0.13036097586154938,-0.23913538455963135
28.6,-0.019169829785823822,-0.020972255617380142,0.30153918266296387,0.21411055326461792,-0.07398854196071625,-0.3186061978340149
28.65,-0.07507815957069397,0.20695114135742188,0.20802369713783264,0.2880997061729431,-0.08958655595779419,-0.3684915006160736
28.7,-0.24534480273723602,-0.11591625958681107,0.23028212785720825,0.330712229013443,-0.12523804605007172,-0.28261131048202515
28.75,-0.44793468713760376,-0.2530727684497833,0.25540691614151,0.3859799802303314,-0.14424414932727814,-0.2698158323764801
28.8,-0.28391924500465393,0.09012603014707565,0.12337807565927505,0.4911744296550751,-0.24225355684757233,-0.24175730347633362
28.85,-0.20638352632522583,0.055973999202251434,0.09454450011253357,0.523530125617981,-0.29513463377952576,-0.2199666053056717
28.9,-0.23670563101768494,-0.1699209213256836,-0.07084489613771439,0.5437734127044678,-0.3762452304363251,-0.19039039313793182
28.95,-0.136594757437706,0.09493445605039597,0.10533034801483154,0.6226712465286255,-0.47656139731407166,-0.12710891664028168
29.0,-0.11804766207933426,0.047110553830862045,0.11421489715576172,0.6098713874816895,-0.49691760540008545,-0.12288840115070343
29.05,-0.08363286405801773,0.09256743639707565,0.13075825572013855,0.5640712976455688,-0.48801475763320923,-0.15054486691951752
29.1,-0.16662921011447906,0.3154268264770508,-0.07291349023580551,0.5410996079444885,-0.529793381690979,-0.16131259500980377
29.15,0.03746778145432472,0.43473243713378906,0.05283517763018608,0.5101712346076965,-0.5157171487808228,-0.13587181270122528
29.2,0.12747862935066223,0.7069330215454102,0.1012469083070755,0.45868104696273804,-0.45657113194465637,-0.09460695087909698
29.25,0.20721444487571716,0.5449256896972656,0.15068461000919342,0.3490031361579895,-0.4239267110824585,-0.06214666739106178
29.3,0.27470362186431885,0.3083982467651367,0.21053631603717804,0.20599542558193207,-0.27352991700172424,-0.09025570750236511
29.35,0.0723857581615448,0.412384033203125,0.11281966418027878,0.14498639106750488,-0.04070654138922691,-0.18551719188690186
29.4,-0.04170183837413788,0.4768648147583008,0.2998799681663513,0.057332754135131836,0.03592555597424507,-0.23017464578151703
29.45,-0.16753551363945007,0.32405757904052734,0.16620764136314392,-0.05100342258810997,0.08919277042150497,-0.25335559248924255
29.5,-0.1298093944787979,0.2733926773071289,0.10130529850721359,-0.08063127845525742,0.13740351796150208,-0.23204414546489716
29.55,0.038703516125679016,0.18301105499267578,0.1992395967245102,-0.11119458079338074,0.11591798067092896,-0.17160116136074066
29.6,-0.03266100212931633,0.08570384979248047,0.11319680511951447,-0.08647152781486511,0.13324926793575287,-0.1259268820285797
29.65,-0.09830431640148163,0.07978248596191406,0.04492833465337753,-0.05721030384302139,0.1841796189546585,-0.09192872792482376
29.7,-0.16486856341362,0.2551860809326172,0.014258250594139099,-0.034354522824287415,0.20038551092147827,-0.09852396696805954
29.75,-0.05419411510229111,0.15042877197265625,0.08150415867567062,-0.024152740836143494,0.17443819344043732,-0.07978333532810211
29.8,-0.06208815425634384,0.05714511498808861,0.23076273500919342,0.020526761189103127,0.16654403507709503,-0.03928443044424057
29.85,-0.19303284585475922,0.06908892840147018,0.10033155977725983,0.015093018300831318,0.1647946834564209,-0.007245487067848444
29.9,-0.2197093367576599,-0.0039682467468082905,0.18636363744735718,0.021974831819534302,0.07520246505737305,0.03657481446862221
29.95,-0.16668543219566345,0.08016108721494675,0.06412530690431595,0.047397639602422714,-0.007045683450996876,0.05546613037586212
30.0,-0.012735998257994652,0.08835887908935547,0.001258184085600078,0.03028377704322338,-0.023277293890714645,0.024772435426712036
30.05,0.05542663112282753,-0.048992156982421875,0.022054867818951607,0.014426148496568203,0.0034497089218348265,-0.021307138726115227
30.1,0.1833975613117218,0.024781230837106705,0.08247010409832001,0.07084044814109802,0.0288800448179245,-0.018091529607772827
30.15,0.046446822583675385,0.1447439193725586,0.10908393561840057,0.10663683712482452,0.08852943032979965,-0.02514464221894741
30.2,0.006637902930378914,0.1418619155883789,0.058073740452528,0.05426912382245064,0.07074645161628723,-0.012793133035302162
30.25,0.0818876177072525,0.05279827117919922,0.04937545582652092,0.018381662666797638,0.06063735857605934,-0.029864763841032982
30.3,0.02462608739733696,0.12193965911865234,-0.06618878245353699,0.045070309191942215,0.07030808925628662,-0.06224844977259636
30.35,0.019608203321695328,0.2252368927001953,-0.03399002552032471,0.056344687938690186,0.044598810374736786,-0.07592637836933136
30.4,-0.042476020753383636,0.23798656463623047,0.09986959397792816,0.035050660371780396,0.03503391146659851,-0.06369371712207794
30.45,0.005747700110077858,0.1599893569946289,0.10319458693265915,0.04756516218185425,0.08234667032957077,-0.05508619174361229
30.5,-0.10572212934494019,0.047095295041799545,0.10729308426380157,0.0779218077659607,0.050626229494810104,-0.05396968871355057
30.55,-0.2303706258535385,-0.13808441162109375,0.07599088549613953,0.0779009461402893,0.02155223675072193,-0.07815006375312805
30.6,-0.3690164089202881,-0.12450791150331497,-0.01889270916581154,0.13007232546806335,0.0502493754029274,-0.1493455320596695
30.65,-0.239714577794075,0.26755619049072266,0.12574337422847748,0.1980539858341217,0.04653563350439072,-0.21983465552330017
30.7,-0.09432578831911087,0.40737152099609375,0.25048643350601196,0.20860984921455383,0.07582009583711624,-0.25210535526275635
30.75,0.1552918255329132,0.23707962036132812,0.1357242912054062,0.11535002291202545,0.09018524736166,-0.2035405933856964
30.8,0.033047810196876526,0.10558414459228516,0.0788542702794075,0.032396100461483,0.2003713995218277,-0.0983428880572319
30.85,-0.055077724158763885,0.3208141326904297,-0.03891398385167122,-0.01203753799200058,0.332048624753952,0.02194267325103283
30.9,0.0739927813410759,0.6572933197021484,0.1157619059085846,-0.1260104477405548,0.4292925298213959,0.10688485950231552
30.95,0.00725611113011837,0.025340082123875618,-0.06778672337532043,0.027635648846626282,0.43425479531288147,0.18204568326473236
31.0,0.2400035411119461,-0.02085971087217331,-0.053503140807151794,-0.010858632624149323,0.20918318629264832,0.2699093222618103
31.05,0.6106181740760803,-0.4354104697704315,-0.19267238676548004,-0.15236210823059082,0.23179535567760468,0.2426099181175232
31.1,0.6017577052116394,-0.11103056371212006,-0.13951711356639862,-0.003682166337966919,0.4883066415786743,0.09587137401103973
31.15,0.7432841062545776,0.34705832600593567,-0.08644246309995651,0.0459313690662384,0.6195052266120911,-0.0656527504324913
31.2,0.34910690784454346,0.2397022396326065,0.07996939867734909,0.061059653759002686,0.5369669795036316,-0.05477529019117355
31.25,0.07071729004383087,0.23843860626220703,0.43579089641571045,0.07568950206041336,0.4904021620750427,-0.10679306089878082
31.3,0.2751750946044922,0.17070484161376953,0.45472970604896545,0.040802326053380966,0.2963312268257141,-0.117109514772892
31.35,0.22039642930030823,-0.17020225524902344,0.29663708806037903,0.10587325692176819,0.1644316464662552,-0.1823696345090866
31.4,0.28634896874427795,-0.2576723098754883,0.26549485325813293,0.20020753145217896,0.03260822594165802,-0.21222127974033356
31.45,0.47841396927833557,0.10633184015750885,0.18316026031970978,0.2283453494310379,-0.10408288985490799,-0.1983831226825714
31.5,0.38751643896102905,0.6639060974121094,0.14843814074993134,0.21102328598499298,-0.2712588906288147,-0.13534332811832428
31.55,0.1834777593612671,0.31348514556884766,0.023426862433552742,0.1392841935157776,-0.45720624923706055,-0.009272831492125988
31.6,-0.08679479360580444,-0.3579139709472656,-0.441062331199646,0.1371171474456787,-0.4852660000324249,0.08417999744415283
31.65,-0.32698702812194824,0.13993453979492188,-0.23691171407699585,0.31144022941589355,-0.25924739241600037,-0.02210666984319687
31.7,-0.42727747559547424,0.40610599517822266,0.06469093263149261,0.2522079348564148,-0.17821703851222992,-0.05916928872466087
31.75,-0.5293245315551758,-0.050251975655555725,-0.1309007704257965,0.1028696596622467,-0.22663924098014832,-0.00758645823225379
31.8,-0.2692710757255554,-0.1136322095990181,-0.012849505990743637,0.11220605671405792,-0.42739591002464294,0.1270134299993515
31.85,-0.08878551423549652,0.10138130187988281,-0.07070387154817581,0.16827018558979034,-0.4205661416053772,0.11183157563209534
31.9,-0.07873914390802383,0.1734476089477539,0.004122778307646513,0.15679970383644104,-0.25294002890586853,0.02614334598183632
31.95,-0.2229703664779663,0.19578075408935547,-0.13986873626708984,0.11596646904945374,-0.16517652571201324,-0.0052870227955281734
32.0,-0.0636717826128006,0.22113895416259766,-0.14867302775382996,0.10856064409017563,-0.21454991400241852,-0.013303960673511028
32.05,-0.02003299444913864,0.27187633514404297,0.060533374547958374,0.09058941155672073,-0.22028517723083496,-0.045540645718574524
32.1,-0.06988685578107834,0.13014984130859375,0.025281822308897972,0.04653191193938255,-0.21628379821777344,-0.03475048765540123
32.15,0.06719301640987396,0.2645416259765625,0.10307253897190094,0.061500899493694305,-0.21715830266475677,-0.011171005666255951
32.2,0.10955673456192017,0.15442657470703125,0.08223281055688858,0.021934129297733307,-0.1442231982946396,-0.012947787530720234
32.25,0.12981775403022766,0.2078237533569336,0.0016473146388307214,-0.0015691057778894901,-0.013278679922223091,-0.017436567693948746
32.3,0.1624276041984558,0.1804218292236328,0.10730946063995361,-0.015747874975204468,0.004938396159559488,0.029895823448896408
32.35,0.18009094893932343,-0.03620147332549095,0.03192872554063797,-0.07055045664310455,-0.055756088346242905,0.08093304932117462
32.4,0.008877864107489586,0.025562286376953125,0.009132015518844128,-0.011000409722328186,-0.021888602524995804,0.1047825962305069
32.45,-0.07564892619848251,0.20559978485107422,-0.04827746003866196,0.0007015806622803211,0.09255615621805191,0.018680982291698456
32.5,0.1478528380393982,0.034467700868844986,-0.04683324322104454,-0.0197734534740448,0.044698264449834824,-0.029758471995592117
32.55,0.35685619711875916,0.09179402142763138,-0.005355563946068287,-0.03316766023635864,-0.06408987939357758,0.025433192029595375
32.6,0.21916811168193817,0.2526283264160156,0.0899294838309288,-0.026318252086639404,-0.03655552864074707,0.053559720516204834
32.65,0.05380244553089142,0.05633068084716797,0.09878075867891312,-0.03625793382525444,0.042626235634088516,0.04570229351520538
32.7,0.13048097491264343,0.017220500856637955,-0.02280089445412159,-0.03377385064959526,0.04969070479273796,0.05093616247177124
32.75,0.10903381556272507,0.04163742437958717,0.0021676395554095507,-0.011419316753745079,0.03413780778646469,0.05730600282549858
32.8,0.06758354604244232,0.13411808013916016,0.056387390941381454,0.008739767596125603,0.024030350148677826,0.04992729425430298
32.85,0.1607145220041275,0.12154007703065872,0.041913364082574844,-0.009262222796678543,0.012492663227021694,0.02620512619614601
32.9,0.09454179555177689,0.030353548005223274,0.08924303948879242,0.020723111927509308,-0.0012260701041668653,0.02800547517836094
32.95,0.02150433324277401,0.1098775863647461,0.027301538735628128,0.033157046884298325,0.009655608795583248,0.021684033796191216
33.0,-0.009580876678228378,0.12639141082763672,0.08464103937149048,0.03589054197072983,0.017713602632284164,-0.014282464049756527
33.05,-0.06657201796770096,0.10190773010253906,-0.10891640931367874,0.022672224789857864,0.04144389554858208,-0.039421603083610535
33.1,-0.03311622887849808,0.0016660674009472132,0.06191619485616684,-0.00821712613105774,-0.020825199782848358,-0.0288045983761549
33.15,0.11871889233589172,0.18210411071777344,0.16317781805992126,0.04320181533694267,-0.07478467375040054,0.026876645162701607
33.2,0.1182079017162323,0.3542146682739258,0.1291630119085312,0.039474502205848694,-0.0390840582549572,0.049268659204244614
33.25,0.30673959851264954,0.10688496381044388,-0.020055901259183884,-0.019434446468949318,0.02006283961236477,0.022815776988863945
33.3,0.1256389021873474,0.23482131958007812,-0.0504511259496212,0.007146963384002447,0.05581735447049141,0.018883297219872475
33.35,-0.046315617859363556,0.2684173583984375,-0.03137223422527313,-0.06399710476398468,0.08455750346183777,0.003998289350420237
33.4,-0.3019199073314667,0.20691204071044922,-0.12783749401569366,-0.12748463451862335,0.08479417860507965,-0.01668705604970455
33.45,-0.32223331928253174,-0.17338277399539948,-0.09344395250082016,-0.18308629095554352,-0.020887503400444984,0.035154685378074646
33.5,-0.03157026320695877,0.20629310607910156,-0.16982978582382202,-0.096079021692276,-0.2113739252090454,0.21035823225975037
33.55,0.16591382026672363,0.45134639739990234,0.0822581797838211,-0.1043759286403656,-0.22336184978485107,0.2845335900783539
33.6,-0.150973841547966,0.4906139373779297,-0.18909622728824615,-0.21041470766067505,-0.0995381623506546,0.22277158498764038
33.65,-0.08516176044940948,-0.09257221221923828,0.1187138706445694,-0.3512721061706543,-0.10456407815217972,0.18468539416790009
33.7,-0.14835837483406067,0.09101104736328125,-0.46496152877807617,-0.2581629455089569,-0.22934292256832123,0.29049956798553467
33.75,0.26045769453048706,0.21035195887088776,-0.0437970831990242,-0.23918592929840088,-0.40610626339912415,0.3987759053707123
33.8,0.06149250268936157,0.29882335662841797,0.08673795312643051,-0.24131032824516296,-0.20230738818645477,0.2829005718231201
33.85,-0.028475986793637276,0.03583717346191406,0.0704767256975174,-0.25631630420684814,-0.09284833818674088,0.08475442230701447
33.9,-0.10268408805131912,-0.10105229169130325,0.08346860110759735,-0.2475927323102951,-0.1053290069103241,-0.06139913573861122
33.95,-0.41584527492523193,-0.1374359279870987,-0.04196373000741005,-0.23263168334960938,-0.19290488958358765,-0.02579495869576931
34.0,0.2948738634586334,0.10557842999696732,0.051667045801877975,-0.1236308366060257,-0.32781508564949036,0.12832321226596832
34.05,0.3528173565864563,0.1511564403772354,0.17353859543800354,-0.07761888206005096,-0.23236028850078583,0.11618249863386154
34.1,0.514597475528717,0.18467427790164948,0.3254343867301941,-0.08782076090574265,-0.0919501930475235,0.17928475141525269
34.15,-0.026300694793462753,0.17228221893310547,0.14145144820213318,-0.03659816086292267,0.1649514138698578,-0.008426690474152565
34.2,-0.5246713161468506,-0.17125894129276276,-0.37849992513656616,-0.14185920357704163,0.197353333234787,-0.07477432489395142
34.25,-0.08335530012845993,-0.10072708129882812,-0.1254153698682785,-0.061527542769908905,0.04798388481140137,0.09882687777280807
34.3,0.0006603263318538666,0.45495033264160156,0.06572254002094269,0.019730575382709503,0.002647733548656106,0.19553126394748688
34.35,0.13495494425296783,0.33786869049072266,0.07989316433668137,-0.061415594071149826,0.22753486037254333,0.013107220642268658
34.4,-0.6606416702270508,-0.13002587854862213,-0.4091278314590454,-0.16661089658737183,0.2276293933391571,-0.10802600532770157
34.45,-0.5218815803527832,-0.0825042873620987,-0.1339382380247116,-0.11721943318843842,0.016438540071249008,0.055663205683231354
34.5,0.15063203871250153,0.21889305114746094,0.10265330225229263,-3.876909613609314e-05,-0.09609750658273697,0.14136773347854614
34.55,0.3199115991592407,0.39869022369384766,0.10286422818899155,-0.09038959443569183,-0.03808384761214256,0.20735584199428558
34.6,-0.11411924660205841,-0.04503155127167702,-0.08152338862419128,-0.1466105729341507,0.10509251803159714,0.07011963427066803
34.65,-0.6944653987884521,-0.043197646737098694,-0.30988800525665283,-0.1126045510172844,0.024867409840226173,0.1589881181716919
34.7,-0.21931979060173035,0.2004690170288086,-0.01897231675684452,-0.05249617248773575,-0.0676431953907013,0.1641208678483963
34.75,0.2461540400981903,0.2172412872314453,0.16434283554553986,-0.05444442108273506,-0.07579170167446136,0.14876103401184082
34.8,0.10612335801124573,0.3158407211303711,-0.08872062712907791,-0.11124131083488464,-0.07406755536794662,0.16640040278434753
34.85,-0.17445451021194458,0.13830089569091797,-0.16524970531463623,-0.1607304811477661,-0.029031431302428246,0.1368323564529419
34.9,-0.341697633266449,0.019473068416118622,-0.25568529963493347,-0.10171011090278625,-0.09896894544363022,0.12674197554588318
34.95,-0.06054138392210007,0.1312885284423828,-0.024894528090953827,-0.07054075598716736,-0.16600637137889862,0.09417056292295456
35.0,0.16147537529468536,0.17225074768066406,0.03201171010732651,-0.07248185575008392,-0.16950546205043793,0.05157420039176941
35.05,0.08334044367074966,0.06360816955566406,-0.045021478086709976,-0.08937400579452515,-0.11031495034694672,0.03539823740720749
35.1,-0.05829582363367081,0.016713140532374382,-0.01548429112881422,-0.10847761482000351,-0.07408889383077621,0.041404418647289276
35.15,-0.05539403855800629,-0.01596069522202015,0.04471937566995621,-0.09594448655843735,-0.0583435520529747,0.04198535904288292
35.2,0.006877628155052662,0.04985523223876953,-0.039164185523986816,-0.06913761049509048,-0.05417371913790703,0.049511559307575226
35.25,-0.04899987578392029,0.12068939208984375,-0.03054594248533249,-0.08860459923744202,-0.03397446870803833,0.0612499937415123
35.3,-0.12145556509494781,0.014086720533668995,-0.033437181264162064,-0.11060366034507751,-0.008865876123309135,0.0587986558675766
35.35,-0.10768198221921921,0.09834671020507812,-0.027141332626342773,-0.1061437651515007,0.0026815368328243494,0.05485166609287262
35.4,0.0014978661201894283,0.044559478759765625,-0.012323069386184216,-0.10049479454755783,0.013875216245651245,0.06053046137094498
35.45,0.06022387742996216,0.1730031967163086,-0.020948501303792,-0.09800826013088226,0.023963892832398415,0.07309558987617493
35.5,-0.011004709638655186,0.25775814056396484,0.04043086618185043,-0.10916148126125336,0.01400337927043438,0.07774235308170319
35.55,-0.05217333883047104,0.30539798736572266,0.09009160846471786,-0.11349228769540787,0.0010565370321273804,0.054369788616895676
35.6,-0.035007294267416,0.25861454010009766,0.015787949785590172,-0.12579217553138733,-0.03067627176642418,0.030831139534711838
35.65,-0.044610828161239624,0.17192935943603516,0.0005008340813219547,-0.1212049126625061,-0.030755387619137764,-0.013301351107656956
35.7,-0.12986095249652863,0.11959647387266159,0.04672372341156006,-0.10584801435470581,-0.040879037231206894,-0.038953132927417755
35.75,-0.13945342600345612,0.11080455034971237,0.08042930066585541,-0.08600838482379913,-0.031860578805208206,-0.06085338070988655
35.8,-0.10720175504684448,0.09874153137207031,-0.0007622994598932564,-0.046346746385097504,-0.0462808832526207,-0.05841344594955444
35.85,-0.07117076963186264,0.2652721405029297,0.001432275865226984,-0.029667027294635773,-0.06394645571708679,-0.05152921378612518
35.9,-0.01817880943417549,0.30257511138916016,-0.005541065242141485,-0.026363668963313103,-0.05816114693880081,-0.06568649411201477
35.95,-0.044247545301914215,0.3168458938598633,0.07188730686903,-0.02722376585006714,-0.06318864226341248,-0.08740508556365967
36.0,-0.04567038640379906,0.2264842987060547,0.07115597277879715,-0.01895969547331333,-0.05103018134832382,-0.11822692304849625
36.05,-0.0955938994884491,-0.0513153113424778,0.16240717470645905,0.003840237855911255,-0.03985195979475975,-0.1483144462108612
36.1,-0.11924643069505692,0.004748337436467409,0.3593236207962036,0.06717138737440109,-0.011794578284025192,-0.17698431015014648
36.15,-0.07439249753952026,0.47356700897216797,0.1099795550107956,0.1613200157880783,0.010567433200776577,-0.22393235564231873
36.2,0.03231539949774742,0.5192794799804688,-0.12591864168643951,0.13831765949726105,-0.006739080883562565,-0.23373457789421082
36.25,0.06953185051679611,0.2455148696899414,-0.39073705673217773,0.07187016308307648,0.07391707599163055,-0.22742368280887604
36.3,-0.0012535154819488525,0.15115928649902344,-0.19114631414413452,0.020662430673837662,0.08845147490501404,-0.1657940149307251
36.35,-0.12015488743782043,0.10199737548828125,-0.17267543077468872,-0.021866915747523308,0.12342541664838791,-0.12152481824159622
36.4,-0.1378147006034851,0.01925468258559704,-0.1334291696548462,-0.04048984497785568,0.13618290424346924,-0.10839049518108368
36.45,-0.0835857018828392,-0.08192157745361328,-0.0002914449432864785,-0.06709511578083038,0.10848189890384674,-0.08711810410022736
36.5,-0.0540894977748394,-0.02146625705063343,-0.04526267945766449,-0.05429099500179291,0.0980251282453537,-0.06877805292606354
36.55,-0.07029326260089874,0.13340091705322266,0.08923579007387161,-0.056587785482406616,0.06435193121433258,-0.039031658321619034
36.6,0.012141010724008083,0.039864540100097656,-0.025700630620121956,-0.05564330145716667,0.05918024107813835,-0.022227849811315536
36.65,0.011637392453849316,-0.021211624145507812,0.06057680398225784,-0.05523575097322464,0.07136847078800201,-0.018556680530309677
36.7,0.003479646285995841,0.01741790771484375,0.0004095435724593699,-0.03472406044602394,0.061671704053878784,-0.02605900540947914
36.75,0.09765604138374329,0.03644752874970436,0.06146793067455292,-0.018415847793221474,0.05642935633659363,-0.04335300251841545
36.8,0.1348649114370346,0.06724071502685547,0.019100753590464592,-0.014634976163506508,0.05943828076124191,-0.04921121895313263
36.85,0.06484226882457733,0.10122394561767578,0.07456349581480026,-0.009501977823674679,0.06436444073915482,-0.041685447096824646
36.9,0.04672817513346672,0.159088134765625,0.10438087582588196,-0.0006310669705271721,0.06634517759084702,-0.03482784703373909
36.95,0.028684861958026886,0.14873218536376953,0.04893326386809349,0.005962277762591839,0.051460858434438705,-0.012761670164763927
37.0,0.05276266485452652,0.1838521957397461,0.18855513632297516,0.008863973431289196,0.06007124483585358,-0.007323013618588448
37.05,0.04750873148441315,0.13547706604003906,0.028992585837841034,0.01869274117052555,0.04492060840129852,0.012737490236759186
37.1,0.007183302193880081,0.19253921508789062,0.13817299902439117,0.01335238479077816,0.04796038195490837,0.010814258828759193
37.15,-0.01500767469406128,0.10278511047363281,0.05960596725344658,0.007256331853568554,0.04654410481452942,0.00392173370346427
37.2,-0.06310631334781647,0.14444637298583984,0.04322601854801178,0.021320361644029617,0.01654232293367386,0.002921192441135645
37.25,-0.03227352350950241,0.04550743103027344,-0.01221670676022768,0.0120915612205863,0.007437457330524921,-0.007511857897043228
37.3,0.04526276886463165,0.1257619857788086,0.012096692807972431,0.020131530240178108,0.0049150376580655575,-0.012864692136645317
37.35,-0.04008205235004425,0.1614542007446289,0.04118819162249565,0.014546013437211514,-0.005108581855893135,-0.01312042772769928
37.4,-0.04224693030118942,0.12200355529785156,-0.030521001666784286,-0.0010514042805880308,-0.01862919144332409,-0.012343816459178925
37.45,0.010508417151868343,0.12077903747558594,-0.0021058761049062014,-0.0065051838755607605,-0.014677890576422215,-0.01224679034203291
37.5,-0.01394374668598175,0.13819122314453125,0.01437733881175518,0.004290590528398752,-0.006762566510587931,-0.008250674232840538
37.55,-0.007939527742564678,0.21753215789794922,0.042663633823394775,-0.0046743424609303474,-0.007707331329584122,-0.0060137356631457806
37.6,-0.021112101152539253,-0.03600597381591797,-0.012165453284978867,-0.016628559678792953,-0.002358765574172139,-0.007022853009402752
37.65,-0.016197070479393005,0.08237075805664062,-0.011508382856845856,0.011311100795865059,0.0030096652917563915,-0.012529623694717884
37.7,-0.049680404365062714,0.2561473846435547,0.1291838139295578,0.016575779765844345,-0.012924560345709324,-0.0020838191267102957
37.75,-0.050459686666727066,0.16655921936035156,-0.002896888880059123,0.014736954122781754,0.0019087153486907482,-0.009403250180184841
37.8,-0.06197560206055641,0.16135597229003906,0.022863127291202545,0.010984235443174839,-0.0031224023550748825,-0.01432996429502964
37.85,-0.05691089108586311,0.24147415161132812,-0.02108297124505043,0.02524709142744541,0.0016532284207642078,-0.01810065656900406
37.9,-0.08531680703163147,0.3063030242919922,0.11074065417051315,-0.007914850488305092,0.005430843681097031,-0.019657405093312263
37.95,-0.03350527584552765,0.6948823928833008,0.002111174399033189,-0.054046161472797394,0.017101619392633438,-0.03762945532798767
38.0,-0.01817750185728073,0.4851570129394531,-0.3067430853843689,-0.2723032534122467,0.07190170884132385,-0.11034385114908218
38.05,0.0011784359812736511,0.14852428436279297,0.09196554869413376,-0.316885381937027,-0.022030645981431007,-0.07265596836805344
38.1,0.0696992501616478,-0.15253734588623047,-0.27682217955589294,-0.1787043660879135,-0.017906613647937775,-0.05547163262963295
38.15,-0.06270499527454376,-0.24478435516357422,0.058283716440200806,-0.1401630938053131,-0.05685575306415558,-0.010792842134833336
38.2,-0.18804626166820526,-0.04472065716981888,0.1733083426952362,-0.10952076315879822,-0.0017903248080983758,-0.05597025901079178
38.25,-0.13845495879650116,0.09735774248838425,0.14751406013965607,-0.065389484167099,-0.05577406287193298,-0.009032879024744034
38.3,-0.0820535346865654,0.05339336022734642,0.026867078617215157,-0.00798568781465292,-0.0708950012922287,0.014825398102402687
38.35,-0.0045050326734781265,0.08681106567382812,-0.07743795216083527,-0.01255015004426241,-0.0549335703253746,0.010448994114995003
38.4,-0.010272860527038574,0.07979202270507812,0.0022723486181348562,0.03792067617177963,-0.050405748188495636,0.02809998020529747
38.45,-0.09065859019756317,0.11577510833740234,-0.058863621205091476,0.04282565414905548,-0.036461591720581055,0.02303091622889042
38.5,0.005255564581602812,0.09655570983886719,0.010589450597763062,0.05047089606523514,-0.05036500096321106,0.03605741262435913
38.55,-0.1104879379272461,0.2823200225830078,0.07038536667823792,0.10446123778820038,-0.030106594786047935,0.021351702511310577
38.6,-0.010853618383407593,0.4376811981201172,0.19453677535057068,0.07330955564975739,-0.020054418593645096,0.0161442868411541
38.65,-0.07924909889698029,0.06743621826171875,-0.02408556453883648,0.09376291930675507,-0.014197290875017643,0.01924220845103264
38.7,-0.04025751352310181,0.09399890899658203,0.11044520139694214,0.12214884161949158,-0.010211276821792126,0.01915644481778145
38.75,-0.07417290657758713,0.08957958221435547,-0.04124712571501732,0.1239275112748146,0.004329084884375334,0.016434550285339355
38.8,-0.048480074852705,-0.02494526095688343,0.014270740561187267,0.11484874784946442,-0.06810924410820007,0.07933128625154495
38.85,-0.15691684186458588,0.009770386852324009,0.22216904163360596,0.21687625348567963,-0.14971166849136353,0.1573382318019867
38.9,-0.15227001905441284,0.10383414477109909,0.2755782902240753,0.30147480964660645,-0.1413438767194748,0.17264658212661743
38.95,-0.25239062309265137,-0.16733552515506744,0.13529063761234283,0.3644953668117523,-0.12729617953300476,0.16444477438926697
39.0,-0.2882888615131378,-0.23138143122196198,0.2713044285774231,0.45174944400787354,-0.16790388524532318,0.1585913598537445
39.05,-0.2944352626800537,-0.0374612882733345,0.06325621157884598,0.5457982420921326,-0.2265894114971161,0.17612618207931519
39.1,-0.10710784792900085,-0.32334041595458984,0.20719842612743378,0.5927530527114868,-0.278940886259079,0.26349586248397827
39.15,0.10038326680660248,-0.0924215316772461,0.06313404440879822,0.6293525099754333,-0.28709155321121216,0.32242414355278015
39.2,-0.13974973559379578,0.45812511444091797,0.16993995010852814,0.7180655002593994,-0.2713083028793335,0.3050420582294464
39.25,-0.08970911800861359,0.4681234359741211,0.18104882538318634,0.5666788816452026,-0.10051730275154114,0.27474260330200195
39.3,0.12335392832756042,-0.04768848046660423,0.11382103711366653,0.32386907935142517,0.07396150380373001,0.23439018428325653
39.35,-0.05110020190477371,-0.1524343490600586,-0.13753008842468262,0.4116920232772827,0.20828482508659363,0.2614423334598541
39.4,-0.1505160629749298,0.2431468963623047,0.1605907529592514,0.47761639952659607,0.11957456916570663,0.3428305387496948
39.45,-0.3764951229095459,0.4341525733470917,0.4719017744064331,0.3933921456336975,0.17540980875492096,0.3132951557636261
39.5,-0.20239661633968353,0.35834312438964844,0.25054076313972473,0.3488115668296814,0.21999627351760864,0.2849070727825165
39.55,-0.24449168145656586,0.43958377838134766,0.21086589992046356,0.23580783605575562,0.25590118765830994,0.25503870844841003
39.6,-0.21102099120616913,0.04291057214140892,-0.04427538067102432,0.20744936168193817,0.28237929940223694,0.18243956565856934
39.65,-0.11194457858800888,0.1485280990600586,0.3140311539173126,0.251476913690567,0.15705516934394836,0.14773201942443848
39.7,-0.1102992594242096,0.11581038683652878,0.15580244362354279,0.24704863131046295,0.12340652942657471,0.11060337722301483
39.75,-0.47151124477386475,0.1422891467809677,0.41226720809936523,0.1985791176557541,0.11590971797704697,0.06878158450126648
39.8,-0.2579335868358612,0.09909819811582565,0.27836641669273376,0.1619594693183899,0.045525308698415756,0.044550590217113495
39.85,-0.496110737323761,0.16403959691524506,0.39602094888687134,0.169294074177742,-0.00013040365593042225,0.015014741569757462
39.9,-0.1326288878917694,0.23865318298339844,0.21440577507019043,0.1490398794412613,-0.02631411887705326,-0.009581007994711399
39.95,-0.11878281831741333,0.13138294219970703,0.14083823561668396,0.08219870924949646,-0.05518793314695358,-0.008993737399578094
40.0,-0.14817307889461517,0.2044696807861328,0.11545722931623459,0.0674867182970047,-0.12361720949411392,-0.006212424486875534
40.05,-0.10272742807865143,0.09902571886777878,0.18222709000110626,0.08335062116384506,-0.14899864792823792,-0.03777735307812691
40.1,0.04265008494257927,0.14536094665527344,0.19413842260837555,0.10145965963602066,-0.13604086637496948,-0.04002755507826805
40.15,0.1365921050310135,-0.19733715057373047,0.08753657341003418,0.06539258360862732,-0.058279551565647125,-0.05060135945677757
40.2,0.08057305961847305,-0.18746376037597656,0.15897990763187408,0.11028419435024261,0.03337682783603668,-0.03829728811979294
40.25,-0.05880267173051834,-0.1155853271484375,0.09345242381095886,0.17461584508419037,0.0186309777200222,0.012774844653904438
40.3,0.25121381878852844,0.07857609540224075,0.1734461635351181,0.2143058329820633,0.01329053658992052,0.06685701012611389
40.35,-0.4052160084247589,-0.13094140589237213,0.048996154218912125,0.2403411865234375,0.05697227641940117,0.10005631297826767
40.4,0.37185728549957275,-0.00868319533765316,0.1322302520275116,0.26688146591186523,0.09211521595716476,0.1187109723687172
40.45,-0.8982867002487183,-0.05379297956824303,-0.028892995789647102,0.24508991837501526,0.09068275988101959,0.11417249590158463
40.5,-0.06450804322957993,0.17990589141845703,0.049143172800540924,0.2507929503917694,0.06864991784095764,0.09868147224187851
40.55,0.23212575912475586,0.24694442749023438,0.02921944111585617,0.22022441029548645,0.10390900075435638,0.07422832399606705
40.6,-0.12010709196329117,-0.03332138434052467,0.0006619421183131635,0.20102614164352417,0.14896844327449799,0.03128983452916145
40.65,0.09945052117109299,0.06471443176269531,-0.08485527336597443,0.17189998924732208,0.13314121961593628,0.0002044367283815518
40.7,0.09321703016757965,0.1256093978881836,0.10076359659433365,0.13324837386608124,0.11681553721427917,0.0339389406144619
40.75,0.1707536280155182,0.2360982894897461,0.27264389395713806,0.12104187160730362,0.10090992599725723,0.05240737274289131
40.8,-0.05456497520208359,0.31030845642089844,-0.018627462908625603,0.09944446384906769,0.16307349503040314,0.01970834471285343
40.85,-0.26171183586120605,0.02845858596265316,0.11217853426933289,0.10229232907295227,0.14542123675346375,0.01973491534590721
40.9,0.059757303446531296,-0.012101175263524055,0.3075188100337982,0.08273014426231384,0.11553984135389328,0.02518901601433754
40.95,-0.07946529239416122,0.07594584673643112,0.3688766658306122,0.07305403798818588,0.08085214346647263,0.002818832639604807
41.0,-0.2323003113269806,-0.10713769495487213,0.589182436466217,0.08438624441623688,0.018977534025907516,0.010606269352138042
41.05,-0.19943489134311676,-0.08385849744081497,-0.028941737487912178,0.09787998348474503,-0.004370509646832943,-0.0001628735481062904
41.1,0.07027338445186615,0.007402421906590462,-0.011133478954434395,0.06726611405611038,0.0007803872576914728,-0.03970400616526604
41.15,-0.0531754270195961,0.148040771484375,-0.1608639359474182,-0.0005678478628396988,0.0974918007850647,-0.0788080170750618
41.2,0.012458808720111847,0.3198204040527344,0.1025119200348854,-0.14278843998908997,0.18818312883377075,-0.12452059239149094
41.25,-0.03729597479104996,0.13248252868652344,0.3772770166397095,-0.1376105546951294,0.023392295464873314,-0.06213727965950966
41.3,-0.002636745572090149,0.11455631256103516,0.15306715667247772,-0.060343727469444275,-0.008741028606891632,-0.030993370339274406
41.35,-0.04971112310886383,0.0027742362581193447,0.09338755160570145,-0.08595116436481476,0.007616449147462845,-0.049403443932533264
41.4,-0.015237221494317055,-0.09056568145751953,-0.052657853811979294,-0.10610823333263397,0.010450411587953568,-0.07336878031492233
41.45,0.05483376979827881,-0.0033998461440205574,-0.10812751948833466,-0.08886884152889252,-0.032908838242292404,-0.09223292768001556
41.5,0.17268526554107666,0.023974424228072166,-0.06074931100010872,-0.11004114896059036,-0.03327437490224838,-0.10806168615818024
41.55,0.22068355977535248,0.27675533294677734,0.05516175925731659,-0.1467868983745575,-0.042083028703927994,-0.13380476832389832
41.6,0.05800141766667366,0.44669055938720703,0.017191346734762192,-0.18241560459136963,-0.06360063701868057,-0.2461639940738678
41.65,-0.041896045207977295,0.5665502548217773,-0.07616690546274185,-0.34386417269706726,-0.17616793513298035,-0.40477442741394043
41.7,-0.258892685174942,0.7296438217163086,-0.008355223573744297,-0.5460878014564514,-0.24628271162509918,-0.4837896227836609
41.75,-0.014544472098350525,0.3164253234863281,-0.2713963985443115,-0.6888935565948486,-0.35982221364974976,-0.4040287137031555
41.8,0.03624768555164337,-0.00809382926672697,-0.3354867994785309,-0.704551100730896,-0.46965813636779785,-0.281357079744339
41.85,0.3005887269973755,0.17769433557987213,-0.1936056911945343,-0.6365734338760376,-0.6954033970832825,-0.22472631931304932
41.9,0.2724226713180542,0.2842693328857422,-0.1780112236738205,-0.5664578676223755,-0.7022420167922974,-0.2364712804555893
41.95,0.24475456774234772,0.052660949528217316,-0.21177050471305847,-0.5111008286476135,-0.6218961477279663,-0.24085094034671783
42.0,0.4843035340309143,-0.1896505206823349,-0.36676883697509766,-0.5695989727973938,-0.6706863045692444,-0.2424757331609726
42.05,0.32372352480888367,-0.1997670978307724,-0.4765380024909973,-0.49923330545425415,-0.6267620325088501,-0.2625841796398163
42.1,0.20747332274913788,-0.11950873583555222,-0.04771067947149277,-0.38372814655303955,-0.586418867111206,-0.2509261965751648
42.15,0.13543222844600677,-0.02657603845000267,0.052228402346372604,-0.34795984625816345,-0.5705637335777283,-0.260265976190567
42.2,0.14563094079494476,-0.014638896100223064,-0.02108882926404476,-0.3361206650733948,-0.5148921608924866,-0.2931993305683136
42.25,-0.003055669367313385,0.052204132080078125,0.07086926698684692,-0.3141669034957886,-0.4477735161781311,-0.31745627522468567
42.3,-0.09143318980932236,0.08385467529296875,0.062045078724622726,-0.27719539403915405,-0.3505360782146454,-0.3091031312942505
42.35,-0.2005443572998047,-0.017341619357466698,0.02509315311908722,-0.22432982921600342,-0.30786043405532837,-0.27693501114845276
42.4,-0.23896196484565735,0.01698588766157627,-0.0796576589345932,-0.2179107815027237,-0.23013368248939514,-0.25822076201438904
42.45,-0.29074621200561523,0.027838701382279396,-0.15622761845588684,-0.20696377754211426,-0.1467941254377365,-0.25588011741638184
42.5,-0.39489373564720154,0.20005033910274506,-0.18545827269554138,-0.19189883768558502,-0.07622568309307098,-0.22546935081481934
42.55,-0.38746845722198486,0.2919301986694336,-0.15989579260349274,-0.21613603830337524,0.017526540905237198,-0.17322054505348206
42.6,-0.7178385257720947,0.41063591837882996,-0.304435133934021,-0.27857068181037903,0.14228889346122742,-0.16700169444084167
42.65,-0.33756640553474426,0.09675692766904831,0.04354843869805336,-0.3082456588745117,0.27649086713790894,-0.18900762498378754
42.7,-0.35129690170288086,0.27083873748779297,-0.2495453804731369,-0.3417201042175293,0.4291499853134155,-0.2102082222700119
42.75,-0.1251426786184311,0.041382789611816406,-0.2862301468849182,-0.3691897392272949,0.4982675313949585,-0.17811597883701324
42.8,0.07631371915340424,-0.0231780968606472,-0.2179071009159088,-0.2983183264732361,0.5078235864639282,-0.14042828977108002
42.85,0.0032902993261814117,-0.11390209197998047,-0.02988060750067234,-0.2473173588514328,0.4514351487159729,-0.0839909091591835
42.9,-0.12521305680274963,-0.2857799530029297,-0.1432928889989853,-0.18019437789916992,0.3413168787956238,-0.0008695209980942309
42.95,0.3307975232601166,-0.019419660791754723,-0.014414475299417973,-0.13502739369869232,0.24799461662769318,0.04851727932691574
43.0,0.3281227648258209,0.07539749890565872,0.04480958357453346,-0.11523038148880005,0.23089435696601868,0.05317190662026405
43.05,0.4284559190273285,-0.05867670848965645,0.018666325137019157,-0.06546904146671295,0.27843785285949707,0.06344122439622879
43.1,0.2759392261505127,0.37641048431396484,0.10286252945661545,-0.016069460660219193,0.28908205032348633,0.12158248573541641
43.15,0.090483658015728,0.39790916442871094,0.17227162420749664,-0.05335904285311699,0.20807328820228577,0.16178008913993835
43.2,0.44258397817611694,-0.05340670794248581,0.44419509172439575,-0.011041097342967987,0.16779634356498718,0.158990278840065
43.25,1.239447832107544,-0.053738560527563095,0.17359453439712524,0.08596817404031754,0.11571981012821198,0.11796727031469345
43.3,1.2224570512771606,0.10379031300544739,0.1041993498802185,0.11553071439266205,-0.005985538009554148,0.1486254632472992
43.35,-0.2543739378452301,-0.073334701359272,0.2568303942680359,0.12167438119649887,-0.3051720857620239,0.15942616760730743
43.4,-1.9832217693328857,-0.6146860718727112,-0.3943137228488922,0.021638890728354454,-0.8221769332885742,-0.06182274967432022
43.45,-1.1301000118255615,-0.44814780354499817,-1.0744160413742065,0.05619065463542938,-1.4335414171218872,-0.4068453311920166
43.5,-0.8737722039222717,0.15383432805538177,-1.0236210823059082,0.4019125998020172,-1.5606889724731445,-0.27467775344848633
43.55,0.4982132911682129,0.8460750579833984,-0.16327087581157684,0.3370043635368347,-1.3680765628814697,-0.06894104927778244
43.6,-0.1966542750597,1.5931825637817383,-0.0664973333477974,0.06235167011618614,-0.7573237419128418,0.009720336645841599
43.65,-0.7851963043212891,0.9201822280883789,0.0919295996427536,-0.14862671494483948,-0.2534559965133667,0.10393322259187698
43.7,-1.2675089836120605,0.2515048682689667,-0.5457025766372681,-0.3711431622505188,-0.1325795203447342,0.052327241748571396
43.75,-1.587773084640503,-0.14054778218269348,-0.9039083123207092,-0.43151986598968506,-0.00518812658265233,-0.048239320516586304
43.8,-2.049879550933838,-0.42649272084236145,-1.5778234004974365,-0.3726818561553955,0.17931948602199554,-0.2490503191947937
43.85,-1.690309762954712,0.40540310740470886,-0.5911227464675903,-0.07738328725099564,0.23045480251312256,-0.30761805176734924
43.9,-0.5861597061157227,1.3156375885009766,-0.40873974561691284,0.13951249420642853,0.12581562995910645,-0.17405188083648682
43.95,0.732873797416687,0.7881126403808594,0.24535518884658813,0.022456735372543335,-0.08971820771694183,-0.014226779341697693
44.0,1.5444921255111694,-0.11766811460256577,0.5745932459831238,-0.09110760688781738,-0.1907852590084076,0.1831338107585907
44.05,1.4552823305130005,-0.43715378642082214,0.45371416211128235,-0.19395038485527039,-0.19642163813114166,0.21651098132133484
44.1,1.0666370391845703,-0.08682438731193542,0.32697346806526184,-0.17640972137451172,-0.20486178994178772,0.21091660857200623
44.15,0.9790912866592407,-0.3110522925853729,0.47435471415519714,-0.1989908516407013,-0.433102548122406,0.33365100622177124
44.2,1.156050205230713,-0.1917419135570526,0.5712645053863525,-0.21196210384368896,-0.5624578595161438,0.31105607748031616
44.25,1.043177843093872,0.05472376197576523,0.5543951988220215,-0.18173828721046448,-0.5741890668869019,0.2611100375652313
44.3,0.8429614305496216,-0.07155321538448334,0.5201316475868225,-0.1556834578514099,-0.5398274064064026,0.2678886353969574
44.35,0.5935168266296387,-0.12023448199033737,0.5101574659347534,-0.08906606584787369,-0.4164164662361145,0.22516882419586182
44.4,0.13579048216342926,-0.04060458764433861,-0.01607345975935459,-0.04464222863316536,-0.2996610105037689,0.08884681016206741
44.45,-0.10394555330276489,0.18280029296875,-0.040723320096731186,-0.06614503264427185,-0.366696834564209,0.12388880550861359
44.5,0.11281375586986542,0.3926877975463867,0.1692735105752945,-0.053177688270807266,-0.3927155137062073,0.17797493934631348
44.55,-0.1176329255104065,0.5084905624389648,0.43419840931892395,-0.09679731726646423,-0.4133213460445404,0.24554874002933502
44.6,0.005948605015873909,0.3458881378173828,0.07353939861059189,-0.09159733355045319,-0.3245221972465515,0.2775976359844208
44.65,-0.4267697334289551,0.18200300633907318,-0.3906952142715454,-0.17721547186374664,-0.35045984387397766,0.14246663451194763
44.7,0.11650606989860535,-0.07481002062559128,-0.41936102509498596,-0.25039586424827576,-0.2621617317199707,-0.047498054802417755
44.75,0.6088869571685791,-0.2318277209997177,0.08789888769388199,-0.29731321334838867,-0.07976865768432617,-0.35554686188697815
44.8,0.5390160083770752,-0.39466285705566406,0.5456857681274414,-0.2048036754131317,0.08374876528978348,-0.5219160318374634
44.85,0.5347278714179993,0.07819366455078125,1.0657464265823364,-0.00241146981716156,0.4353850185871124,-0.5307422280311584
44.9,0.7840205430984497,-0.13777635991573334,0.9494109153747559,0.016406521201133728,0.9692329168319702,-0.6570440530776978
44.95,-0.046975865960121155,0.5369930267333984,0.21912963688373566,0.0792531669139862,1.3467785120010376,-0.34852898120880127
45.0,-0.02426612377166748,0.32170677185058594,0.12070559710264206,-0.055036719888448715,1.3958344459533691,-0.10969990491867065
45.05,-0.2406531423330307,-0.04602909833192825,-0.05783224105834961,0.0468432754278183,1.5666722059249878,-0.07965435087680817
45.1,0.04760342836380005,-0.15244388580322266,0.17450790107250214,0.19392308592796326,1.5111548900604248,-0.023969631642103195
45.15,0.13684335350990295,0.03995800018310547,0.25402891635894775,0.25939488410949707,1.4954912662506104,-0.07557947933673859
45.2,0.15023842453956604,0.43448734283447266,-0.10561574995517731,0.2643301486968994,1.5451416969299316,-0.1396404206752777
45.25,-0.14703303575515747,0.5082063674926758,-0.1869056671857834,0.17058165371418,1.46517813205719,-0.09696240723133087
45.3,-0.45527440309524536,0.206571564078331,-0.16528968513011932,0.13251946866512299,1.2464871406555176,-0.024032797664403915
45.35,-0.32385799288749695,0.05449198558926582,0.08679674565792084,0.18563279509544373,1.029283046722412,-0.010717290453612804
45.4,-0.10902348905801773,0.1545848846435547,0.3683759272098541,0.27634772658348083,0.8704077005386353,-0.03414847329258919
45.45,0.20836827158927917,0.1291484832763672,0.12239555269479752,0.2887103855609894,0.7737827897071838,-0.04439849033951759
45.5,0.04379284754395485,0.20589923858642578,0.019648004323244095,0.29717978835105896,0.7959409356117249,-0.033230751752853394
45.55,-0.4191930294036865,-0.06454754620790482,-0.33039262890815735,0.2778887152671814,0.8447831869125366,0.01566656306385994
45.6,-1.0631495714187622,-0.08851148933172226,-0.37147966027259827,0.27271702885627747,0.8683120608329773,0.016710314899683
45.65,-1.3489303588867188,0.4609212577342987,-0.1421424001455307,0.25351452827453613,0.6904386878013611,0.04129157215356827
45.7,-1.4495084285736084,0.17999167740345,-0.26010823249816895,0.14441071450710297,0.45861178636550903,0.05999843403697014
45.75,-1.24664306640625,0.427547425031662,-0.19893692433834076,0.19255536794662476,0.22826671600341797,0.018835075199604034
45.8,-0.9408941864967346,0.5724496841430664,-0.22887437045574188,0.25626298785209656,0.0640263482928276,-0.018394170328974724
45.85,-0.9935400485992432,0.3108920753002167,-0.40853628516197205,0.16280719637870789,-0.15611326694488525,0.01125613134354353
45.9,-1.0288047790527344,0.3034810721874237,-0.1544085294008255,0.12525103986263275,-0.31267356872558594,-0.029317261651158333
45.95,-0.7582948207855225,0.3563813865184784,0.13475671410560608,0.09818190336227417,-0.3843977153301239,-0.12895457446575165
46.0,-0.7362812757492065,0.41739651560783386,0.16598917543888092,0.02831079810857773,-0.37330877780914307,-0.17273125052452087
46.05,-0.5386205315589905,0.25182053446769714,0.23691944777965546,0.06464938819408417,-0.49730685353279114,-0.16261927783489227
46.1,-0.24065276980400085,0.19177721440792084,0.17653357982635498,-0.012676719576120377,-0.580551028251648,-0.14818799495697021
46.15,0.22908912599086761,-0.3120241165161133,-0.2796030044555664,-0.09103106707334518,-0.2302771508693695,-0.1928199827671051
46.2,0.15759776532649994,-0.1708202362060547,-0.07896514981985092,-0.007024098187685013,-0.1815488189458847,0.009339890442788601
46.25,0.055104196071624756,0.23784923553466797,-0.10473557561635971,0.07151038199663162,-0.10346857458353043,0.1695803850889206
46.3,0.2150266021490097,0.7099905014038086,0.44811540842056274,0.08776220679283142,0.24154654145240784,0.04719749093055725
46.35,0.17086662352085114,0.31331634521484375,0.4685027599334717,0.044025320559740067,0.12982892990112305,0.13502272963523865
46.4,0.061911068856716156,0.14351177215576172,0.44447964429855347,-0.04451769217848778,0.025897426530718803,0.14486637711524963
46.45,-0.16981379687786102,0.05790328234434128,0.1953415721654892,-0.07697949558496475,-0.01894444413483143,0.0527367889881134
