Time [s],Acc_x [m/s^2],Acc_y [m/s^2],Acc_z [m/s^2],Gyro_x [1/s],Gyro_y [1/s],Gyro_z [1/s]
0.0,0.006243211682885885,0.07451058179140091,0.004403609782457352,-0.002494930289685726,0.00022172750323079526,0.00041995258652605116
0.002,0.005972546059638262,0.07464504987001419,0.004321272950619459,-0.00237074913457036,0.00017972388013731688,0.00043827402987517416
0.004,0.005707432981580496,0.07473946362733841,0.004256457556039095,-0.002247283700853586,0.00015531110693700612,0.000453395041404292
0.006,0.005429234355688095,0.07489300519227982,0.004150961991399527,-0.0021169043611735106,0.00015584002539981157,0.0004681504506152123
0.008,0.005136528052389622,0.0750427320599556,0.0040245275013148785,-0.0019889178220182657,0.0001828029053285718,0.0004903420922346413
0.01,0.004771529231220484,0.07524395734071732,0.0038176928646862507,-0.0018731852760538459,0.00024226460664067417,0.0005165055627003312
0.012,0.004316353239119053,0.07543564587831497,0.0036005170550197363,-0.0017756394809111953,0.00033455330412834883,0.0005457037477754056
0.014,0.003857946489006281,0.07563591748476028,0.0033146326895803213,-0.0017042005201801658,0.0004703839076682925,0.0005798851489089429
0.016,0.0033640617039054632,0.07584381848573685,0.0029014472384005785,-0.0016635223291814327,0.000645639025606215,0.000620913808234036
0.018,0.002843886148184538,0.07606316357851028,0.0024761222302913666,-0.0016507747350260615,0.0008549568010494113,0.000663225946482271
0.02,0.002289714990183711,0.0762786939740181,0.00202192272990942,-0.001660684123635292,0.0010904918890446424,0.0007017542375251651
0.022,0.001736727193929255,0.07649613171815872,0.0015092517714947462,-0.0016834314446896315,0.0013384101912379265,0.0007367602083832026
0.024,0.0011454223422333598,0.07668114453554153,0.0009251366136595607,-0.0017145284218713641,0.0015853550285100937,0.0007681096903979778
0.026,0.0005363851669244468,0.0768585279583931,0.00026774813886731863,-0.0017456451896578074,0.0018229964189231396,0.0007998824003152549
0.028,-4.31799708167091e-05,0.07703877240419388,-0.00040400068974122405,-0.0017666220664978027,0.0020423654932528734,0.0008321122149936855
0.03,-0.0005462816916406155,0.07718373090028763,-0.001106815179809928,-0.0017771674320101738,0.0022292430512607098,0.0008656381396576762
0.032,-0.0010339678265154362,0.07725239545106888,-0.001857360708527267,-0.001781694358214736,0.0023858582135289907,0.0009038916905410588
0.034,-0.0014775714371353388,0.07728386670351028,-0.002633491763845086,-0.0017842705128714442,0.0025042432826012373,0.0009461053414270282
0.036,-0.0018665987299755216,0.07724667340517044,-0.003426553215831518,-0.00179773080162704,0.0025861975736916065,0.000999458134174347
0.038,-0.0021618534810841084,0.07714176923036575,-0.004294457845389843,-0.0018257852643728256,0.002638118574395776,0.0010672275675460696
0.04,-0.0023717950098216534,0.07699108868837357,-0.00512703787535429,-0.0018744368571788073,0.0026619494892656803,0.0011421485105529428
0.042,-0.0025311061181128025,0.0767974928021431,-0.005972881801426411,-0.0019498501205816865,0.002663471270352602,0.0012285172706469893
0.044,-0.0025849626399576664,0.07654381543397903,-0.0068474141880869865,-0.0020565963350236416,0.002650854177772999,0.0013212587218731642
0.046,-0.002515846397727728,0.07623196393251419,-0.007687986362725496,-0.002189333550632,0.00263154786080122,0.0014169699279591441
0.048,-0.0023580773267894983,0.07588673382997513,-0.00842891912907362,-0.0023470816668123007,0.0026041213423013687,0.0015172308776527643
0.05,-0.0021282322704792023,0.0754852369427681,-0.00912286713719368,-0.0025190189480781555,0.0025775281246751547,0.0016158631769940257
0.052,-0.0018005594611167908,0.07505131512880325,-0.009759938344359398,-0.002700893906876445,0.0025567251723259687,0.0017106396844610572
0.054,-0.001386804971843958,0.07456017285585403,-0.010371264070272446,-0.0028881472535431385,0.002549277152866125,0.001798174693249166
0.056,-0.0009018047712743282,0.07406140118837357,-0.010951598174870014,-0.0030707530677318573,0.0025594651233404875,0.0018806083826348186
0.058,-0.00039945216849446297,0.07355404645204544,-0.011448088102042675,-0.0032381159253418446,0.0025894949212670326,0.001963496208190918
0.06,0.0001408676616847515,0.0730447843670845,-0.011840871535241604,-0.003395683132112026,0.0026428077835589647,0.002038112608715892
0.062,0.0007407502271234989,0.07251740247011185,-0.012133434414863586,-0.003534301184117794,0.0027203524950891733,0.0021027345210313797
0.064,0.0013252869248390198,0.07200814038515091,-0.012211143039166927,-0.0036513993982225657,0.002809528959915042,0.002162207616493106
0.066,0.0018924977630376816,0.07156658917665482,-0.012170624919235706,-0.003750629024580121,0.002911605406552553,0.002212187508121133
0.068,0.00239653792232275,0.0711517408490181,-0.012088506482541561,-0.0038300473242998123,0.0030145011842250824,0.002248635981231928
0.07,0.0028138868510723114,0.07076550275087357,-0.011895953677594662,-0.0038904636166989803,0.0031118381302803755,0.0022756564430892467
0.072,0.003151705488562584,0.07038498669862747,-0.011594860814511776,-0.003930661361664534,0.003196357050910592,0.002288997871801257
0.074,0.0034656089264899492,0.07002640515565872,-0.011229303665459156,-0.003953169099986553,0.0032647126354277134,0.0022929194383323193
0.076,0.00367708969861269,0.06973553448915482,-0.010736036114394665,-0.003958831541240215,0.003319372422993183,0.0022864998318254948
0.078,0.003755219979211688,0.06947804242372513,-0.010120628401637077,-0.003942525014281273,0.003365838900208473,0.00227735354565084
0.08,0.0037898216396570206,0.06928349286317825,-0.00956322718411684,-0.0039060935378074646,0.003407962154597044,0.002275646897032857
0.082,0.0037591150030493736,0.06911183148622513,-0.008922500535845757,-0.003853833768516779,0.003458945546299219,0.002286886563524604
0.084,0.003658196423202753,0.06904316693544388,-0.008232716470956802,-0.0037909545935690403,0.0035371549893170595,0.0023199589923024178
0.086,0.0034396552946418524,0.06905270367860794,-0.007586033549159765,-0.0037229792214930058,0.003650300670415163,0.002377106109634042
0.088,0.003127229167148471,0.06909371167421341,-0.006957687437534332,-0.0036543607711791992,0.003803842468187213,0.0024729862343519926
0.09,0.002710711443796754,0.06914711743593216,-0.006449955515563488,-0.0035774502903223038,0.004006077069789171,0.0026064724661409855
0.092,0.0022467495873570442,0.06926728039979935,-0.005974872969090939,-0.0035000797361135483,0.004258931614458561,0.002773882821202278
0.094,0.0017887648427858949,0.06945706158876419,-0.00567237613722682,-0.003420017659664154,0.004563246387988329,0.00297599658370018
0.096,0.0012363109271973372,0.06964016705751419,-0.005401099566370249,-0.0033351192250847816,0.004909948445856571,0.0032026823610067368
0.098,0.0006271186284720898,0.06989384442567825,-0.005265051499009132,-0.0032467779237776995,0.005284423008561134,0.00344471400603652
0.1,-1.58003531396389e-05,0.0701751783490181,-0.005264835432171822,-0.0031649842858314514,0.00567733496427536,0.0036970158107578754
0.102,-0.0006710111629217863,0.07049179822206497,-0.005389157682657242,-0.003098692512139678,0.006071704439818859,0.003951498307287693
0.104,-0.0013023109640926123,0.07082844525575638,-0.005659311078488827,-0.003060865681618452,0.00644350703805685,0.00420006550848484
0.106,-0.0019113041926175356,0.07115937024354935,-0.006011907011270523,-0.003056830493733287,0.006777254398912191,0.004437110852450132
0.108,-0.0025567037519067526,0.07150841504335403,-0.006621826905757189,-0.0030894905794411898,0.007067488972097635,0.004660541657358408
0.11,-0.0031750197522342205,0.07187367230653763,-0.007288862485438585,-0.003160439897328615,0.0073041063733398914,0.004869330674409866
0.112,-0.0037089576944708824,0.07229138165712357,-0.008053971454501152,-0.00327159371227026,0.007473411504179239,0.005059481132775545
0.114,-0.004254218190908432,0.07273484021425247,-0.00892332661896944,-0.0034105326049029827,0.007569890469312668,0.0052327606827020645
0.116,-0.004787604324519634,0.0731363371014595,-0.009906995110213757,-0.0035660243593156338,0.0075977821834385395,0.005383424460887909
0.118,-0.0052975560538470745,0.07357216626405716,-0.011003383435308933,-0.003724421374499798,0.007566689979285002,0.005508980248123407
0.12,-0.005707121454179287,0.07396317273378372,-0.012115535326302052,-0.0038671009242534637,0.007476795930415392,0.005615769419819117
0.122,-0.006072815507650375,0.07435417920351028,-0.013293100520968437,-0.0039908550679683685,0.007330849766731262,0.005704790353775024
0.124,-0.006420627236366272,0.07474613934755325,-0.014522915706038475,-0.004095138981938362,0.00714516406878829,0.005775380413979292
0.126,-0.006716677453368902,0.07517243176698685,-0.015750691294670105,-0.004187451675534248,0.006935792975127697,0.005834905430674553
0.128,-0.006994717754423618,0.07558346539735794,-0.017059167847037315,-0.004267718642950058,0.006702303886413574,0.005883933510631323
0.13,-0.007231573574244976,0.0760049894452095,-0.018431147560477257,-0.0043503353372216225,0.006450105458498001,0.005925468169152737
0.132,-0.007474471349269152,0.07645512372255325,-0.019779685884714127,-0.004454761743545532,0.0061844042502343655,0.005953917745500803
0.134,-0.007714291103184223,0.07694435864686966,-0.021120956167578697,-0.004595213569700718,0.005914723034948111,0.005972930230200291
0.136,-0.007928294129669666,0.07744885236024857,-0.0224949661642313,-0.00478399870917201,0.005647249519824982,0.00599143048748374
0.138,-0.008184460923075676,0.07794953137636185,-0.023874720558524132,-0.005018073134124279,0.005383369978517294,0.0060042827390134335
0.14,-0.008466699160635471,0.078492172062397,-0.025225013494491577,-0.005297137890011072,0.00512748071923852,0.006020879372954369
0.142,-0.008729762397706509,0.0790872648358345,-0.026511644944548607,-0.005621937103569508,0.004889484960585833,0.006028464995324612
0.144,-0.009051823057234287,0.0796966627240181,-0.027794962748885155,-0.005984522867947817,0.004657079000025988,0.006028736010193825
0.146,-0.009390403516590595,0.08036423474550247,-0.029025763273239136,-0.006360367871820927,0.004431296139955521,0.00603597704321146
0.148,-0.009789601899683475,0.08106137067079544,-0.030147992074489594,-0.006741682533174753,0.004214361775666475,0.0060500213876366615
0.15,-0.010237329639494419,0.08176041394472122,-0.03125056251883507,-0.007115539163351059,0.004007088020443916,0.006075677927583456
0.152,-0.010717326775193214,0.08246899396181107,-0.032301660627126694,-0.007468691095709801,0.0038149324245750904,0.006124097388237715
0.154,-0.01127640437334776,0.08318806439638138,-0.03326643630862236,-0.007793304044753313,0.0036379860248416662,0.006196961738169193
0.156,-0.011924207210540771,0.08393097668886185,-0.034166425466537476,-0.008087538182735443,0.003477418562397361,0.0062939380295574665
0.158,-0.012657740153372288,0.08467388898134232,-0.03507402911782265,-0.008353614248335361,0.003339075483381748,0.006415708921849728
0.16,-0.01346187386661768,0.08545590192079544,-0.035870183259248734,-0.008594595827162266,0.0032263444736599922,0.006560638081282377
0.162,-0.014331373386085033,0.08623696118593216,-0.03659220412373543,-0.00882380735129118,0.003140317741781473,0.006725456565618515
0.164,-0.015275193378329277,0.08704376965761185,-0.03721752017736435,-0.009046925231814384,0.003088496159762144,0.006906161084771156
0.166,-0.01627291552722454,0.08784390240907669,-0.03777394816279411,-0.009264023043215275,0.0030763731338083744,0.007100420538336039
0.168,-0.01733209751546383,0.08862210065126419,-0.03832734748721123,-0.00948501005768776,0.0031008918303996325,0.007308755535632372
0.17,-0.01842205785214901,0.08937836438417435,-0.0389142669737339,-0.009721238166093826,0.0031553558073937893,0.0075219497084617615
0.172,-0.019577715545892715,0.09012223035097122,-0.0394432470202446,-0.009978991001844406,0.0032292159739881754,0.00773648964241147
0.174,-0.020703591406345367,0.09084130078554153,-0.040037501603364944,-0.01026166882365942,0.003312797984108329,0.007949036546051502
0.176,-0.021836141124367714,0.09149361401796341,-0.04056843742728233,-0.010569863952696323,0.003391604870557785,0.008156548254191875
0.178,-0.022944539785385132,0.09214497357606888,-0.04099351912736893,-0.010906487703323364,0.0034496274311095476,0.008351843804121017
0.18,-0.02397095039486885,0.09272576123476028,-0.04142783582210541,-0.011265520937740803,0.003462638473138213,0.008533635176718235
0.182,-0.025007598102092743,0.0932474210858345,-0.04192771390080452,-0.011644450947642326,0.003422386711463332,0.008694849908351898
0.184,-0.026008810847997665,0.09371758252382278,-0.04247492551803589,-0.012032905593514442,0.003311932785436511,0.008828320540487766
0.186,-0.026866091415286064,0.09414388239383698,-0.043018557131290436,-0.012424848042428493,0.0031197851058095694,0.008933101780712605
0.188,-0.02762366272509098,0.09451200067996979,-0.04353731498122215,-0.012814386747777462,0.002844474045559764,0.008999820798635483
0.19,-0.028337258845567703,0.09481622278690338,-0.04398627206683159,-0.013199768029153347,0.0024883553851395845,0.009032400324940681
0.192,-0.028895672410726547,0.09509564936161041,-0.04445873573422432,-0.013582296669483185,0.0020630701910704374,0.009042110294103622
0.194,-0.029278341680765152,0.09525968134403229,-0.04500101879239082,-0.013960354030132294,0.0015755833592265844,0.00902681052684784
0.196,-0.029510531574487686,0.095369353890419,-0.04553060233592987,-0.0143357515335083,0.0010374695993959904,0.009000390768051147
0.198,-0.029598936438560486,0.09542752802371979,-0.04600248858332634,-0.014712902717292309,0.00046781107084825635,0.008971267379820347
0.2,-0.029533864930272102,0.09543229639530182,-0.046454496681690216,-0.015097755938768387,-0.00013581174425780773,0.008941996842622757
0.202,-0.029391590505838394,0.09541989862918854,-0.04689725488424301,-0.01548722106963396,-0.0007643114659003913,0.008913771249353886
0.204,-0.029140200465917587,0.09542752802371979,-0.04731614142656326,-0.015885869041085243,-0.0014119496336206794,0.008883555419743061
0.206,-0.028731875121593475,0.09540940821170807,-0.0477442741394043,-0.016293132677674294,-0.0020708530209958553,0.00885104015469551
0.208,-0.02822820656001568,0.09531594812870026,-0.04816512018442154,-0.01670115813612938,-0.002735268324613571,0.008813153952360153
0.21,-0.027591906487941742,0.09518910944461823,-0.04854794591665268,-0.017101433128118515,-0.003397372318431735,0.008777916431427002
0.212,-0.02689962089061737,0.09510137140750885,-0.048892997205257416,-0.017489150166511536,-0.004051471594721079,0.00874666590243578
0.214,-0.026215877383947372,0.0950479656457901,-0.04923177883028984,-0.017866475507616997,-0.00468378746882081,0.008718551136553288
0.216,-0.0254683680832386,0.09502030909061432,-0.04963329806923866,-0.018215574324131012,-0.005280539859086275,0.008698603138327599
0.218,-0.024712111800909042,0.09503461420536041,-0.050015855580568314,-0.018531931564211845,-0.005826674401760101,0.008689021691679955
0.22,-0.0240003764629364,0.09503938257694244,-0.050464216619729996,-0.018817484378814697,-0.0063077607192099094,0.008691170252859592
0.222,-0.023326450958848,0.09504415094852448,-0.05094986781477928,-0.019067911431193352,-0.006706147454679012,0.00870710238814354
0.224,-0.022688554599881172,0.095064178109169,-0.05151982232928276,-0.019282255321741104,-0.007004518061876297,0.008737889118492603
0.226,-0.022160865366458893,0.09512616693973541,-0.052185095846652985,-0.019466200843453407,-0.00719270808622241,0.008777514100074768
0.228,-0.02176298201084137,0.095216765999794,-0.052934613078832626,-0.01962979882955551,-0.007257170043885708,0.008818474598228931
0.23,-0.021530404686927795,0.0953369289636612,-0.05377743020653725,-0.019778281450271606,-0.007180843036621809,0.00885725487023592
0.232,-0.021435271948575974,0.0955200344324112,-0.05475423485040665,-0.019921816885471344,-0.006970675196498632,0.008897952735424042
0.234,-0.021545255556702614,0.09573270380496979,-0.055789604783058167,-0.020077869296073914,-0.00663507916033268,0.008946157991886139
0.236,-0.021817443892359734,0.09593774378299713,-0.05689107999205589,-0.02025521919131279,-0.0061914087273180485,0.009000523947179317
0.238,-0.022253263741731644,0.09617234766483307,-0.058131683617830276,-0.020456941798329353,-0.0056597888469696045,0.009061458520591259
0.24,-0.022889290004968643,0.09645558893680573,-0.05939498171210289,-0.02068682573735714,-0.00506821321323514,0.009133328683674335
0.242,-0.023661639541387558,0.09674455225467682,-0.06077856943011284,-0.02095194160938263,-0.004459242336452007,0.009215769357979298
0.244,-0.02456922084093094,0.09701825678348541,-0.06218999996781349,-0.021252306178212166,-0.0038665602914988995,0.009301496669650078
0.246,-0.025649163872003555,0.09733487665653229,-0.06346501410007477,-0.02158350497484207,-0.0033278402406722307,0.009387064725160599
0.248,-0.026832055300474167,0.09768487513065338,-0.06471341848373413,-0.021946223452687263,-0.002887409646064043,0.009469201788306236
0.25,-0.028104256838560104,0.0980224758386612,-0.06589370965957642,-0.022342074662446976,-0.002594579942524433,0.009539175778627396
0.252,-0.029409926384687424,0.09839917719364166,-0.06698059290647507,-0.02277073636651039,-0.002487325808033347,0.00959615595638752
0.254,-0.030661506578326225,0.09877301752567291,-0.06795229017734528,-0.023227185010910034,-0.0025923391804099083,0.009642403572797775
0.256,-0.031900595873594284,0.09915734827518463,-0.06876155734062195,-0.023708678781986237,-0.0029332549311220646,0.009689748287200928
0.258,-0.03307412564754486,0.09957124292850494,-0.06931611150503159,-0.024211682379245758,-0.003514516167342663,0.009746423922479153
0.26,-0.03410919010639191,0.09997178614139557,-0.06962615251541138,-0.02472838945686817,-0.00432742340490222,0.009814414195716381
0.262,-0.034952931106090546,0.10037709772586823,-0.06965383142232895,-0.025256047025322914,-0.005339697003364563,0.009905398823320866
0.264,-0.035614266991615295,0.10079766809940338,-0.0694410502910614,-0.025789793580770493,-0.006503000855445862,0.010020607151091099
0.266,-0.03606705367565155,0.10116864740848541,-0.06902875006198883,-0.0263224970549345,-0.007760793901979923,0.010163464583456516
0.268,-0.036278143525123596,0.10149194300174713,-0.06827424466609955,-0.026845090091228485,-0.009057472459971905,0.010338247753679752
0.27,-0.03625788539648056,0.1017627865076065,-0.06720644980669022,-0.027359772473573685,-0.010329993441700935,0.01053781807422638
0.272,-0.03601038083434105,0.1020212322473526,-0.065811388194561,-0.027867071330547333,-0.011525656096637249,0.010754306800663471
0.274,-0.03552034869790077,0.10223294794559479,-0.0640648752450943,-0.02835915982723236,-0.012606938369572163,0.010974777862429619
0.276,-0.03480399399995804,0.10235501825809479,-0.06200253218412399,-0.02883872389793396,-0.013555657118558884,0.011184866540133953
0.278,-0.03382500633597374,0.10242654383182526,-0.05962885916233063,-0.029301416128873825,-0.014361055567860603,0.01137160137295723
0.28,-0.0325988233089447,0.10241509974002838,-0.05698441341519356,-0.02974272519350052,-0.015026181936264038,0.011522093787789345
0.282,-0.031167685985565186,0.10232259333133698,-0.05412844941020012,-0.03016793727874756,-0.015575068071484566,0.011626644991338253
0.284,-0.029570546001195908,0.10214616358280182,-0.050954367965459824,-0.030580736696720123,-0.016033317893743515,0.011674866080284119
0.286,-0.02784334123134613,0.10185815393924713,-0.047593578696250916,-0.030978944152593613,-0.016425233334302902,0.011660980992019176
0.288,-0.025997182354331017,0.10145188868045807,-0.044090915471315384,-0.03136627748608589,-0.016767289489507675,0.011585238389670849
0.29,-0.02402373217046261,0.10095788538455963,-0.0404515415430069,-0.03175221011042595,-0.01707770675420761,0.01145961880683899
0.292,-0.021953921765089035,0.10036088526248932,-0.03663079813122749,-0.0321427583694458,-0.017368266358971596,0.011294610798358917
0.294,-0.01983116753399372,0.09966470301151276,-0.03268290311098099,-0.03253983333706856,-0.017635643482208252,0.011098911985754967
0.296,-0.017718542367219925,0.0988779217004776,-0.02875938080251217,-0.032938044518232346,-0.01786586083471775,0.010885537602007389
0.298,-0.015589111484587193,0.0980234295129776,-0.024905608966946602,-0.03332921490073204,-0.01804353855550289,0.01067145261913538
0.3,-0.013470940291881561,0.09707166254520416,-0.021083327010273933,-0.033705759793519974,-0.018144285306334496,0.010470688343048096
0.302,-0.011460190638899803,0.09606839716434479,-0.017358019948005676,-0.03404556214809418,-0.01813521794974804,0.010294745676219463
0.304,-0.00953567586839199,0.09510041773319244,-0.013742691837251186,-0.034327492117881775,-0.017997602000832558,0.010154282674193382
0.306,-0.007709089200943708,0.09409429132938385,-0.01037144847214222,-0.03453776240348816,-0.01772337220609188,0.010050773620605469
0.308,-0.005975685082376003,0.09306526929140091,-0.007237446028739214,-0.034660764038562775,-0.017313160002231598,0.009983941912651062
0.31,-0.0043493309058249,0.09208012372255325,-0.004339542705565691,-0.034680984914302826,-0.01677369512617588,0.009946589358150959
0.312,-0.002836485393345356,0.09108544141054153,-0.001780970604158938,-0.034595612436532974,-0.016117095947265625,0.009931220673024654
0.314,-0.0014894332271069288,0.09009457379579544,0.00042131912778131664,-0.034411270171403885,-0.015368932858109474,0.009929900988936424
0.316,-0.00032483163522556424,0.08917713910341263,0.0022537573240697384,-0.034134820103645325,-0.014557584188878536,0.009928586892783642
0.318,0.0006876965053379536,0.08832550793886185,0.0037762995343655348,-0.03378015011548996,-0.013705428689718246,0.009917298331856728
0.32,0.0015180346090346575,0.08756829053163528,0.004974640905857086,-0.03336962312459946,-0.012838554568588734,0.00988403894007206
0.322,0.0022032561246305704,0.08686638623476028,0.005823138169944286,-0.03292488306760788,-0.01198512688279152,0.009824713692069054
0.324,0.0027235685847699642,0.08622170239686966,0.006343752145767212,-0.03246298432350159,-0.011172113940119743,0.009737436659634113
0.326,0.0030602053739130497,0.0856781080365181,0.006675716023892164,-0.03200676292181015,-0.01042560301721096,0.009624181315302849
0.328,0.0032757327426224947,0.08523464947938919,0.006791809573769569,-0.031574711203575134,-0.00976653303951025,0.00949474424123764
0.33,0.0033368582371622324,0.0848856046795845,0.006621424574404955,-0.031172189861536026,-0.009206736460328102,0.009354094043374062
0.332,0.003252205438911915,0.08462048321962357,0.006249364465475082,-0.030810533091425896,-0.008766712620854378,0.009209715761244297
0.334,0.003048383630812168,0.0844574049115181,0.005737805273383856,-0.030495893210172653,-0.008457579649984837,0.00906615611165762
0.336,0.0027688685804605484,0.08434487134218216,0.005158347077667713,-0.03021952509880066,-0.008284978568553925,0.008924677968025208
0.338,0.002450563944876194,0.08426094800233841,0.004522746428847313,-0.029975222423672676,-0.008247625082731247,0.008790948428213596
0.34,0.002068960340693593,0.08424568921327591,0.0038336266297847033,-0.0297594852745533,-0.008328886702656746,0.008664161898195744
0.342,0.0016417820006608963,0.08428478986024857,0.003162489039823413,-0.029557950794696808,-0.008516035974025726,0.008540483191609383
0.344,0.00120999151840806,0.08434391766786575,0.0024724307004362345,-0.029355714097619057,-0.008788742125034332,0.008413759991526604
0.346,0.0007494751480408013,0.0844268873333931,0.0017688395455479622,-0.029142078012228012,-0.009120357222855091,0.008279642090201378
0.348,0.0003201419021934271,0.0845489576458931,0.0011130919447168708,-0.028909849002957344,-0.009485236369073391,0.008131828159093857
0.35,-7.69170728744939e-05,0.08461857587099075,0.0004904437228105962,-0.028658030554652214,-0.009854555130004883,0.007973447442054749
0.352,-0.000443813216406852,0.084656722843647,-6.98743897373788e-05,-0.028385892510414124,-0.010204813443124294,0.007801199797540903
0.354,-0.0007569908630102873,0.08470917493104935,-0.0005986284813843668,-0.028094304725527763,-0.01052413135766983,0.007611944805830717
0.356,-0.0010176096111536026,0.08470059186220169,-0.001123021706007421,-0.027786657214164734,-0.010802237316966057,0.007415396627038717
0.358,-0.0012029183562844992,0.08462334424257278,-0.0015365320723503828,-0.02746526151895523,-0.011029060930013657,0.007214480545371771
0.36,-0.0013201741967350245,0.08449269086122513,-0.0018391202902421355,-0.027140270918607712,-0.011218015104532242,0.00701070437207818
0.362,-0.00134168507065624,0.08428288251161575,-0.0020339125767350197,-0.02682565152645111,-0.011381768621504307,0.006807419937103987
0.364,-0.0012867376208305359,0.08398819714784622,-0.002074580639600754,-0.02652912773191929,-0.01153477467596531,0.006609675940126181
0.366,-0.0011779030319303274,0.08356858044862747,-0.002046300796791911,-0.02625412493944168,-0.011702487245202065,0.0064195008017122746
0.368,-0.000971891509834677,0.08305645734071732,-0.0019557951018214226,-0.026003964245319366,-0.011895162053406239,0.006234183441847563
0.37,-0.0006664014654234052,0.08249855786561966,-0.0017619922291487455,-0.025778811424970627,-0.012116296216845512,0.00605210242792964
0.372,-0.0002848281292244792,0.08183766156435013,-0.0014229080406948924,-0.02557923085987568,-0.012371276505291462,0.005873645190149546
0.374,0.00017338129691779613,0.08105183392763138,-0.0009051465312950313,-0.025404613465070724,-0.012652221135795116,0.0056984457187354565
0.376,0.0007227924070321023,0.08020497113466263,-0.00023216944828163832,-0.025252263993024826,-0.01293920073658228,0.005522426683455706
0.378,0.0013726071920245886,0.07930279523134232,0.0005261625628918409,-0.025119133293628693,-0.013216623105108738,0.005347380880266428
0.38,0.002078664256259799,0.07831097394227982,0.001356527442112565,-0.024995364248752594,-0.013454891741275787,0.005178046878427267
0.382,0.0028101655188947916,0.0772705152630806,0.0022558823693543673,-0.024874642491340637,-0.01362800132483244,0.005019610282033682
0.384,0.003563860896974802,0.076203353703022,0.0032087804283946753,-0.024754859507083893,-0.013720029965043068,0.004874068312346935
0.386,0.004330864176154137,0.075104720890522,0.004239148460328579,-0.02463105134665966,-0.013698680326342583,0.004738371819257736
0.388,0.005045592784881592,0.07399273663759232,0.005314519628882408,-0.02449391782283783,-0.013544509187340736,0.0046151126734912395
0.39,0.005702721420675516,0.07293320447206497,0.00643635168671608,-0.0243398305028677,-0.013244448229670525,0.004506763536483049
0.392,0.0063573154620826244,0.07189751416444778,0.007545147556811571,-0.024163126945495605,-0.012798125855624676,0.0044052028097212315
0.394,0.00695680221542716,0.07089901715517044,0.008568009361624718,-0.02395971491932869,-0.012225917540490627,0.004304321017116308
0.396,0.007497167214751244,0.06998635083436966,0.00955764576792717,-0.023725200444459915,-0.011540827341377735,0.004204728174954653
0.398,0.007974816486239433,0.06915093213319778,0.010444861836731434,-0.023458855226635933,-0.01075808983296156,0.004108142573386431
0.4,0.008335006423294544,0.06838608533143997,0.01120599452406168,-0.02316155657172203,-0.009903923608362675,0.00401423079892993
0.402,0.00858698133379221,0.06773949414491653,0.011838625185191631,-0.02282632887363434,-0.008996726013720036,0.003922484815120697
0.404,0.008722435683012009,0.0672159269452095,0.012307985685765743,-0.022461265325546265,-0.008057431317865849,0.003828928805887699
0.406,0.008750632405281067,0.06678200513124466,0.012660779058933258,-0.022076517343521118,-0.00710651557892561,0.003735947422683239
0.408,0.00865752249956131,0.06646919995546341,0.012891404330730438,-0.02167673595249653,-0.006155457813292742,0.003646297613158822
0.41,0.00842075701802969,0.06630326062440872,0.012962867505848408,-0.021270345896482468,-0.0052189817652106285,0.0035599537659436464
0.412,0.008095973171293736,0.06627274304628372,0.012914403341710567,-0.020868439227342606,-0.0043099792674183846,0.0034787594340741634
0.414,0.0076646870002150536,0.06632328778505325,0.012746039777994156,-0.020479504019021988,-0.0034283821005374193,0.0034046065993607044
0.416,0.007142025977373123,0.06650734692811966,0.012467882595956326,-0.020110271871089935,-0.0025842562317848206,0.0033372247125953436
0.418,0.00653865747153759,0.06682778149843216,0.012117949314415455,-0.019764728844165802,-0.0017987044993788004,0.00327669526450336
0.42,0.005842175800353289,0.06727124005556107,0.011723893694579601,-0.019444266334176064,-0.001076853252016008,0.003228068118914962
0.422,0.0050732786767184734,0.06783867627382278,0.011336470022797585,-0.01915212720632553,-0.0004315774131100625,0.0031900620087981224
0.424,0.004229595884680748,0.06850815564393997,0.010913258418440819,-0.018885992467403412,0.00011314832954667509,0.0031596794724464417
0.426,0.0033551850356161594,0.06925583630800247,0.010501349344849586,-0.018639910966157913,0.0005449214368127286,0.003135574981570244
0.428,0.0024755767080932856,0.07007599622011185,0.010070634074509144,-0.01840895414352417,0.0008536759996786714,0.0031138835474848747
0.43,0.0016013137064874172,0.07092095166444778,0.009624194353818893,-0.01818680763244629,0.0010310681536793709,0.0030888544861227274
0.432,0.0007294933311641216,0.07182503491640091,0.009232915006577969,-0.01797102577984333,0.001083544921129942,0.003050275845453143
0.434,-8.789915591478348e-05,0.0728311613202095,0.008872234262526035,-0.017758220434188843,0.0010181202087551355,0.0029850516002625227
0.436,-0.0008317655883729458,0.07386017590761185,0.00846131145954132,-0.017541050910949707,0.000853217497933656,0.00288471020758152
0.438,-0.0015209598932415247,0.074860580265522,0.00808730535209179,-0.017314661294221878,0.0006187869585119188,0.0027540503069758415
0.44,-0.0021455150563269854,0.07590676099061966,0.0077763707377016544,-0.0170779749751091,0.0003415737010072917,0.002593765500932932
0.442,-0.0026888875290751457,0.07695389539003372,0.007465103641152382,-0.016829315572977066,5.97413963987492e-05,0.002404827158898115
0.444,-0.0031551779247820377,0.07798100262880325,0.007201320957392454,-0.016561411321163177,-0.00019219444948248565,0.002197719644755125
0.446,-0.0035302825272083282,0.07898712903261185,0.006938036065548658,-0.016270939260721207,-0.000382373807951808,0.001988619565963745
0.448,-0.003837791969999671,0.07997990399599075,0.0066289533860981464,-0.01595497876405716,-0.0004762188473250717,0.001793096773326397
0.45,-0.004064939916133881,0.08092499524354935,0.006289109122008085,-0.015609325841069221,-0.0004616414080373943,0.001616545021533966
0.452,-0.004179718904197216,0.08176041394472122,0.0058911810629069805,-0.01523088663816452,-0.0003350504848640412,0.0014715790748596191
0.454,-0.004212025552988052,0.08254433423280716,0.005485255736857653,-0.014824895188212395,-9.824500739341602e-05,0.0013694483786821365
0.456,-0.00417904881760478,0.08327484875917435,0.005096282344311476,-0.014394184574484825,0.00022788993373978883,0.0013063405640423298
0.458,-0.0041064186953008175,0.08394814282655716,0.004641945008188486,-0.013932238332927227,0.0006245911936275661,0.0012777947122231126
0.46,-0.003986758179962635,0.08458805829286575,0.004101770464330912,-0.01344660110771656,0.0010669721523299813,0.0012795185903087258
0.462,-0.003827587468549609,0.08513737469911575,0.0035617384128272533,-0.012954596430063248,0.001519454293884337,0.0012989591341465712
0.464,-0.0036112635862082243,0.08558464795351028,0.002994260285049677,-0.012464095838367939,0.0019482029601931572,0.0013182319235056639
0.466,-0.003347306977957487,0.08592606335878372,0.0022533838637173176,-0.011981694027781487,0.0023256661370396614,0.0013243507128208876
0.468,-0.003142779227346182,0.08617306500673294,0.001359608955681324,-0.011514125391840935,0.0026302107144147158,0.0013046975946053863
0.47,-0.00297227269038558,0.08631706982851028,0.00048524182057008147,-0.01106566097587347,0.002845493610948324,0.0012544075725600123
0.472,-0.002818492241203785,0.08638478070497513,-0.0004820331814698875,-0.010643532499670982,0.002964023035019636,0.0011709536192938685
0.474,-0.002741121221333742,0.08636952191591263,-0.0015212222933769226,-0.010244999080896378,0.0029798350296914577,0.0010513843735679984
0.476,-0.002686920575797558,0.08623886853456497,-0.0025612337049096823,-0.009863142855465412,0.0029061862733215094,0.0009052458917722106
0.478,-0.002675471594557166,0.08603096753358841,-0.0037174485623836517,-0.009500447660684586,0.002766803838312626,0.000743602286092937
0.48,-0.0027804700657725334,0.08572865277528763,-0.004938011523336172,-0.009154554456472397,0.002575576538220048,0.0005725741502828896
0.482,-0.002952764742076397,0.08535195142030716,-0.006224040873348713,-0.008820186369121075,0.0023511836770921946,0.00040307064773514867
0.484,-0.003140669781714678,0.08492661267518997,-0.007526225410401821,-0.008499875664710999,0.0021201837807893753,0.00024502843734808266
0.486,-0.003407128853723407,0.08445645123720169,-0.008835977874696255,-0.00819297507405281,0.0018995872233062983,0.00010345107148168609
0.488,-0.0037560444325208664,0.08394718915224075,-0.010173186659812927,-0.007906588725745678,0.0017029374139383435,-1.6927981050685048e-05
0.49,-0.004162982106208801,0.08337021619081497,-0.011507803574204445,-0.007648436352610588,0.0015483725583180785,-0.00011797440674854442
0.492,-0.004587281960994005,0.0827188566327095,-0.012760656885802746,-0.00741980504244566,0.0014453656040132046,-0.00020758231403306127
0.494,-0.005018722265958786,0.08199978619813919,-0.013926707208156586,-0.007221728563308716,0.001391191384755075,-0.00028716918313875794
0.496,-0.005467082839459181,0.08129120618104935,-0.015034986659884453,-0.00705514382570982,0.0013840579194948077,-0.0003634906024672091
0.498,-0.005896322429180145,0.08057785779237747,-0.016079014167189598,-0.006923208944499493,0.001416850951500237,-0.00044779019663110375
0.5,-0.006320001091808081,0.07982731610536575,-0.01704195886850357,-0.006816438399255276,0.0014811728615313768,-0.0005415662308223546
0.502,-0.006730160675942898,0.07909107953310013,-0.017886003479361534,-0.006733633577823639,0.0015615139855071902,-0.0006451998488046229
0.504,-0.007078286726027727,0.07838154584169388,-0.018577367067337036,-0.006677351426333189,0.0016424106433987617,-0.0007571338792331517
0.506,-0.007354916539043188,0.07770443707704544,-0.019089872017502785,-0.006642061751335859,0.0017135993111878633,-0.0008716031443327665
0.508,-0.007575799245387316,0.07705021649599075,-0.01941797137260437,-0.0066186352632939816,0.0017665912164375186,-0.0009834244847297668
0.51,-0.007729257456958294,0.0764617994427681,-0.019609877839684486,-0.0066057173535227776,0.0017985434969887137,-0.00108664995059371
0.512,-0.007797684520483017,0.07593441754579544,-0.019667858257889748,-0.006601922679692507,0.0018034143140539527,-0.0011776259634643793
0.514,-0.00779314199462533,0.07548046857118607,-0.019624287262558937,-0.006597647909075022,0.0017820706125348806,-0.0012553324922919273
0.516,-0.007712976541370153,0.07511235028505325,-0.01942477561533451,-0.0065873414278030396,0.0017434499459341168,-0.0013162370305508375
0.518,-0.007580460514873266,0.07480908185243607,-0.0190997663885355,-0.006569728720933199,0.0016906969249248505,-0.0013596860226243734
0.52,-0.007355321664363146,0.0745849683880806,-0.018675073981285095,-0.006534491665661335,0.0016234801150858402,-0.0013936441391706467
0.522,-0.007095892447978258,0.07443142682313919,-0.018184972926974297,-0.0064828889444470406,0.0015392015920951962,-0.001419533509761095
0.524,-0.006830512546002865,0.07437802106142044,-0.017588404938578606,-0.0064149284735322,0.0014415322802960873,-0.001444100751541555
0.526,-0.0065437001176178455,0.07440663129091263,-0.01690094731748104,-0.006326989736407995,0.001336733577772975,-0.0014699919847771525
0.528,-0.00624283729121089,0.0744791105389595,-0.01619809679687023,-0.006220674142241478,0.0012215415481477976,-0.0015014802338555455
0.53,-0.005898776929825544,0.07459831982851028,-0.015520025044679642,-0.006098099052906036,0.0010899514891207218,-0.0015465350588783622
0.532,-0.005562835372984409,0.07481575757265091,-0.014890994876623154,-0.0059622786939144135,0.0009496971033513546,-0.0016008272068575025
0.534,-0.005216764286160469,0.07508755475282669,-0.014276588335633278,-0.005812268704175949,0.000816847721580416,-0.001658418565057218
0.536,-0.004908137954771519,0.07542801648378372,-0.01370218675583601,-0.005656208842992783,0.0007003557402640581,-0.0017156997928395867
0.538,-0.0046065133064985275,0.07580376416444778,-0.013161859475076199,-0.005500206723809242,0.0006091199466027319,-0.0017699304735288024
0.54,-0.004320093896239996,0.07617760449647903,-0.012711143121123314,-0.005342401098459959,0.0005627044010907412,-0.001812895410694182
0.542,-0.004019099287688732,0.07654476910829544,-0.012322716414928436,-0.00518250884488225,0.0005710135446861386,-0.0018447425682097673
0.544,-0.0037376643158495426,0.07693768292665482,-0.011954966932535172,-0.005023062229156494,0.0006381351849995553,-0.0018646502867341042
0.546,-0.003489344846457243,0.07735062390565872,-0.01158127747476101,-0.004860477522015572,0.000764072872698307,-0.0018666519317775965
0.548,-0.003246525302529335,0.0777740553021431,-0.011250096373260021,-0.004692710004746914,0.000943315215408802,-0.0018517985008656979
0.55,-0.002971439156681299,0.07818032056093216,-0.010950976982712746,-0.0045208740048110485,0.0011663446202874184,-0.0018181685591116548
0.552,-0.002720815595239401,0.0785369947552681,-0.01066780835390091,-0.004341390915215015,0.001416839542798698,-0.0017709595849737525
0.554,-0.0024765441194176674,0.07886982709169388,-0.010411065071821213,-0.0041550626046955585,0.001675176783464849,-0.001725318026728928
0.556,-0.002164227422326803,0.07918263226747513,-0.010121561586856842,-0.003960567992180586,0.0019246992887929082,-0.0016926791286095977
0.558,-0.00184949254617095,0.079468734562397,-0.009741613641381264,-0.0037555349990725517,0.002154107205569744,-0.0016808020882308483
0.56,-0.001548514235764742,0.07971573621034622,-0.009317735210061073,-0.003542870981618762,0.0023506374564021826,-0.0017030700109899044
0.562,-0.001260916469618678,0.07996655255556107,-0.00882808305323124,-0.0033308854326605797,0.002507181605324149,-0.0017636265838518739
0.564,-0.0009712199680507183,0.08019352704286575,-0.008223241195082664,-0.00312623823992908,0.002625019522383809,-0.0018653745064511895
0.566,-0.0007003878708928823,0.08037281781435013,-0.007567195687443018,-0.0029323059134185314,0.00271056080237031,-0.002011503092944622
0.568,-0.00041937781497836113,0.08053208142518997,-0.006780173163861036,-0.002755811670795083,0.002766995457932353,-0.00219899439252913
0.57,-0.00016693072393536568,0.08064175397157669,-0.00589789031073451,-0.002600504085421562,0.002802914008498192,-0.00241501210257411
0.572,3.619561903178692e-05,0.08073902875185013,-0.004999879281967878,-0.0024722572416067123,0.002833048813045025,-0.002645013388246298
0.574,0.00014683895278722048,0.0808267667889595,-0.004059081431478262,-0.002379008335992694,0.002869261661544442,-0.0028749126940965652
0.576,0.0002100581768900156,0.0809021070599556,-0.0030660212505608797,-0.0023140099365264177,0.002932218136265874,-0.0030899124685674906
0.578,0.00031744397711008787,0.08095360547304153,-0.0019522726070135832,-0.002273215912282467,0.003031719708815217,-0.0032737853471189737
0.58,0.000385250779800117,0.081025131046772,-0.000905007473193109,-0.0022525060921907425,0.0031774144154042006,-0.0034180358052253723
0.582,0.0003901827149093151,0.08107472211122513,0.00014079594984650612,-0.002238374901935458,0.003382249502465129,-0.0035082008689641953
0.584,0.00036747995181940496,0.08112145215272903,0.001158323255367577,-0.0022187798749655485,0.0036523579619824886,-0.003539564087986946
0.586,0.00027352740289643407,0.08123684674501419,0.0020748856477439404,-0.0021878411062061787,0.003982247319072485,-0.0035278077702969313
0.588,0.00011083530262112617,0.08128929883241653,0.0029501973185688257,-0.0021425161976367235,0.004366433713585138,-0.0034825680777430534
0.59,-0.00010492384899407625,0.08133602887392044,0.003736598417162895,-0.0020802582148462534,0.004798549227416515,-0.0034120127093046904
0.592,-0.00036189379170536995,0.08137799054384232,0.004446219187229872,-0.002003283239901066,0.005265221931040287,-0.003333363914862275
0.594,-0.0007008931133896112,0.0814066007733345,0.005048851016908884,-0.0019174190238118172,0.005749487783759832,-0.003261272795498371
0.596,-0.0010579463560134172,0.08142853528261185,0.005531380418688059,-0.001823615632019937,0.006241097114980221,-0.0032089930027723312
0.598,-0.0013987463898956776,0.0813760831952095,0.0059465523809194565,-0.0017240011366084218,0.006724826991558075,-0.0031793301459401846
0.6,-0.0017860585357993841,0.08134365826845169,0.006288511212915182,-0.0016190488822758198,0.007191100623458624,-0.003179688472300768
0.602,-0.0021992120891809464,0.08128739148378372,0.006597711239010096,-0.0015084429178386927,0.007634616922587156,-0.0032170035410672426
0.604,-0.002620426705107093,0.08121968060731888,0.006839466746896505,-0.0013859200989827514,0.00804260466247797,-0.0032903815153986216
0.606,-0.0030260542407631874,0.08105183392763138,0.007080665789544582,-0.001243395498022437,0.008408886380493641,-0.00338533753529191
0.608,-0.0034634110052138567,0.08081436902284622,0.007344783283770084,-0.0010831935796886683,0.00873526744544506,-0.0034870808012783527
0.61,-0.003895058762282133,0.08053875714540482,0.007631056942045689,-0.0009040525183081627,0.009017212316393852,-0.0035869437269866467
0.612,-0.00433227326720953,0.08023262768983841,0.007907658815383911,-0.0007132006576284766,0.009255053475499153,-0.0036830799654126167
0.614,-0.0048014502972364426,0.07984257489442825,0.008186427876353264,-0.0005208550719544291,0.009451757185161114,-0.003766443347558379
0.616,-0.005238544195890427,0.07940197736024857,0.008492988534271717,-0.00033696938771754503,0.009607408195734024,-0.003825864288955927
0.618,-0.005679040215909481,0.07892418652772903,0.008862440474331379,-0.00016837753355503082,0.009726687334477901,-0.003848364809527993
0.62,-0.006099724676460028,0.07838345319032669,0.009272053837776184,-2.2023566998541355e-05,0.009812814183533192,-0.0038301239255815744
0.622,-0.006505618803203106,0.07777691632509232,0.009755178354680538,0.00010194780770689249,0.009874238632619381,-0.0037675630301237106
0.624,-0.0069043394178152084,0.07715798169374466,0.01029355451464653,0.000205878634005785,0.009918288327753544,-0.003664056770503521
0.626,-0.0073135304264724255,0.07653713971376419,0.010828591883182526,0.00029582506977021694,0.009952886030077934,-0.0035266056656837463
0.628,-0.007762574590742588,0.07588768750429153,0.011347129009664059,0.0003828420303761959,0.009989412501454353,-0.003362008137628436
0.63,-0.008241384290158749,0.07523823529481888,0.011869491077959538,0.0004745312035083771,0.010021655820310116,-0.003180052852258086
0.632,-0.008695545606315136,0.07459736615419388,0.012369132600724697,0.0005781742511317134,0.010057234205305576,-0.0029933222103863955
0.634,-0.009101403877139091,0.0739898756146431,0.01282532885670662,0.0006979446625337005,0.01009726244956255,-0.0028165217954665422
0.636,-0.009517472237348557,0.07344437390565872,0.013273445889353752,0.000829849683213979,0.010138045065104961,-0.0026612835936248302
0.638,-0.009904040023684502,0.07293606549501419,0.013678503222763538,0.0009739457163959742,0.01017708983272314,-0.0025395574048161507
0.64,-0.010299494490027428,0.07247734814882278,0.014083092100918293,0.0011333019938319921,0.010214745067059994,-0.0024543204344809055
0.642,-0.01065275352448225,0.07204819470643997,0.014474517665803432,0.0013057204196229577,0.010244588367640972,-0.002403331222012639
0.644,-0.010891004465520382,0.07164383679628372,0.01478231605142355,0.00149144500028342,0.010264815762639046,-0.002390761161223054
0.646,-0.011065256781876087,0.07127667218446732,0.015005928464233875,0.0016888335812836885,0.010278116911649704,-0.0024134607519954443
0.648,-0.011202923022210598,0.07099247723817825,0.015204260125756264,0.001899565919302404,0.01027941145002842,-0.0024658949114382267
0.65,-0.01124398224055767,0.07077980786561966,0.01531730405986309,0.0021215269807726145,0.01027090847492218,-0.002538372529670596
0.652,-0.01120853517204523,0.07061482220888138,0.01527334377169609,0.0023569974582642317,0.010252592153847218,-0.002628170885145664
0.654,-0.011085824109613895,0.07044220715761185,0.015136477537453175,0.0026074473280459642,0.01022056769579649,-0.0027239127084612846
0.656,-0.010863828472793102,0.07031727582216263,0.01490903552621603,0.002872353419661522,0.010182174853980541,-0.0028141026850789785
0.658,-0.010516545735299587,0.07027054578065872,0.014626805670559406,0.0031380020081996918,0.010133849456906319,-0.0028946080710738897
0.66,-0.010064482688903809,0.07026005536317825,0.014327317476272583,0.003398063825443387,0.010071614757180214,-0.002965199761092663
0.662,-0.00948398094624281,0.07032395154237747,0.013988240621984005,0.003652343060821295,0.009994486346840858,-0.0030216409359127283
0.664,-0.008784422650933266,0.07044888287782669,0.013541100546717644,0.0038938960060477257,0.009907621890306473,-0.003064565360546112
0.666,-0.008051871322095394,0.07058239728212357,0.01306447759270668,0.004117028322070837,0.009809410199522972,-0.0030923367012292147
0.668,-0.007260311394929886,0.07076168805360794,0.012540898285806179,0.004326428286731243,0.00970514491200447,-0.003113865852355957
0.67,-0.006401765160262585,0.07103539258241653,0.012018314562737942,0.004519530571997166,0.009605021215975285,-0.00313739781267941
0.672,-0.005466504953801632,0.07134438306093216,0.011501960456371307,0.004695572890341282,0.009512949734926224,-0.0031710753683000803
0.674,-0.004523121751844883,0.07169628888368607,0.01088524516671896,0.004861875902861357,0.009439997375011444,-0.00321596534922719
0.676,-0.0035700288135558367,0.07213593274354935,0.01024582702666521,0.0050200545229017735,0.009388448670506477,-0.0032699035946279764
0.678,-0.002621555468067527,0.07259846478700638,0.009675102308392525,0.005167713388800621,0.009353979490697384,-0.0033339413348585367
0.68,-0.0016749873757362366,0.07316017895936966,0.009066072292625904,0.005310337524861097,0.009335477836430073,-0.003405662951990962
0.682,-0.0007989935111254454,0.07378578931093216,0.008505611680448055,0.005443990230560303,0.00933136511594057,-0.0034808809868991375
0.684,5.378713831305504e-05,0.07445526868104935,0.007992275059223175,0.005566013976931572,0.00933994259685278,-0.003563184989616275
0.686,0.0008323392830789089,0.075165756046772,0.00754651939496398,0.00567573681473732,0.00934500154107809,-0.0036543288733810186
0.688,0.001516668125987053,0.07594776898622513,0.007097047287970781,0.005773143842816353,0.009342080913484097,-0.003753652097657323
0.69,0.002092741196975112,0.07673550397157669,0.006640199106186628,0.0058576008304953575,0.009338032454252243,-0.003869488602504134
0.692,0.0026491594035178423,0.07755566388368607,0.006224211771041155,0.005931067746132612,0.009333165362477303,-0.004004484508186579
0.694,0.003131710458546877,0.0783844068646431,0.005788510665297508,0.005997302010655403,0.009331385605037212,-0.004164183046668768
0.696,0.0035084164701402187,0.07922268658876419,0.00534471683204174,0.006064706481993198,0.00934378057718277,-0.004360998049378395
0.698,0.0037700198590755463,0.08010674268007278,0.004903102293610573,0.006134680472314358,0.00937426183372736,-0.0045864162966609
0.7,0.003912308719009161,0.08099556714296341,0.004416701849550009,0.006218531168997288,0.00942399725317955,-0.004829166457056999
0.702,0.003980990499258041,0.08184242993593216,0.00384245696477592,0.0063201203010976315,0.009506926871836185,-0.005089603830128908
0.704,0.00399689469486475,0.08266449719667435,0.003145861905068159,0.006444540340453386,0.00962446816265583,-0.0053602177649736404
0.706,0.0038998988457024097,0.08345604687929153,0.0023167019244283438,0.006586898118257523,0.009771122597157955,-0.005625588819384575
0.708,0.003617847105488181,0.08427334576845169,0.001321078627370298,0.0067472029477357864,0.009938918985426426,-0.005875320173799992
0.71,0.0032762307673692703,0.08504391461610794,0.00018944522889796644,0.006926132366061211,0.010122276842594147,-0.006100761238485575
0.712,0.002848475705832243,0.08578396588563919,-0.0011023090919479728,0.007124350406229496,0.010315977968275547,-0.0062941862270236015
0.714,0.002308051334694028,0.08652497082948685,-0.002527062315493822,0.007338475901633501,0.010511811822652817,-0.006445687729865313
0.716,0.0016654141945764422,0.08732224255800247,-0.004174406640231609,0.007564784958958626,0.010697947815060616,-0.006555084604769945
0.718,0.0009231287986040115,0.08808232098817825,-0.0059104375541210175,0.007802878972142935,0.010866883210837841,-0.0066241188906133175
0.72,8.923467248678207e-05,0.08879948407411575,-0.007726624608039856,0.008046003989875317,0.01101056020706892,-0.006649272982031107
0.722,-0.0008178246207535267,0.089478500187397,-0.009578262455761433,0.008289290592074394,0.011123641394078732,-0.0066355993039906025
0.724,-0.0017981231212615967,0.09013844281435013,-0.011523669585585594,0.008533976040780544,0.011202063411474228,-0.006594817619770765
0.726,-0.0028610331937670708,0.0907592847943306,-0.013554765842854977,0.00877015758305788,0.01124003529548645,-0.006532193161547184
0.728,-0.003970562480390072,0.09133435040712357,-0.015542503446340561,0.008987413719296455,0.01123518031090498,-0.006454028654843569
0.73,-0.005105399992316961,0.0918884351849556,-0.017503943294286728,0.009172696620225906,0.011189849115908146,-0.0063722883351147175
0.732,-0.006284511648118496,0.09239674359560013,-0.019469497725367546,0.009326742962002754,0.011111674830317497,-0.006288343109190464
0.734,-0.007494432386010885,0.0928201749920845,-0.021331066265702248,0.009443888440728188,0.01100501324981451,-0.006205663084983826
0.736,-0.008679797872900963,0.09319878369569778,-0.023044846951961517,0.009523359127342701,0.010877484455704689,-0.006135039031505585
0.738,-0.009812915697693825,0.09351635724306107,-0.0246269628405571,0.009565596468746662,0.010742083191871643,-0.006077212281525135
0.74,-0.010961678810417652,0.0937976986169815,-0.026060134172439575,0.009574329480528831,0.0106124896556139,-0.006021857261657715
0.742,-0.012138217687606812,0.09404851496219635,-0.02730490081012249,0.009555925615131855,0.010483351536095142,-0.0059752087108790874
0.744,-0.013311748392879963,0.09424115717411041,-0.028429962694644928,0.009514376521110535,0.01035347394645214,-0.005940679926425219
0.746,-0.014409850351512432,0.09432412683963776,-0.029474366456270218,0.009451846592128277,0.010221662931144238,-0.005910929758101702
0.748,-0.015494353137910366,0.09437943994998932,-0.03034137934446335,0.009379904717206955,0.010086084716022015,-0.005880537908524275
0.75,-0.016543040052056313,0.09442044794559479,-0.031115293502807617,0.009302405640482903,0.009938749484717846,-0.005851940717548132
0.752,-0.017530959099531174,0.09438039362430573,-0.03177874907851219,0.009224910289049149,0.00977479200810194,-0.005833007860928774
0.754,-0.01851687952876091,0.09435845911502838,-0.03228506073355675,0.009147923439741135,0.009586413390934467,-0.005823304411023855
0.756,-0.019474606961011887,0.0942850261926651,-0.03268732503056526,0.009072395041584969,0.009373905137181282,-0.005816073156893253
0.758,-0.020396966487169266,0.09415628015995026,-0.03306686133146286,0.008992419578135014,0.009136930108070374,-0.005810164846479893
0.76,-0.021292516961693764,0.09402371942996979,-0.033381957560777664,0.008904649876058102,0.008887984789907932,-0.00581022072583437
0.762,-0.02214856445789337,0.09386922419071198,-0.03359789773821831,0.008800670504570007,0.008629937656223774,-0.0058109210804104805
0.764,-0.022975144907832146,0.09370137006044388,-0.03380557522177696,0.00867863092571497,0.00836338009685278,-0.005815017968416214
0.766,-0.023809334263205528,0.093506820499897,-0.034032948315143585,0.00852885004132986,0.008099528029561043,-0.005824009422212839
0.768,-0.024662630632519722,0.09332752972841263,-0.0342918299138546,0.008342023007571697,0.007841469720005989,-0.005835898220539093
0.77,-0.025510847568511963,0.09316063672304153,-0.034527674317359924,0.008123458363115788,0.007583682890981436,-0.005848193075507879
0.772,-0.026354752480983734,0.09297371655702591,-0.03475690633058548,0.00787840224802494,0.007317733019590378,-0.005856025964021683
0.774,-0.027211545035243034,0.09271813184022903,-0.03493516147136688,0.00762595422565937,0.007042150013148785,-0.005856003612279892
0.776,-0.028062686324119568,0.09253121167421341,-0.0351378507912159,0.0073679471388459206,0.006752886809408665,-0.005841527134180069
0.778,-0.028837520629167557,0.09232426434755325,-0.03535361960530281,0.007112730760127306,0.006443612743169069,-0.005802977830171585
0.78,-0.02959434688091278,0.09207726269960403,-0.035604510456323624,0.006873685400933027,0.006119961850345135,-0.005735144950449467
0.782,-0.030412472784519196,0.09185410290956497,-0.035865552723407745,0.006660197861492634,0.005792503710836172,-0.005638508591800928
0.784,-0.031211843714118004,0.09167290478944778,-0.036062829196453094,0.006478710100054741,0.00546985724940896,-0.00550463143736124
0.786,-0.032024819403886795,0.09146405011415482,-0.03628969565033913,0.006316381506621838,0.005161838605999947,-0.005330814514309168
0.788,-0.03279916197061539,0.09131336957216263,-0.03660484030842781,0.006165430881083012,0.004873959813266993,-0.005121047142893076
0.79,-0.033543869853019714,0.09117794781923294,-0.03683534264564514,0.006024949252605438,0.0046076993457973,-0.004876371473073959
0.792,-0.03423105925321579,0.09102726727724075,-0.03710242360830307,0.00588903296738863,0.0043663326650857925,-0.0046152351424098015
0.794,-0.034869484603405,0.09090424329042435,-0.03737001121044159,0.005747262388467789,0.0041587259620428085,-0.0043539307080209255
0.796,-0.03549301624298096,0.09079361706972122,-0.03766445815563202,0.005589103791862726,0.003983901347965002,-0.0040918150916695595
0.798,-0.03609458729624748,0.0907144621014595,-0.03789529949426651,0.005419088527560234,0.0038279721047729254,-0.0038425358943641186
0.8,-0.03662837669253349,0.09068203717470169,-0.038134220987558365,0.005235485732555389,0.003684133291244507,-0.003623739816248417
0.802,-0.037184957414865494,0.09065056592226028,-0.0383649542927742,0.005030713975429535,0.0035382581409066916,-0.0034387961495667696
0.804,-0.03763629123568535,0.09063626080751419,-0.038548823446035385,0.004808671772480011,0.003382848808541894,-0.0032839414197951555
0.806,-0.03794179484248161,0.09067440778017044,-0.03868759050965309,0.004571632947772741,0.0032105320133268833,-0.003160860389471054
0.808,-0.03819865733385086,0.09071255475282669,-0.038806430995464325,0.004318739287555218,0.0030154625419527292,-0.003065692726522684
0.81,-0.03835519775748253,0.09077740460634232,-0.03884320706129074,0.004057785030454397,0.0027949470095336437,-0.0029846937395632267
0.812,-0.03853704780340195,0.09089852124452591,-0.038822706788778305,0.0037876106798648834,0.002548862947151065,-0.0029056069906800985
0.814,-0.03862226381897926,0.09098625928163528,-0.03866761550307274,0.0035156337544322014,0.002280009211972356,-0.0028201418463140726
0.816,-0.03860166668891907,0.09103775769472122,-0.03831974416971207,0.003252903465181589,0.0020082341507077217,-0.002717229537665844
0.818,-0.03847373276948929,0.0911254957318306,-0.03787818178534508,0.002998094540089369,0.0017396078910678625,-0.002579751657322049
0.82,-0.03829267621040344,0.09120465070009232,-0.03738569840788841,0.0027603560592979193,0.0014853667235001922,-0.0024073037784546614
0.822,-0.03803107514977455,0.09125614911317825,-0.03688465803861618,0.0025451676920056343,0.0012600861955434084,-0.0022024882491678
0.824,-0.03774670511484146,0.09126759320497513,-0.036265354603528976,0.0023473624605685472,0.001074001076631248,-0.0019633579067885876
0.826,-0.037364982068538666,0.09121990948915482,-0.03545849397778511,0.0021684805396944284,0.0009275022312067449,-0.0016936947358772159
0.828,-0.036845628172159195,0.09116555005311966,-0.034577663987874985,0.0020014119800180197,0.0008086673333309591,-0.0013990229927003384
0.83,-0.03626682981848717,0.09107590466737747,-0.03362319990992546,0.0018505473854020238,0.0007062858203426003,-0.0010846401564776897
0.832,-0.035615988075733185,0.09102059155702591,-0.032604604959487915,0.0017089855391532183,0.0005978003027848899,-0.000762674433644861
0.834,-0.03492984548211098,0.09095192700624466,-0.03147668391466141,0.001569035230204463,0.00046654403558932245,-0.00043855677358806133
0.836,-0.034176621586084366,0.09087467938661575,-0.030267922207713127,0.0014244264457374811,0.0002954208175651729,-0.00011593041563173756
0.838,-0.03336140513420105,0.09080124646425247,-0.029025916010141373,0.0012668321141973138,7.632269262103364e-05,0.0001966245035873726
0.84,-0.03249279782176018,0.09066296368837357,-0.027662772685289383,0.0010976271005347371,-0.00019411205721553415,0.0004883583169430494
0.842,-0.03154411166906357,0.09049320966005325,-0.026225373148918152,0.0009100254392251372,-0.0005081113777123392,0.0007611351320520043
0.844,-0.030533473938703537,0.09027481824159622,-0.024740800261497498,0.000702843361068517,-0.0008535034139640629,0.0010116714984178543
0.846,-0.029462000355124474,0.09002400189638138,-0.023220984265208244,0.0004787308571394533,-0.0012242625234648585,0.001238913624547422
0.848,-0.02832118794322014,0.08981037884950638,-0.02171008288860321,0.0002374383620917797,-0.0016078773187473416,0.0014371885918080807
0.85,-0.02709330804646015,0.0895233228802681,-0.020183784887194633,-2.0477629732340574e-05,-0.00198362790979445,0.0016030312981456518
0.852,-0.025818368420004845,0.08919907361268997,-0.018676050007343292,-0.0002988024498336017,-0.002336638979613781,0.0017414232715964317
0.854,-0.02448205091059208,0.08883953839540482,-0.017179438844323158,-0.0005910135223530233,-0.0026506471913307905,0.0018526394851505756
0.856,-0.02311335876584053,0.08854580670595169,-0.0156266912817955,-0.000894334982149303,-0.0029133460484445095,0.001940964488312602
0.858,-0.021693039685487747,0.08822251111268997,-0.014180189929902554,-0.001206657849252224,-0.003115288680419326,0.002021640073508024
0.86,-0.020224766805768013,0.08783913403749466,-0.01276108156889677,-0.0015122670447453856,-0.0032422116491943598,0.0021053170785307884
0.862,-0.01867435872554779,0.08747673779726028,-0.011372741311788559,-0.0018123564077541232,-0.00327894720248878,0.0021976856514811516
0.864,-0.01716165617108345,0.08705521374940872,-0.010081452317535877,-0.00209851679392159,-0.0032196729443967342,0.002307318849489093
0.866,-0.015611832961440086,0.08666134625673294,-0.008858772926032543,-0.0023525808937847614,-0.00305314757861197,0.0024351708125323057
0.868,-0.014059068635106087,0.08625412732362747,-0.007750111632049084,-0.0025777523405849934,-0.0027826069854199886,0.002596169477328658
0.87,-0.012532767839729786,0.08584786206483841,-0.006733345799148083,-0.0027642836794257164,-0.0024220645427703857,0.002784614684060216
0.872,-0.011007117107510567,0.08545685559511185,-0.005815219134092331,-0.002904759021475911,-0.0019773191306740046,0.002999828429892659
0.874,-0.009546477347612381,0.085053451359272,-0.004921823740005493,-0.0029916674830019474,-0.0014673586701974273,0.0032356290612369776
0.876,-0.008153884671628475,0.0846710279583931,-0.004122975282371044,-0.003031324129551649,-0.000907928915694356,0.003491723909974098
0.878,-0.006763412617146969,0.08427620679140091,-0.0033324582036584616,-0.003028141800314188,-0.0003332113556098193,0.0037585843820124865
0.88,-0.005465695634484291,0.08387566357851028,-0.0026295497082173824,-0.0029922553803771734,0.00023892811441328377,0.004045150242745876
0.882,-0.004280158318579197,0.08355427533388138,-0.0019738234113901854,-0.0029360903427004814,0.0007964494870975614,0.00434477161616087
0.884,-0.003163953311741352,0.08327866345643997,-0.0013610050082206726,-0.002868460491299629,0.0013141623931005597,0.004651911091059446
0.886,-0.0020816768519580364,0.08299637585878372,-0.000709116633515805,-0.0028034518472850323,0.001789189176633954,0.004965250845998526
0.888,-0.001143300556577742,0.082734115421772,-5.5326239817077294e-05,-0.002757665701210499,0.002202685922384262,0.005276126321405172
0.89,-0.00027672640862874687,0.08251381665468216,0.0005908824969083071,-0.002730817534029484,0.0025486787781119347,0.005581047851592302
0.892,0.0006035514525137842,0.08235359936952591,0.001242541242390871,-0.002721535973250866,0.0028372895903885365,0.005861436482518911
0.894,0.0014269333332777023,0.08220387250185013,0.0018957197898998857,-0.002738397568464279,0.0030691795982420444,0.006112881936132908
0.896,0.002259771339595318,0.08215618878602982,0.0025847023352980614,-0.002784556243568659,0.0032514086924493313,0.006324420217424631
0.898,0.002985238330438733,0.08208752423524857,0.00331910140812397,-0.002857005689293146,0.0033986479975283146,0.0064861164428293705
0.9,0.003646434750407934,0.08210278302431107,0.0039568995125591755,-0.002945950487628579,0.0035287148784846067,0.006596211809664965
0.902,0.004263359121978283,0.08217812329530716,0.004600373096764088,-0.0030417712405323982,0.0036528236232697964,0.006656365003436804
0.904,0.0048443530686199665,0.08222294598817825,0.0052687558345496655,-0.0031400583684444427,0.0037915727589279413,0.006666591856628656
0.906,0.00538081768900156,0.08229733258485794,0.005918349139392376,-0.0032294734846800566,0.003959546331316233,0.0066322581842541695
0.908,0.005924081429839134,0.08238888531923294,0.006435576826334,-0.0033125602640211582,0.004163085483014584,0.006565543357282877
0.91,0.006443594116717577,0.08252430707216263,0.0069342865608632565,-0.0033775269985198975,0.004403700586408377,0.0064753335900604725
0.912,0.0069562653079628944,0.08269215375185013,0.007408535107970238,-0.003417662810534239,0.00467693293467164,0.006372922100126743
0.914,0.0074301715940237045,0.08289528638124466,0.007831959053874016,-0.0034399409778416157,0.004976564086973667,0.006278135348111391
0.916,0.007785971742123365,0.0830545499920845,0.008115237578749657,-0.003431245218962431,0.0052934070117771626,0.006206229794770479
0.918,0.008112863637506962,0.08324242383241653,0.008342452347278595,-0.003399463137611747,0.005616308655589819,0.006166370585560799
0.92,0.008400672115385532,0.08341694623231888,0.008480198681354523,-0.003334952052682638,0.0059367637149989605,0.006173135247081518
0.922,0.008642023429274559,0.08361721783876419,0.008591321296989918,-0.0032401802018284798,0.006251242011785507,0.006224370561540127
0.924,0.00877380184829235,0.08387470990419388,0.008525054901838303,-0.0031261940021067858,0.0065582189708948135,0.006321785040199757
0.926,0.00883380975574255,0.08408547192811966,0.00834291148930788,-0.0029842534568160772,0.006852343212813139,0.006455839611589909
0.928,0.008858820423483849,0.08426380902528763,0.008145111612975597,-0.0028234203346073627,0.007142680697143078,0.006624317727982998
0.93,0.008786250837147236,0.08447838574647903,0.007904944010078907,-0.002646307460963726,0.0074395304545760155,0.006813284941017628
0.932,0.008546664379537106,0.0847015455365181,0.007663657423108816,-0.0024535940028727055,0.007757800165563822,0.0070148431695997715
0.934,0.008310610428452492,0.08488083630800247,0.007337611168622971,-0.0022547151893377304,0.008101423271000385,0.007209443487226963
0.936,0.007917363196611404,0.08509255200624466,0.006916752550750971,-0.0020556619856506586,0.008471265435218811,0.007395905442535877
0.938,0.007364219985902309,0.08532143384218216,0.006397843360900879,-0.0018657066393643618,0.008876940235495567,0.007574267685413361
0.94,0.006685247644782066,0.08558274060487747,0.005838707555085421,-0.0016842391341924667,0.009314577095210552,0.007740076631307602
0.942,0.005955709144473076,0.08575726300477982,0.005237208213657141,-0.0015128618106245995,0.009781580418348312,0.007888714782893658
0.944,0.005177350714802742,0.08593178540468216,0.004644827917218208,-0.0013660963159054518,0.010270217433571815,0.008018101565539837
0.946,0.00422798004001379,0.08609581738710403,0.004013385623693466,-0.0012410625349730253,0.010750766843557358,0.008136557415127754
0.948,0.003241380210965872,0.08626271039247513,0.003376955399289727,-0.00113061279989779,0.011219470761716366,0.008245022036135197
0.95,0.0022053192369639874,0.0864410474896431,0.0026901699602603912,-0.0010293980594724417,0.011662802658975124,0.00833966489881277
0.952,0.0010710502974689007,0.08666420727968216,0.001958684530109167,-0.0009424681775271893,0.012061772868037224,0.00843147560954094
0.954,-0.0001465209061279893,0.08693409711122513,0.0012809878680855036,-0.0008737305179238319,0.012403366155922413,0.008522316813468933
0.956,-0.0013332461239770055,0.08716679364442825,0.0005503696156665683,-0.0008222660981118679,0.012674753554165363,0.008607536554336548
0.958,-0.002589728683233261,0.08738613873720169,-9.643920930102468e-05,-0.0007845319341868162,0.012862440198659897,0.00869102030992508
0.96,-0.0038282140158116817,0.08765698224306107,-0.0007445199880748987,-0.0007728580385446548,0.012962423264980316,0.008784030564129353
0.962,-0.005054720677435398,0.0879211500287056,-0.0013147243298590183,-0.0007790694944560528,0.012976597994565964,0.008892545476555824
0.964,-0.006318498402833939,0.0882120206952095,-0.0018939659930765629,-0.0008118418045341969,0.012907282449305058,0.009006036445498466
0.966,-0.007542992476373911,0.08846474438905716,-0.0024286548141390085,-0.0008706185035407543,0.012763947248458862,0.009134587831795216
0.968,-0.00873215589672327,0.088807113468647,-0.0029038991779088974,-0.0009405468590557575,0.01254575327038765,0.009272541850805283
0.97,-0.009833529591560364,0.0891723707318306,-0.00328638032078743,-0.0010194280184805393,0.012268805876374245,0.009416183456778526
0.972,-0.010941952466964722,0.08955288678407669,-0.003622577991336584,-0.0010918756015598774,0.01195455715060234,0.009560590609908104
0.974,-0.011971094645559788,0.09001923352479935,-0.003875447204336524,-0.001150442287325859,0.01161985658109188,0.009698977693915367
0.976,-0.012898027896881104,0.09044361859560013,-0.004065085668116808,-0.0011900686658918858,0.011278093792498112,0.00981864519417286
0.978,-0.01370561309158802,0.09089566022157669,-0.004183266777545214,-0.0012028641067445278,0.0109434574842453,0.009914976544678211
0.98,-0.014400146901607513,0.09132672101259232,-0.004270011093467474,-0.0011927862651646137,0.010630507953464985,0.009983092546463013
0.982,-0.015057792887091637,0.09174919873476028,-0.004345334600657225,-0.0011503184214234352,0.010345314629375935,0.010024204850196838
0.984,-0.015645969659090042,0.09221840649843216,-0.004360453225672245,-0.001087171956896782,0.010086564347147942,0.010034552775323391
0.986,-0.01608605682849884,0.0926513746380806,-0.004410611931234598,-0.0010111103765666485,0.009860590100288391,0.010011425241827965
0.988,-0.01642977073788643,0.0930481031537056,-0.004401033278554678,-0.0009227143600583076,0.009666675701737404,0.009960389696061611
0.99,-0.016631267964839935,0.09343720227479935,-0.004422475583851337,-0.0008245017379522324,0.009505917318165302,0.009891442023217678
0.992,-0.01669548824429512,0.09376432001590729,-0.0043896823190152645,-0.0007232525385916233,0.00937312189489603,0.009812475182116032
0.994,-0.016664616763591766,0.0940551906824112,-0.004339712671935558,-0.0006239991635084152,0.009266110137104988,0.009722448885440826
0.996,-0.01658526621758938,0.0942392498254776,-0.004266432020813227,-0.0005340804345905781,0.009176459163427353,0.009629842825233936
0.998,-0.01629056967794895,0.09446145594120026,-0.0041731889359653,-0.00044657476246356964,0.00910048745572567,0.009546873159706593
1.0,-0.015901032835245132,0.09459687769412994,-0.004096855875104666,-0.0003749104216694832,0.009044541977345943,0.009480226784944534
1.002,-0.015435198321938515,0.09463311731815338,-0.003980002366006374,-0.0003254180774092674,0.008997907862067223,0.009427681565284729
1.004,-0.014863913878798485,0.09459783136844635,-0.0038074306212365627,-0.0002898853272199631,0.008955197408795357,0.009406802244484425
1.006,-0.014201926998794079,0.0944986492395401,-0.003629017621278763,-0.00027123792096972466,0.008916466496884823,0.009412103332579136
1.008,-0.013402802869677544,0.09441091120243073,-0.003514448180794716,-0.0002683945931494236,0.008889183402061462,0.009453426115214825
1.01,-0.01254197210073471,0.09423448145389557,-0.003398188389837742,-0.00027775298804044724,0.008880306966602802,0.009539810009300709
1.012,-0.011583481915295124,0.09400846064090729,-0.003239646553993225,-0.0002975412644445896,0.008883727714419365,0.009668984450399876
1.014,-0.010566591285169125,0.09382344782352448,-0.0031430546659976244,-0.0003248858265578747,0.008903665468096733,0.009827456437051296
1.016,-0.009540315717458725,0.09359646588563919,-0.0030981849413365126,-0.00035568978637456894,0.00895021203905344,0.010001856833696365
1.018,-0.008538011461496353,0.09330940991640091,-0.003025651443749666,-0.00038496917113661766,0.009030597284436226,0.010207518003880978
1.02,-0.007540544494986534,0.0930337980389595,-0.002965020714327693,-0.0004114517942070961,0.00914720818400383,0.010423491708934307
1.022,-0.006599720101803541,0.09276963025331497,-0.0029239861760288477,-0.0004475838504731655,0.009296002797782421,0.010646563954651356
1.024,-0.005753060802817345,0.09247780591249466,-0.0029440673533827066,-0.0004961364902555943,0.009465108625590801,0.01087011955678463
1.026,-0.004964228719472885,0.09224224835634232,-0.002948062028735876,-0.0005602543242275715,0.00963597372174263,0.011087347753345966
1.028,-0.0042432574555277824,0.09206677228212357,-0.0030592752154916525,-0.0006570452824234962,0.009794458746910095,0.011293663643300533
1.03,-0.003578814212232828,0.09186840802431107,-0.0030237226746976376,-0.0007820911705493927,0.009927081875503063,0.011488241143524647
1.032,-0.003040081122890115,0.09171391278505325,-0.0030602251645177603,-0.000934965442866087,0.010014750063419342,0.011668126098811626
1.034,-0.0025777413975447416,0.09153652936220169,-0.003077313769608736,-0.001119797583669424,0.010043254122138023,0.011828392744064331
1.036,-0.002227736171334982,0.09138394147157669,-0.0030974315013736486,-0.0013328795321285725,0.010002350434660912,0.011959431692957878
1.038,-0.0019970224238932133,0.09129238873720169,-0.003220408456400037,-0.001558817457407713,0.009893597103655338,0.012068637646734715
1.04,-0.0018671483267098665,0.091218002140522,-0.003248592372983694,-0.001790408045053482,0.009716283529996872,0.012159249745309353
1.042,-0.0017374248709529638,0.091126449406147,-0.00330242863856256,-0.002019464038312435,0.009482583962380886,0.012223325669765472
1.044,-0.0017402865923941135,0.09107304364442825,-0.003315278561785817,-0.0022365576587617397,0.009210405871272087,0.012268634513020515
1.046,-0.0017533455975353718,0.09101486951112747,-0.003368452424183488,-0.002428046427667141,0.00892128236591816,0.012308628298342228
1.048,-0.001765057328157127,0.09093666821718216,-0.0033843035344034433,-0.0025866273790597916,0.008623305708169937,0.012342751957476139
1.05,-0.0017532261554151773,0.09082890301942825,-0.003400280140340328,-0.0027027614414691925,0.008336120285093784,0.012368286959826946
1.052,-0.0018088247161358595,0.09074307233095169,-0.0033656556624919176,-0.002772542182356119,0.008068078197538853,0.012386736460030079
1.054,-0.0019078317563980818,0.09064961224794388,-0.0034338640980422497,-0.002790624275803566,0.00782602559775114,0.012403707019984722
1.056,-0.0019002003828063607,0.09055615216493607,-0.0034624524414539337,-0.002763580996543169,0.0076123252511024475,0.012422463856637478
1.058,-0.0019039381295442581,0.09040070325136185,-0.0035279272124171257,-0.0027006915770471096,0.007440842222422361,0.012437048368155956
1.06,-0.0018737090285867453,0.09026909619569778,-0.0035732202231884003,-0.0026046251878142357,0.0073113334365189075,0.012460499070584774
1.062,-0.0017598370322957635,0.09001065045595169,-0.0036527367774397135,-0.0024864342994987965,0.007218414451926947,0.012479945085942745
1.064,-0.0016104524256661534,0.0897378996014595,-0.0038448399864137173,-0.002349515911191702,0.007162585388869047,0.012495639733970165
1.066,-0.0014718299498781562,0.08950711041688919,-0.003940244670957327,-0.0022055883891880512,0.007161486428231001,0.012517894618213177
1.068,-0.0012187304673716426,0.08919525891542435,-0.004093757830560207,-0.002056917641311884,0.007200772408396006,0.012546551413834095
1.07,-0.0009046244667842984,0.08885002881288528,-0.004311043303459883,-0.00191127834841609,0.007265093270689249,0.01258618663996458
1.072,-0.0005636957939714193,0.088471420109272,-0.004517314489930868,-0.0017727254889905453,0.007343926001340151,0.012623750604689121
1.074,-0.0001217362005263567,0.08804608136415482,-0.0046732923947274685,-0.0016460176557302475,0.00743097485974431,0.012658973224461079
1.076,0.0003193251322954893,0.08760643750429153,-0.00486281793564558,-0.0015251953154802322,0.007521240506321192,0.01269554253667593
1.078,0.0008828900754451752,0.08706475049257278,-0.005019286181777716,-0.0014069825410842896,0.007603829260915518,0.012738575227558613
1.08,0.0014558451948687434,0.08650017529726028,-0.005198103841394186,-0.001300495583564043,0.007674066349864006,0.012792103923857212
1.082,0.002032717689871788,0.08591652661561966,-0.005377884954214096,-0.0012036529369652271,0.007724899332970381,0.012848994694650173
1.084,0.0026942850090563297,0.08526230603456497,-0.005500108934938908,-0.0011221314780414104,0.007755456026643515,0.012914148159325123
1.086,0.003375773085281253,0.08459950238466263,-0.005573567468672991,-0.001069291029125452,0.0077785649336874485,0.012981371022760868
1.088,0.004055891651660204,0.08389187604188919,-0.005627879407256842,-0.0010353270918130875,0.007792111486196518,0.013050341047346592
1.09,0.004772169049829245,0.083191879093647,-0.005488159134984016,-0.001031926367431879,0.007792841177433729,0.013128153048455715
1.092,0.00554936146363616,0.08241844922304153,-0.005319696385413408,-0.0010510478168725967,0.007786204572767019,0.013207858428359032
1.094,0.006389434915035963,0.08161640912294388,-0.005120398476719856,-0.0010833279229700565,0.007779316511005163,0.013282441534101963
1.096,0.007189029827713966,0.08085537701845169,-0.004713973496109247,-0.0011283019557595253,0.00777154928073287,0.013350876979529858
1.098,0.007976049557328224,0.08005333691835403,-0.004242492839694023,-0.0011827405542135239,0.007757144048810005,0.013406769372522831
1.1,0.008723296225070953,0.07926750928163528,-0.003595826681703329,-0.0012308312579989433,0.007739194203168154,0.01343877986073494
1.102,0.009488718584179878,0.07851410657167435,-0.0028656977228820324,-0.0012682201340794563,0.0077153779566287994,0.013462803326547146
1.104,0.01024644635617733,0.07777024060487747,-0.001937570981681347,-0.0012906515039503574,0.007678742054849863,0.01347187627106905
1.106,0.011013643816113472,0.07712364941835403,-0.0009067064383998513,-0.0013025305233895779,0.007635272573679686,0.013468255288898945
1.108,0.011659340932965279,0.07645798474550247,0.0002924453292507678,-0.0012955632992088795,0.0075888787396252155,0.013450712896883488
1.11,0.012255807407200336,0.07587624341249466,0.001694367965683341,-0.0012559695169329643,0.007542524952441454,0.013431507162749767
1.112,0.012825359590351582,0.07535935193300247,0.003166396403685212,-0.0011916481889784336,0.007491940166801214,0.013409237377345562
1.114,0.013395033776760101,0.07501698285341263,0.004791954066604376,-0.0010961685329675674,0.007448410615324974,0.013388433493673801
1.116,0.013908249326050282,0.07473469525575638,0.006531440652906895,-0.000965009443461895,0.0074121602810919285,0.013367251493036747
1.118,0.014310931786894798,0.0745706632733345,0.0084277568385005,-0.0008111749775707722,0.00738857826218009,0.013341344892978668
1.12,0.01468287967145443,0.07444096356630325,0.01048477552831173,-0.0006225155666470528,0.007380331866443157,0.013308343477547169
1.122,0.015016919933259487,0.07445240765810013,0.012517258524894714,-0.00041051115840673447,0.00739640649408102,0.01326203253120184
1.124,0.015265346504747868,0.07455063611268997,0.014640284702181816,-0.00017068348824977875,0.007436559069901705,0.013202297501266003
1.126,0.015587725676596165,0.07473660260438919,0.016813911497592926,8.909543976187706e-05,0.007514059543609619,0.013130650855600834
1.128,0.015802817419171333,0.07503224164247513,0.018974456936120987,0.000368672888725996,0.007628167979419231,0.013052818365395069
1.13,0.01604042761027813,0.07536698132753372,0.02105659991502762,0.0006610122509300709,0.0077905855141580105,0.012971105985343456
1.132,0.016237054020166397,0.07576370984315872,0.02305334247648716,0.0009585404768586159,0.008008317090570927,0.01289058942347765
1.134,0.01645674556493759,0.07622051984071732,0.024936707690358162,0.0012715412303805351,0.008289473131299019,0.01282098051160574
1.136,0.016658220440149307,0.07669640332460403,0.026724541559815407,0.001588613260537386,0.008639838546514511,0.012776623480021954
1.138,0.016821611672639847,0.07715512067079544,0.028352713212370872,0.0019085458479821682,0.009050499647855759,0.012748139910399914
1.14,0.01692126877605915,0.07761193066835403,0.02974836342036724,0.002226247452199459,0.00950246024876833,0.012744327075779438
1.142,0.017061568796634674,0.07812023907899857,0.030943291261792183,0.002529012504965067,0.0099915387108922,0.012757811695337296
1.144,0.017217032611370087,0.07860184460878372,0.03205479681491852,0.002817884087562561,0.010508747771382332,0.012770448811352253
1.146,0.017375268042087555,0.07910061627626419,0.03287013992667198,0.0030895103700459003,0.011026185005903244,0.012778888456523418
1.148,0.01754389889538288,0.07947731763124466,0.03352811560034752,0.0033367755822837353,0.011517718434333801,0.012784742750227451
1.15,0.01776725798845291,0.07977772504091263,0.03388765826821327,0.003572311718016863,0.011958667077124119,0.012771771289408207
1.152,0.017922107130289078,0.08008576184511185,0.034101519733667374,0.0037966789677739143,0.012338424101471901,0.012735733762383461
1.154,0.01807737722992897,0.080323226749897,0.03406171873211861,0.004007162991911173,0.012647608295083046,0.01268770545721054
1.156,0.018249204382300377,0.08045006543397903,0.03383367508649826,0.0042113736271858215,0.012884949333965778,0.012614410370588303
1.158,0.01833486370742321,0.08052826672792435,0.03346121311187744,0.004408382810652256,0.01304949913173914,0.012529226019978523
1.16,0.01841016486287117,0.08060742169618607,0.03286484628915787,0.004613431170582771,0.013142474927008152,0.012421637773513794
1.162,0.018482550978660583,0.08057690411806107,0.032123029232025146,0.004822741728276014,0.013177340850234032,0.01230383850634098
1.164,0.018574340268969536,0.0805215910077095,0.03136146441102028,0.00502998661249876,0.013175053521990776,0.012174423784017563
1.166,0.01859818957746029,0.0804300382733345,0.030427778139710426,0.0052450913935899734,0.01315498910844326,0.012050164863467216
1.168,0.018617017194628716,0.08036518841981888,0.02937626838684082,0.0054681068286299706,0.013134890235960484,0.011930456385016441
1.17,0.018562396988272667,0.08028507977724075,0.028313124552369118,0.0057013146579265594,0.01313717756420374,0.011824622750282288
1.172,0.018491964787244797,0.08024788647890091,0.027203958481550217,0.005956840701401234,0.01316884532570839,0.011727479286491871
1.174,0.018419675529003143,0.08017159253358841,0.02606871910393238,0.006223612930625677,0.013243347406387329,0.011641339398920536
1.176,0.01826220192015171,0.08017826825380325,0.024824293330311775,0.006512039341032505,0.0133561622351408,0.011577120050787926
1.178,0.018038107082247734,0.08027935773134232,0.023538758978247643,0.0068121543154120445,0.013512683100998402,0.011524776928126812
1.18,0.01777173951268196,0.08044338971376419,0.02236565575003624,0.007127448916435242,0.013699689880013466,0.01147443987429142
1.182,0.01748880371451378,0.08067799359560013,0.021161256358027458,0.007446509785950184,0.013902323320508003,0.011428194120526314
1.184,0.01712872087955475,0.08104325085878372,0.019865816459059715,0.007766027469187975,0.014108714647591114,0.011377500370144844
1.186,0.01671949028968811,0.08145046979188919,0.0185942891985178,0.008084602653980255,0.014300841838121414,0.011316752061247826
1.188,0.016188861802220345,0.08200836926698685,0.017302896827459335,0.00839055422693491,0.01446470059454441,0.011242824606597424
1.19,0.015614692121744156,0.08265305310487747,0.016047528013586998,0.008689534850418568,0.014586808159947395,0.011159271001815796
1.192,0.015002974309027195,0.08337879925966263,0.014837917871773243,0.008976873941719532,0.01466918271034956,0.011070115491747856
1.194,0.014294658787548542,0.08418560773134232,0.013575590215623379,0.009252212010324001,0.014696640893816948,0.010971393436193466
1.196,0.013468987308442593,0.08508969098329544,0.01229158602654934,0.009511603973805904,0.014663457870483398,0.01088075339794159
1.198,0.012571875005960464,0.08601856976747513,0.011119079776108265,0.009763669222593307,0.014564255252480507,0.010801530443131924
1.2,0.01159736793488264,0.0869751051068306,0.0098118269816041,0.009998084977269173,0.014408603310585022,0.010737581178545952
1.202,0.010601799935102463,0.08792782574892044,0.008492332883179188,0.010220073163509369,0.014201026409864426,0.010696766898036003
1.204,0.009529365226626396,0.08893585950136185,0.007196159567683935,0.010431922972202301,0.01394492108374834,0.010691282339394093
1.206,0.008343147113919258,0.08986473828554153,0.005916191730648279,0.01063827145844698,0.01364357303828001,0.010715657845139503
1.208,0.007119395304471254,0.09078884869813919,0.004636738449335098,0.010831492021679878,0.013307757675647736,0.010764041915535927
1.21,0.005883835256099701,0.09166813641786575,0.003453363897278905,0.011017601005733013,0.012940218672156334,0.010835876688361168
1.212,0.004611439071595669,0.0925149992108345,0.002298574196174741,0.011191554367542267,0.012542921118438244,0.010916143655776978
1.214,0.0033156825229525566,0.09329891949892044,0.0011360509088262916,0.011342039331793785,0.012120146304368973,0.010997816920280457
1.216,0.00200458150357008,0.09396840631961823,2.100169876939617e-05,0.011467144824564457,0.011675371788442135,0.01106406282633543
1.218,0.0006692942115478218,0.09452249109745026,-0.0010234088404104114,0.011560440994799137,0.011198615655303001,0.011103379540145397
1.22,-0.0006251861341297626,0.095003142952919,-0.0020215732511132956,0.011624126695096493,0.010690635070204735,0.011102073825895786
1.222,-0.0019442890770733356,0.09535886347293854,-0.002983514219522476,0.01164987962692976,0.010153274983167648,0.011066561564803123
1.224,-0.0032309636007994413,0.09556104242801666,-0.0039045135490596294,0.011645542457699776,0.009594106115400791,0.011003251187503338
1.226,-0.004439453594386578,0.09570600092411041,-0.004771416541188955,0.01162111945450306,0.009026971645653248,0.010922850109636784
1.228,-0.005543132312595844,0.09571458399295807,-0.005557498428970575,0.01158442348241806,0.008461050689220428,0.010827822610735893
1.23,-0.006622173357754946,0.09576322138309479,-0.006249479483813047,0.01153484731912613,0.007923666387796402,0.01072950754314661
1.232,-0.0076728579588234425,0.09570886194705963,-0.0069057936780154705,0.011487114243209362,0.007428993936628103,0.010643783956766129
1.234,-0.008649460040032864,0.0955658107995987,-0.007546373642981052,0.01144653744995594,0.006992280017584562,0.010586287826299667
1.236,-0.009552587755024433,0.09534646570682526,-0.008087032474577427,0.011412369087338448,0.006621832959353924,0.010551351122558117
1.238,-0.010315816849470139,0.09509088099002838,-0.008609126321971416,0.011380665935575962,0.006318062078207731,0.010541746392846107
1.24,-0.011061199940741062,0.0947742611169815,-0.009106150828301907,0.011347380466759205,0.006090489681810141,0.010561962611973286
1.242,-0.011694962158799171,0.09446431696414948,-0.009594369679689407,0.011314155533909798,0.005928082391619682,0.010608491487801075
1.244,-0.012241488322615623,0.09412671625614166,-0.010020013898611069,0.011280665174126625,0.005822714418172836,0.010671443305909634
1.246,-0.012722880579531193,0.09374333173036575,-0.01048356294631958,0.011240282095968723,0.005765202920883894,0.010759382508695126
1.248,-0.013123291544616222,0.09333515912294388,-0.010923718102276325,0.011187577620148659,0.005756232887506485,0.010866092517971992
1.25,-0.013452857732772827,0.0929422453045845,-0.011483611539006233,0.011129291728138924,0.005784139037132263,0.010983679443597794
1.252,-0.01371948141604662,0.09241963177919388,-0.011948101222515106,0.011055858805775642,0.005841213744133711,0.011118232272565365
1.254,-0.013921283185482025,0.09195423871278763,-0.012536154128611088,0.010974982753396034,0.005914303474128246,0.011252528056502342
1.256,-0.014108357951045036,0.09146691113710403,-0.013060061261057854,0.010882886126637459,0.006006937474012375,0.011379375122487545
1.258,-0.014202255755662918,0.09092427045106888,-0.013629660941660404,0.010768884792923927,0.00610874779522419,0.01148769911378622
1.26,-0.014288391917943954,0.09034634381532669,-0.01417493261396885,0.010642391629517078,0.006215529516339302,0.011575493961572647
1.262,-0.014276184141635895,0.08974839001893997,-0.014780176803469658,0.010505769401788712,0.0063078748062253,0.01164119690656662
1.264,-0.014186730608344078,0.08911038190126419,-0.015346131287515163,0.010356802493333817,0.006379173137247562,0.011680947616696358
1.266,-0.01410380657762289,0.08843899518251419,-0.015821682289242744,0.01019987277686596,0.006421776954084635,0.011696786619722843
1.268,-0.01392283383756876,0.08772469311952591,-0.016278354451060295,0.010032342746853828,0.006421084050089121,0.011687802150845528
1.27,-0.013676822185516357,0.08696366101503372,-0.0166512131690979,0.00985813606530428,0.0063606975600123405,0.01165845524519682
1.272,-0.013337134383618832,0.08617687970399857,-0.016982173547148705,0.00968165509402752,0.0062532988376915455,0.0116155119612813
1.274,-0.012900210916996002,0.08534527570009232,-0.017196131870150566,0.009495322592556477,0.006089832168072462,0.011564747430384159
1.276,-0.012398703955113888,0.08445263653993607,-0.017167648300528526,0.009318786673247814,0.005870060995221138,0.011505034752190113
1.278,-0.011795559898018837,0.08352375775575638,-0.016978075727820396,0.009145380929112434,0.005602202378213406,0.011440459638834
1.28,-0.011032472364604473,0.08255291730165482,-0.016583852469921112,0.008980011567473412,0.005293956026434898,0.011367302387952805
1.282,-0.01019706018269062,0.08162403851747513,-0.015926571562886238,0.008831072598695755,0.004959361162036657,0.011295441538095474
1.284,-0.009223941713571548,0.0807046964764595,-0.0150312390178442,0.008705263957381248,0.004614122211933136,0.011226275004446507
1.286,-0.008061695843935013,0.07970619946718216,-0.013884571380913258,0.008596033789217472,0.004257144872099161,0.011161962524056435
1.288,-0.0068112146109342575,0.07874775677919388,-0.012447990477085114,0.00850298535078764,0.003909411374479532,0.011101266369223595
1.29,-0.005417246371507645,0.07778454571962357,-0.01080024428665638,0.008426034823060036,0.0035828393884003162,0.011041722260415554
1.292,-0.003912684507668018,0.07688713818788528,-0.00894241314381361,0.008358240127563477,0.003283026861026883,0.010991244576871395
1.294,-0.00226091081276536,0.0759735181927681,-0.006676521617919207,0.008290199562907219,0.0030187375377863646,0.010941490530967712
1.296,-0.0004962094826623797,0.07514572888612747,-0.004241770599037409,0.008209103718400002,0.002808219287544489,0.010888348333537579
1.298,0.001364495838060975,0.07431984692811966,-0.001562581630423665,0.008123472332954407,0.002655894961208105,0.010842796415090561
1.3,0.003344958880916238,0.073548324406147,0.0013259638799354434,0.00803656131029129,0.0025624127592891455,0.010805364698171616
1.302,0.005429749842733145,0.07280636578798294,0.004390060901641846,0.007960142567753792,0.0025379061698913574,0.010783100500702858
1.304,0.007562039420008659,0.07209397107362747,0.0076243882067501545,0.007904878817498684,0.0025840806774795055,0.010774999856948853
1.306,0.009752321057021618,0.07146168500185013,0.010951422154903412,0.007886235602200031,0.0026960084214806557,0.010782073251903057
1.308,0.011937353760004044,0.0709085538983345,0.014370816759765148,0.007912673987448215,0.002876649145036936,0.010810231789946556
1.31,0.014099553227424622,0.07040310651063919,0.01790475845336914,0.007989407517015934,0.0031263791024684906,0.010850667022168636
1.312,0.016236217692494392,0.06998539716005325,0.02153540402650833,0.008125804364681244,0.003440695581957698,0.010897645726799965
1.314,0.01839246228337288,0.06951523572206497,0.02513185888528824,0.008307169191539288,0.0038140651304274797,0.01093420758843422
1.316,0.02053302526473999,0.06909371167421341,0.028738416731357574,0.008527252823114395,0.004254513420164585,0.010959205217659473
1.318,0.022525014355778694,0.06874275952577591,0.0323023796081543,0.008781159296631813,0.004757083486765623,0.010971487499773502
1.32,0.024438250809907913,0.06841564923524857,0.03577370569109917,0.009053646586835384,0.005320977419614792,0.010961913503706455
1.322,0.02624455839395523,0.06810761243104935,0.039219267666339874,0.00933377631008625,0.0059470562264323235,0.010929129086434841
1.324,0.02796528860926628,0.06789589673280716,0.042522065341472626,0.009614638984203339,0.006639080587774515,0.010874268598854542
1.326,0.029584677889943123,0.06772328168153763,0.0457117073237896,0.00988647248595953,0.007373311556875706,0.010806779377162457
1.328,0.03113039955496788,0.06761742383241653,0.048773325979709625,0.010156434029340744,0.008150763809680939,0.01073518581688404
1.33,0.03257305547595024,0.06754875928163528,0.05171622335910797,0.010421369224786758,0.00896864477545023,0.010663372464478016
1.332,0.03391221910715103,0.06749916821718216,0.05453374236822128,0.010701268911361694,0.009811961092054844,0.01059176865965128
1.334,0.035123374313116074,0.06749249249696732,0.05714394152164459,0.010999910533428192,0.010671666823327541,0.010529635474085808
1.336,0.036246925592422485,0.06745720654726028,0.059593502432107925,0.011334133334457874,0.011535813100636005,0.010477486997842789
1.338,0.03731461241841316,0.06749821454286575,0.06181088835000992,0.011701938696205616,0.01239044964313507,0.010430385358631611
1.34,0.0383264534175396,0.06750965863466263,0.06386303901672363,0.01210429985076189,0.013238483108580112,0.010378382168710232
1.342,0.039307668805122375,0.06754875928163528,0.06579852849245071,0.012546522542834282,0.014055032283067703,0.010324845090508461
1.344,0.04027567431330681,0.0676431730389595,0.06756402552127838,0.013023914769291878,0.014830408617854118,0.01027614064514637
1.346,0.04117166996002197,0.06775570660829544,0.06912469118833542,0.01353219524025917,0.015562386251986027,0.010219765827059746
1.348,0.04204210638999939,0.06787586957216263,0.07057662308216095,0.014065158553421497,0.016239510849118233,0.010153167881071568
1.35,0.04293876141309738,0.06798554211854935,0.07198895514011383,0.014614317566156387,0.01685708947479725,0.01007660198956728
1.352,0.043826743960380554,0.06805802136659622,0.0732620432972908,0.015166082419455051,0.017418231815099716,0.009981242939829826
1.354,0.0447072833776474,0.06817436963319778,0.07437868416309357,0.01572353206574917,0.01792239211499691,0.009860528632998466
1.356,0.045619864016771317,0.0682525709271431,0.0754166916012764,0.016276972368359566,0.018372438848018646,0.009711071848869324
1.358,0.046464040875434875,0.06834603101015091,0.07633543014526367,0.01682199165225029,0.01877623237669468,0.009532395750284195
1.36,0.04727162793278694,0.06841755658388138,0.07712570577859879,0.01735435426235199,0.01914537139236927,0.00931547675281763
1.362,0.048060886561870575,0.06848908215761185,0.07779065519571304,0.017881518229842186,0.019497588276863098,0.00905873253941536
1.364,0.04874885827302933,0.06853295117616653,0.07837844640016556,0.01840794086456299,0.01985020749270916,0.00876558292657137
1.366,0.04943736270070076,0.06856919080018997,0.0788683369755745,0.018927261233329773,0.020226383581757545,0.008436760865151882
1.368,0.04996892064809799,0.06860638409852982,0.07923571765422821,0.019445328041911125,0.020640863105654716,0.008075783960521221
1.37,0.05038190633058548,0.068696029484272,0.07933687418699265,0.019964931532740593,0.021105071529746056,0.0076868971809744835
1.372,0.05062190815806389,0.06877041608095169,0.07933027297258377,0.020481308922171593,0.02163243480026722,0.00728459469974041
1.374,0.05066990107297897,0.06887341290712357,0.0791979655623436,0.021007556468248367,0.022216184064745903,0.006884671747684479
1.376,0.0505540668964386,0.06901360303163528,0.07882267236709595,0.02154914289712906,0.02286108210682869,0.006504134275019169
1.378,0.050225645303726196,0.06915570050477982,0.07826782017946243,0.022107915952801704,0.023540271446108818,0.006141894496977329
1.38,0.04964195936918259,0.06934643536806107,0.07756058126688004,0.022688381373882294,0.024237165227532387,0.0058057475835084915
1.382,0.04881308972835541,0.06962776929140091,0.07666189223527908,0.02329636551439762,0.024922221899032593,0.005495659075677395
1.384,0.047793351113796234,0.06995201855897903,0.07551255077123642,0.02393532544374466,0.02556726150214672,0.005218269769102335
1.386,0.04659997299313545,0.07036019116640091,0.07417108863592148,0.024595066905021667,0.02615383453667164,0.004972007591277361
1.388,0.04517113417387009,0.07077503949403763,0.0727003887295723,0.025282174348831177,0.02666209451854229,0.004745707381516695
1.39,0.04351343214511871,0.07126713544130325,0.07102404534816742,0.025988396257162094,0.027067402377724648,0.004531559068709612
1.392,0.04172735661268234,0.0718240812420845,0.06919189542531967,0.026712164282798767,0.02736051380634308,0.004324414301663637
1.394,0.039762094616889954,0.07244301587343216,0.06715844571590424,0.027437511831521988,0.027536727488040924,0.004121794831007719
1.396,0.03764263167977333,0.07312870770692825,0.06500817090272903,0.028154879808425903,0.027609558776021004,0.003912363667041063
1.398,0.03549519553780556,0.07387924939393997,0.06269145756959915,0.028857531026005745,0.02758943662047386,0.0036918618716299534
1.4,0.03322921693325043,0.07472134381532669,0.06024239957332611,0.029533972963690758,0.027478458359837532,0.00346808647736907
1.402,0.03089459240436554,0.07556534558534622,0.057766932994127274,0.030176717787981033,0.027289871126413345,0.0032426188699901104
1.404,0.028519317507743835,0.07643605023622513,0.055158860981464386,0.03078814223408699,0.027037836611270905,0.0030169454403221607
1.406,0.02622975781559944,0.07729054242372513,0.05248168855905533,0.03135707974433899,0.026744171977043152,0.0027975118719041348
1.408,0.023931356146931648,0.07816410809755325,0.04974471032619476,0.03187980502843857,0.026421697810292244,0.0025836038403213024
1.41,0.021661318838596344,0.07901955395936966,0.04695096239447594,0.032362669706344604,0.026078088209033012,0.0023745300713926554
1.412,0.01943809911608696,0.07991791516542435,0.04410954937338829,0.032801561057567596,0.025717098265886307,0.0021620451007038355
1.414,0.017288612201809883,0.08080578595399857,0.04122995212674141,0.03319672495126724,0.025349196046590805,0.0019433463457971811
1.416,0.015213316306471825,0.08156491070985794,0.038449473679065704,0.03355308994650841,0.024971742182970047,0.0017056569922715425
1.418,0.01323565375059843,0.08232308179140091,0.03562459722161293,0.0338810458779335,0.024585256353020668,0.001448300783522427
1.42,0.011356590315699577,0.08302117139101028,0.03277720883488655,0.03418688848614693,0.02419351041316986,0.0011728528188541532
1.422,0.009604073129594326,0.08367825299501419,0.029961058869957924,0.03447455167770386,0.023795301094651222,0.0008842545212246478
1.424,0.007884002290666103,0.08429432660341263,0.027186194434762,0.03475107252597809,0.023391736671328545,0.0005841339007019997
1.426,0.006234524771571159,0.08486462384462357,0.024410279467701912,0.0350184291601181,0.022984009236097336,0.00027725560357794166
1.428,0.004738306626677513,0.08539105206727982,0.021694013848900795,0.03528055176138878,0.022578122094273567,-1.875600719358772e-05
1.43,0.00325588695704937,0.08588982373476028,0.018998049199581146,0.03553520515561104,0.022171303629875183,-0.00029501799144782126
1.432,0.0018285559490323067,0.08633900433778763,0.016327504068613052,0.03577898070216179,0.02178395539522171,-0.0005434147897176445
1.434,0.00038298266008496284,0.08676338940858841,0.013664906844496727,0.03600984811782837,0.021426912397146225,-0.0007594518829137087
1.436,-0.0010505695827305317,0.08719921857118607,0.011058240197598934,0.036221712827682495,0.02111847698688507,-0.0009374966030009091
1.438,-0.0025324265006929636,0.08763600140810013,0.008433233015239239,0.03641650080680847,0.020867474377155304,-0.0010925972601398826
1.44,-0.0040359837003052235,0.08807945996522903,0.005731699988245964,0.03659442067146301,0.020688597112894058,-0.0012352870544418693
1.442,-0.005570576526224613,0.08861828595399857,0.003012785455211997,0.03674355149269104,0.020592650398612022,-0.001369485049508512
1.444,-0.0071321288123726845,0.08916569501161575,0.0001745686458889395,0.036861710250377655,0.02058754302561283,-0.0015063652535900474
1.446,-0.008782691322267056,0.08982277661561966,-0.0026710114907473326,0.036952853202819824,0.0206613689661026,-0.001646264805458486
1.448,-0.010493075475096703,0.09046078473329544,-0.005628278944641352,0.037020325660705566,0.020799322053790092,-0.0017875948688015342
1.45,-0.012255590409040451,0.09116459637880325,-0.008770221844315529,0.03705522045493126,0.02098080888390541,-0.001930575235746801
1.452,-0.014125915244221687,0.09195328503847122,-0.012026341632008553,0.03705652430653572,0.021188318729400635,-0.0020603418815881014
1.454,-0.01610398478806019,0.092743881046772,-0.015359668992459774,0.037028782069683075,0.021411068737506866,-0.002164076315239072
1.456,-0.018117204308509827,0.09362602978944778,-0.018809089437127113,0.03697612136602402,0.02163253165781498,-0.002229637699201703
1.458,-0.020205805078148842,0.0945444256067276,-0.02239513210952282,0.036901287734508514,0.021830683574080467,-0.002251341240480542
1.46,-0.022393539547920227,0.0955667644739151,-0.026120109483599663,0.03682345524430275,0.021987076848745346,-0.002228257479146123
1.462,-0.024650927633047104,0.09662343561649323,-0.02990882843732834,0.036755986511707306,0.02209324575960636,-0.002152755158022046
1.464,-0.026974817737936974,0.097688689827919,-0.033760689198970795,0.03670096397399902,0.022148018702864647,-0.002032668562605977
1.466,-0.029329638928174973,0.09876729547977448,-0.03766369819641113,0.03666114807128906,0.022149162366986275,-0.0018714062171056867
1.468,-0.03167855739593506,0.09987927973270416,-0.04158305376768112,0.036638014018535614,0.022078335285186768,-0.0016795835690572858
1.47,-0.034014742821455,0.10100175440311432,-0.045462045818567276,0.03662467747926712,0.0219334177672863,-0.0014683336485177279
1.472,-0.03639788180589676,0.10207940638065338,-0.04930568113923073,0.03661264479160309,0.021708957850933075,-0.001251961337402463
1.474,-0.0387495756149292,0.10315419733524323,-0.053093213587999344,0.03660201653838158,0.021406032145023346,-0.0010363694746047258
1.476,-0.041064850986003876,0.10416413843631744,-0.05675484612584114,0.03658256679773331,0.021024836227297783,-0.0008309477125294507
1.478,-0.04330991208553314,0.10515977442264557,-0.060262199491262436,0.03654245287179947,0.02056696079671383,-0.0006406059255823493
1.48,-0.04551973566412926,0.10606957972049713,-0.06356415897607803,0.03648015856742859,0.02004043571650982,-0.00046495668357238173
1.482,-0.047647491097450256,0.10692311823368073,-0.06673229485750198,0.03638336807489395,0.019455134868621826,-0.0003155539743602276
1.484,-0.049701135605573654,0.10770799219608307,-0.0696956217288971,0.03624916076660156,0.018828803673386574,-0.00018742270185612142
1.486,-0.051738470792770386,0.1084451824426651,-0.07241316139698029,0.03606902435421944,0.018179139122366905,-7.893300789874047e-05
1.488,-0.053702257573604584,0.10909654200077057,-0.07493025064468384,0.03583550453186035,0.017516490072011948,8.547904144506902e-06
1.49,-0.05560748651623726,0.10972405970096588,-0.07728992402553558,0.03554413467645645,0.01684204488992691,8.31542129162699e-05
1.492,-0.05745626240968704,0.1103220134973526,-0.07936073839664459,0.03518705815076828,0.016170300543308258,0.000160403607878834
1.494,-0.059282850474119186,0.11088468134403229,-0.08123822510242462,0.03476124256849289,0.01550743356347084,0.0002533718943595886
1.496,-0.06103610619902611,0.11144639551639557,-0.08297307044267654,0.034270644187927246,0.014856602065265179,0.0003645773103926331
1.498,-0.06271115690469742,0.11200906336307526,-0.0845186859369278,0.03371332585811615,0.01421511359512806,0.0005084237200208008
1.5,-0.06427955627441406,0.1125803142786026,-0.08593319356441498,0.03309095650911331,0.01358269713819027,0.00069261877797544
1.502,-0.06582468003034592,0.1130981594324112,-0.08712226897478104,0.03241527080535889,0.012955469079315662,0.0009146292577497661
1.504,-0.06730601191520691,0.11361218988895416,-0.08808422088623047,0.031697697937488556,0.012321761809289455,0.001181508065201342
1.506,-0.06870096921920776,0.1141224056482315,-0.08897571265697479,0.030952049419283867,0.011670446023344994,0.0014858623035252094
1.508,-0.07003606855869293,0.11459161341190338,-0.08972226083278656,0.030188005417585373,0.010989133268594742,0.0018158828606829047
1.51,-0.07125970721244812,0.115022674202919,-0.09035760164260864,0.029415994882583618,0.010274822823703289,0.0021663077641278505
1.512,-0.07234791666269302,0.11548329889774323,-0.0909920483827591,0.028642214834690094,0.009525716304779053,0.0025267184246331453
1.514,-0.07334838807582855,0.1159210354089737,-0.09148932993412018,0.027868283912539482,0.008731985464692116,0.0028863372281193733
1.516,-0.0742432028055191,0.11634160578250885,-0.09184211492538452,0.02710520103573799,0.007893411442637444,0.003238738514482975
1.518,-0.07495307922363281,0.1167307049036026,-0.09213991463184357,0.026361294090747833,0.007007941137999296,0.003579210489988327
1.52,-0.07554054260253906,0.11706258356571198,-0.0923703983426094,0.025641579180955887,0.006085735745728016,0.0039014413487166166
1.522,-0.0759175643324852,0.11730863153934479,-0.09247076511383057,0.024947579950094223,0.005143680144101381,0.004207004327327013
1.524,-0.07610193639993668,0.11750222742557526,-0.09242253005504608,0.02427959442138672,0.004185775760561228,0.004495894070714712
1.526,-0.07610207796096802,0.11765767633914948,-0.09233904629945755,0.023637423291802406,0.003226883476600051,0.004771323408931494
1.528,-0.07591313123703003,0.11771298944950104,-0.09216105192899704,0.023020068183541298,0.0022761551663279533,0.00503980228677392
1.53,-0.0755249485373497,0.11770917475223541,-0.09179386496543884,0.02242892235517502,0.001347262877970934,0.005304029211401939
1.532,-0.07500499486923218,0.11764146387577057,-0.09134354442358017,0.021860841661691666,0.0004560976231005043,0.005570257548242807
1.534,-0.07423508167266846,0.11748792231082916,-0.09076263010501862,0.02130773663520813,-0.0003852065128739923,0.005843029357492924
1.536,-0.07322396337985992,0.11723805963993073,-0.0900716781616211,0.02076353132724762,-0.0011608701897785068,0.006124050356447697
1.538,-0.07203179597854614,0.11688710749149323,-0.08922494202852249,0.020223351195454597,-0.0018538637086749077,0.006416755728423595
1.54,-0.07063505798578262,0.11643315851688385,-0.0882536917924881,0.01968075893819332,-0.002450208878144622,0.006727014202624559
1.542,-0.06907834112644196,0.1159229427576065,-0.08714211732149124,0.01912108063697815,-0.0029340600594878197,0.0070594437420368195
1.544,-0.06733231991529465,0.1153726726770401,-0.08587004244327545,0.018534358590841293,-0.003292631357908249,0.007414587307721376
1.546,-0.06542930006980896,0.11469174921512604,-0.0845116525888443,0.01792416162788868,-0.0035320830065757036,0.007786596659570932
1.548,-0.06336992979049683,0.11394311487674713,-0.08299840241670609,0.01729324832558632,-0.003658447414636612,0.008172594010829926
1.55,-0.06119950860738754,0.11310960352420807,-0.08135569840669632,0.01664266735315323,-0.0036803539842367172,0.008574681356549263
1.552,-0.05893256142735481,0.11221028864383698,-0.07959021627902985,0.01597311720252037,-0.0036059212870895863,0.00899098813533783
1.554,-0.05660161375999451,0.11124612390995026,-0.07765357941389084,0.015292702242732048,-0.0034495005384087563,0.00942021980881691
1.556,-0.05416756495833397,0.11014367640018463,-0.07568533718585968,0.014611504971981049,-0.003236375516280532,0.009864065796136856
1.558,-0.05169307440519333,0.10902120172977448,-0.07355113327503204,0.013933489099144936,-0.002980082994326949,0.010318590328097343
1.56,-0.04916687309741974,0.10779573023319244,-0.0713363066315651,0.013266381807625294,-0.0027012743521481752,0.010783062316477299
1.562,-0.04659932479262352,0.10649396479129791,-0.06902901083230972,0.012615906074643135,-0.002416579518467188,0.011256033554673195
1.564,-0.04397348687052727,0.10514642298221588,-0.06660369783639908,0.011977567337453365,-0.0021382798440754414,0.01173581276088953
1.566,-0.04139696806669235,0.10373689234256744,-0.06404726952314377,0.011350958608090878,-0.0018683180678635836,0.012222273275256157
1.568,-0.03883969038724899,0.1022644191980362,-0.061378683894872665,0.010740977711975574,-0.001605976140126586,0.012709369882941246
1.57,-0.03629835322499275,0.10072709619998932,-0.058615487068891525,0.010147069580852985,-0.0013455890584737062,0.013192214071750641
1.572,-0.033819202333688736,0.09917069971561432,-0.05577065050601959,0.009578753262758255,-0.001079997164197266,0.013669381849467754
1.574,-0.03142746537923813,0.09760381281375885,-0.052822768688201904,0.009039027616381645,-0.0008010089513845742,0.014139770530164242
1.576,-0.029105037450790405,0.09604646265506744,-0.049819882959127426,0.008532239124178886,-0.0004979699151590466,0.014604246243834496
1.578,-0.02685479447245598,0.09440995752811432,-0.046688832342624664,0.008057937026023865,-0.00015946665371302515,0.015069644898176193
1.58,-0.024766964837908745,0.09274960309267044,-0.043530527502298355,0.0076182130724191666,0.00022172332683112472,0.01552886888384819
1.582,-0.02275632880628109,0.09113503247499466,-0.04032913222908974,0.007212282158434391,0.0006450956570915878,0.015977799892425537
1.584,-0.02086944505572319,0.08955097943544388,-0.036996301263570786,0.00683256471529603,0.0011073226341977715,0.01641637273132801
1.586,-0.01913437247276306,0.087983138859272,-0.03371315449476242,0.006472349166870117,0.0015931930392980576,0.016841880977153778
1.588,-0.017519034445285797,0.0864420011639595,-0.0303804874420166,0.006129469722509384,0.002099144272506237,0.017247827723622322
1.59,-0.016035009175539017,0.08489895612001419,-0.02696284092962742,0.005804125685244799,0.0026132315397262573,0.017632687464356422
1.592,-0.01469341665506363,0.08337307721376419,-0.02356700226664543,0.005492682568728924,0.0031153359450399876,0.01798885688185692
1.594,-0.013469794765114784,0.08190632611513138,-0.0202729944139719,0.005199944134801626,0.003593068802729249,0.018313240259885788
1.596,-0.012346314266324043,0.08046246320009232,-0.017021896317601204,0.004936539102345705,0.004043586552143097,0.01859823428094387
1.598,-0.011340896598994732,0.07910443097352982,-0.013767116703093052,0.004706583917140961,0.004464996978640556,0.018850143998861313
1.6,-0.010373209603130817,0.0777139738202095,-0.010497715324163437,0.004511769860982895,0.004847632721066475,0.019077971577644348
1.602,-0.009488334879279137,0.07634735852479935,-0.007418656721711159,0.004358590114861727,0.005183602683246136,0.019281234592199326
1.604,-0.008654729463160038,0.07503796368837357,-0.004403619095683098,0.004242925904691219,0.005479571875184774,0.01946425810456276
1.606,-0.00786556862294674,0.07373333722352982,-0.001438266597688198,0.004165896214544773,0.00573239428922534,0.01963087171316147
1.608,-0.007070375606417656,0.07248879224061966,0.0014400857035070658,0.0041200267150998116,0.005941474810242653,0.01978527009487152
1.61,-0.006253936793655157,0.07127762585878372,0.004207436461001635,0.0041026221588253975,0.006121017970144749,0.019929107278585434
1.612,-0.005343032069504261,0.070099838078022,0.006794651970267296,0.004116036929190159,0.006280387286096811,0.020063849166035652
1.614,-0.004342198837548494,0.0689697340130806,0.009216739796102047,0.004150797612965107,0.006428801454603672,0.020191827788949013
1.616,-0.0032551875337958336,0.06791210919618607,0.011539646424353123,0.004207264631986618,0.006574712228029966,0.02031947486102581
1.618,-0.0020565222948789597,0.06692982465028763,0.013698069378733635,0.004290791228413582,0.006723800208419561,0.02044863812625408
1.62,-0.0007439632900059223,0.06602860242128372,0.015694506466388702,0.004400904290378094,0.006878426298499107,0.020579930394887924
1.622,0.000712839886546135,0.06517792493104935,0.017552625387907028,0.004536987282335758,0.007044544443488121,0.020720135420560837
1.624,0.002242201939225197,0.06441117078065872,0.019197221845388412,0.004704190418124199,0.007224731612950563,0.020874451845884323
1.626,0.0038070054724812508,0.06371975690126419,0.020653098821640015,0.004909300245344639,0.007422182243317366,0.021039627492427826
1.628,0.005508721806108952,0.06306839734315872,0.021948162466287613,0.0051563456654548645,0.007646122947335243,0.021213695406913757
1.63,0.0072826240211725235,0.0625457838177681,0.02308424934744835,0.005441540852189064,0.007903155870735645,0.02138998918235302
1.632,0.00899961031973362,0.06214047223329544,0.02400856465101242,0.0057648951187729836,0.008201311342418194,0.021561698988080025
1.634,0.010686634108424187,0.061854369938373566,0.024710245430469513,0.006120985373854637,0.008551032282412052,0.021728724241256714
1.636,0.0123112378641963,0.061658866703510284,0.025255050510168076,0.006504904478788376,0.008966657333076,0.021882707253098488
1.638,0.013871007598936558,0.061524398624897,0.025697289034724236,0.006916779093444347,0.009457917883992195,0.022013762965798378
1.64,0.015275425277650356,0.06149960309267044,0.02596806362271309,0.00735027901828289,0.010032819584012032,0.022113097831606865
1.642,0.01648656092584133,0.0615692213177681,0.026141507551074028,0.007787002250552177,0.010681689716875553,0.022183960303664207
1.644,0.017479682341217995,0.061732299625873566,0.026155853644013405,0.008220597170293331,0.011394871398806572,0.022221097722649574
1.646,0.018189888447523117,0.061999328434467316,0.026071365922689438,0.008650517091155052,0.012163328006863594,0.022225825116038322
1.648,0.01863904483616352,0.0623636320233345,0.02586057223379612,0.009070697240531445,0.012972070835530758,0.022207671776413918
1.65,0.018809650093317032,0.06281376630067825,0.02560574933886528,0.009471895173192024,0.01379737164825201,0.022175101563334465
1.652,0.018710650503635406,0.06336308270692825,0.025298751890659332,0.00984986498951912,0.014611806720495224,0.022127771750092506
1.654,0.018323704600334167,0.06395722180604935,0.024963492527604103,0.01020315382629633,0.015399593859910965,0.02207009308040142
1.656,0.017632506787776947,0.06466484814882278,0.024591531604528427,0.010535825043916702,0.01613491028547287,0.022014258429408073
1.658,0.016681497916579247,0.06539059430360794,0.024121982976794243,0.010853939689695835,0.016790971159934998,0.021960832178592682
1.66,0.01547720842063427,0.06614590436220169,0.023662634193897247,0.011156744323670864,0.01735055446624756,0.02191324159502983
1.662,0.014044584706425667,0.06694603711366653,0.02317867800593376,0.011445755138993263,0.01779952086508274,0.021874435245990753
1.664,0.012429909780621529,0.06777859479188919,0.022690163925290108,0.0117153599858284,0.01812164857983589,0.021845385432243347
1.666,0.010630462318658829,0.06868172436952591,0.02221614308655262,0.011968834325671196,0.01830420270562172,0.021824946627020836
1.668,0.00873245857656002,0.06960392743349075,0.021685874089598656,0.012214858084917068,0.01834172010421753,0.021812690421938896
1.67,0.006751976907253265,0.07054520398378372,0.021158626303076744,0.012449636124074459,0.018232209607958794,0.021806491538882256
1.672,0.004745623096823692,0.071442611515522,0.020617524161934853,0.012672990560531616,0.01797850802540779,0.021804505959153175
1.674,0.0027385223656892776,0.07234478741884232,0.01992875151336193,0.01288549043238163,0.017590530216693878,0.021812524646520615
1.676,0.0007774531841278076,0.07323456555604935,0.019138153642416,0.013087042607367039,0.01708218827843666,0.021834177896380424
1.678,-0.0011049536988139153,0.07409859448671341,0.01832633651793003,0.013275323435664177,0.01647234335541725,0.021865982562303543
1.68,-0.0028609135188162327,0.07495022565126419,0.017459334805607796,0.013438841328024864,0.015781832858920097,0.021907968446612358
1.682,-0.004459787160158157,0.07576466351747513,0.01656155474483967,0.01357763260602951,0.015026522800326347,0.021956445649266243
1.684,-0.0059015485458076,0.07650566846132278,0.0156107097864151,0.013693404383957386,0.014235429465770721,0.02201402373611927
1.686,-0.007186098024249077,0.07721424847841263,0.014603842049837112,0.013780297711491585,0.013435259461402893,0.02208026312291622
1.688,-0.008287934586405754,0.07794380933046341,0.013513545505702496,0.013835870660841465,0.012641803361475468,0.022147860378026962
1.69,-0.009170414879918098,0.07864571362733841,0.012411518953740597,0.01385333202779293,0.01187168899923563,0.02222207561135292
1.692,-0.00987611711025238,0.07927513867616653,0.01127592008560896,0.013831394724547863,0.011147381737828255,0.02230869047343731
1.694,-0.01041646208614111,0.07982636243104935,0.010042850859463215,0.013776447623968124,0.010485578328371048,0.02240639738738537
1.696,-0.01072746142745018,0.08040524274110794,0.008829524740576744,0.01369811873883009,0.009903074242174625,0.022513456642627716
1.698,-0.010868331417441368,0.08094406872987747,0.007615467067807913,0.013595085591077805,0.009411324746906757,0.022639483213424683
1.7,-0.01085489522665739,0.08147908002138138,0.0064032720401883125,0.013470594771206379,0.009019216522574425,0.022788213565945625
1.702,-0.010701963678002357,0.08201885968446732,0.005244098603725433,0.01333409734070301,0.008731162175536156,0.022959435358643532
1.704,-0.010458102449774742,0.08254051953554153,0.004108142573386431,0.013190073892474174,0.008547038771212101,0.02315335161983967
1.706,-0.010116800665855408,0.08306599408388138,0.0028964770026504993,0.01304161548614502,0.008473867550492287,0.02336340770125389
1.708,-0.009727834723889828,0.08356667309999466,0.0016208875458687544,0.012889097444713116,0.008512633852660656,0.023582208901643753
1.71,-0.009329995140433311,0.08410454541444778,0.0003650111611932516,0.012731818482279778,0.008654110133647919,0.02379276417195797
1.712,-0.008914746344089508,0.08467388898134232,-0.0008530269260518253,0.012571970000863075,0.008888565003871918,0.023986315354704857
1.714,-0.008528899401426315,0.08519650250673294,-0.0020521499682217836,0.012410509400069714,0.009212679229676723,0.024156682193279266
1.716,-0.008200104348361492,0.08570767194032669,-0.0032949873711913824,0.012245703488588333,0.00961871538311243,0.02429296262562275
1.718,-0.007959113456308842,0.08626271039247513,-0.004570742137730122,0.012078632600605488,0.010096665471792221,0.024389777332544327
1.72,-0.007844730280339718,0.08678913861513138,-0.00585292000323534,0.011906024068593979,0.010635016486048698,0.024450546130537987
1.722,-0.007852315902709961,0.08732510358095169,-0.00715788546949625,0.011727596633136272,0.011219702661037445,0.024480590596795082
1.724,-0.007981219328939915,0.0878458097577095,-0.008432409726083279,0.011548498645424843,0.011833048425614834,0.024489516392350197
1.726,-0.008277366869151592,0.0882721021771431,-0.009735219180583954,0.011374127119779587,0.01245544757694006,0.024492379277944565
1.728,-0.00874170009046793,0.08864594250917435,-0.01103731244802475,0.011213654652237892,0.013069448061287403,0.024496005848050117
1.73,-0.009344064630568027,0.08899117261171341,-0.012330127879977226,0.011067595332860947,0.013657434843480587,0.024510249495506287
1.732,-0.010129068046808243,0.0892801359295845,-0.013596576638519764,0.010934863239526749,0.014200909994542599,0.024551155045628548
1.734,-0.011038980446755886,0.08953667432069778,-0.014901782386004925,0.010822800919413567,0.014682895503938198,0.024628423154354095
1.736,-0.012054209597408772,0.08975125104188919,-0.016224391758441925,0.010728973895311356,0.01508361380547285,0.024741988629102707
1.738,-0.013240554369986057,0.08991719037294388,-0.017526298761367798,0.010643791407346725,0.015379250980913639,0.02488943748176098
1.74,-0.014524362049996853,0.08998394757509232,-0.018782205879688263,0.010556265711784363,0.015552635304629803,0.02507045306265354
1.742,-0.0158175490796566,0.09000492841005325,-0.019970014691352844,0.010454404167830944,0.015588975511491299,0.025277042761445045
1.744,-0.017185363918542862,0.09000492841005325,-0.021115798503160477,0.010331475175917149,0.015471385791897774,0.025488080456852913
1.746,-0.018617909401655197,0.09000969678163528,-0.022209348157048225,0.010179542005062103,0.015186412259936333,0.025684459134936333
1.748,-0.020069722086191177,0.08999062329530716,-0.023205840960144997,0.00999065674841404,0.014730836264789104,0.02585729956626892
1.75,-0.021435387432575226,0.08990288525819778,-0.024081042036414146,0.009767541661858559,0.014104468747973442,0.02599327079951763
1.752,-0.022678926587104797,0.08977890759706497,-0.024824829772114754,0.009514987468719482,0.01331443339586258,0.026079365983605385
1.754,-0.023831963539123535,0.0895996168255806,-0.025404084473848343,0.009236766025424004,0.012372838333249092,0.026110395789146423
1.756,-0.02485223114490509,0.08937264233827591,-0.025803016498684883,0.00894251000136137,0.011295720003545284,0.026086213067173958
1.758,-0.025722552090883255,0.08908844739198685,-0.025970356538891792,0.008641351945698261,0.010100976563990116,0.026017412543296814
1.76,-0.02638394758105278,0.08875752240419388,-0.02598952315747738,0.008335617370903492,0.008802792988717556,0.025916459038853645
1.762,-0.026862870901823044,0.08834172040224075,-0.025815503671765327,0.00802567321807146,0.007415276952087879,0.025799093768000603
1.764,-0.027113793417811394,0.0878295972943306,-0.025415297597646713,0.007710394449532032,0.005962324794381857,0.02568884938955307
1.766,-0.02712738886475563,0.08726311475038528,-0.024802638217806816,0.0073845963925123215,0.0044612339697778225,0.025596005842089653
1.768,-0.026920069009065628,0.0866556242108345,-0.023896994069218636,0.007040900178253651,0.0029262076131999493,0.025528782978653908
1.77,-0.026507804170250893,0.08592701703310013,-0.022804398089647293,0.0066773006692528725,0.0013809301890432835,0.025498513132333755
1.772,-0.025873007252812386,0.08508969098329544,-0.021527446806430817,0.006298101507127285,-0.00014317512977868319,0.025508567690849304
1.774,-0.0250056404620409,0.08420086652040482,-0.020063035190105438,0.005900938995182514,-0.0016172813484445214,0.025560084730386734
1.776,-0.023958804085850716,0.08325577527284622,-0.018412962555885315,0.005491982214152813,-0.003008703701198101,0.02565503865480423
1.778,-0.022752385586500168,0.08227062970399857,-0.016597721725702286,0.005091964267194271,-0.004285226110368967,0.02578614093363285
1.78,-0.02139187604188919,0.08121300488710403,-0.01467104535549879,0.004715475253760815,-0.005419256631284952,0.025942441076040268
1.782,-0.019917331635951996,0.08014488965272903,-0.012612706981599331,0.004377111792564392,-0.006394665688276291,0.026117809116840363
1.784,-0.018336301669478416,0.0790252760052681,-0.010449409484863281,0.004101734608411789,-0.00720159150660038,0.026308421045541763
1.786,-0.016635704785585403,0.07787895947694778,-0.008195843547582626,0.003902229480445385,-0.00783496256917715,0.02650548331439495
1.788,-0.014838718809187412,0.07674980908632278,-0.005908203311264515,0.0037779714912176132,-0.0083007225766778,0.026702867820858955
1.79,-0.013039642944931984,0.07560539990663528,-0.003591719316318631,0.003728526644408703,-0.00861010979861021,0.02689955197274685
1.792,-0.011227687820792198,0.07447624951601028,-0.0012840083800256252,0.003750366158783436,-0.008783183060586452,0.027089500799775124
1.794,-0.00935838371515274,0.0733642652630806,0.001034145592711866,0.0038321111351251602,-0.008844819851219654,0.027264922857284546
1.796,-0.007519688457250595,0.07226944714784622,0.0033333785831928253,0.00396411307156086,-0.008813745342195034,0.02743665687739849
1.798,-0.005743655376136303,0.0711832121014595,0.0056043812073767185,0.004128843545913696,-0.00871121697127819,0.027613868936896324
1.8,-0.003995129838585854,0.07012177258729935,0.0078056575730443,0.004305138252675533,-0.008560228161513805,0.027794774621725082
1.802,-0.0022999681532382965,0.06912422925233841,0.009910695254802704,0.0044851601123809814,-0.008376671932637691,0.027979057282209396
