Time [s],Acc_x [m/s^2],Acc_y [m/s^2],Acc_z [m/s^2],Gyro_x [1/s],Gyro_y [1/s],Gyro_z [1/s]
0.0,0.07232742011547089,0.10168840736150742,0.12415048480033875,-0.01372990757226944,-0.013416728004813194,0.0012236337643116713
0.002,0.072826087474823,0.10203173011541367,0.12425066530704498,-0.01372629962861538,-0.013189827091991901,0.0012118795420974493
0.004,0.0733637586236,0.10238458961248398,0.12431435286998749,-0.013724852353334427,-0.01294651348143816,0.0012160398764535785
0.006,0.07391723245382309,0.10273077338933945,0.12438898533582687,-0.013720951043069363,-0.01267863716930151,0.0012282467214390635
0.008,0.07445666193962097,0.10312368720769882,0.12449344992637634,-0.013714662753045559,-0.012395770289003849,0.001256100251339376
0.01,0.07496339827775955,0.10353567451238632,0.12449386715888977,-0.013705217279493809,-0.012104888446629047,0.0013023065403103828
0.012,0.07550042122602463,0.10395624488592148,0.12449594587087631,-0.013693317770957947,-0.0118106072768569,0.0013647740706801414
0.014,0.07612872123718262,0.10441019386053085,0.12446654587984085,-0.01368956919759512,-0.011519218795001507,0.001450452022254467
0.016,0.07668899744749069,0.10492803901433945,0.124400794506073,-0.01368801575154066,-0.011237392202019691,0.0015553534030914307
0.018,0.07726632058620453,0.10546400398015976,0.1242922767996788,-0.01369207538664341,-0.01097225770354271,0.0016722610453143716
0.02,0.0778622254729271,0.1060199961066246,0.12415139377117157,-0.013705176301300526,-0.010728282853960991,0.0018018960254266858
0.022,0.07845648378133774,0.10658171027898788,0.12399273365736008,-0.01373310200870037,-0.01051328144967556,0.0019414654234424233
0.024,0.0790557861328125,0.10719206184148788,0.12377791851758957,-0.01377763319760561,-0.010328758507966995,0.002088049193844199
0.026,0.07972182333469391,0.10783388465642929,0.12356063723564148,-0.013837168924510479,-0.01017330028116703,0.0022380028385668993
0.028,0.08041754364967346,0.10851766914129257,0.12330044060945511,-0.013906063511967659,-0.010033165104687214,0.002387704560533166
0.03,0.08106058090925217,0.10922052711248398,0.12295661866664886,-0.013981008902192116,-0.009912027046084404,0.0025368791539222
0.032,0.08174693584442139,0.10995008796453476,0.12263772636651993,-0.014052895829081535,-0.009803302586078644,0.0026812406722456217
0.034,0.08242189884185791,0.11073019355535507,0.12230121344327927,-0.014115559868514538,-0.009697082452476025,0.0028152691666036844
0.036,0.08309676498174667,0.11152460426092148,0.1219039112329483,-0.01415260136127472,-0.00957865547388792,0.0029372854623943567
0.038,0.08378169685602188,0.11231710761785507,0.12147335708141327,-0.014158574864268303,-0.009441562928259373,0.003039053874090314
0.04,0.0844266414642334,0.1131458505988121,0.12104693055152893,-0.01412773784250021,-0.00928704533725977,0.0031226074788719416
0.042,0.0850912556052208,0.11402513831853867,0.12061648070812225,-0.014063829556107521,-0.009115432389080524,0.0031811927910894156
0.044,0.08577105402946472,0.11491777747869492,0.1201723963022232,-0.013975648209452629,-0.008932595141232014,0.0032214720267802477
0.046,0.08645716309547424,0.1158304363489151,0.1197337657213211,-0.013872376643121243,-0.00873992033302784,0.003245434258133173
0.048,0.08710313588380814,0.11676885187625885,0.11929978430271149,-0.013758388347923756,-0.008545853197574615,0.003255604300647974
0.05,0.08771362155675888,0.11772920191287994,0.11888987571001053,-0.013637090101838112,-0.008345100097358227,0.003258803393691778
0.052,0.08832626044750214,0.11870576441287994,0.11852315068244934,-0.013525946997106075,-0.008138584904372692,0.003260617144405842
0.054,0.08897023648023605,0.1196594387292862,0.11822671443223953,-0.013426154851913452,-0.007930115796625614,0.003262860234826803
0.056,0.08959093689918518,0.12067987024784088,0.11799705028533936,-0.01333012618124485,-0.007719986606389284,0.0032714311964809895
0.058,0.09017772227525711,0.12165261805057526,0.11782817542552948,-0.013238497078418732,-0.007501280400902033,0.0032899067737162113
0.06,0.0907706469297409,0.12264253199100494,0.11777250468730927,-0.013151710852980614,-0.007271523121744394,0.0033241952769458294
0.062,0.09131702780723572,0.12355805933475494,0.1177520826458931,-0.01306486502289772,-0.007015556562691927,0.003366985823959112
0.064,0.09180118143558502,0.12444879114627838,0.11782599240541458,-0.012975933030247688,-0.006722838617861271,0.003413683967664838
0.066,0.09225767850875854,0.12536050379276276,0.11804383993148804,-0.012879149988293648,-0.006387871224433184,0.003468994749709964
0.068,0.09263190627098083,0.12613584101200104,0.11830881237983704,-0.012767230160534382,-0.006008038762956858,0.003518764628097415
0.07,0.09297817945480347,0.1269083172082901,0.11876577138900757,-0.012648675590753555,-0.005585880018770695,0.003564176382496953
0.072,0.0933295488357544,0.1276102215051651,0.1193385049700737,-0.012525922618806362,-0.005118769593536854,0.0036077082622796297
0.074,0.09360438585281372,0.1281910091638565,0.12003426253795624,-0.012398231774568558,-0.004609060473740101,0.003638081718236208
0.076,0.09377267211675644,0.12871743738651276,0.12085501849651337,-0.012268331833183765,-0.004059548489749432,0.0036546443589031696
0.078,0.0939091295003891,0.1291971355676651,0.12178729474544525,-0.01214524731040001,-0.003477219957858324,0.003655200358480215
0.08,0.09393321722745895,0.12955380976200104,0.12288592010736465,-0.01202896423637867,-0.0028704486321657896,0.0036374356132000685
0.082,0.09384679794311523,0.1297636181116104,0.12408436834812164,-0.011925896629691124,-0.00224571512080729,0.0036040053237229586
0.084,0.09370410442352295,0.12989427149295807,0.12544354796409607,-0.011842494830489159,-0.0016165244160220027,0.00355153507553041
0.086,0.09332574903964996,0.12996388971805573,0.1268661767244339,-0.011781316250562668,-0.0009840421844273806,0.0034882084000855684
0.088,0.09281878173351288,0.1299286037683487,0.12846145033836365,-0.01174032874405384,-0.00036180129973217845,0.0034179002977907658
0.09,0.09219251573085785,0.1297912746667862,0.13015879690647125,-0.011725114658474922,0.00023343726934399456,0.0033486103639006615
0.092,0.09141094237565994,0.12962152063846588,0.13194622099399567,-0.011733103543519974,0.0007937454502098262,0.0032821139320731163
0.094,0.09058797359466553,0.1294088512659073,0.133909210562706,-0.011763345450162888,0.0013106102123856544,0.0032207246404141188
0.096,0.08963489532470703,0.12910176813602448,0.1359834223985672,-0.011804075911641121,0.0017683823825791478,0.003184214001521468
0.098,0.08848536759614944,0.12882710993289948,0.13816237449645996,-0.011845067143440247,0.00215554260648787,0.003186694113537669
0.1,0.08718138188123703,0.12849904596805573,0.14047850668430328,-0.011869672685861588,0.002456868067383766,0.0032388807740062475
0.102,0.08574925363063812,0.12806417047977448,0.14285171031951904,-0.011879163794219494,0.0026653206441551447,0.003349509323015809
0.104,0.08421958982944489,0.12761785089969635,0.14533385634422302,-0.011865336447954178,0.0027763433754444122,0.0035198742989450693
0.106,0.08264347910881042,0.1271228939294815,0.14792878925800323,-0.011807926930487156,0.0027902962174266577,0.0037453409750014544
0.108,0.08097459375858307,0.12663079798221588,0.15055079758167267,-0.011711271479725838,0.0027164060156792402,0.004019270651042461
0.11,0.07925581187009811,0.12619592249393463,0.15322211384773254,-0.011571468785405159,0.002559907967224717,0.004330861382186413
0.112,0.07754023373126984,0.12570956349372864,0.155916228890419,-0.01139434427022934,0.0023273599799722433,0.004670111928135157
0.114,0.07575437426567078,0.1252289116382599,0.15859465301036835,-0.011179616674780846,0.0020236046984791756,0.005020208191126585
0.116,0.07396949082612991,0.12473776191473007,0.16123925149440765,-0.010933320969343185,0.001649345736950636,0.0053626797161996365
0.118,0.07220052182674408,0.1241932138800621,0.16380564868450165,-0.010660265572369099,0.0012071061646565795,0.005686864256858826
0.12,0.07047314196825027,0.12362387031316757,0.1663736253976822,-0.010367240756750107,0.0006984899519011378,0.005975605454295874
0.122,0.06882451474666595,0.12303068488836288,0.16887842118740082,-0.010062264278531075,0.00011883999104611576,0.006224600598216057
0.124,0.06718915700912476,0.12240221351385117,0.17127947509288788,-0.009756328538060188,-0.0005352532025426626,0.006430761888623238
0.126,0.065729521214962,0.12176802009344101,0.17356353998184204,-0.009450634941458702,-0.0012702266685664654,0.0065932441502809525
0.128,0.06435851752758026,0.12111952155828476,0.1757229119539261,-0.009152565151453018,-0.0020900226663798094,0.006719706580042839
0.13,0.06313067674636841,0.12046720832586288,0.1777629554271698,-0.008866488002240658,-0.0029885536059737206,0.006812081206589937
0.132,0.06201668456196785,0.11981584876775742,0.17970021069049835,-0.008593782782554626,-0.003969776909798384,0.006876269355416298
0.134,0.06106610596179962,0.1191892921924591,0.18149887025356293,-0.008343427442014217,-0.005019087810069323,0.006921032443642616
0.136,0.06023334711790085,0.11855700612068176,0.18308737874031067,-0.008112143725156784,-0.006123746279627085,0.006944903638213873
0.138,0.059599004685878754,0.1179228127002716,0.18456150591373444,-0.007896173745393753,-0.007268328685313463,0.006949892733246088
0.14,0.05923622101545334,0.11731436848640442,0.18593092262744904,-0.007699487265199423,-0.008438711054623127,0.006930236704647541
0.142,0.05902060121297836,0.1167764961719513,0.18705867230892181,-0.007515935227274895,-0.009610379114747047,0.006881594657897949
0.144,0.05895397812128067,0.11619570851325989,0.18799085915088654,-0.007347228936851025,-0.010766745544970036,0.0067956652492284775
0.146,0.059102848172187805,0.11567309498786926,0.18882283568382263,-0.007188133429735899,-0.011892634443938732,0.006667010951787233
0.148,0.059425875544548035,0.11524012684822083,0.1895139068365097,-0.007042665965855122,-0.012964566238224506,0.006487998645752668
0.15,0.05988066643476486,0.11480525135993958,0.19001568853855133,-0.00692028971388936,-0.01396256685256958,0.006254681386053562
0.152,0.060438379645347595,0.1143522560596466,0.1903858333826065,-0.006828734185546637,-0.014868640340864658,0.005964786279946566
0.154,0.06108049303293228,0.11390307545661926,0.1905800700187683,-0.006780649535357952,-0.015663951635360718,0.005629141815006733
0.156,0.061856918036937714,0.11347582936286926,0.19062954187393188,-0.006782423704862595,-0.016341915354132652,0.005264610983431339
0.158,0.06280362606048584,0.11309054493904114,0.19058836996555328,-0.006842006463557482,-0.016898155212402344,0.0048886449076235294
0.16,0.0638137236237526,0.1127491295337677,0.19036398828029633,-0.0069684530608356,-0.017321866005659103,0.004515363834798336
0.162,0.0648026317358017,0.1123686134815216,0.19000497460365295,-0.0071602268144488335,-0.017616504803299904,0.004159216769039631
0.164,0.06580200046300888,0.1120319664478302,0.1894887238740921,-0.007420290261507034,-0.017789475619792938,0.0038279127329587936
0.166,0.06682474911212921,0.1116342842578888,0.18882934749126434,-0.007742157205939293,-0.017842397093772888,0.003529861569404602
0.168,0.06785784661769867,0.11127284169197083,0.1880602091550827,-0.008116216398775578,-0.01778244413435459,0.00327748223207891
0.17,0.0688183456659317,0.11086180061101913,0.18718892335891724,-0.008537143468856812,-0.017622366547584534,0.0030753626488149166
0.172,0.06974472105503082,0.11048223823308945,0.18622195720672607,-0.008991938084363937,-0.01738228090107441,0.002921281149610877
0.174,0.07063888013362885,0.11006738990545273,0.18513047695159912,-0.009471640922129154,-0.017080435529351234,0.002819233341142535
0.176,0.07142670452594757,0.10966207832098007,0.1839529424905777,-0.009964613243937492,-0.016731785610318184,0.0027753037866204977
0.178,0.07218620181083679,0.10929586738348007,0.18270818889141083,-0.010464975610375404,-0.016360213980078697,0.002785685006529093
0.18,0.0728168860077858,0.10892774909734726,0.18128937482833862,-0.010974748991429806,-0.015983974561095238,0.0028480710461735725
0.182,0.07336077839136124,0.10859491676092148,0.17976035177707672,-0.01148614939302206,-0.015618444420397282,0.0029580523259937763
0.184,0.07383419573307037,0.1083078607916832,0.1781887710094452,-0.012001649476587772,-0.015284127555787563,0.0031147347763180733
0.186,0.07425536215305328,0.10799028724431992,0.1765640527009964,-0.01252209022641182,-0.01498214527964592,0.0033184695057570934
0.188,0.07452770322561264,0.1077127680182457,0.17485733330249786,-0.013040020130574703,-0.014721942134201527,0.00355620589107275
0.19,0.07473093271255493,0.10752012580633163,0.17306169867515564,-0.013548711314797401,-0.014504712074995041,0.003821295453235507
0.192,0.07484637200832367,0.10735227912664413,0.1711718589067459,-0.014044856652617455,-0.014323417097330093,0.004100887104868889
0.194,0.07492244243621826,0.10719110816717148,0.16920001804828644,-0.014517353847622871,-0.01417529582977295,0.0043895915150642395
0.196,0.07497358322143555,0.10703375190496445,0.167207732796669,-0.014960484579205513,-0.014046764001250267,0.00467577064409852
0.198,0.07491827011108398,0.10696890205144882,0.1650821566581726,-0.01535932905972004,-0.013924081809818745,0.004945877939462662
0.2,0.07472845911979675,0.10695841163396835,0.1628832370042801,-0.01570546254515648,-0.013800814747810364,0.0051934984512627125
0.202,0.0744347795844078,0.10693170875310898,0.1606328934431076,-0.015993965789675713,-0.013673118315637112,0.005406270269304514
0.204,0.07394227385520935,0.10687830299139023,0.1582028716802597,-0.01622108183801174,-0.01352603081613779,0.005572445224970579
0.206,0.07328934967517853,0.10690214484930038,0.155662402510643,-0.016377050429582596,-0.013345072977244854,0.005698297638446093
0.208,0.07256326079368591,0.10689260810613632,0.1531030237674713,-0.016461389139294624,-0.013120489194989204,0.005781839601695538
0.21,0.07169724255800247,0.10690977424383163,0.15051265060901642,-0.01647794432938099,-0.012835705652832985,0.005827869288623333
0.212,0.0707058534026146,0.10697271674871445,0.14788760244846344,-0.016431698575615883,-0.012475037947297096,0.0058493358083069324
0.214,0.06962665170431137,0.10698320716619492,0.1452709585428238,-0.016324631869792938,-0.01203104667365551,0.005853773560374975
0.216,0.06840801239013672,0.10697176307439804,0.14261385798454285,-0.01616114005446434,-0.011493398807942867,0.005847043823450804
0.218,0.06703169643878937,0.10689833015203476,0.13998891413211823,-0.015939990058541298,-0.010856729000806808,0.005841126665472984
0.22,0.06546804308891296,0.10672285407781601,0.13742226362228394,-0.01566639170050621,-0.010132068768143654,0.005829168949276209
0.222,0.06378166377544403,0.10653498023748398,0.1349761039018631,-0.015350155532360077,-0.00933080818504095,0.005808933638036251
0.224,0.06205872818827629,0.10632040351629257,0.1325925886631012,-0.01498950831592083,-0.008465501479804516,0.005778058897703886
0.226,0.06027086824178696,0.10606958717107773,0.13034166395664215,-0.014596013352274895,-0.007557389326393604,0.005723483394831419
0.228,0.058475662022829056,0.10581114143133163,0.12827444076538086,-0.014176726341247559,-0.006630039773881435,0.005631919018924236
0.23,0.05670050531625748,0.10553266853094101,0.126372292637825,-0.013735683634877205,-0.005708072334527969,0.005485254339873791
0.232,0.0549343004822731,0.10523512214422226,0.12463150918483734,-0.013275118544697762,-0.004811115562915802,0.00527179567143321
0.234,0.05329892411828041,0.10499098151922226,0.12316152453422546,-0.012799459509551525,-0.003968637436628342,0.004981780890375376
0.236,0.05182157829403877,0.10476305335760117,0.12193392217159271,-0.012315796688199043,-0.0031999386847019196,0.00460803834721446
0.238,0.05056367814540863,0.10462477058172226,0.12100094556808472,-0.011812612414360046,-0.0025169511791318655,0.004146256949752569
0.24,0.04944061115384102,0.1045999750494957,0.12028160691261292,-0.01128590852022171,-0.001938055269420147,0.0035892075393348932
0.242,0.04858654737472534,0.10470964759588242,0.11976093053817749,-0.010734930634498596,-0.0014727090019732714,0.0029468468856066465
0.244,0.047994278371334076,0.10493185371160507,0.11952422559261322,-0.010153744369745255,-0.0011229717638343573,0.002225735457614064
0.246,0.047695379704236984,0.10535242408514023,0.1195029467344284,-0.009531707502901554,-0.0008900315151549876,0.0014356918400153518
0.248,0.047646187245845795,0.10595705360174179,0.11970318853855133,-0.008867111057043076,-0.0007653937791474164,0.000582298613153398
0.25,0.0478995144367218,0.10676481574773788,0.12010016292333603,-0.00816107727587223,-0.0007388064987026155,-0.0003168767725583166
0.252,0.048456087708473206,0.10776617377996445,0.12069450318813324,-0.0074213710613548756,-0.0007983227260410786,-0.0012398393591865897
0.254,0.049350932240486145,0.1090564951300621,0.12146656960248947,-0.006658101454377174,-0.0009168194374069571,-0.0021724423859268427
0.256,0.05046195536851883,0.11050321906805038,0.12237377464771271,-0.005881203804165125,-0.00106706318911165,-0.003090694546699524
0.258,0.05180028825998306,0.11211016029119492,0.12337277829647064,-0.00510511314496398,-0.0012279978254809976,-0.00397153478115797
0.26,0.05337565764784813,0.11391546577215195,0.12450017035007477,-0.004350850358605385,-0.0013752859085798264,-0.004796306602656841
0.262,0.055112116038799286,0.11585714668035507,0.1256653368473053,-0.003633436979725957,-0.0014793160371482372,-0.00554411206394434
0.264,0.05696167051792145,0.11791040748357773,0.1269286721944809,-0.002963851671665907,-0.0015169447287917137,-0.006197786889970303
0.266,0.058772388845682144,0.11996843665838242,0.12819555401802063,-0.002361732069402933,-0.0014709641691297293,-0.00673964899033308
0.268,0.06053043156862259,0.12194349616765976,0.12941832840442657,-0.001850728876888752,-0.0013253737706691027,-0.007146485149860382
0.27,0.06229741498827934,0.12378790229558945,0.1307077556848526,-0.0014430468436330557,-0.001071820268407464,-0.007401050068438053
0.272,0.06398531794548035,0.12551023066043854,0.13192002475261688,-0.001161650987342,-0.0007125286501832306,-0.007495073601603508
0.274,0.06550133973360062,0.1270008236169815,0.13306233286857605,-0.001017251517623663,-0.000252463185461238,-0.007419398985803127
0.276,0.06687971204519272,0.12824536859989166,0.1341821551322937,-0.0010222443379461765,0.0002899644314311445,-0.007169723976403475
0.278,0.06806518137454987,0.12914849817752838,0.13523361086845398,-0.0011867887806147337,0.0008911555050872266,-0.006747405976057053
0.28,0.06903405487537384,0.12968255579471588,0.13618814945220947,-0.0015077046118676662,0.001532912254333496,-0.006164660677313805
0.282,0.06972917169332504,0.12978650629520416,0.13702121376991272,-0.0019795256666839123,0.0021854154765605927,-0.00544333690777421
0.284,0.07017115503549576,0.12942124903202057,0.13774092495441437,-0.002589586190879345,0.002827924443408847,-0.00460353959351778
0.286,0.07042159140110016,0.1285886913537979,0.13837970793247223,-0.0033183302730321884,0.003442206885665655,-0.0036730070132762194
0.288,0.07042757421731949,0.12729360163211823,0.13896101713180542,-0.004132802598178387,0.004015358164906502,-0.002687138505280018
0.29,0.07024140655994415,0.12553216516971588,0.13946671783924103,-0.004996633622795343,0.004536046646535397,-0.0016801718156784773
0.292,0.06991451978683472,0.12330915778875351,0.1399398297071457,-0.005874175112694502,0.004993146285414696,-0.0006913013057783246
0.294,0.06949716806411743,0.12067701667547226,0.14033879339694977,-0.006720243953168392,0.0053821830078959465,0.00024932174710556865
0.296,0.06898614764213562,0.11768629401922226,0.14067111909389496,-0.0074937776662409306,0.005701602902263403,0.0011127232573926449
0.298,0.0684501975774765,0.11431505531072617,0.14101862907409668,-0.008160991594195366,0.0059492276050150394,0.0018737290520220995
0.3,0.06794097274541855,0.1106281504034996,0.14139845967292786,-0.008695211261510849,0.006121322978287935,0.0025164205580949783
0.302,0.06755427271127701,0.10670282691717148,0.1418510228395462,-0.0090745585039258,0.006217099726200104,0.0030228483956307173
0.304,0.0672704428434372,0.10260679572820663,0.14236074686050415,-0.009279881604015827,0.0062384651973843575,0.003380235517397523
0.306,0.06719443202018738,0.09841348975896835,0.1429707258939743,-0.009298188611865044,0.00618984829634428,0.003579534590244293
0.308,0.06737333536148071,0.09412577003240585,0.14373411238193512,-0.009124958887696266,0.0060636913403868675,0.003615341382101178
0.31,0.06783577799797058,0.0897998958826065,0.14459314942359924,-0.008758830837905407,0.0058570667169988155,0.003479043021798134
0.312,0.0686320886015892,0.08554555475711823,0.14557994902133942,-0.00820375420153141,0.005572577938437462,0.0031672080513089895
0.314,0.06980903446674347,0.08139707148075104,0.14674200117588043,-0.007471557706594467,0.00520754000172019,0.002675336319953203
0.316,0.07142817974090576,0.07741834223270416,0.1480715274810791,-0.006577897816896439,0.004755568690598011,0.0020023963879793882
0.318,0.07339731603860855,0.07369329035282135,0.14949776232242584,-0.005541529040783644,0.00421437993645668,0.0011550439521670341
0.32,0.07581256330013275,0.0702362209558487,0.151051864027977,-0.004385263659060001,0.0035881141666322947,0.00014509302855003625
0.322,0.07864350080490112,0.06707288324832916,0.1526971012353897,-0.0031300897244364023,0.0028817648999392986,-0.0010154863120988011
0.324,0.08179717510938644,0.0642547756433487,0.15439055860042572,-0.0018136391881853342,0.0021078826393932104,-0.0023067682050168514
0.326,0.08535836637020111,0.06181718409061432,0.15614359080791473,-0.00046709657181054354,0.0012751860776916146,-0.0036990446969866753
0.328,0.0893264189362526,0.05977250635623932,0.157963365316391,0.0008846421260386705,0.00039376813219860196,-0.0051582870073616505
0.33,0.09369415044784546,0.05813504755496979,0.15976808965206146,0.0022179773077368736,-0.0005139494314789772,-0.006656775251030922
0.332,0.0983785092830658,0.05690385401248932,0.16155344247817993,0.003506983630359173,-0.0014249098021537066,-0.008156917989253998
0.334,0.1033235639333725,0.056080833077430725,0.163366436958313,0.004729754291474819,-0.0023148059844970703,-0.009615661576390266
0.336,0.10849069058895111,0.055656448006629944,0.1650616079568863,0.0058705369010567665,-0.003155732061713934,-0.01100406888872385
0.338,0.11381470412015915,0.05557920038700104,0.16663862764835358,0.006905348971486092,-0.003921798896044493,-0.012296064756810665
0.34,0.1192467138171196,0.05587674304842949,0.16809865832328796,0.0078205531463027,-0.004581941291689873,-0.013462712056934834
0.342,0.12472659349441528,0.056521426886320114,0.16945822536945343,0.008595259860157967,-0.005104304291307926,-0.014472550712525845
0.344,0.13018442690372467,0.057449351996183395,0.17066632211208344,0.009211791679263115,-0.005461435299366713,-0.015299762599170208
0.346,0.13555464148521423,0.05865288898348808,0.17173480987548828,0.009661924093961716,-0.005615219008177519,-0.015925733372569084
0.348,0.1407991200685501,0.0600595586001873,0.17262157797813416,0.00993421208113432,-0.005534232594072819,-0.016340333968400955
0.35,0.14588883519172668,0.06167222186923027,0.17337414622306824,0.010025644674897194,-0.0052041769959032536,-0.01653868705034256
0.352,0.15073829889297485,0.06340885907411575,0.17400158941745758,0.009939255192875862,-0.004601447377353907,-0.016522252932190895
0.354,0.15523365139961243,0.06526661664247513,0.1744738221168518,0.009685082361102104,-0.0037140371277928352,-0.01630283147096634
0.356,0.15934938192367554,0.06723309308290482,0.1748509258031845,0.009275365620851517,-0.0025487523525953293,-0.015889866277575493
0.358,0.16308261454105377,0.0692596510052681,0.17508012056350708,0.008724031038582325,-0.0011145196622237563,-0.015304767526686192
0.36,0.16631504893302917,0.07128811627626419,0.17521825432777405,0.008049349300563335,0.0005790097056888044,-0.014574197120964527
0.362,0.16901202499866486,0.07325363904237747,0.17526604235172272,0.007268017157912254,0.0025135905016213655,-0.013720162212848663
0.364,0.1710883527994156,0.07514477521181107,0.17521260678768158,0.006394762545824051,0.00466442946344614,-0.012759811244904995
0.366,0.1725577563047409,0.07697106152772903,0.17506547272205353,0.005446520633995533,0.006999356206506491,-0.011724567972123623
0.368,0.17340975999832153,0.07869244366884232,0.17493422329425812,0.0044340090826153755,0.009482001885771751,-0.010638592764735222
0.37,0.17360302805900574,0.08028221875429153,0.174785315990448,0.0033752922900021076,0.012079986743628979,-0.009527209214866161
0.372,0.1731438785791397,0.08179665356874466,0.1746697574853897,0.0022839047014713287,0.014756320044398308,-0.008414744399487972
0.374,0.1720087081193924,0.08320904523134232,0.17455217242240906,0.0011765665840357542,0.017470285296440125,-0.0073269568383693695
0.376,0.17023257911205292,0.08447075635194778,0.17447516322135925,7.127411663532257e-05,0.020181797444820404,-0.006285530980676413
0.378,0.16782036423683167,0.08565235882997513,0.1744743138551712,-0.001007614890113473,0.02285534329712391,-0.005306121427565813
0.38,0.16476862132549286,0.08674813061952591,0.1744825541973114,-0.0020367831457406282,0.02546471171081066,-0.004408800974488258
0.382,0.1611631214618683,0.08777905255556107,0.1745813637971878,-0.002999046817421913,0.027979064732789993,-0.003609664971008897
0.384,0.15701842308044434,0.08874035626649857,0.1747506558895111,-0.003869613166898489,0.030369605869054794,-0.002909572096541524
0.386,0.15234903991222382,0.08967018872499466,0.17498217523097992,-0.004633180797100067,0.03260841593146324,-0.002312469994649291
0.388,0.14724785089492798,0.09058763086795807,0.17526903748512268,-0.0052834381349384785,0.03466710448265076,-0.0018233724404126406
0.39,0.14180763065814972,0.09155084192752838,0.1756257861852646,-0.005808989517390728,0.03653225675225258,-0.001436342136003077
0.392,0.13611023128032684,0.0926075130701065,0.17605209350585938,-0.006197743117809296,0.038185734301805496,-0.0011451117461547256
0.394,0.13019683957099915,0.09370233118534088,0.17653143405914307,-0.006449825130403042,0.03960823640227318,-0.0009449447388760746
0.396,0.12412634491920471,0.09485723823308945,0.17706258594989777,-0.0065642246045172215,0.04079331457614899,-0.0008271941915154457
0.398,0.11800205707550049,0.09610845893621445,0.17760998010635376,-0.006548913195729256,0.04174158349633217,-0.0007806524517945945
0.4,0.11186465620994568,0.09744169563055038,0.17818333208560944,-0.0064089493826031685,0.04244205355644226,-0.0007886591483838856
0.402,0.10576540231704712,0.09893038123846054,0.17871753871440887,-0.006144972518086433,0.04289540648460388,-0.0008331108838319778
0.404,0.09980019181966782,0.10059072822332382,0.17922340333461761,-0.005766426213085651,0.04311726242303848,-0.0009025833569467068
0.406,0.09406819194555283,0.10237600654363632,0.17976821959018707,-0.0052815149538218975,0.04311491549015045,-0.0009862382430583239
0.408,0.0886007770895958,0.10429670661687851,0.18030792474746704,-0.00470149889588356,0.042903169989585876,-0.0010751747759059072
0.41,0.08341652154922485,0.10636617988348007,0.18082548677921295,-0.004040208645164967,0.04249729961156845,-0.0011554809752851725
0.412,0.0785745233297348,0.10854723304510117,0.18134751915931702,-0.0033122950699180365,0.04191388934850693,-0.0012158259050920606
0.414,0.07415111362934113,0.11085226386785507,0.18190228939056396,-0.0025358926504850388,0.04117191210389137,-0.0012492334935814142
0.416,0.0701059103012085,0.11328985542058945,0.18245086073875427,-0.0017276400467380881,0.04029136896133423,-0.0012512407265603542
0.418,0.06645363569259644,0.1158008798956871,0.18301892280578613,-0.0009040602017194033,0.03929465264081955,-0.001223566010594368
0.42,0.06324958801269531,0.11839678883552551,0.18368084728717804,-8.055259240791202e-05,0.03821209445595741,-0.0011585935717448592
0.422,0.060438722372055054,0.12106040120124817,0.18439404666423798,0.0007317309500649571,0.037079818546772,-0.0010547585552558303
0.424,0.05801831930875778,0.12374880909919739,0.18517006933689117,0.0015187517274171114,0.03592982888221741,-0.000925583706703037
0.426,0.055998168885707855,0.12643054127693176,0.1860215812921524,0.0022741095162928104,0.03479867801070213,-0.0007803226471878588
0.428,0.05436907708644867,0.12908366322517395,0.18696127831935883,0.0029876073822379112,0.03372344747185707,-0.0006224586977623403
0.43,0.053095169365406036,0.13170722126960754,0.18794311583042145,0.0036506487522274256,0.0327373743057251,-0.0004641799605451524
0.432,0.05213356018066406,0.13425830006599426,0.18902359902858734,0.004260305780917406,0.031872086226940155,-0.000320494087645784
0.434,0.051463641226291656,0.13674834370613098,0.19023451209068298,0.004806343000382185,0.031154029071331024,-0.00019693562353495508
0.436,0.05100117623806,0.13909438252449036,0.19156600534915924,0.00528651662170887,0.03060261532664299,-0.00010109654249390587
0.438,0.0507349893450737,0.14129355549812317,0.19297674298286438,0.0056957160122692585,0.03022453375160694,-4.3170883145648986e-05
0.44,0.050585389137268066,0.14332392811775208,0.1944877952337265,0.00603399146348238,0.030029170215129852,-2.3724889615550637e-05
0.442,0.05056602507829666,0.14518454670906067,0.19613249599933624,0.006300699897110462,0.030021365731954575,-3.565187216736376e-05
0.444,0.050698138773441315,0.14687445759773254,0.19790150225162506,0.006492799147963524,0.030190138146281242,-8.024823182495311e-05
0.446,0.050913333892822266,0.1483621895313263,0.1997937709093094,0.006616496481001377,0.030526500195264816,-0.00016337595297954977
0.448,0.051121823489665985,0.1496467888355255,0.20179177820682526,0.006680826656520367,0.031018106266856194,-0.0002843563270289451
0.45,0.05135420709848404,0.15072062611579895,0.20392388105392456,0.0066931541077792645,0.03164629265666008,-0.0004488133708946407
0.452,0.051656559109687805,0.15161040425300598,0.20613645017147064,0.0066689662635326385,0.03239111974835396,-0.0006599229527637362
0.454,0.0519743487238884,0.15225699543952942,0.20842771232128143,0.006611709948629141,0.0332367867231369,-0.000914745731279254
0.456,0.052287667989730835,0.15269950032234192,0.21081401407718658,0.0065281507559120655,0.034171219915151596,-0.0012160643236711621
0.458,0.0526178702712059,0.15294554829597473,0.21328561007976532,0.006432943977415562,0.03517609462141991,-0.001558899413794279
0.46,0.05295947939157486,0.15294745564460754,0.21583211421966553,0.006327254232019186,0.0362301804125309,-0.001932515879161656
0.462,0.053290270268917084,0.15277579426765442,0.21845082938671112,0.006215713452547789,0.037314239889383316,-0.0023345311637967825
0.464,0.0536813959479332,0.15240386128425598,0.2211681753396988,0.006101060658693314,0.03841646388173103,-0.0027674122247844934
0.466,0.0541376918554306,0.1518278419971466,0.2239524871110916,0.005983628332614899,0.039514292031526566,-0.003218146041035652
0.468,0.054648615419864655,0.15111735463142395,0.22676412761211395,0.00586629007011652,0.040584057569503784,-0.003677683649584651
0.47,0.055197104811668396,0.1503019630908966,0.22958074510097504,0.005749463569372892,0.04160987213253975,-0.004145204555243254
0.472,0.05583573132753372,0.149326354265213,0.23246543109416962,0.005629304330796003,0.042571090161800385,-0.00461295573040843
0.474,0.05660366266965866,0.14818480610847473,0.23540037870407104,0.005501617677509785,0.04345041885972023,-0.005082930438220501
0.476,0.05748549848794937,0.1469421684741974,0.23835283517837524,0.0053640855476260185,0.04423854500055313,-0.00555271515622735
0.478,0.05850271135568619,0.14560607075691223,0.2412836104631424,0.005215859040617943,0.04492547735571861,-0.006003621034324169
0.48,0.05965583771467209,0.14415934681892395,0.2442142516374588,0.0050536878407001495,0.04550691321492195,-0.006436978001147509
0.482,0.06093274801969528,0.1425638496875763,0.24714180827140808,0.004880978260189295,0.04598335921764374,-0.006857969798147678
0.484,0.062380142509937286,0.1408882439136505,0.25010740756988525,0.004700837191194296,0.0463557094335556,-0.007258228026330471
0.486,0.06399016827344894,0.1392221748828888,0.25307348370552063,0.004509543534368277,0.046625200659036636,-0.0076355827040970325
0.488,0.06577552109956741,0.13751700520515442,0.2560230493545532,0.00431211618706584,0.04679496958851814,-0.007992035709321499
0.49,0.06769995391368866,0.1357889473438263,0.2589675486087799,0.004117889795452356,0.04687512293457985,-0.008328611962497234
0.492,0.06975282728672028,0.13405707478523254,0.26188135147094727,0.003934219013899565,0.04688059166073799,-0.008654965087771416
0.494,0.07195080071687698,0.13232997059822083,0.26472172141075134,0.0037675006315112114,0.04681500419974327,-0.00897685345262289
0.496,0.07430287450551987,0.13057997822761536,0.2675086557865143,0.0036249279510229826,0.046683210879564285,-0.009293882176280022
0.498,0.07675633579492569,0.12885954976081848,0.2702668011188507,0.003508324036374688,0.046496789902448654,-0.00960671715438366
0.5,0.07930675894021988,0.1271858513355255,0.27298322319984436,0.0034173603635281324,0.04626141116023064,-0.009914394468069077
0.502,0.08193276077508926,0.1255684196949005,0.2756895422935486,0.003351678606122732,0.04598404839634895,-0.010215742513537407
0.504,0.08466511964797974,0.12406352162361145,0.278335839509964,0.003313660155981779,0.04566891863942146,-0.010507207363843918
0.506,0.08747175335884094,0.12262633442878723,0.2808694839477539,0.0033020733390003443,0.045313846319913864,-0.010786728002130985
0.508,0.09028547257184982,0.12128356099128723,0.28332263231277466,0.0033150066155940294,0.0449131540954113,-0.011055906303226948
0.51,0.09311053156852722,0.12009051442146301,0.2857350707054138,0.0033487689215689898,0.04445676878094673,-0.011310245841741562
0.512,0.09596726298332214,0.11904242634773254,0.28806638717651367,0.0034039653837680817,0.04393627867102623,-0.01154313888400793
0.514,0.09878931194543839,0.11807921528816223,0.2903040945529938,0.0034870137460529804,0.04334266856312752,-0.011750912293791771
0.516,0.1015501469373703,0.11727622151374817,0.29243308305740356,0.0035958695225417614,0.04267093911767006,-0.011927306652069092
0.518,0.10428477078676224,0.11667731404304504,0.29448574781417847,0.003728086594492197,0.041916221380233765,-0.012064822018146515
0.52,0.10697176307439804,0.11626246571540833,0.29644808173179626,0.0038830358535051346,0.04107639566063881,-0.012163463979959488
0.522,0.10953840613365173,0.1160745918750763,0.29826509952545166,0.004056945443153381,0.04015301540493965,-0.01220988854765892
0.524,0.1119566410779953,0.1160602867603302,0.299957275390625,0.004244179464876652,0.03915290907025337,-0.01218744833022356
0.526,0.11426043510437012,0.1162119209766388,0.30155956745147705,0.0044411784037947655,0.03808943182229996,-0.012089111842215061
0.528,0.11640891432762146,0.11659148335456848,0.3030830919742584,0.004640994593501091,0.036969512701034546,-0.011905094608664513
0.53,0.11833056807518005,0.11721709370613098,0.3044487535953522,0.004836359992623329,0.0357990562915802,-0.011628624983131886
0.532,0.12009194493293762,0.11804583668708801,0.30569523572921753,0.005021200515329838,0.03459784388542175,-0.011250128038227558
0.534,0.12171187996864319,0.1190357506275177,0.3069192171096802,0.005194477736949921,0.03338424488902092,-0.010752251371741295
0.536,0.12310629338026047,0.1201963722705841,0.30804935097694397,0.0053490325808525085,0.032175060361623764,-0.010127498768270016
0.538,0.12424352765083313,0.12150290608406067,0.3090578317642212,0.005475885234773159,0.030988888815045357,-0.009378762915730476
0.54,0.1251520812511444,0.12290862202644348,0.310011625289917,0.00557115999981761,0.029837794601917267,-0.008506323210895061
0.542,0.12585948407649994,0.12442496418952942,0.31092292070388794,0.005623745732009411,0.028731657192111015,-0.007510064635425806
0.544,0.12636953592300415,0.12598994374275208,0.31172454357147217,0.0056207748129963875,0.027679594233632088,-0.006395647767931223
0.546,0.12671685218811035,0.12759879231452942,0.3124025762081146,0.005558593664318323,0.026683993637561798,-0.005175882484763861
0.548,0.126885324716568,0.1291837990283966,0.3129937946796417,0.005434032529592514,0.025743504986166954,-0.0038677745033055544
0.55,0.12692919373512268,0.1306944191455841,0.3135205805301666,0.0052437796257436275,0.024849938228726387,-0.00249609537422657
0.552,0.1267995834350586,0.13209441304206848,0.31388625502586365,0.004985271953046322,0.023990971967577934,-0.0010845890501514077
0.554,0.12649264931678772,0.13335707783699036,0.31407400965690613,0.004660707898437977,0.023155182600021362,0.00033943119342438877
0.556,0.12614774703979492,0.13451483845710754,0.31417790055274963,0.00428059371188283,0.022330693900585175,0.001745440997183323
0.558,0.12584494054317474,0.13553908467292786,0.314155250787735,0.0038499643560498953,0.021503744646906853,0.003109123557806015
0.56,0.1255403459072113,0.13638022541999817,0.3139675557613373,0.0033776112832129,0.02066839672625065,0.004405365791171789
0.562,0.12517568469047546,0.1369791328907013,0.3135930001735687,0.002878413535654545,0.019824590533971786,0.005611504428088665
0.564,0.12490808218717575,0.13735297322273254,0.31303876638412476,0.0023655726108700037,0.01896805129945278,0.0067096613347530365
0.566,0.12477221339941025,0.13752654194831848,0.31228354573249817,0.001847593579441309,0.018102170899510384,0.007678916212171316
0.568,0.12475528568029404,0.13751128315925598,0.3113044798374176,0.0013310471549630165,0.017238231375813484,0.008507427759468555
0.57,0.1249372810125351,0.1372833549976349,0.31010717153549194,0.000822688452899456,0.01638605259358883,0.009190989658236504
0.572,0.12529858946800232,0.1368274986743927,0.3086510896682739,0.00033135898411273956,0.015563691034913063,0.009722081944346428
0.574,0.12587186694145203,0.1361408531665802,0.30690887570381165,-0.00014356430619955063,0.014797958545386791,0.010100740939378738
0.576,0.12672832608222961,0.1352567970752716,0.3049401044845581,-0.0006115129217505455,0.014104660600423813,0.010324295610189438
0.578,0.12793231010437012,0.13416674733161926,0.30277231335639954,-0.0010779988951981068,0.013495426625013351,0.010400470346212387
0.58,0.12952329218387604,0.13284209370613098,0.30032968521118164,-0.001546038780361414,0.012988601811230183,0.010348023846745491
0.582,0.1315111517906189,0.13142207264900208,0.2976037263870239,-0.00202522287145257,0.01260571088641882,0.010182496160268784
0.584,0.1339830607175827,0.1299314796924591,0.2946416437625885,-0.0025302863214164972,0.01236604992300272,0.009920746088027954
0.586,0.1369621455669403,0.12827971577644348,0.2914181351661682,-0.0030763009563088417,0.012284579686820507,0.00957862101495266
0.588,0.14047467708587646,0.12647250294685364,0.28795987367630005,-0.0036727881524711847,0.01237221248447895,0.009174026548862457
0.59,0.14464408159255981,0.12458041310310364,0.28430449962615967,-0.004319297149777412,0.012643286027014256,0.008734293282032013
0.592,0.14953097701072693,0.12267401814460754,0.28040677309036255,-0.00501371780410409,0.013110965490341187,0.00827950518578291
0.594,0.15520338714122772,0.12070563435554504,0.2762300968170166,-0.005750482901930809,0.013789797201752663,0.007818312384188175
0.596,0.16175170242786407,0.1186838373541832,0.2718318998813629,-0.0065255057998001575,0.01469271071255207,0.0073575181886553764
0.598,0.1692383885383606,0.11668112128973007,0.2672154903411865,-0.007335578091442585,0.015821730718016624,0.006903573404997587
0.6,0.17779946327209473,0.11471941322088242,0.2623675465583801,-0.008169056847691536,0.017175517976284027,0.00645915511995554
0.602,0.18752574920654297,0.11280157417058945,0.2572423219680786,-0.009014304727315903,0.01875404082238674,0.006010239943861961
0.604,0.1985170841217041,0.11098100990056992,0.2518288791179657,-0.00986081175506115,0.02054925262928009,0.005543956067413092
0.606,0.21088892221450806,0.10937788337469101,0.2460556924343109,-0.010693256743252277,0.022543977946043015,0.005045556463301182
0.608,0.22475361824035645,0.10806562006473541,0.2398497611284256,-0.011501410976052284,0.024721866473555565,0.004494145046919584
0.61,0.24023108184337616,0.10709477961063385,0.23321367800235748,-0.012281041592359543,0.027062324807047844,0.003862384706735611
0.612,0.25744497776031494,0.106569305062294,0.22610390186309814,-0.0130279790610075,0.029550256207585335,0.003120144596323371
0.614,0.27642494440078735,0.10662366449832916,0.21849434077739716,-0.01374056190252304,0.03217808157205582,0.0022381949238479137
0.616,0.2972266972064972,0.10733319073915482,0.21035699546337128,-0.014418840408325195,0.034943584352731705,0.0011814231984317303
0.618,0.31997427344322205,0.10871506482362747,0.2016037106513977,-0.015070203691720963,0.03786245360970497,-8.62112792674452e-05
0.62,0.344714879989624,0.11080170422792435,0.19225840270519257,-0.015707198530435562,0.04096685349941254,-0.0015969809610396624
0.622,0.37144869565963745,0.11363410949707031,0.18232609331607819,-0.01634743995964527,0.04430365562438965,-0.0033901843708008528
0.624,0.400176465511322,0.11732959747314453,0.17182140052318573,-0.01701473444700241,0.047942232340574265,-0.0055044288747012615
0.626,0.43077316880226135,0.12191867083311081,0.16067709028720856,-0.01774098165333271,0.0519661009311676,-0.00796760804951191
0.628,0.46320247650146484,0.12732313573360443,0.14885373413562775,-0.018555598333477974,0.05647716671228409,-0.010802368633449078
0.63,0.4973878860473633,0.13354013860225677,0.13643768429756165,-0.019493361935019493,0.06160162389278412,-0.014015406370162964
0.632,0.5332465767860413,0.140592560172081,0.12353932857513428,-0.02059216983616352,0.06747125089168549,-0.01759716123342514
0.634,0.5705905556678772,0.14850710332393646,0.11021190881729126,-0.021888194605708122,0.07422585040330887,-0.021517479792237282
0.636,0.6091662049293518,0.15720078349113464,0.09651333838701248,-0.023410819470882416,0.08201073110103607,-0.0257246270775795
0.638,0.6488271951675415,0.16654297709465027,0.08253958076238632,-0.02517809346318245,0.09096697717905045,-0.030138565227389336
0.64,0.6892410516738892,0.17638012766838074,0.06845026463270187,-0.0272052064538002,0.10122506320476532,-0.034662455320358276
0.642,0.7300702333450317,0.18667598068714142,0.054365240037441254,-0.029495663940906525,0.11289799213409424,-0.03919091075658798
0.644,0.7710404396057129,0.1973256766796112,0.040367238223552704,-0.03204718977212906,0.12607920169830322,-0.0436142198741436
0.646,0.8118480443954468,0.20812317728996277,0.02664198912680149,-0.03484674543142319,0.14083683490753174,-0.04781821370124817
0.648,0.8522640466690063,0.2190246284008026,0.013379957526922226,-0.03786515071988106,0.15720362961292267,-0.0516989566385746
0.65,0.8919596672058105,0.2298869639635086,0.0006744539714418352,-0.04106311872601509,0.1751817762851715,-0.055168554186820984
0.652,0.9306195974349976,0.24048419296741486,-0.011338145472109318,-0.0443987175822258,0.19473649561405182,-0.05815292149782181
0.654,0.9679555892944336,0.25070756673812866,-0.022505998611450195,-0.04783176630735397,0.21580010652542114,-0.06059003993868828
0.656,1.0036966800689697,0.2605084776878357,-0.0326860249042511,-0.051326096057891846,0.23827044665813446,-0.06242072209715843
0.658,1.037625789642334,0.26979154348373413,-0.041789885610342026,-0.05485057830810547,0.26200857758522034,-0.06360471993684769
0.66,1.0695114135742188,0.27847856283187866,-0.04979529604315758,-0.05838480591773987,0.28684017062187195,-0.06411074101924896
0.662,1.099244236946106,0.28647035360336304,-0.056555476039648056,-0.061921000480651855,0.3125714957714081,-0.06390996277332306
0.664,1.1267492771148682,0.2936705946922302,-0.06198456510901451,-0.06545660644769669,0.33899304270744324,-0.06298401951789856
0.666,1.1518068313598633,0.3000602126121521,-0.06615450233221054,-0.06899166107177734,0.3658684194087982,-0.061336178332567215
0.668,1.1743323802947998,0.30562204122543335,-0.06902065128087997,-0.07253488153219223,0.3929506838321686,-0.05899950489401817
0.67,1.1942938566207886,0.3103618025779724,-0.07057871669530869,-0.07609368115663528,0.4200107157230377,-0.05602618679404259
0.672,1.21170973777771,0.314297616481781,-0.07086529582738876,-0.07965750247240067,0.4468317925930023,-0.05248967558145523
0.674,1.226540446281433,0.31746095418930054,-0.06994368880987167,-0.08321360498666763,0.4732130765914917,-0.048489831387996674
0.676,1.2388290166854858,0.3198622763156891,-0.06786670535802841,-0.08674061298370361,0.498982310295105,-0.044133592396974564
0.678,1.248589038848877,0.3215560019016266,-0.0647021159529686,-0.0902162417769432,0.5239992141723633,-0.03951912745833397
0.68,1.2558398246765137,0.32263556122779846,-0.06058987230062485,-0.09361723065376282,0.5481637716293335,-0.03474064916372299
0.682,1.2607159614562988,0.323113352060318,-0.05558653920888901,-0.09691652655601501,0.5713970065116882,-0.029873697087168694
0.684,1.2632226943969727,0.32301607728004456,-0.049771927297115326,-0.10008504986763,0.5936389565467834,-0.02496756613254547
0.686,1.2634556293487549,0.32239237427711487,-0.043267033994197845,-0.10310564935207367,0.6148471236228943,-0.020035134628415108
0.688,1.2615246772766113,0.32130712270736694,-0.0361955389380455,-0.10596436262130737,0.6349852681159973,-0.015054206363856792
0.69,1.257492184638977,0.31983083486557007,-0.028635047376155853,-0.10864882916212082,0.6540131568908691,-0.009981978684663773
0.692,1.2514581680297852,0.31797975301742554,-0.020740173757076263,-0.11115477234125137,0.6718835234642029,-0.004774412140250206
0.694,1.2434940338134766,0.31583112478256226,-0.012617550790309906,-0.11347421258687973,0.6885452270507812,0.0006269739242270589
0.696,1.233728289604187,0.31338971853256226,-0.004314027726650238,-0.11559844017028809,0.7039390206336975,0.006292229518294334
0.698,1.2223091125488281,0.31063932180404663,0.004011847078800201,-0.11751911789178848,0.7179886698722839,0.012293532490730286
0.7,1.2092968225479126,0.30757611989974976,0.012212789617478848,-0.11923658847808838,0.7306190729141235,0.018692949786782265
0.702,1.1949098110198975,0.30415624380111694,0.020245885476469994,-0.12075977027416229,0.741757333278656,0.025550121441483498
0.704,1.1792885065078735,0.3003644347190857,0.027979886159300804,-0.12209691107273102,0.751329779624939,0.03291970491409302
0.706,1.1625959873199463,0.2961978316307068,0.03524235263466835,-0.12326270341873169,0.7592810988426208,0.0408429391682148
0.708,1.145047903060913,0.29158300161361694,0.04194507375359535,-0.12427474558353424,0.7655711770057678,0.049348849803209305
0.71,1.1267887353897095,0.2865104079246521,0.04796252027153969,-0.12514623999595642,0.7701664566993713,0.05845176428556442
0.712,1.1080666780471802,0.28098195791244507,0.05321398749947548,-0.12589286267757416,0.7730526924133301,0.06815989315509796
0.714,1.0890907049179077,0.2749146819114685,0.05757657065987587,-0.12651799619197845,0.7742427587509155,0.07845242321491241
0.716,1.0700337886810303,0.2682580351829529,0.06090230122208595,-0.12701314687728882,0.7737595438957214,0.08928093314170837
0.718,1.0512080192565918,0.2609252333641052,0.06312769651412964,-0.12736500799655914,0.7716485857963562,0.10057364404201508
0.72,1.0328788757324219,0.25290006399154663,0.06415307521820068,-0.12755346298217773,0.7679819464683533,0.11224348098039627
0.722,1.015252709388733,0.2441358119249344,0.06384506821632385,-0.12754493951797485,0.7628432512283325,0.12418630719184875
0.724,0.9985902309417725,0.23457331955432892,0.06213390827178955,-0.12729783356189728,0.7563201189041138,0.1362733244895935
0.726,0.9831781387329102,0.22423262894153595,0.05893298611044884,-0.1267811805009842,0.7485172748565674,0.148371621966362
0.728,0.9693198204040527,0.213164284825325,0.05418955907225609,-0.12595424056053162,0.7395597100257874,0.16035206615924835
0.73,0.9571420550346375,0.20142073929309845,0.047860704362392426,-0.12477795779705048,0.7295796275138855,0.17207153141498566
0.732,0.9469469785690308,0.18904872238636017,0.039922527968883514,-0.1232190728187561,0.7187137007713318,0.1833840310573578
0.734,0.9390300512313843,0.17606347799301147,0.030380329117178917,-0.12125517427921295,0.7071111798286438,0.1941601186990738
0.736,0.933635413646698,0.16253560781478882,0.019212890416383743,-0.11887414008378983,0.6949461698532104,0.20426848530769348
0.738,0.9309465885162354,0.1486310362815857,0.006480949930846691,-0.11606083810329437,0.6824012994766235,0.21357502043247223
0.74,0.9310667514801025,0.1344851851463318,-0.007759465835988522,-0.11281059682369232,0.6696714758872986,0.22193361818790436
0.742,0.9341687560081482,0.12016957998275757,-0.023465141654014587,-0.10913841426372528,0.6569688320159912,0.22919924557209015
0.744,0.940361738204956,0.10580628365278244,-0.04052497819066048,-0.10505940020084381,0.6445223689079285,0.23524107038974762
0.746,0.9497134685516357,0.09159938991069794,-0.05881993845105171,-0.10059356689453125,0.6325575113296509,0.2399391084909439
0.748,0.9622008800506592,0.07775585353374481,-0.07819708436727524,-0.0957740768790245,0.6212984323501587,0.24317753314971924
0.75,0.9778574109077454,0.06451026350259781,-0.09851502627134323,-0.09063532203435898,0.6109674572944641,0.24484454095363617
0.752,0.9965433478355408,0.052026666700839996,-0.11963697522878647,-0.08521238714456558,0.6017820835113525,0.2448410838842392
0.754,1.0181241035461426,0.040522485971450806,-0.14136433601379395,-0.07953871041536331,0.5939425826072693,0.24310900270938873
0.756,1.0424566268920898,0.030215170234441757,-0.1635035276412964,-0.07364935427904129,0.5876423716545105,0.23962676525115967
0.758,1.0692172050476074,0.021180052310228348,-0.1859220564365387,-0.06759628653526306,0.5830610394477844,0.23441867530345917
0.76,1.097714900970459,0.014007464051246643,-0.20785942673683167,-0.0614282563328743,0.5803517699241638,0.22756551206111908
0.762,1.1280851364135742,0.008482823148369789,-0.22963598370552063,-0.055190570652484894,0.5796490907669067,0.21920786798000336
0.764,1.1600900888442993,0.0045899199321866035,-0.25119996070861816,-0.04893648624420166,0.5810747742652893,0.20954079926013947
0.766,1.193126916885376,0.0025538208428770304,-0.27210506796836853,-0.0427154004573822,0.5847166776657104,0.1987987905740738
0.768,1.226768970489502,0.002484197961166501,-0.29219844937324524,-0.03657964617013931,0.5906268358230591,0.18727432191371918
0.77,1.260617733001709,0.00441919919103384,-0.31116893887519836,-0.03057646006345749,0.5988245606422424,0.17529448866844177
0.772,1.2941707372665405,0.00836168508976698,-0.3288242518901825,-0.024757005274295807,0.609285831451416,0.16319578886032104
0.774,1.3269615173339844,0.014311655424535275,-0.34501761198043823,-0.019162766635417938,0.6219488978385925,0.15130911767482758
0.776,1.3586208820343018,0.022193770855665207,-0.35951006412506104,-0.013835065066814423,0.6367202401161194,0.13994765281677246
0.778,1.3887653350830078,0.031980372965335846,-0.3721664547920227,-0.008810322731733322,0.6534729599952698,0.12939907610416412
0.78,1.4169220924377441,0.043534137308597565,-0.38283854722976685,-0.0041235946118831635,0.6720601320266724,0.11991662532091141
0.782,1.4427096843719482,0.05673108249902725,-0.39138203859329224,0.00017335638403892517,0.6923122406005859,0.11171381920576096
0.784,1.4658203125,0.07138810306787491,-0.39762288331985474,0.004038356244564056,0.7140551805496216,0.10496044903993607
0.786,1.485922932624817,0.08730873465538025,-0.40146952867507935,0.007437039166688919,0.737118661403656,0.09978717565536499
0.788,1.5027806758880615,0.10429082065820694,-0.40287601947784424,0.010339416563510895,0.7613292336463928,0.09627628326416016
0.79,1.5161426067352295,0.12208447605371475,-0.40174609422683716,0.01272539421916008,0.7865039706230164,0.09447973221540451
0.792,1.525813102722168,0.14053520560264587,-0.39800819754600525,0.014590803533792496,0.8124595284461975,0.09440996497869492
0.794,1.53169584274292,0.1593998372554779,-0.3917054235935211,0.015956610441207886,0.8390065431594849,0.09604696184396744
0.796,1.5336092710494995,0.1784409135580063,-0.3829673230648041,0.01687214896082878,0.8659490346908569,0.09934115409851074
0.798,1.5315412282943726,0.19746196269989014,-0.3717539608478546,0.01739891618490219,0.8930730819702148,0.10421678423881531
0.8,1.525598406791687,0.2162550687789917,-0.35805436968803406,0.017615046352148056,0.9201558828353882,0.11058030277490616
0.802,1.5157644748687744,0.23455989360809326,-0.34199002385139465,0.01761099323630333,0.9469582438468933,0.1183275505900383
0.804,1.5021123886108398,0.2521933317184448,-0.3237283527851105,0.01747896894812584,0.9732323884963989,0.12734661996364594
0.806,1.4848078489303589,0.2690466642379761,-0.30344828963279724,0.017316773533821106,0.9987155199050903,0.13752007484436035
0.808,1.4639158248901367,0.28502166271209717,-0.28132614493370056,0.017214030027389526,1.0231488943099976,0.14870628714561462
0.81,1.4396586418151855,0.2999323606491089,-0.2574881613254547,0.017242707312107086,1.0462788343429565,0.160751610994339
0.812,1.412189245223999,0.3136824667453766,-0.23213590681552887,0.01746537536382675,1.0678575038909912,0.1734848916530609
0.814,1.3817479610443115,0.3262299597263336,-0.20549984276294708,0.017919600009918213,1.0876617431640625,0.18673357367515564
0.816,1.3486435413360596,0.3375367224216461,-0.17775262892246246,0.018623769283294678,1.1054807901382446,0.20031511783599854
0.818,1.313019037246704,0.3475770056247711,-0.14914734661579132,0.01958618313074112,1.1211334466934204,0.21404574811458588
0.82,1.2752306461334229,0.3563345968723297,-0.11990894377231598,0.02079576998949051,1.1344752311706543,0.22775857150554657
0.822,1.2355542182922363,0.36375322937965393,-0.09022869169712067,0.022228360176086426,1.145389437675476,0.24129167199134827
0.824,1.194244384765625,0.3699473738670349,-0.060376182198524475,0.023851223289966583,1.1538021564483643,0.25449636578559875
0.826,1.1516486406326294,0.37495702505111694,-0.03047741949558258,0.025635287165641785,1.1596802473068237,0.2672509253025055
0.828,1.1080056428909302,0.3788251578807831,-0.0007596160285174847,0.027543440461158752,1.1630275249481201,0.279464453458786
0.83,1.0635292530059814,0.38162800669670105,0.028537854552268982,0.029544949531555176,1.1638766527175903,0.29107165336608887
0.832,1.0185683965682983,0.3834809958934784,0.05732174217700958,0.03161488473415375,1.1622856855392456,0.302028626203537
0.834,0.973434329032898,0.3845386505126953,0.08541794121265411,0.033745408058166504,1.1583384275436401,0.31230291724205017
0.836,0.9283620119094849,0.38483619689941406,0.11272026598453522,0.035941630601882935,1.1521395444869995,0.321886271238327
0.838,0.8835792541503906,0.3844442367553711,0.13912181556224823,0.03821253776550293,1.1438076496124268,0.33078494668006897
0.84,0.8393904566764832,0.38346385955810547,0.16438530385494232,0.04057477414608002,1.1334751844406128,0.33900412917137146
0.842,0.7959462404251099,0.3819599151611328,0.18844987452030182,0.04305084049701691,1.1212809085845947,0.34655067324638367
0.844,0.753491222858429,0.3800688087940216,0.21127693355083466,0.045662298798561096,1.1073832511901855,0.3534426689147949
0.846,0.7123134136199951,0.37786486744880676,0.23277930915355682,0.04843343794345856,1.0919526815414429,0.35970669984817505
0.848,0.6725164651870728,0.3754129707813263,0.2529032230377197,0.05139172077178955,1.075157642364502,0.36535894870758057
0.85,0.6343243718147278,0.3727388381958008,0.27158215641975403,0.05455322563648224,1.0571638345718384,0.37042081356048584
0.852,0.5978855490684509,0.3699483871459961,0.28879407048225403,0.05792200565338135,1.0381444692611694,0.3749067783355713
0.854,0.5634000897407532,0.3671426773071289,0.30447569489479065,0.06150263547897339,1.0182702541351318,0.3788352608680725
0.856,0.5309964418411255,0.36433032155036926,0.31861385703086853,0.06529325246810913,0.9977021217346191,0.38222548365592957
0.858,0.5007860660552979,0.36164191365242004,0.3311859965324402,0.06928549706935883,0.9765897393226624,0.385092556476593
0.86,0.47285571694374084,0.3591051399707794,0.3422582149505615,0.07345998287200928,0.9550818800926208,0.38745418190956116
0.862,0.44726812839508057,0.3567228615283966,0.3518866002559662,0.07779760658740997,0.9333047866821289,0.38933950662612915
0.864,0.42400452494621277,0.3545246422290802,0.3600454032421112,0.0822688490152359,0.9113687872886658,0.39078816771507263
0.866,0.40315812826156616,0.35259440541267395,0.3667857348918915,0.08683598041534424,0.8893868923187256,0.391831636428833
0.868,0.38483285903930664,0.3510027229785919,0.37220093607902527,0.09145919978618622,0.8674553036689758,0.39248111844062805
0.87,0.3692653775215149,0.3495493233203888,0.3758692741394043,0.09608840942382812,0.8456688523292542,0.3927590250968933
0.872,0.3559991121292114,0.3486833870410919,0.37848177552223206,0.10067561268806458,0.8241147398948669,0.3926839828491211
0.874,0.3449119031429291,0.34844496846199036,0.3801789879798889,0.10517582297325134,0.8028683066368103,0.3922688364982605
0.876,0.33625781536102295,0.3485775291919708,0.38068825006484985,0.10954640805721283,0.7819984555244446,0.39152106642723083
0.878,0.32999536395072937,0.3491220772266388,0.3801289498806,0.11375349760055542,0.7615622282028198,0.3904570937156677
0.88,0.32603564858436584,0.35008910298347473,0.3784078359603882,0.11776633560657501,0.7416068911552429,0.38909587264060974
0.882,0.32436609268188477,0.3515510857105255,0.3756239414215088,0.12156039476394653,0.7221704721450806,0.38746148347854614
0.884,0.32490694522857666,0.3534574806690216,0.3718820810317993,0.12511873245239258,0.7032946944236755,0.3855917155742645
0.886,0.3275134265422821,0.35574057698249817,0.3671894967556,0.1284305602312088,0.6850183606147766,0.3835338056087494
0.888,0.33213740587234497,0.35837939381599426,0.3615454435348511,0.13148349523544312,0.6673752665519714,0.3813416063785553
0.89,0.3387349545955658,0.3614034950733185,0.3549826145172119,0.1342618763446808,0.6504116058349609,0.3790721297264099
0.892,0.3471868634223938,0.3647909462451935,0.34755557775497437,0.13674286007881165,0.6341686844825745,0.37678036093711853
0.894,0.35737255215644836,0.3685436546802521,0.3392205834388733,0.1389060765504837,0.6186925172805786,0.37450993061065674
0.896,0.3691732883453369,0.37259581685066223,0.32997632026672363,0.1407371461391449,0.6040393710136414,0.37229180335998535
0.898,0.38250476121902466,0.37688738107681274,0.3199119567871094,0.1422123908996582,0.590263307094574,0.3701437711715698
0.9,0.39725619554519653,0.3814011216163635,0.30896180868148804,0.1433049887418747,0.5774113535881042,0.3680683374404907
0.902,0.413289338350296,0.3860798478126526,0.29713118076324463,0.14399561285972595,0.5655317902565002,0.3660619854927063
0.904,0.4304342567920685,0.39097315073013306,0.28448083996772766,0.14427821338176727,0.5546698570251465,0.36410975456237793
0.906,0.44856682419776917,0.3959656357765198,0.27113065123558044,0.144151508808136,0.5448640584945679,0.3622034192085266
0.908,0.4675905704498291,0.40102583169937134,0.25697430968284607,0.1436154842376709,0.5361474752426147,0.36034154891967773
0.91,0.48724424839019775,0.4061918556690216,0.24196983873844147,0.14267969131469727,0.5285464525222778,0.3585241138935089
0.912,0.5074407458305359,0.4114227592945099,0.2262597680091858,0.1413581669330597,0.5220853686332703,0.3567729592323303
0.914,0.5279830694198608,0.41672804951667786,0.20987112820148468,0.13967004418373108,0.5167891383171082,0.35510385036468506
0.916,0.5486987233161926,0.42210009694099426,0.19287677109241486,0.13763490319252014,0.5126932859420776,0.35353443026542664
0.918,0.5694871544837952,0.4274435341358185,0.1753934919834137,0.13528260588645935,0.5098382830619812,0.3520757257938385
0.92,0.5901164412498474,0.43282225728034973,0.15748704969882965,0.1326337456703186,0.5082636475563049,0.3507644832134247
0.922,0.6104199290275574,0.43820860981941223,0.13925772905349731,0.12970483303070068,0.5080171823501587,0.3496379554271698
0.924,0.630173921585083,0.44355395436286926,0.12086311727762222,0.12651482224464417,0.5091463923454285,0.3487142324447632
0.926,0.6491576433181763,0.44880202412605286,0.10236763209104538,0.12307422608137131,0.51170414686203,0.3480132818222046
0.928,0.6672911643981934,0.4539327621459961,0.08396553248167038,0.11939485371112823,0.5157396197319031,0.3475622236728668
0.93,0.684372067451477,0.45891284942626953,0.06583207100629807,0.11548879742622375,0.5212885737419128,0.3473869264125824
0.932,0.7002336382865906,0.46376895904541016,0.04809894785284996,0.11137475818395615,0.5283814668655396,0.3475182056427002
0.934,0.7146838903427124,0.46836090087890625,0.030934181064367294,0.10706578195095062,0.537032961845398,0.3479931056499481
0.936,0.7275774478912354,0.4726524353027344,0.01447969302535057,0.10258430242538452,0.5472389459609985,0.3488510251045227
0.938,0.7388261556625366,0.47667694091796875,-0.0010732738301157951,0.09795829653739929,0.5589614510536194,0.3501383662223816
0.94,0.7482918500900269,0.48037052154541016,-0.01558846514672041,0.09321913123130798,0.572152316570282,0.35188549757003784
0.942,0.7558737993240356,0.48366641998291016,-0.02896183915436268,0.08840590715408325,0.5867345929145813,0.35411006212234497
0.944,0.7614758014678955,0.4864778518676758,-0.04103997349739075,0.08356152474880219,0.6026036739349365,0.3568105697631836
0.946,0.7649636268615723,0.48880958557128906,-0.051714688539505005,0.07872079312801361,0.619645893573761,0.3599703311920166
0.948,0.7662558555603027,0.49065113067626953,-0.060902804136276245,0.07392023503780365,0.6377227306365967,0.3635454773902893
0.95,0.7653906345367432,0.49196434020996094,-0.06847122311592102,0.06918679177761078,0.6566759943962097,0.3674667775630951
0.952,0.7623258829116821,0.49269771575927734,-0.07433807849884033,0.06454463303089142,0.6763412356376648,0.3716447353363037
0.954,0.757014811038971,0.4928312301635742,-0.07857507467269897,0.060009777545928955,0.6965430378913879,0.37598034739494324
0.956,0.7494751214981079,0.4923439025878906,-0.08105507493019104,0.05557726323604584,0.7171002626419067,0.3803820013999939
0.958,0.7398228645324707,0.4912271499633789,-0.08177739381790161,0.05123695731163025,0.7378416657447815,0.38475218415260315
0.96,0.7280415296554565,0.4894905090332031,-0.08084025979042053,0.04697170853614807,0.7585959434509277,0.3890106976032257
0.962,0.7141469717025757,0.48714160919189453,-0.0783052146434784,0.04275134205818176,0.7792032957077026,0.3930850923061371
0.964,0.6982213258743286,0.48417091369628906,-0.07415258884429932,0.03853863477706909,0.7995211482048035,0.3969263732433319
0.966,0.6803561449050903,0.48064327239990234,-0.06849640607833862,0.03429938852787018,0.8194147944450378,0.40050554275512695
0.968,0.6606877446174622,0.4764852523803711,-0.06144106760621071,0.029997408390045166,0.8387554883956909,0.40381088852882385
0.97,0.639374852180481,0.47174549102783203,-0.0531030036509037,0.02560591697692871,0.8574255704879761,0.40683865547180176
0.972,0.6166046857833862,0.4664955139160156,-0.043630603700876236,0.021101579070091248,0.875311553478241,0.40959763526916504
0.974,0.5925229787826538,0.46074962615966797,-0.0331747867166996,0.016473934054374695,0.8923141956329346,0.41208258271217346
0.976,0.5673040151596069,0.4545164108276367,-0.021862870082259178,0.01171518862247467,0.9083354473114014,0.4143100380897522
0.978,0.5410599708557129,0.4477739632129669,-0.009863561950623989,0.006831258535385132,0.9232866168022156,0.416288286447525
0.98,0.514026403427124,0.4405365288257599,0.0026455451734364033,0.0018372684717178345,0.9370840191841125,0.41802388429641724
0.982,0.48644018173217773,0.43286994099617004,0.015478036366403103,-0.003244355320930481,0.9496578574180603,0.4195291996002197
0.984,0.4585399627685547,0.4248657524585724,0.028455188497900963,-0.008382335305213928,0.9609525799751282,0.4208121597766876
0.986,0.4304358959197998,0.4165830910205841,0.04133625701069832,-0.013549968600273132,0.9709144830703735,0.4218740463256836
0.988,0.4024169445037842,0.40798285603523254,0.0539337582886219,-0.018709897994995117,0.9795107245445251,0.42272040247917175
0.99,0.3746336102485657,0.3991270363330841,0.06612274050712585,-0.02382799983024597,0.9867210984230042,0.42335519194602966
0.992,0.34724998474121094,0.39003852009773254,0.0776759684085846,-0.028868094086647034,0.9925521612167358,0.42377787828445435
0.994,0.3204440176486969,0.3807239830493927,0.08845716714859009,-0.03379158675670624,0.9970209002494812,0.42399734258651733
0.996,0.29441437125205994,0.37130263447761536,0.09829971194267273,-0.038561537861824036,1.0001702308654785,0.42402148246765137
0.998,0.2692511975765228,0.3617763817310333,0.10713671147823334,-0.043139636516571045,1.0020670890808105,0.42384955286979675
1.0,0.24506168067455292,0.35213759541511536,0.11489766836166382,-0.04748298227787018,1.0027971267700195,0.42348694801330566
1.002,0.22197015583515167,0.34241583943367004,0.12139154970645905,-0.05156092345714569,1.0024683475494385,0.42295002937316895
1.004,0.2000887393951416,0.3326282799243927,0.12662358582019806,-0.05534780025482178,1.0012115240097046,0.4222567677497864
1.006,0.1793956756591797,0.3228817284107208,0.13056275248527527,-0.05880551040172577,0.9991622567176819,0.4214302897453308
1.008,0.15986020863056183,0.31319907307624817,0.1331198811531067,-0.06190982460975647,0.9964607357978821,0.42049241065979004
1.01,0.14150048792362213,0.30358222126960754,0.13436570763587952,-0.06464245915412903,0.9932482242584229,0.4194689691066742
1.012,0.12431757897138596,0.2939787209033966,0.13430474698543549,-0.06699581444263458,0.9896563291549683,0.41840827465057373
1.014,0.10830751806497574,0.2843981087207794,0.13301223516464233,-0.0689598023891449,0.9858055710792542,0.4173436462879181
1.016,0.0934668630361557,0.2749357521533966,0.13051088154315948,-0.07052963972091675,0.9817991256713867,0.4163096845149994
1.018,0.07965230196714401,0.26555541157722473,0.12691305577754974,-0.07171490788459778,0.9777271747589111,0.41533756256103516
1.02,0.06690596044063568,0.256224662065506,0.12230696529150009,-0.07253070175647736,0.9736713767051697,0.41445064544677734
1.022,0.05505029857158661,0.24691489338874817,0.11677281558513641,-0.07299481332302094,0.9696967005729675,0.41365906596183777
1.024,0.04406458139419556,0.23763278126716614,0.11044327914714813,-0.073136106133461,0.9658498764038086,0.4129669666290283
1.026,0.03383588418364525,0.22843173146247864,0.10340769588947296,-0.0729917585849762,0.9621709585189819,0.41237059235572815
1.028,0.02425873652100563,0.21930888295173645,0.09579199552536011,-0.07259641587734222,0.9586938619613647,0.4118592441082001
1.03,0.015300191938877106,0.21022894978523254,0.08775343745946884,-0.07199069857597351,0.9554402828216553,0.4114241600036621
1.032,0.0068129561841487885,0.20119193196296692,0.07936502248048782,-0.07122498750686646,0.9524231553077698,0.4110599756240845
1.034,-0.0012093782424926758,0.19227221608161926,0.07069510221481323,-0.0703403651714325,0.9496467709541321,0.41075238585472107
1.036,-0.00890764407813549,0.18349649012088776,0.06191525608301163,-0.06937669217586517,0.9471129179000854,0.4104871451854706
1.038,-0.01631721667945385,0.1748800426721573,0.05311138182878494,-0.06836974620819092,0.9448279142379761,0.41025984287261963
1.04,-0.023557284846901894,0.1663847118616104,0.044356610625982285,-0.06734147667884827,0.9427860379219055,0.41006433963775635
1.042,-0.03065033257007599,0.15802671015262604,0.03575424477458,-0.06630250811576843,0.940979540348053,0.40988627076148987
1.044,-0.03757348656654358,0.14986898005008698,0.027383947744965553,-0.06525388360023499,0.9394019842147827,0.4097141921520233
1.046,-0.04443333297967911,0.1419525295495987,0.01924932189285755,-0.06419017910957336,0.9380440711975098,0.409540057182312
1.048,-0.05121820420026779,0.13426972925662994,0.011383355595171452,-0.06309664249420166,0.9368911981582642,0.4093508720397949
1.05,-0.057935819029808044,0.12690450251102448,0.00392993725836277,-0.061949968338012695,0.9359235167503357,0.4091320037841797
1.052,-0.06464390456676483,0.11985590308904648,-0.0031465895008295774,-0.06072336435317993,0.9351145625114441,0.4088714122772217
1.054,-0.07127110660076141,0.11316301673650742,-0.009822836145758629,-0.059401050209999084,0.9344319105148315,0.40855318307876587
1.056,-0.07778362929821014,0.10695459693670273,-0.016049407422542572,-0.05796244740486145,0.9338429570198059,0.4081687927246094
1.058,-0.08418840914964676,0.10116579383611679,-0.021855996921658516,-0.056397467851638794,0.9333102703094482,0.4077112376689911
1.06,-0.09050858020782471,0.09583570808172226,-0.027248989790678024,-0.05471707880496979,0.9327976703643799,0.4071684777736664
1.062,-0.09672408550977707,0.09106065332889557,-0.03218866139650345,-0.052933067083358765,0.9322921633720398,0.40652817487716675
1.064,-0.10277699679136276,0.08689023554325104,-0.036622148007154465,-0.051065072417259216,0.9317845702171326,0.4057716131210327
1.066,-0.10871012508869171,0.08335019648075104,-0.04059737175703049,-0.04914294183254242,0.9312757253646851,0.4048638939857483
1.068,-0.11452770233154297,0.08042050898075104,-0.04413527622818947,-0.04721356928348541,0.9307900667190552,0.40378397703170776
1.07,-0.12020508199930191,0.07821466028690338,-0.047185588628053665,-0.04531791806221008,0.9303659796714783,0.4025111794471741
1.072,-0.12570218741893768,0.07670022547245026,-0.049748606979846954,-0.04349638521671295,0.9300612211227417,0.40102940797805786
1.074,-0.13109120726585388,0.0758981853723526,-0.051831476390361786,-0.04178977012634277,0.929953396320343,0.399332731962204
1.076,-0.13636493682861328,0.07579709589481354,-0.05338628590106964,-0.04023538529872894,0.9301208257675171,0.3974407911300659
1.078,-0.141587495803833,0.07642175257205963,-0.05435223504900932,-0.038871392607688904,0.9306464791297913,0.39538148045539856
1.08,-0.1468103677034378,0.07772351801395416,-0.054701730608940125,-0.03772395849227905,0.9316064715385437,0.3931904435157776
1.082,-0.15207721292972565,0.0796985775232315,-0.054391324520111084,-0.03682510554790497,0.9330615401268005,0.3909294605255127
1.084,-0.15745097398757935,0.08231736719608307,-0.053373273462057114,-0.03619912266731262,0.9350597858428955,0.38864967226982117
1.086,-0.1629943549633026,0.08550263941287994,-0.051618222147226334,-0.03586368262767792,0.9376320242881775,0.38642746210098267
1.088,-0.1686421036720276,0.08929349482059479,-0.049087122082710266,-0.03584358096122742,0.9407843947410583,0.3843355178833008
1.09,-0.1744447648525238,0.09362222254276276,-0.0457402803003788,-0.036156728863716125,0.9444973468780518,0.38244205713272095
1.092,-0.18059790134429932,0.0984506830573082,-0.04153091087937355,-0.03681638836860657,0.9487236738204956,0.3808078467845917
1.094,-0.18703985214233398,0.10372355580329895,-0.03642382100224495,-0.03784114122390747,0.9534109234809875,0.3794876039028168
1.096,-0.19375884532928467,0.1093473732471466,-0.030361192300915718,-0.03924836218357086,0.9584893584251404,0.3785266876220703
1.098,-0.20087286829948425,0.11527827382087708,-0.023381980136036873,-0.041054099798202515,0.9638753533363342,0.37795406579971313
1.1,-0.20829659700393677,0.1214151680469513,-0.015483275055885315,-0.04326969385147095,0.9694843888282776,0.37778961658477783
1.102,-0.21605640649795532,0.12768176198005676,-0.006681769620627165,-0.04590338468551636,0.9752256274223328,0.37804752588272095
1.104,-0.22416746616363525,0.13410571217536926,0.0030194458086043596,-0.048969656229019165,0.9810078740119934,0.37873587012290955
1.106,-0.2326703816652298,0.14050963521003723,0.01354219950735569,-0.052479296922683716,0.9867358803749084,0.3798392713069916
1.108,-0.2415289282798767,0.14679434895515442,0.024828830733895302,-0.05642439424991608,0.992317795753479,0.38133519887924194
1.11,-0.25064876675605774,0.15299229323863983,0.03673337772488594,-0.06080496311187744,0.9976596236228943,0.38320040702819824
1.112,-0.2600877285003662,0.15903763473033905,0.04934419319033623,-0.06560666859149933,1.0026696920394897,0.385414719581604
1.114,-0.26985642313957214,0.16482166945934296,0.062460850924253464,-0.07081000506877899,1.007264494895935,0.38796716928482056
1.116,-0.2798506021499634,0.17022423446178436,0.07598154246807098,-0.0763876885175705,1.0113556385040283,0.3908497989177704
1.118,-0.28996503353118896,0.17522816359996796,0.0898069441318512,-0.08230814337730408,1.0148662328720093,0.3940630257129669
1.12,-0.3002380132675171,0.17974285781383514,0.10380644351243973,-0.08854243159294128,1.0177267789840698,0.39761996269226074
1.122,-0.3105968236923218,0.18372540175914764,0.11785385757684708,-0.09503823518753052,1.019883394241333,0.40155261754989624
1.124,-0.32103314995765686,0.18716436624526978,0.13178713619709015,-0.1017560064792633,1.021291971206665,0.40588274598121643
1.126,-0.3315083384513855,0.18992049992084503,0.1454600989818573,-0.1086530089378357,1.0219091176986694,0.41063591837882996
1.128,-0.3419274091720581,0.1918707638978958,0.15882687270641327,-0.11569720506668091,1.0217030048370361,0.41583675146102905
1.13,-0.35232651233673096,0.19294936954975128,0.17172136902809143,-0.12286126613616943,1.0206751823425293,0.42149436473846436
1.132,-0.3625956177711487,0.1931801587343216,0.18399864435195923,-0.13010749220848083,1.0188392400741577,0.42760396003723145
1.134,-0.3727754056453705,0.19248779118061066,0.19560204446315765,-0.13741254806518555,1.0162240266799927,0.43415120244026184
1.136,-0.3827938437461853,0.1907082349061966,0.20640963315963745,-0.14476901292800903,1.0128750801086426,0.4410955309867859
1.138,-0.39257076382637024,0.18798740208148956,0.2163238823413849,-0.1521739661693573,1.0088717937469482,0.44837838411331177
1.14,-0.4022439420223236,0.18405920267105103,0.22522380948066711,-0.15961778163909912,1.0042973756790161,0.45592203736305237
1.142,-0.411761999130249,0.17900188267230988,0.23317597806453705,-0.16708014905452728,0.9992478489875793,0.4636378884315491
1.144,-0.421170711517334,0.1727820187807083,0.24016353487968445,-0.17455220222473145,0.9938480854034424,0.4714115262031555
1.146,-0.43040797114372253,0.16540344059467316,0.24617134034633636,-0.18200600147247314,0.9882174134254456,0.479120671749115
1.148,-0.4396292269229889,0.156895712018013,0.2512112557888031,-0.18939504027366638,0.9824782609939575,0.48663565516471863
1.15,-0.448878675699234,0.14730270206928253,0.2553914189338684,-0.19666941463947296,0.9767396450042725,0.49382373690605164
1.152,-0.45804911851882935,0.13667495548725128,0.2586933672428131,-0.20375148952007294,0.9711043834686279,0.5005521774291992
1.154,-0.4672655761241913,0.1251116544008255,0.2612645924091339,-0.21057109534740448,0.9656593799591064,0.5066871047019958
1.156,-0.4765637516975403,0.11259754002094269,0.2632669508457184,-0.21704813838005066,0.9604856967926025,0.5121088027954102
1.158,-0.48607540130615234,0.09925945103168488,0.2647623121738434,-0.2230774313211441,0.9556216597557068,0.5167027711868286
1.16,-0.4957384467124939,0.08515173941850662,0.2657778263092041,-0.2285609096288681,0.9511035084724426,0.5203888416290283
1.162,-0.5055542588233948,0.0704384595155716,0.26647496223449707,-0.2334144562482834,0.9469417929649353,0.5231136083602905
1.164,-0.5156792998313904,0.05524737760424614,0.26703977584838867,-0.23755882680416107,0.9431431889533997,0.5248488783836365
1.166,-0.5260230302810669,0.03968055173754692,0.26747792959213257,-0.24092711508274078,0.9397040009498596,0.5256018042564392
1.168,-0.5365694761276245,0.023840975016355515,0.26797473430633545,-0.24347901344299316,0.9365965127944946,0.5254032015800476
1.17,-0.5473322868347168,0.007914611138403416,0.2686064839363098,-0.24517680704593658,0.9337859749794006,0.52430260181427
1.172,-0.558183491230011,-0.007964067161083221,0.2693990170955658,-0.2460063099861145,0.9312301278114319,0.5223671793937683
1.174,-0.5691903829574585,-0.023717815056443214,0.27047789096832275,-0.24596509337425232,0.9288859367370605,0.5196805000305176
1.176,-0.5802655220031738,-0.039243631064891815,0.27195584774017334,-0.24507451057434082,0.9266838431358337,0.5163098573684692
1.178,-0.591294527053833,-0.05432790145277977,0.2738274931907654,-0.24336494505405426,0.9245588779449463,0.5123299956321716
1.18,-0.6021333932876587,-0.06891148537397385,0.2760471701622009,-0.24087992310523987,0.9224538207054138,0.5078067779541016
1.182,-0.6128551959991455,-0.08297150582075119,0.27861136198043823,-0.23766560852527618,0.9203031659126282,0.5027886629104614
1.184,-0.6231895685195923,-0.09641164541244507,0.2815673351287842,-0.2337871789932251,0.918040931224823,0.49732545018196106
1.186,-0.6331651210784912,-0.10910695791244507,0.2848259210586548,-0.22932997345924377,0.9156059622764587,0.49145209789276123
1.188,-0.6426158547401428,-0.1209983229637146,0.2882344126701355,-0.22437064349651337,0.9129485487937927,0.4852083921432495
1.19,-0.651434600353241,-0.13202756643295288,0.2917884886264801,-0.21900972723960876,0.9100314378738403,0.47862929105758667
1.192,-0.6595079898834229,-0.14216703176498413,0.29536744952201843,-0.21334269642829895,0.9068085551261902,0.4717566967010498
1.194,-0.6666060090065002,-0.15136045217514038,0.29887983202934265,-0.20748350024223328,0.9032471776008606,0.4646303355693817
1.196,-0.6727794408798218,-0.15959066152572632,0.3022153675556183,-0.20154720544815063,0.8993160128593445,0.45729145407676697
1.198,-0.6779450178146362,-0.16687387228012085,0.30523958802223206,-0.19563865661621094,0.8949751853942871,0.4497840404510498
1.2,-0.6819509863853455,-0.17319196462631226,0.3078269064426422,-0.18987391889095306,0.8902140855789185,0.4421430230140686
1.202,-0.6846545934677124,-0.178522989153862,0.3098527491092682,-0.18437114357948303,0.885017454624176,0.4343867897987366
1.204,-0.6860796809196472,-0.18289272487163544,0.31118181347846985,-0.17923127114772797,0.8793728947639465,0.42652785778045654
1.206,-0.6861751675605774,-0.1863517016172409,0.311693012714386,-0.1745598465204239,0.8732865452766418,0.4185628592967987
1.208,-0.6849061250686646,-0.18872159719467163,0.31143197417259216,-0.17043767869472504,0.8667850494384766,0.41047975420951843
1.21,-0.6823235154151917,-0.19013209640979767,0.3102416694164276,-0.1669401228427887,0.8599161505699158,0.40225377678871155
1.212,-0.6783760190010071,-0.19062133133411407,0.3081081509590149,-0.16414162516593933,0.852763295173645,0.3938770592212677
1.214,-0.6730483174324036,-0.19020934402942657,0.30494287610054016,-0.1620779186487198,0.8454197645187378,0.38533955812454224
1.216,-0.6663888692855835,-0.1889018565416336,0.3008265197277069,-0.16075970232486725,0.8380042910575867,0.3766424357891083
1.218,-0.6585159301757812,-0.1867179274559021,0.29576846957206726,-0.16018113493919373,0.8306489586830139,0.3678116798400879
1.22,-0.6495310068130493,-0.18376916646957397,0.28987184166908264,-0.16030541062355042,0.8235201239585876,0.35891368985176086
1.222,-0.639477014541626,-0.18015187978744507,0.2831006348133087,-0.1610754281282425,0.8167880177497864,0.35002800822257996
1.224,-0.6284618377685547,-0.1758822798728943,0.27569177746772766,-0.16243842244148254,0.810634434223175,0.34126296639442444
1.226,-0.6166903972625732,-0.17108243703842163,0.26773786544799805,-0.1643138974905014,0.8052241802215576,0.3327505588531494
1.228,-0.6042599678039551,-0.1658276915550232,0.25940969586372375,-0.16661790013313293,0.8007093667984009,0.32461288571357727
1.23,-0.5912476181983948,-0.16019338369369507,0.2508717179298401,-0.16926689445972443,0.7972296476364136,0.3169858753681183
1.232,-0.5778587460517883,-0.15431398153305054,0.242350772023201,-0.17214687168598175,0.7948769330978394,0.3100144565105438
1.234,-0.5641111135482788,-0.14834876358509064,0.2340196818113327,-0.17516958713531494,0.7937019467353821,0.30381911993026733
1.236,-0.5502116084098816,-0.1424235850572586,0.2261195182800293,-0.178248792886734,0.7937206625938416,0.29850420355796814
1.238,-0.536371648311615,-0.13646216690540314,0.21875084936618805,-0.1812962144613266,0.7949063181877136,0.2941434681415558
1.24,-0.5226399302482605,-0.13066191971302032,0.21213866770267487,-0.18423976004123688,0.7972066402435303,0.29079028964042664
1.242,-0.5091339349746704,-0.12522979080677032,0.2064272165298462,-0.18700966238975525,0.8005237579345703,0.2884538769721985
1.244,-0.4958656430244446,-0.12027354538440704,0.20177152752876282,-0.18954378366470337,0.8047399520874023,0.28711673617362976
1.246,-0.4831011891365051,-0.11582370102405548,0.1984277069568634,-0.19180677831172943,0.8097323179244995,0.2867242097854614
1.248,-0.47091615200042725,-0.11202140897512436,0.19645117223262787,-0.19376689195632935,0.8153653740882874,0.28719234466552734
1.25,-0.459276020526886,-0.10889240354299545,0.19587939977645874,-0.19540570676326752,0.8215064406394958,0.28840526938438416
1.252,-0.44826486706733704,-0.10652443021535873,0.19682000577449799,-0.19670279324054718,0.8280128836631775,0.2902352213859558
1.254,-0.43790021538734436,-0.10496612638235092,0.19928275048732758,-0.19765126705169678,0.8347371816635132,0.2925493121147156
1.256,-0.42822563648223877,-0.10427757352590561,0.20326761901378632,-0.19824442267417908,0.8415371179580688,0.2952079772949219
1.258,-0.4192197322845459,-0.10444255918264389,0.2087283581495285,-0.1984902322292328,0.8482744693756104,0.29807519912719727
1.26,-0.4109048843383789,-0.10544773191213608,0.21559861302375793,-0.19839729368686676,0.8548106551170349,0.3010379672050476
1.262,-0.40342947840690613,-0.1072063073515892,0.22390703856945038,-0.19797784090042114,0.861009418964386,0.30397966504096985
1.264,-0.3966323137283325,-0.10975929349660873,0.2334381490945816,-0.19725078344345093,0.8667364716529846,0.3068053722381592
1.266,-0.39051875472068787,-0.11299415677785873,0.24409563839435577,-0.1962398886680603,0.8718750476837158,0.3094194233417511
1.268,-0.38495495915412903,-0.11682792752981186,0.2558506429195404,-0.1949806958436966,0.8763226866722107,0.31174808740615845
1.27,-0.38006165623664856,-0.12109562009572983,0.2685002088546753,-0.19351544976234436,0.8799954056739807,0.3137210011482239
1.272,-0.3757050037384033,-0.12570948898792267,0.28191041946411133,-0.19188818335533142,0.8828200101852417,0.315266489982605
1.274,-0.37182509899139404,-0.13056083023548126,0.29584360122680664,-0.1901487112045288,0.8847363591194153,0.316308856010437
1.276,-0.3684639036655426,-0.1355714350938797,0.3103046119213104,-0.18834026157855988,0.8857157230377197,0.3167930841445923
1.278,-0.36548611521720886,-0.14047999680042267,0.3249734044075012,-0.18650096654891968,0.8857372403144836,0.3166753649711609
1.28,-0.3629341721534729,-0.1452474147081375,0.33978956937789917,-0.18465931713581085,0.8848040103912354,0.3159034848213196
1.282,-0.3607879877090454,-0.14974398910999298,0.3545064628124237,-0.18283779919147491,0.8829221129417419,0.3144632577896118
1.284,-0.35886213183403015,-0.15380950272083282,0.3689785301685333,-0.18104225397109985,0.8801177144050598,0.31234002113342285
1.286,-0.35721611976623535,-0.1573314219713211,0.38313713669776917,-0.17928817868232727,0.8764334917068481,0.30953413248062134
1.288,-0.3558001220226288,-0.16014952957630157,0.3968835771083832,-0.1775486171245575,0.8719152212142944,0.3060756027698517
1.29,-0.3546198904514313,-0.16218848526477814,0.41018685698509216,-0.17581455409526825,0.8666205406188965,0.3020065724849701
1.292,-0.35346174240112305,-0.16327662765979767,0.42303526401519775,-0.1740662008523941,0.8606102466583252,0.2973979711532593
1.294,-0.3524993658065796,-0.16333670914173126,0.4351728558540344,-0.17229139804840088,0.853949248790741,0.29231831431388855
1.296,-0.3516322374343872,-0.1624554991722107,0.4466978907585144,-0.1704847514629364,0.846718966960907,0.2868621051311493
1.298,-0.35084667801856995,-0.1604260802268982,0.4575537145137787,-0.1686241775751114,0.8389944434165955,0.2811192572116852
1.3,-0.35015976428985596,-0.15721315145492554,0.4677872061729431,-0.16671019792556763,0.8308486342430115,0.2751944959163666
1.302,-0.34947267174720764,-0.15280431509017944,0.47735387086868286,-0.164738729596138,0.8223513960838318,0.2691725194454193
1.304,-0.3488408029079437,-0.14717859029769897,0.4863685071468353,-0.1627013385295868,0.8135665059089661,0.26314231753349304
1.306,-0.3481731414794922,-0.1402701735496521,0.4948783814907074,-0.1606067270040512,0.8045603632926941,0.2571796476840973
1.308,-0.34753692150115967,-0.1321362853050232,0.5029370188713074,-0.1584496647119522,0.7953889966011047,0.25135213136672974
1.31,-0.34691131114959717,-0.12278836965560913,0.5106146335601807,-0.15622620284557343,0.7861019372940063,0.24571694433689117
1.312,-0.3461933732032776,-0.1122855544090271,0.5179736018180847,-0.1539406180381775,0.7767282128334045,0.2403183877468109
1.314,-0.34550923109054565,-0.1006583571434021,0.5250912308692932,-0.1516052484512329,0.7672967314720154,0.23519550263881683
1.316,-0.34476175904273987,-0.08779995888471603,0.5320310592651367,-0.149223193526268,0.7578155398368835,0.23039202392101288
1.318,-0.34389564394950867,-0.07408135384321213,0.538813591003418,-0.14680719375610352,0.7482940554618835,0.22593766450881958
1.32,-0.3430241346359253,-0.059443406760692596,0.5455349683761597,-0.14437484741210938,0.73871910572052,0.2218758761882782
1.322,-0.342031866312027,-0.04401390627026558,0.5522986054420471,-0.1419438123703003,0.7290564179420471,0.21823927760124207
1.324,-0.34095996618270874,-0.027916835620999336,0.5591042637825012,-0.1395346075296402,0.7192705273628235,0.2150675654411316
1.326,-0.33977505564689636,-0.011339111253619194,0.5659700632095337,-0.13716137409210205,0.7093176245689392,0.2124030888080597
1.328,-0.33842089772224426,0.005616266280412674,0.5728731155395508,-0.13483639061450958,0.6991361975669861,0.2103000283241272
1.33,-0.3369503617286682,0.022751888260245323,0.5798553824424744,-0.13257338106632233,0.6886674761772156,0.20880864560604095
1.332,-0.33534514904022217,0.039917074143886566,0.5869346261024475,-0.13037922978401184,0.6778498291969299,0.20796066522598267
1.334,-0.3336280882358551,0.05696400627493858,0.59405118227005,-0.12825313210487366,0.6666338443756104,0.20779871940612793
1.336,-0.33158063888549805,0.07373437285423279,0.6012077331542969,-0.126192107796669,0.6549849510192871,0.208348348736763
1.338,-0.3293956518173218,0.09000787138938904,0.608285129070282,-0.12420289218425751,0.6428894996643066,0.2096286118030548
1.34,-0.32707852125167847,0.10559187084436417,0.6153088808059692,-0.12227149307727814,0.630350649356842,0.21163837611675262
1.342,-0.324548602104187,0.12038145214319229,0.6222018003463745,-0.1203998252749443,0.617401659488678,0.21435274183750153
1.344,-0.3219234347343445,0.13420209288597107,0.6288773417472839,-0.11855629086494446,0.6040865182876587,0.2177274078130722
1.346,-0.3190564513206482,0.14692029356956482,0.6352906227111816,-0.1167396754026413,0.590473473072052,0.22169481217861176
1.348,-0.3159688711166382,0.15843306481838226,0.6413853764533997,-0.11492942273616791,0.5766422152519226,0.2261795848608017
1.35,-0.3126831650733948,0.16859827935695648,0.6470979452133179,-0.11310746520757675,0.5626718401908875,0.23108310997486115
1.352,-0.3093183636665344,0.17746172845363617,0.6523419618606567,-0.11126398295164108,0.5486491918563843,0.23630446195602417
1.354,-0.30583465099334717,0.18490706384181976,0.6570659875869751,-0.10936375707387924,0.5346542000770569,0.2417391687631607
1.356,-0.3021482825279236,0.19092285633087158,0.6611416339874268,-0.1073819175362587,0.5207603573799133,0.2472846806049347
1.358,-0.2983724772930145,0.19544899463653564,0.6645404696464539,-0.10530144721269608,0.5070223212242126,0.2528429627418518
1.36,-0.2945161461830139,0.19869530200958252,0.6672472953796387,-0.1031036227941513,0.49350085854530334,0.25831538438796997
1.362,-0.29063305258750916,0.20053589344024658,0.6691588759422302,-0.10078509896993637,0.48023703694343567,0.2636207342147827
1.364,-0.28676846623420715,0.20111286640167236,0.670282244682312,-0.09834499657154083,0.4672659933567047,0.26868516206741333
1.366,-0.2830362319946289,0.2004185914993286,0.6705731153488159,-0.09579206258058548,0.4546397626399994,0.27344071865081787
1.368,-0.2792906165122986,0.1985980123281479,0.6700225472450256,-0.09314921498298645,0.4423820674419403,0.2778315544128418
1.37,-0.27554967999458313,0.19578276574611664,0.6686573624610901,-0.09046034514904022,0.4305298626422882,0.28179803490638733
1.372,-0.2718961238861084,0.19195090234279633,0.6664418578147888,-0.08777103573083878,0.41912075877189636,0.28528523445129395
1.374,-0.26838311553001404,0.18726739287376404,0.6635058522224426,-0.08514402061700821,0.40819400548934937,0.28824353218078613
1.376,-0.26502078771591187,0.18192586302757263,0.6598111391067505,-0.08264758437871933,0.397793173789978,0.2906455993652344
1.378,-0.2619371712207794,0.17594537138938904,0.6553907990455627,-0.08034194260835648,0.3879493772983551,0.29246634244918823
1.38,-0.2589864134788513,0.1693612039089203,0.6504504680633545,-0.07830357551574707,0.37870335578918457,0.29369619488716125
1.382,-0.25630953907966614,0.16235646605491638,0.6450576186180115,-0.0766017809510231,0.37009066343307495,0.29432961344718933
1.384,-0.253939151763916,0.1550026834011078,0.639295756816864,-0.07528280466794968,0.3621356189250946,0.2943798899650574
1.386,-0.2518254518508911,0.14738377928733826,0.6331866979598999,-0.07438710331916809,0.35486260056495667,0.2938847839832306
1.388,-0.2500978112220764,0.13955602049827576,0.6269550323486328,-0.07394426316022873,0.34829455614089966,0.2928764224052429
1.39,-0.24859075248241425,0.13154515624046326,0.6206528544425964,-0.0739533007144928,0.3424440324306488,0.29139405488967896
1.392,-0.24741299450397491,0.123450368642807,0.6144554615020752,-0.07439872622489929,0.337306946516037,0.2894937992095947
1.394,-0.2465878129005432,0.11532315611839294,0.6084163188934326,-0.07526373863220215,0.3328854739665985,0.2872280180454254
1.396,-0.2460663616657257,0.1072302758693695,0.60256427526474,-0.07650719583034515,0.3291601240634918,0.28465715050697327
1.398,-0.24592140316963196,0.09910306334495544,0.5970274209976196,-0.07808248698711395,0.3261176347732544,0.2818549573421478
1.4,-0.2461489737033844,0.09095867723226547,0.5919330716133118,-0.07992569357156754,0.3237247169017792,0.2788809835910797
1.402,-0.24673804640769958,0.08294972032308578,0.5872344970703125,-0.08199118077754974,0.32193759083747864,0.275799036026001
1.404,-0.2476220428943634,0.07492359727621078,0.5831402540206909,-0.08422061055898666,0.3207177221775055,0.27265653014183044
1.406,-0.2488006055355072,0.06707199662923813,0.5795825719833374,-0.0865667387843132,0.3200069069862366,0.2695154547691345
1.408,-0.2502845525741577,0.05921943858265877,0.5766849517822266,-0.08899049460887909,0.3197539746761322,0.26641085743904114
1.41,-0.25201863050460815,0.05148704722523689,0.5743180513381958,-0.09145721048116684,0.31989380717277527,0.263381689786911
1.412,-0.2540254592895508,0.04385288059711456,0.5726028084754944,-0.09393911063671112,0.32036304473876953,0.26043701171875
1.414,-0.25627079606056213,0.036335065960884094,0.5714627504348755,-0.09641887247562408,0.3210919499397278,0.2575807273387909
1.416,-0.25867965817451477,0.028893545269966125,0.5707957744598389,-0.09889519214630127,0.32202282547950745,0.2547931671142578
1.418,-0.26127469539642334,0.02160651795566082,0.5706427097320557,-0.10136948525905609,0.3230995237827301,0.25205883383750916
1.42,-0.2639608383178711,0.014494969509541988,0.5709194540977478,-0.10384584963321686,0.3242543041706085,0.24934212863445282
1.422,-0.2668418288230896,0.007477832958102226,0.5715950727462769,-0.10633323341608047,0.3254292607307434,0.2466084212064743
1.424,-0.2696552574634552,0.0006838567787781358,0.5726041793823242,-0.10885198414325714,0.32657289505004883,0.24382975697517395
1.426,-0.2725321650505066,-0.005987095646560192,0.5739536881446838,-0.11141416430473328,0.32762137055397034,0.24098318815231323
1.428,-0.2754563093185425,-0.012422490864992142,0.5754930377006531,-0.11402197182178497,0.3285229802131653,0.2380398064851761
1.43,-0.278311550617218,-0.01862042024731636,0.577197790145874,-0.11667715758085251,0.3292081654071808,0.2349884957075119
1.432,-0.2811635136604309,-0.024491239339113235,0.5789754390716553,-0.11937710642814636,0.3296155333518982,0.23183244466781616
1.434,-0.28404501080513,-0.030203748494386673,0.5807631015777588,-0.12212260067462921,0.32969069480895996,0.22857780754566193
1.436,-0.28680843114852905,-0.03569309785962105,0.5825557708740234,-0.12490446865558624,0.32939639687538147,0.2252311259508133
1.438,-0.28950685262680054,-0.04083912447094917,0.5843450427055359,-0.1277102380990982,0.32868894934654236,0.22180891036987305
1.44,-0.29218804836273193,-0.045761991292238235,0.5859919786453247,-0.13053569197654724,0.32754141092300415,0.21833032369613647
1.442,-0.2947428226470947,-0.05035870522260666,0.5874983072280884,-0.1333674192428589,0.32593366503715515,0.21483537554740906
1.444,-0.2971988022327423,-0.054731301963329315,0.588797390460968,-0.13617756962776184,0.32386428117752075,0.21135056018829346
1.446,-0.2997015118598938,-0.058901719748973846,0.5898955464363098,-0.1389530748128891,0.321342796087265,0.20790231227874756
1.448,-0.3021221160888672,-0.06286519020795822,0.5908160209655762,-0.14164943993091583,0.31837543845176697,0.20453381538391113
1.45,-0.30447879433631897,-0.0666760727763176,0.5914522409439087,-0.14422191679477692,0.31498053669929504,0.2012893110513687
1.452,-0.3068050146102905,-0.07031147927045822,0.5918071866035461,-0.1466246396303177,0.31117257475852966,0.1982022523880005
1.454,-0.30903828144073486,-0.07389538735151291,0.5918848514556885,-0.1487719714641571,0.30697405338287354,0.1953219473361969
1.456,-0.31120485067367554,-0.07736676186323166,0.5916702151298523,-0.15059271454811096,0.30239737033843994,0.1927027553319931
1.458,-0.3133477568626404,-0.08089631050825119,0.5911800265312195,-0.15203668177127838,0.2974630892276764,0.19038401544094086
1.46,-0.3153626322746277,-0.08440869301557541,0.590376079082489,-0.1530190408229828,0.29219794273376465,0.18838639557361603
1.462,-0.31717661023139954,-0.08796780556440353,0.5892499089241028,-0.15350300073623657,0.28662019968032837,0.18672990798950195
1.464,-0.3189702332019806,-0.09155934303998947,0.5879042744636536,-0.15346460044384003,0.2807667553424835,0.18540117144584656
1.466,-0.32061612606048584,-0.09529012441635132,0.5862215757369995,-0.15288567543029785,0.27466845512390137,0.1843818724155426
1.468,-0.32215529680252075,-0.09905427694320679,0.5842958688735962,-0.1517764776945114,0.26835158467292786,0.18362434208393097
1.47,-0.3235665559768677,-0.10298436880111694,0.5821441411972046,-0.1501639485359192,0.2618577480316162,0.18307091295719147
1.472,-0.3248739540576935,-0.10701459646224976,0.5796948671340942,-0.1480872482061386,0.25522106885910034,0.1826396882534027
1.474,-0.32603007555007935,-0.11115449666976929,0.5770400166511536,-0.1455911248922348,0.24848157167434692,0.18224495649337769
1.476,-0.32705438137054443,-0.11523526906967163,0.57416832447052,-0.14273694157600403,0.24167971312999725,0.1817876100540161
1.478,-0.327941358089447,-0.1193360686302185,0.5711119174957275,-0.13957765698432922,0.23484741151332855,0.18118318915367126
1.48,-0.32876312732696533,-0.12341398000717163,0.5678324699401855,-0.13616758584976196,0.22801384329795837,0.18034213781356812
1.482,-0.32949990034103394,-0.12735646963119507,0.5644149780273438,-0.13257096707820892,0.2212243378162384,0.17919665575027466
1.484,-0.33013349771499634,-0.13113778829574585,0.5608028173446655,-0.12883250415325165,0.2145167738199234,0.17768800258636475
1.486,-0.3306187689304352,-0.1346864104270935,0.5570325255393982,-0.12499261647462845,0.20792566239833832,0.17579203844070435
1.488,-0.33105146884918213,-0.13798612356185913,0.553219199180603,-0.12107942998409271,0.20147277414798737,0.1735142022371292
1.49,-0.3315252959728241,-0.14094632863998413,0.5492638349533081,-0.11713463068008423,0.1951797604560852,0.17087894678115845
1.492,-0.33195438981056213,-0.14357656240463257,0.5451815724372864,-0.11318366974592209,0.18907320499420166,0.16791297495365143
1.494,-0.3323873281478882,-0.14574426412582397,0.5410807132720947,-0.10922987759113312,0.1831509917974472,0.16466651856899261
1.496,-0.3327631950378418,-0.1474255919456482,0.5369173884391785,-0.10529956221580505,0.17741179466247559,0.16118749976158142
1.498,-0.3332594037055969,-0.14866822957992554,0.5327399969100952,-0.10141590982675552,0.17184653878211975,0.15754322707653046
1.5,-0.3337976932525635,-0.14932531118392944,0.5285181999206543,-0.09758076816797256,0.16644220054149628,0.1537754386663437
1.502,-0.3342827558517456,-0.14945882558822632,0.5242879390716553,-0.09382550418376923,0.16118289530277252,0.1499163657426834
1.504,-0.33480215072631836,-0.1489962935447693,0.5200854539871216,-0.09015896171331406,0.15604913234710693,0.14598727226257324
1.506,-0.3353753983974457,-0.1480225920677185,0.5158340334892273,-0.08659143000841141,0.151018887758255,0.14201174676418304
1.508,-0.33588019013404846,-0.14648526906967163,0.5116274356842041,-0.08315037190914154,0.14609061181545258,0.13798803091049194
1.51,-0.33634454011917114,-0.14440244436264038,0.5073304176330566,-0.0798276960849762,0.1412511020898819,0.13391102850437164
1.512,-0.3367514908313751,-0.14185041189193726,0.50301194190979,-0.0766415074467659,0.13649411499500275,0.12977547943592072
1.514,-0.3371056914329529,-0.1387585997581482,0.4986097514629364,-0.0736093670129776,0.13181465864181519,0.12558020651340485
1.516,-0.3373313844203949,-0.13521569967269897,0.494162917137146,-0.07072542607784271,0.12720943987369537,0.12131087481975555
1.518,-0.3374709486961365,-0.13124936819076538,0.48964574933052063,-0.06798988580703735,0.12267552316188812,0.11696445196866989
1.52,-0.33744731545448303,-0.12694066762924194,0.48500028252601624,-0.06541498750448227,0.11820574104785919,0.112540103495121
1.522,-0.33727970719337463,-0.12231344729661942,0.4803026020526886,-0.06300295889377594,0.11379371583461761,0.10803829878568649
1.524,-0.3368615508079529,-0.11740774661302567,0.4754462242126465,-0.06075052171945572,0.10943746566772461,0.10346962511539459
1.526,-0.33626094460487366,-0.11220831423997879,0.47051382064819336,-0.05866199731826782,0.10513915866613388,0.09882897138595581
1.528,-0.3353041708469391,-0.10676855593919754,0.4654059410095215,-0.056735530495643616,0.10090085864067078,0.094126395881176
1.53,-0.3341844379901886,-0.10119909793138504,0.4602273106575012,-0.05496653914451599,0.09672574698925018,0.08936332166194916
1.532,-0.33277493715286255,-0.0953340008854866,0.45492053031921387,-0.05334915965795517,0.09263318032026291,0.08453979343175888
1.534,-0.33118003606796265,-0.08940023183822632,0.4494636654853821,-0.05188482999801636,0.08864746242761612,0.07966914772987366
1.536,-0.32931971549987793,-0.0833558440208435,0.443807989358902,-0.0505639985203743,0.0847790539264679,0.07474914193153381
1.538,-0.3271881937980652,-0.0772666335105896,0.43804553151130676,-0.049383096396923065,0.08106187731027603,0.06979750841856003
1.54,-0.32478901743888855,-0.0710858702659607,0.4320965111255646,-0.04833853617310524,0.07750925421714783,0.06483491510152817
1.542,-0.3221248388290405,-0.06499570608139038,0.4260002076625824,-0.047415971755981445,0.07413836568593979,0.05987473577260971
1.544,-0.3191818296909332,-0.05890936031937599,0.41980597376823425,-0.04660216346383095,0.07096558809280396,0.054959699511528015
1.546,-0.3159782290458679,-0.05277532711625099,0.4134601652622223,-0.04588725045323372,0.06799716502428055,0.050132740288972855
1.548,-0.3125338554382324,-0.04679197445511818,0.4069792628288269,-0.045267149806022644,0.06523993611335754,0.04542157053947449
1.55,-0.30883097648620605,-0.040933553129434586,0.40037253499031067,-0.04471766948699951,0.06269819289445877,0.040870923548936844
1.552,-0.3049779236316681,-0.03519720211625099,0.3936796486377716,-0.044225290417671204,0.060373734682798386,0.0365210697054863
1.554,-0.30094534158706665,-0.029567664489150047,0.38690468668937683,-0.04377729818224907,0.058264460414648056,0.03239515796303749
1.556,-0.2966693639755249,-0.02409643493592739,0.3800309896469116,-0.04336606711149216,0.056366194039583206,0.028525203466415405
1.558,-0.29228606820106506,-0.01886839233338833,0.3731718361377716,-0.04298942908644676,0.05468570813536644,0.02493109740316868
1.56,-0.2877570390701294,-0.013863510452210903,0.36632078886032104,-0.04265151172876358,0.053224239498376846,0.021607456728816032
1.562,-0.2831568717956543,-0.009138054214417934,0.3595133125782013,-0.042364221066236496,0.051967475563287735,0.018546827137470245
1.564,-0.27851349115371704,-0.004658645950257778,0.35275763273239136,-0.042149074375629425,0.0509348101913929,0.015748262405395508
1.566,-0.2738151252269745,-0.0005177927087061107,0.34615421295166016,-0.0419967919588089,0.050129782408475876,0.013193882070481777
1.568,-0.26896795630455017,0.00326924747787416,0.33970800042152405,-0.04193563759326935,0.049551110714673996,0.01086602546274662
1.57,-0.26424896717071533,0.00678544444963336,0.3333705961704254,-0.04198820888996124,0.049207452684640884,0.008753262460231781
1.572,-0.2595350444316864,0.009844830259680748,0.32733967900276184,-0.042148880660533905,0.0491027794778347,0.00683779688552022
1.574,-0.25475573539733887,0.012538006529211998,0.32148581743240356,-0.04241295903921127,0.04924732446670532,0.005100200418382883
1.576,-0.25011369585990906,0.014821101911365986,0.3159944713115692,-0.04277656972408295,0.04964464530348778,0.0035238026175647974
1.578,-0.2455427497625351,0.01659398153424263,0.3108116686344147,-0.04322916269302368,0.05028561130166054,0.0020935614593327045
1.58,-0.2409747689962387,0.01805119588971138,0.305959016084671,-0.0437493771314621,0.05118270218372345,0.0008135256939567626
1.582,-0.23645693063735962,0.01911167986690998,0.30159687995910645,-0.04431888461112976,0.052327197045087814,-0.0003370449994690716
1.584,-0.23206666111946106,0.019762085750699043,0.29764267802238464,-0.04491812735795975,0.0537087507545948,-0.0013768273638561368
1.586,-0.22776266932487488,0.019967125728726387,0.2941752076148987,-0.04554559290409088,0.05531681701540947,-0.0023301271721720695
1.588,-0.22371546924114227,0.0197935551404953,0.2912309169769287,-0.046189092099666595,0.05713236331939697,-0.0032248597126454115
1.59,-0.21970680356025696,0.019266173243522644,0.28883153200149536,-0.046842820942401886,0.059125348925590515,-0.0040916153229773045
1.592,-0.21575753390789032,0.018424078822135925,0.28696274757385254,-0.047518711537122726,0.061264924705028534,-0.004969839006662369
1.594,-0.21195507049560547,0.017365500330924988,0.28563830256462097,-0.04822466894984245,0.06352715939283371,-0.005898371338844299
1.596,-0.2083694338798523,0.0159712266176939,0.2849201560020447,-0.04896989092230797,0.06587809324264526,-0.006894936319440603
1.598,-0.20480379462242126,0.0144644221290946,0.2846817970275879,-0.049766577780246735,0.06829135119915009,-0.007988997735083103
1.6,-0.20129409432411194,0.012784047052264214,0.2850528955459595,-0.05063064023852348,0.07074569910764694,-0.009187516756355762
1.602,-0.19790218770503998,0.011051219888031483,0.2860105037689209,-0.05154764652252197,0.07320363819599152,-0.010497142560780048
1.604,-0.1945037692785263,0.009226840920746326,0.2874506115913391,-0.0525309294462204,0.07565049827098846,-0.011932900175452232
1.606,-0.191310852766037,0.007391017861664295,0.2894231379032135,-0.05357915163040161,0.07807318866252899,-0.013486001640558243
1.608,-0.1881328523159027,0.005641025025397539,0.2918592095375061,-0.054670728743076324,0.08044014126062393,-0.015138600021600723
1.61,-0.18502017855644226,0.003942531067878008,0.2947341799736023,-0.055803246796131134,0.08273942023515701,-0.01689550280570984
1.612,-0.18198370933532715,0.0024023468140512705,0.29796546697616577,-0.05696672573685646,0.08492771536111832,-0.018745746463537216
1.614,-0.17891401052474976,0.0009527617366984487,0.3015177845954895,-0.05814751237630844,0.0869751051068306,-0.020672384649515152
1.616,-0.17581140995025635,-0.000244099588599056,0.30535268783569336,-0.05933752655982971,0.0888490080833435,-0.02265685796737671
1.618,-0.17286232113838196,-0.0013074463931843638,0.309339702129364,-0.06053287535905838,0.09050269424915314,-0.02469593659043312
1.62,-0.16986384987831116,-0.002094227820634842,0.3134482502937317,-0.061732493340969086,0.09189504384994507,-0.026758646592497826
1.622,-0.16689658164978027,-0.0026778762694448233,0.31763553619384766,-0.06292623281478882,0.09299583733081818,-0.028841637074947357
1.624,-0.1639193743467331,-0.0029496734496206045,0.3217865526676178,-0.0641142725944519,0.09376537799835205,-0.030929112806916237
1.626,-0.1609898805618286,-0.0029134335927665234,0.3258345127105713,-0.06529120355844498,0.09417575597763062,-0.033015936613082886
1.628,-0.15795102715492249,-0.0025844157207757235,0.3297490179538727,-0.06645038723945618,0.09420887380838394,-0.03508121892809868
1.63,-0.1549506038427353,-0.0020093501079827547,0.33344337344169617,-0.06757700443267822,0.09385672211647034,-0.03712138906121254
1.632,-0.1519250124692917,-0.0011567651527002454,0.3368323743343353,-0.06867048144340515,0.09312290698289871,-0.039136894047260284
1.634,-0.14889293909072876,-2.8190349894430256e-06,0.33997589349746704,-0.06973215937614441,0.09200667589902878,-0.041123468428850174
1.636,-0.14581984281539917,0.0013580743689090014,0.34275519847869873,-0.07075618952512741,0.0905274823307991,-0.0430632047355175
1.638,-0.14275342226028442,0.002928775968030095,0.34519466757774353,-0.07173837721347809,0.08870788663625717,-0.04494285583496094
1.64,-0.13961634039878845,0.004765552934259176,0.34711241722106934,-0.0726688802242279,0.08655975013971329,-0.046763889491558075
1.642,-0.13642296195030212,0.006728215143084526,0.3486318588256836,-0.07355216890573502,0.08411311358213425,-0.04851536452770233
1.644,-0.13314950466156006,0.008876843377947807,0.349645733833313,-0.07438240945339203,0.08140286058187485,-0.050183627754449844
1.646,-0.12978720664978027,0.011195224709808826,0.35024768114089966,-0.07514051347970963,0.0784614309668541,-0.05176863446831703
1.648,-0.12629571557044983,0.013667149469256401,0.35034626722335815,-0.07580682635307312,0.07531087845563889,-0.05325105041265488
1.65,-0.12272264808416367,0.01622871868312359,0.3499714732170105,-0.07637180387973785,0.07198257744312286,-0.05463230982422829
1.652,-0.11916498839855194,0.01891426555812359,0.34910452365875244,-0.07681284844875336,0.06849289685487747,-0.05590343475341797
1.654,-0.11548104882240295,0.021710436791181564,0.34783145785331726,-0.07710866630077362,0.06486264616250992,-0.057051435112953186
1.656,-0.11179061979055405,0.02449135296046734,0.34616369009017944,-0.07725194841623306,0.06113079935312271,-0.058069679886102676
1.658,-0.10810237377882004,0.027203602716326714,0.3440176248550415,-0.0772181898355484,0.057296112179756165,-0.05894140154123306
1.66,-0.10432540625333786,0.02998642437160015,0.34155192971229553,-0.07700394839048386,0.05336657911539078,-0.05966994911432266
1.662,-0.10045726597309113,0.0327177457511425,0.338667094707489,-0.07662461698055267,0.04937243461608887,-0.060245491564273834
1.664,-0.09658799320459366,0.03532985970377922,0.335449755191803,-0.07606035470962524,0.04531138762831688,-0.06066467985510826
1.666,-0.09277798235416412,0.03786567971110344,0.3318907916545868,-0.07532579451799393,0.04119930416345596,-0.0609298050403595
1.668,-0.08892884850502014,0.040333788841962814,0.3279575705528259,-0.07443495839834213,0.037043843418359756,-0.06104598194360733
1.67,-0.08517377823591232,0.042660754173994064,0.3237209618091583,-0.07340472936630249,0.03285915032029152,-0.06102686747908592
1.672,-0.08142812550067902,0.044774092733860016,0.3191600739955902,-0.07225318253040314,0.028658928349614143,-0.06088210642337799
1.674,-0.0777253732085228,0.046719588339328766,0.31430310010910034,-0.07099439203739166,0.024452315643429756,-0.06061968952417374
1.676,-0.07423219084739685,0.04847244545817375,0.30905118584632874,-0.06963995844125748,0.020252536982297897,-0.06025204062461853
1.678,-0.0709231048822403,0.050035517662763596,0.30349212884902954,-0.06819199025630951,0.016062431037425995,-0.05979019030928612
1.68,-0.0676693543791771,0.051281969994306564,0.2976379692554474,-0.06668364256620407,0.011880790814757347,-0.059248510748147964
1.682,-0.06454071402549744,0.052395857870578766,0.291347861289978,-0.06512497365474701,0.007711299695074558,-0.058661289513111115
1.684,-0.06162305176258087,0.0531340017914772,0.28474628925323486,-0.06353101879358292,0.003553666640073061,-0.05803386867046356
1.686,-0.05885360389947891,0.05369380861520767,0.27770620584487915,-0.061909452080726624,-0.0005990380304865539,-0.05738655850291252
1.688,-0.056213200092315674,0.05397609621286392,0.2703559696674347,-0.06027170643210411,-0.004742227960377932,-0.056738365441560745
1.69,-0.05385894328355789,0.05392554774880409,0.2625828683376312,-0.058637138456106186,-0.008869032375514507,-0.05611376091837883
1.692,-0.051678091287612915,0.05355742946267128,0.25437361001968384,-0.057013414800167084,-0.012962216511368752,-0.05552007630467415
1.694,-0.049674153327941895,0.052859339863061905,0.24578407406806946,-0.05542215332388878,-0.017000334337353706,-0.05496256425976753
1.696,-0.04780616611242294,0.05188468471169472,0.23678699135780334,-0.053864985704422,-0.020957810804247856,-0.05445212125778198
1.698,-0.046013399958610535,0.05061343312263489,0.22739829123020172,-0.052353519946336746,-0.02480008639395237,-0.05399579182267189
1.7,-0.04432429373264313,0.04899504780769348,0.2176741361618042,-0.05089256167411804,-0.028492743149399757,-0.053597964346408844
1.702,-0.04285123944282532,0.04699614644050598,0.20762914419174194,-0.04949451610445976,-0.03199576959013939,-0.05327438935637474
1.704,-0.04143207520246506,0.04469015821814537,0.19735583662986755,-0.048149336129426956,-0.03527246043086052,-0.053014446049928665
1.706,-0.03996482491493225,0.042110465466976166,0.18686392903327942,-0.04685654118657112,-0.038282860070466995,-0.05282820761203766
1.708,-0.038667045533657074,0.03926374763250351,0.17620359361171722,-0.0456153079867363,-0.040992360562086105,-0.05272083356976509
1.71,-0.03739984706044197,0.03611280769109726,0.1653834581375122,-0.04441016539931297,-0.04338481277227402,-0.0526849627494812
1.712,-0.03610504791140556,0.03269197419285774,0.15452592074871063,-0.043222855776548386,-0.045434992760419846,-0.052741821855306625
1.714,-0.0348435714840889,0.029021281749010086,0.14365729689598083,-0.04203789308667183,-0.04712401330471039,-0.05289620906114578
1.716,-0.033521268516778946,0.02515222504734993,0.1328742951154709,-0.04084455594420433,-0.04844512790441513,-0.05316584184765816
1.718,-0.03212901949882507,0.021107688546180725,0.12227117270231247,-0.03963994234800339,-0.049392297863960266,-0.05355502665042877
1.72,-0.030764233320951462,0.016903892159461975,0.11186090111732483,-0.03841743245720863,-0.049970559775829315,-0.05407652258872986
1.722,-0.02940509468317032,0.012540830299258232,0.1016862690448761,-0.03717318922281265,-0.05019301176071167,-0.054750099778175354
1.724,-0.02802261710166931,0.008148204535245895,0.09185074269771576,-0.035907477140426636,-0.05007869377732277,-0.0555887445807457
1.726,-0.02655891329050064,0.003722200635820627,0.08244147896766663,-0.03463520482182503,-0.04965108633041382,-0.056585945188999176
1.728,-0.024928027763962746,-0.0007018958567641675,0.07343645393848419,-0.033363226801157,-0.048935841768980026,-0.05775555595755577
1.73,-0.02339116856455803,-0.00519561069086194,0.06494174152612686,-0.03208579868078232,-0.04796499386429787,-0.059076499193906784
1.732,-0.021753700450062752,-0.009513849392533302,0.056918367743492126,-0.030802812427282333,-0.04677256941795349,-0.060534533113241196
1.734,-0.020150719210505486,-0.013811107724905014,0.04943361505866051,-0.029505066573619843,-0.04539269953966141,-0.06211550906300545
1.736,-0.01846051588654518,-0.017993923276662827,0.04248419776558876,-0.028183359652757645,-0.04386869817972183,-0.0637931302189827
1.738,-0.016810595989227295,-0.021954534575343132,0.03607235848903656,-0.02682892605662346,-0.04223093390464783,-0.06555631011724472
1.74,-0.015073577873408794,-0.025710105895996094,0.03029749169945717,-0.025424426421523094,-0.04050946980714798,-0.06738835573196411
1.742,-0.013377763330936432,-0.029230117797851562,0.025081511586904526,-0.023964684456586838,-0.03874383494257927,-0.06928987056016922
1.744,-0.011667591519653797,-0.03246784210205078,0.020372750237584114,-0.022442948073148727,-0.03695491701364517,-0.07125823944807053
1.746,-0.009910416789352894,-0.03548908233642578,0.01626354269683361,-0.020850930362939835,-0.03517044708132744,-0.07330242544412613
1.748,-0.008160296827554703,-0.03816891089081764,0.012639365158975124,-0.019184214994311333,-0.0334148183465004,-0.07542824745178223
1.75,-0.006332322955131531,-0.04052257910370827,0.009594401344656944,-0.017449459061026573,-0.03169622644782066,-0.0776442214846611
1.752,-0.004554476123303175,-0.04257583990693092,0.007047002669423819,-0.01564391329884529,-0.030025014653801918,-0.07995247840881348
1.754,-0.002684635343030095,-0.044297222048044205,0.005055292975157499,-0.013765186071395874,-0.028404394164681435,-0.08235141634941101
1.756,-0.000816555111669004,-0.04565048590302467,0.0035042802337557077,-0.01180613785982132,-0.02683769166469574,-0.08483114838600159
1.758,0.001125798560678959,-0.04666424170136452,0.0024570359382778406,-0.009771790355443954,-0.025331780314445496,-0.0873802900314331
1.76,0.0031689112074673176,-0.047381408512592316,0.0019001987529918551,-0.007653787732124329,-0.02388344332575798,-0.08996017277240753
1.762,0.005297974683344364,-0.04780007153749466,0.0017729203682392836,-0.005454089492559433,-0.02249947376549244,-0.09254622459411621
1.764,0.007482016459107399,-0.04785061627626419,0.0019664044957607985,-0.0031783580780029297,-0.021179502829909325,-0.09511207044124603
1.766,0.00980947446078062,-0.04758072644472122,0.002597267273813486,-0.0008258409798145294,-0.019927620887756348,-0.09761682152748108
1.768,0.012279697693884373,-0.04695034772157669,0.0036594648845493793,0.0015935376286506653,-0.018752269446849823,-0.10004287213087082
1.77,0.01484330091625452,-0.04600811377167702,0.0050179786048829556,0.004069607704877853,-0.0176618043333292,-0.10237521678209305
1.772,0.01748022437095642,-0.04481411352753639,0.006722130812704563,0.006580330431461334,-0.016653072088956833,-0.1046227216720581
1.774,0.0202448982745409,-0.04326630011200905,0.008737526834011078,0.00911383330821991,-0.01571718417108059,-0.10679136216640472
1.776,0.023082271218299866,-0.04143906012177467,0.011073609814047813,0.011652849614620209,-0.014855215325951576,-0.10888010263442993
1.778,0.026015494018793106,-0.03936672583222389,0.013701489195227623,0.014182038605213165,-0.014061763882637024,-0.11090660095214844
1.78,0.029003124684095383,-0.03703594580292702,0.016548199579119682,0.016703099012374878,-0.013325058855116367,-0.11290518939495087
1.782,0.032034117728471756,-0.03442287817597389,0.019657693803310394,0.019206952303647995,-0.012640888802707195,-0.11488237977027893
1.784,0.03514128178358078,-0.03160286322236061,0.02303451858460903,0.021690405905246735,-0.011996408924460411,-0.11684972047805786
1.786,0.03831575810909271,-0.028544429689645767,0.02660873718559742,0.024164654314517975,-0.01138889417052269,-0.11880825459957123
1.788,0.04150743409991264,-0.0252532996237278,0.030377548187971115,0.026648569852113724,-0.010812477208673954,-0.12074140459299088
1.79,0.04465903714299202,-0.021727563813328743,0.034346804022789,0.02914787083864212,-0.010252643376588821,-0.12264598906040192
1.792,0.04768134653568268,-0.018003465607762337,0.038517918437719345,0.03166881948709488,-0.009707603603601456,-0.1245020255446434
1.794,0.05071886628866196,-0.013952257111668587,0.04278683289885521,0.03420344740152359,-0.00916513241827488,-0.1262916922569275
1.796,0.05371508747339249,-0.009757042862474918,0.047320228070020676,0.036754753440618515,-0.008610647171735764,-0.12800021469593048
1.798,0.05664677545428276,-0.005290031898766756,0.051989324390888214,0.039320915937423706,-0.008038113825023174,-0.1296147108078003
1.8,0.05952124297618866,-0.0007476804894395173,0.05691208317875862,0.04187896475195885,-0.007433903403580189,-0.1311206966638565
1.802,0.06226044148206711,0.004074097611010075,0.061957504600286484,0.04441983625292778,-0.006779597606509924,-0.13250218331813812
1.804,0.06491453945636749,0.009067537263035774,0.067168228328228,0.04692487791180611,-0.006071336101740599,-0.13374951481819153
1.806,0.0674782246351242,0.014158251695334911,0.0725526213645935,0.04937512055039406,-0.005299323704093695,-0.13485077023506165
1.808,0.06989920884370804,0.019404415041208267,0.0781085193157196,0.051751065999269485,-0.004450235515832901,-0.13578727841377258
1.81,0.0721321552991867,0.024727826938033104,0.08384671807289124,0.05404037982225418,-0.00352286733686924,-0.13655056059360504
1.812,0.07436184585094452,0.03010464273393154,0.08971387892961502,0.056229136884212494,-0.0025128480046987534,-0.1371190994977951
1.814,0.07653498649597168,0.03547383099794388,0.09573744237422943,0.05831098556518555,-0.001439264276996255,-0.13748155534267426
1.816,0.07856839895248413,0.04080677777528763,0.10189824551343918,0.06028412654995918,-0.00031686227885074914,-0.13763076066970825
1.818,0.08064891397953033,0.046033866703510284,0.10820870101451874,0.06213803216814995,0.0008343399967998266,-0.13756078481674194
1.82,0.08261971175670624,0.051241885870695114,0.1147146001458168,0.0638645589351654,0.0019939111080020666,-0.13728313148021698
1.822,0.08459773659706116,0.0562296025454998,0.1213236078619957,0.06546704471111298,0.0031354911625385284,-0.13681501150131226
1.824,0.08658511191606522,0.06107236072421074,0.12805113196372986,0.06694118678569794,0.004239030182361603,-0.13618040084838867
1.826,0.08867880702018738,0.06569673120975494,0.13484947383403778,0.06829117238521576,0.00528312474489212,-0.1354139894247055
1.828,0.09072475880384445,0.07005597651004791,0.14167119562625885,0.06951521337032318,0.00625370629131794,-0.1345548927783966
1.83,0.09286954998970032,0.07416822016239166,0.1485300064086914,0.07061154395341873,0.007151491940021515,-0.13365118205547333
1.832,0.09506943821907043,0.07800771296024323,0.15540671348571777,0.07158021628856659,0.007981784641742706,-0.13274040818214417
1.834,0.09729528427124023,0.08151532709598541,0.16223041713237762,0.07242719829082489,0.008754318580031395,-0.13184137642383575
1.836,0.09963449835777283,0.0847635418176651,0.16901057958602905,0.07316257059574127,0.00947948545217514,-0.13097871840000153
1.838,0.1019994392991066,0.08777715265750885,0.17577894032001495,0.0737961083650589,0.0101634431630373,-0.13018451631069183
1.84,0.10452501475811005,0.09059049189090729,0.18248410522937775,0.07433758676052094,0.010834738612174988,-0.1294613629579544
1.842,0.10703659057617188,0.09299375116825104,0.18911468982696533,0.07479601353406906,0.011506626382470131,-0.12880977988243103
1.844,0.10964655876159668,0.0951862558722496,0.1956632137298584,0.07518929243087769,0.012180901132524014,-0.12822028994560242
1.846,0.11225705593824387,0.09719755500555038,0.20203696191310883,0.07552999258041382,0.012872847728431225,-0.1276838332414627
1.848,0.11491497606039047,0.09902098029851913,0.20835845172405243,0.07582953572273254,0.013591459952294827,-0.12719926238059998
1.85,0.11752085387706757,0.10063459724187851,0.21453577280044556,0.07608645409345627,0.01432711724191904,-0.1267511546611786
1.852,0.12015150487422943,0.10207846015691757,0.22061152756214142,0.07630173116922379,0.015081563033163548,-0.12633778154850006
1.854,0.12264719605445862,0.10333540290594101,0.22657208144664764,0.07647868990898132,0.01585305482149124,-0.12595976889133453
1.856,0.12504838407039642,0.10451700538396835,0.2324131280183792,0.07661256194114685,0.01664247177541256,-0.1256154477596283
1.858,0.12732557952404022,0.10553839057683945,0.23819409310817719,0.0767030343413353,0.017453832551836967,-0.1253005713224411
1.86,0.12949860095977783,0.10651591420173645,0.2438054084777832,0.076739102602005,0.018288586288690567,-0.12501996755599976
1.862,0.1315251588821411,0.10746100544929504,0.24928505718708038,0.07671952247619629,0.019136911258101463,-0.12477283179759979
1.864,0.13327009975910187,0.10837462544441223,0.25468581914901733,0.07664116472005844,0.020002514123916626,-0.12455373257398605
1.866,0.13488414883613586,0.10919764637947083,0.2599261999130249,0.07650481909513474,0.02088795229792595,-0.12436424195766449
1.868,0.13618823885917664,0.1101093590259552,0.2650394141674042,0.07630538940429688,0.021803362295031548,-0.12420275807380676
1.87,0.13728109002113342,0.1110248863697052,0.2700735926628113,0.07605958729982376,0.02275029383599758,-0.12406159937381744
1.872,0.13818463683128357,0.11198332905769348,0.2749898433685303,0.07576917856931686,0.023723149672150612,-0.12393628060817719
1.874,0.13887786865234375,0.11299803853034973,0.27989014983177185,0.07544071972370148,0.024720406159758568,-0.12382306158542633
1.876,0.1392519772052765,0.11410239338874817,0.28466588258743286,0.07507677376270294,0.025750448927283287,-0.12371460348367691
1.878,0.1394239068031311,0.11527159810066223,0.2893126904964447,0.07468637079000473,0.02681521512567997,-0.1236119270324707
