Time [s],Acc_x [m/s^2],Acc_y [m/s^2],Acc_z [m/s^2],Gyro_x [1/s],Gyro_y [1/s],Gyro_z [1/s]
0.0,-0.0015861972933635116,0.03355312719941139,0.002509256126359105,-0.018242109566926956,-0.006603925954550505,0.010801324620842934
0.002,-0.0014207406202331185,0.03290939703583717,0.0021638155449181795,-0.018308378756046295,-0.006641203071922064,0.010937655344605446
0.004,-0.0012858400586992502,0.03237343207001686,0.0018277056515216827,-0.018383191898465157,-0.006699815392494202,0.011071641929447651
0.006,-0.0011373426532372832,0.03187466040253639,0.001440541003830731,-0.01846935600042343,-0.0067739663645625114,0.011205418966710567
0.008,-0.0010852653067559004,0.03147602453827858,0.0010654525831341743,-0.018568797037005424,-0.006878513842821121,0.011331240646541119
0.01,-0.0010169357992708683,0.031090740114450455,0.0006851521320641041,-0.01868259347975254,-0.007009732536971569,0.011445135809481144
0.012,-0.0009424389572814107,0.030719760805368423,0.0003581932687666267,-0.018814414739608765,-0.007176714017987251,0.011537251062691212
0.014,-0.0009166868403553963,0.03043079748749733,-4.555588748189621e-05,-0.01895829848945141,-0.0073869600892066956,0.01160790678113699
0.016,-0.0008100202539935708,0.03024769201874733,-0.00044951881864108145,-0.019111063331365585,-0.007633897475898266,0.011655584909021854
0.018,-0.0008283952483907342,0.03012276068329811,-0.0008874614140950143,-0.019277818500995636,-0.007918989285826683,0.011684929020702839
0.02,-0.0007861045887693763,0.030053142458200455,-0.0013482001377269626,-0.01945611648261547,-0.008233035914599895,0.011693199165165424
0.022,-0.0007634888170287013,0.030040744692087173,-0.0017969021573662758,-0.019642459228634834,-0.008564797230064869,0.011693897657096386
0.024,-0.0007673384388908744,0.030097011476755142,-0.002232265193015337,-0.019836291670799255,-0.008899902924895287,0.011702663265168667
0.026,-0.000840855180285871,0.03018665686249733,-0.002753967186436057,-0.020034916698932648,-0.00922461599111557,0.011733180843293667
0.028,-0.0009242926025763154,0.030341152101755142,-0.0032265561167150736,-0.020233772695064545,-0.009533431380987167,0.011794870719313622
0.03,-0.0009881815640255809,0.03052521124482155,-0.003746120259165764,-0.020429743453860283,-0.009805215522646904,0.011896596290171146
0.032,-0.001066769240424037,0.030779842287302017,-0.004254539031535387,-0.020623687654733658,-0.010046717710793018,0.01203999761492014
0.034,-0.0011798633495345712,0.03103828802704811,-0.004775241017341614,-0.02081124857068062,-0.010252837091684341,0.012218502350151539
0.036,-0.0012346545699983835,0.03131771460175514,-0.0052500562742352486,-0.02098841220140457,-0.010421203449368477,0.012433812022209167
0.038,-0.0012544894125312567,0.03158474341034889,-0.005744961090385914,-0.021152790635824203,-0.010559550486505032,0.012675795704126358
0.04,-0.001287194900214672,0.03189564123749733,-0.0062585268169641495,-0.021310288459062576,-0.010676420293748379,0.012939699925482273
0.042,-0.0013188435696065426,0.03225136175751686,-0.006750117521733046,-0.021458279341459274,-0.010769649408757687,0.01320731919258833
0.044,-0.001320672919973731,0.03254986181855202,-0.0072042811661958694,-0.021585114300251007,-0.010851038619875908,0.013459539972245693
0.046,-0.0012406997848302126,0.03285694494843483,-0.007620827294886112,-0.02169237844645977,-0.010921573266386986,0.013687771745026112
0.048,-0.0011512597557157278,0.0331726111471653,-0.008013155311346054,-0.021776234731078148,-0.010985027067363262,0.013885159976780415
0.05,-0.0010609447490423918,0.03342342749238014,-0.008311012759804726,-0.021838126704096794,-0.011039672419428825,0.014046716503798962
0.052,-0.0008890919853001833,0.03363991156220436,-0.008552796207368374,-0.02187361940741539,-0.011079113930463791,0.01415944006294012
0.054,-0.0007205335423350334,0.03389454260468483,-0.008692633360624313,-0.021885670721530914,-0.011111421510577202,0.014223881997168064
0.056,-0.0005152812227606773,0.034028057008981705,-0.008821547962725163,-0.02186085470020771,-0.011132177896797657,0.014248578809201717
0.058,-0.0003086593933403492,0.03416157141327858,-0.008799739181995392,-0.021804725751280785,-0.011127093806862831,0.014233908616006374
0.06,-0.00010231276974081993,0.03434944525361061,-0.008808429352939129,-0.02172156237065792,-0.011106779798865318,0.014181575737893581
0.062,0.00014224974438548088,0.03451061621308327,-0.00862002931535244,-0.021615508943796158,-0.011064521037042141,0.014095655642449856
0.064,0.00034785177558660507,0.03468609228730202,-0.00832732580602169,-0.021497495472431183,-0.011010133661329746,0.013983783312141895
0.066,0.0005435871426016092,0.03482723608613014,-0.007986102253198624,-0.02137470804154873,-0.010930431075394154,0.013856732286512852
0.068,0.0007562616374343634,0.03499031439423561,-0.007542592938989401,-0.02125718630850315,-0.010832730680704117,0.013715148903429508
0.07,0.0009438083507120609,0.03510189428925514,-0.007044136989861727,-0.021149128675460815,-0.010717453435063362,0.013557788915932178
0.072,0.0011311185080558062,0.03524208441376686,-0.006429145112633705,-0.02105739712715149,-0.010578666813671589,0.013397217728197575
0.074,0.0013497080653905869,0.03540325537323952,-0.00577745633199811,-0.020975539460778236,-0.010422030463814735,0.013243774883449078
0.076,0.001502053695730865,0.035573963075876236,-0.005133996717631817,-0.020903995260596275,-0.010242527350783348,0.013094750232994556
0.078,0.0016973874298855662,0.03570270910859108,-0.004369788337498903,-0.020841754972934723,-0.01004291232675314,0.012953494675457478
0.08,0.0017589718336239457,0.03583908453583717,-0.0035955319181084633,-0.02078331634402275,-0.009828454814851284,0.01283178199082613
0.082,0.001830838155001402,0.03587532415986061,-0.002829300705343485,-0.020721161738038063,-0.00959930568933487,0.012739098630845547
0.084,0.0018203899962827563,0.035897258669137955,-0.002088189823552966,-0.020650113001465797,-0.009366580285131931,0.012682394124567509
0.086,0.0019260230474174023,0.03585052862763405,-0.0012784063583239913,-0.020570699125528336,-0.00911877304315567,0.01265422347933054
0.088,0.0020048373844474554,0.03572559729218483,-0.0005551405483856797,-0.020482541993260384,-0.00887335930019617,0.012665650807321072
0.09,0.0021734675392508507,0.035581592470407486,0.00020807019609492272,-0.020385276526212692,-0.008632820099592209,0.012714570388197899
0.092,0.002210912760347128,0.03547573462128639,0.0008876722422428429,-0.02028730884194374,-0.008393720723688602,0.012791630811989307
0.094,0.0022942558862268925,0.03525162115693092,0.0014604367315769196,-0.020189952105283737,-0.0081700524315238,0.012885574251413345
0.096,0.002412228612229228,0.03499603644013405,0.002059236168861389,-0.020091768354177475,-0.007969547994434834,0.012994471937417984
0.098,0.002496439730748534,0.03467083349823952,0.002613765886053443,-0.01998927816748619,-0.007783697918057442,0.013102762401103973
0.1,0.002595228375867009,0.034340862184762955,0.003029258456081152,-0.019885607063770294,-0.007621914613991976,0.013200510293245316
0.102,0.002761281095445156,0.033982280641794205,0.0034039493184536695,-0.01977802813053131,-0.007479547522962093,0.013277384452521801
0.104,0.0028066695667803288,0.033570293337106705,0.003712738398462534,-0.019658340141177177,-0.007355834357440472,0.013335655443370342
0.106,0.003044679295271635,0.033089641481637955,0.003971620928496122,-0.019526248797774315,-0.007251041475683451,0.013385423459112644
0.108,0.003315290668979287,0.03261757269501686,0.004191481042653322,-0.019382046535611153,-0.007148342207074165,0.013423477299511433
0.11,0.0034760229755192995,0.032194141298532486,0.004346293397247791,-0.019239094108343124,-0.007042767014354467,0.013450375758111477
0.112,0.0036575300619006157,0.031769756227731705,0.004424102604389191,-0.01909518800675869,-0.0069440873339772224,0.01347294170409441
0.114,0.0038203399162739515,0.031319621950387955,0.00443647475913167,-0.01895306631922722,-0.006827625911682844,0.013499869965016842
0.116,0.0039481064304709435,0.03084755316376686,0.004454254638403654,-0.01882152445614338,-0.00669587217271328,0.013539631851017475
0.118,0.00405425438657403,0.03038788214325905,0.004383664112538099,-0.018691256642341614,-0.006551387719810009,0.013580025173723698
0.12,0.0042482176795601845,0.029963497072458267,0.004284013994038105,-0.01857021078467369,-0.00638954620808363,0.013614918105304241
0.122,0.004379515070468187,0.029603008180856705,0.004120704717934132,-0.018462248146533966,-0.00620113592594862,0.013653237372636795
0.124,0.004572970326989889,0.029185298830270767,0.0040372866205871105,-0.018367938697338104,-0.00599810853600502,0.013700483366847038
0.126,0.004631409887224436,0.0287323035299778,0.00386151229031384,-0.01828014850616455,-0.00577278807759285,0.013739030808210373
0.128,0.004846235271543264,0.028318408876657486,0.0037657800130546093,-0.01820611022412777,-0.00553063303232193,0.013768387958407402
0.13,0.00495426170527935,0.027915004640817642,0.003650904865935445,-0.018140412867069244,-0.0052950079552829266,0.01378976833075285
0.132,0.005147536750882864,0.027487758547067642,0.0035115976352244616,-0.01808290369808674,-0.005066724959760904,0.01379967201501131
0.134,0.005350189749151468,0.0270385779440403,0.0033545847982168198,-0.018041368573904037,-0.004855459555983543,0.013796155340969563
0.136,0.005643954500555992,0.02660084143280983,0.0032161364797502756,-0.01802154816687107,-0.004680355545133352,0.01377572026103735
0.138,0.005895978771150112,0.02608204260468483,0.002981373807415366,-0.018018092960119247,-0.004554330371320248,0.013734539970755577
0.14,0.006122345570474863,0.025594715029001236,0.0028051715344190598,-0.018040569499135017,-0.004492275416851044,0.013680252246558666
0.142,0.006384416949003935,0.024959567934274673,0.002603776752948761,-0.018083468079566956,-0.004492331296205521,0.013607364147901535
0.144,0.006668790243566036,0.02433205023407936,0.00238974392414093,-0.018149394541978836,-0.004559733439236879,0.013524423353374004
0.146,0.006928478367626667,0.0236511267721653,0.0021188792306929827,-0.018230829387903214,-0.004694285802543163,0.013443268835544586
0.148,0.007193193305283785,0.02292347140610218,0.0018237392650917172,-0.018333004787564278,-0.00488034263253212,0.013367450796067715
0.15,0.007473042234778404,0.022181512787938118,0.001488838461227715,-0.018448524177074432,-0.0051017338410019875,0.013304786756634712
0.152,0.007773210294544697,0.0213394183665514,0.0011027229484170675,-0.018579913303256035,-0.005357853136956692,0.013272310607135296
0.154,0.008043317124247551,0.020518304780125618,0.000692804460413754,-0.018717268481850624,-0.005624797195196152,0.013277699239552021
0.156,0.008237140253186226,0.01968097873032093,0.00017842651868704706,-0.018860895186662674,-0.005888503510504961,0.013324635103344917
0.158,0.008396672084927559,0.018796922639012337,-0.0003953032137360424,-0.01901615783572197,-0.006144328508526087,0.013396397233009338
0.16,0.008541706949472427,0.017988206818699837,-0.0010970006696879864,-0.019175048917531967,-0.006378946825861931,0.013501088134944439
0.162,0.008571501821279526,0.017202379181981087,-0.001844265265390277,-0.019334707409143448,-0.006591691169887781,0.013634254224598408
0.164,0.008608939126133919,0.016411783173680305,-0.0026662477757781744,-0.01948998123407364,-0.00678663793951273,0.013786621391773224
0.166,0.008590953424572945,0.015703201293945312,-0.0035123827401548624,-0.019637811928987503,-0.006950537674129009,0.013944673351943493
0.168,0.008483302779495716,0.015001297928392887,-0.004421957768499851,-0.01976890116930008,-0.007096987683326006,0.01408720575273037
0.17,0.008305669762194157,0.01426792237907648,-0.005358938127756119,-0.019870851188898087,-0.007224824745208025,0.01420601550489664
0.172,0.008096709847450256,0.013605118729174137,-0.006334343925118446,-0.01995459944009781,-0.007336902432143688,0.014302303083240986
0.174,0.00781500618904829,0.01297092530876398,-0.0073777176439762115,-0.02000516839325428,-0.007436028681695461,0.014375266619026661
0.176,0.007494567893445492,0.012443543411791325,-0.008444887585937977,-0.020018354058265686,-0.007518541067838669,0.014411956071853638
0.178,0.007135085761547089,0.0119171142578125,-0.009422794915735722,-0.01998404785990715,-0.007574676536023617,0.014411787502467632
0.18,0.0067316023632884026,0.01149368193000555,-0.010423108004033566,-0.0199013389647007,-0.0076091093942523,0.014387112110853195
0.182,0.006277067586779594,0.011087416671216488,-0.011438176967203617,-0.019774843007326126,-0.007611114531755447,0.014338149689137936
0.184,0.005774803459644318,0.010751723311841488,-0.012398329563438892,-0.019601216539740562,-0.007573500741273165,0.014258169569075108
0.186,0.005230402573943138,0.010455130599439144,-0.013270239345729351,-0.019376160576939583,-0.007512814365327358,0.01414666697382927
0.188,0.004620721563696861,0.010299681685864925,-0.014201306737959385,-0.019104929640889168,-0.007426493801176548,0.014005357399582863
0.19,0.004097192548215389,0.010179518721997738,-0.015049190260469913,-0.018788715824484825,-0.007311761379241943,0.013842280954122543
0.192,0.003522720653563738,0.010164259932935238,-0.015800841152668,-0.018424106761813164,-0.00717267207801342,0.013659539632499218
0.194,0.002955629490315914,0.010216712020337582,-0.016445299610495567,-0.018015200272202492,-0.007022852543741465,0.013459795154631138
0.196,0.002254284918308258,0.01030349638313055,-0.017088228836655617,-0.017583739012479782,-0.006870786659419537,0.013247613795101643
0.198,0.0015951218083500862,0.010510443709790707,-0.017615748569369316,-0.017128577455878258,-0.006713945418596268,0.013028034940361977
0.2,0.0008421400561928749,0.010798453353345394,-0.018165238201618195,-0.016654744744300842,-0.0065576909109950066,0.012816651724278927
0.202,0.00011873245239257812,0.01106166746467352,-0.01864907704293728,-0.016173547133803368,-0.006408491637557745,0.01262592151761055
0.204,-0.0006209230050444603,0.011472701095044613,-0.019043127074837685,-0.015704819932579994,-0.0062760175205767155,0.012460547499358654
0.206,-0.0014104265719652176,0.011949539184570312,-0.019444188103079796,-0.01525530219078064,-0.006156305316835642,0.012317821383476257
0.208,-0.002215063199400902,0.012475013732910156,-0.019742099568247795,-0.014828544110059738,-0.006055239588022232,0.012206965126097202
0.21,-0.0030696671456098557,0.013041496276855469,-0.020038342103362083,-0.01443437673151493,-0.0059733097441494465,0.012135663069784641
0.212,-0.003954359330236912,0.013678550720214844,-0.020295506343245506,-0.01406831294298172,-0.00591037143021822,0.01211131364107132
0.214,-0.004772382788360119,0.014364242553710938,-0.020503778010606766,-0.01372336782515049,-0.00586692662909627,0.012125115841627121
0.216,-0.005660331808030605,0.015121460892260075,-0.020717618986964226,-0.013388496823608875,-0.005843286402523518,0.012185411527752876
0.218,-0.00650213286280632,0.015886306762695312,-0.02095951698720455,-0.013052709400653839,-0.005834543611854315,0.012283246032893658
0.22,-0.007249696180224419,0.016615867614746094,-0.02118239738047123,-0.012711863964796066,-0.005850326269865036,0.012416901998221874
0.222,-0.007980035617947578,0.017355918884277344,-0.021390559151768684,-0.012363976798951626,-0.005895522423088551,0.01257464662194252
0.224,-0.00864440854638815,0.018123626708984375,-0.02155599743127823,-0.012008370831608772,-0.00595835829153657,0.012751422822475433
0.226,-0.009265465661883354,0.01886463165283203,-0.021724803373217583,-0.011637881398200989,-0.006037830375134945,0.01294721569865942
0.228,-0.009759796783328056,0.01957416534423828,-0.02187841199338436,-0.01126222126185894,-0.006138141267001629,0.013156948611140251
0.23,-0.010279158130288124,0.020273208618164062,-0.022007279098033905,-0.010890623554587364,-0.00624356884509325,0.013379771262407303
0.232,-0.010670382529497147,0.02089691162109375,-0.022205492481589317,-0.01053665392100811,-0.006348602473735809,0.01361920777708292
0.234,-0.011070828884840012,0.02147960662841797,-0.02244884893298149,-0.010206161998212337,-0.0064390599727630615,0.013881918974220753
0.236,-0.011345123872160912,0.022017478942871094,-0.022615298628807068,-0.009896758012473583,-0.0065069133415818214,0.014168744906783104
0.238,-0.01161298155784607,0.02244091033935547,-0.02287721261382103,-0.009608924388885498,-0.006537429988384247,0.014483983628451824
0.24,-0.011796116828918457,0.022785186767578125,-0.023091211915016174,-0.009342197328805923,-0.006520851980894804,0.014821860007941723
0.242,-0.011947819963097572,0.023029327392578125,-0.023313913494348526,-0.00908519048243761,-0.006454878021031618,0.015164244920015335
0.244,-0.011971394531428814,0.023180007934570312,-0.023506592959165573,-0.00883330125361681,-0.006335123907774687,0.015499023720622063
0.246,-0.011942487210035324,0.02322864532470703,-0.02369518205523491,-0.008581878617405891,-0.006160413380712271,0.015807125717401505
0.248,-0.011758163571357727,0.023238182067871094,-0.02385002002120018,-0.00831756554543972,-0.005930895917117596,0.016072090715169907
0.25,-0.011467520147562027,0.02311420440673828,-0.024045724421739578,-0.008037574589252472,-0.005648753140121698,0.016277026385068893
0.252,-0.011108131147921085,0.02298736572265625,-0.024238647893071175,-0.007752214092761278,-0.005318718031048775,0.016401655972003937
0.254,-0.010621331632137299,0.022718429565429688,-0.02440360002219677,-0.007466549519449472,-0.004944472573697567,0.01642412133514881
0.256,-0.010010989382863045,0.0224456787109375,-0.024525612592697144,-0.007187517359852791,-0.00453140027821064,0.016338655725121498
0.258,-0.009274623356759548,0.022123336791992188,-0.024583393707871437,-0.006919196341186762,-0.004081815015524626,0.01614791713654995
0.26,-0.008360877633094788,0.021719932556152344,-0.024599740281701088,-0.0066697318106889725,-0.0036026558373123407,0.015864625573158264
0.262,-0.007375700399279594,0.02131938934326172,-0.024610767140984535,-0.0064543369226157665,-0.0030990829691290855,0.015501465648412704
0.264,-0.00626840814948082,0.02087879180908203,-0.024696210399270058,-0.006275895517319441,-0.002573790028691292,0.015079045668244362
0.266,-0.00503093097358942,0.020460128784179688,-0.024737177416682243,-0.00614191684871912,-0.002029990078881383,0.014619768597185612
0.268,-0.00369876716285944,0.02005767822265625,-0.024733811616897583,-0.006058961618691683,-0.0014756423188373446,0.01414819248020649
0.27,-0.0023224735632538795,0.019672393798828125,-0.02470230683684349,-0.006025396287441254,-0.0009097552974708378,0.013689005747437477
0.272,-0.0008781552314758301,0.019308090209960938,-0.024659564718604088,-0.0060414765030145645,-0.000336329045239836,0.013264847919344902
0.274,0.000629885122179985,0.018944740295410156,-0.024607574567198753,-0.00609876774251461,0.0002460633113514632,0.012883814051747322
0.276,0.0022067921236157417,0.01868438720703125,-0.024550089612603188,-0.006192391738295555,0.0008435765630565584,0.012561589479446411
0.278,0.003814432770013809,0.018463134765625,-0.024477381259202957,-0.006318616680800915,0.0014547888422384858,0.012294113636016846
0.28,0.005359823815524578,0.01839160919189453,-0.02441929094493389,-0.0064696092158555984,0.0020830363500863314,0.012078968808054924
0.282,0.006849879398941994,0.018390655517578125,-0.02438652142882347,-0.006644749082624912,0.002726109465584159,0.011912036687135696
0.284,0.008278463035821915,0.018437383696436882,-0.024327388033270836,-0.006832948420196772,0.0033783079124987125,0.011785540729761124
0.286,0.009611738845705986,0.01852702908217907,-0.024269701912999153,-0.007025228347629309,0.004037382081151009,0.011687989346683025
0.288,0.010895239189267159,0.018731115385890007,-0.024223733693361282,-0.007211384829133749,0.004697069991379976,0.011601044796407223
0.29,0.012085113674402237,0.01900005154311657,-0.024135852232575417,-0.007391223218291998,0.00534415477886796,0.011522739194333553
0.292,0.013165103271603584,0.019284246489405632,-0.02405051328241825,-0.007556313648819923,0.005971075966954231,0.011438899673521519
0.294,0.014088345691561699,0.01955699734389782,-0.02392871491611004,-0.007696084678173065,0.006563251838088036,0.011344334110617638
0.296,0.014897732064127922,0.019909856840968132,-0.02372991293668747,-0.00781122874468565,0.00710506085306406,0.01123774703592062
0.298,0.015574770979583263,0.020245550200343132,-0.023451033979654312,-0.007897854782640934,0.0075927721336483955,0.011108891107141972
0.3,0.016089629381895065,0.02058219723403454,-0.023082135245203972,-0.007954791188240051,0.008030458353459835,0.0109655000269413
0.302,0.016504041850566864,0.020897863432765007,-0.02263205125927925,-0.00798792764544487,0.008415784686803818,0.010811914689838886
0.304,0.016817286610603333,0.021167753264307976,-0.022054048255085945,-0.007992025464773178,0.008746448904275894,0.010661388747394085
0.306,0.01703539304435253,0.02143859677016735,-0.021354813128709793,-0.007965953089296818,0.00902432668954134,0.010523437522351742
0.308,0.0171247236430645,0.021648405119776726,-0.020533885806798935,-0.007924053817987442,0.00926200207322836,0.010421243496239185
0.31,0.01720496639609337,0.021752355620265007,-0.019541731104254723,-0.007872404530644417,0.00946141965687275,0.010370052419602871
0.312,0.017159314826130867,0.021870611235499382,-0.018416298553347588,-0.007820192724466324,0.009628226980566978,0.01037848461419344
0.314,0.016973864287137985,0.021939275786280632,-0.01716940477490425,-0.007779138628393412,0.009767143987119198,0.010456177406013012
0.316,0.01671564020216465,0.021965980529785156,-0.015748461708426476,-0.007752690929919481,0.009872057475149632,0.010610586032271385
0.318,0.01642603427171707,0.021935462951660156,-0.014222362078726292,-0.007756947074085474,0.00992865301668644,0.01084849238395691
0.32,0.016040999442338943,0.021864891052246094,-0.01258824672549963,-0.00780316349118948,0.009930958971381187,0.011172863654792309
0.322,0.015586292371153831,0.021753311157226562,-0.010870767757296562,-0.007900936529040337,0.0098563889041543,0.011579418554902077
0.324,0.01510930247604847,0.02157878875732422,-0.009068737737834454,-0.008055021055042744,0.009681264869868755,0.01205538772046566
0.326,0.014635611325502396,0.021343231201171875,-0.007157656829804182,-0.008267024531960487,0.00938014592975378,0.012588903307914734
0.328,0.014138399623334408,0.021076202392578125,-0.005105449352413416,-0.008536623790860176,0.008929504081606865,0.013164350762963295
0.33,0.01369752362370491,0.020778656005859375,-0.0029704507905989885,-0.008853800594806671,0.008310574106872082,0.013758598826825619
0.332,0.013300968334078789,0.020447731018066406,-0.000757314614020288,-0.009214440360665321,0.00750360731035471,0.01433947030454874
0.334,0.01298595778644085,0.02008533664047718,0.0014892747858539224,-0.009601522237062454,0.006499420385807753,0.014879128895699978
0.336,0.012721854262053967,0.019768716767430305,0.0037888875231146812,-0.009990748018026352,0.0053014205768704414,0.015355095267295837
0.338,0.01249842531979084,0.01938820071518421,0.006188667844980955,-0.010373493656516075,0.003919190261512995,0.015747401863336563
0.34,0.012376641854643822,0.019007684662938118,0.008629868738353252,-0.010734084993600845,0.0023715528659522533,0.01604747772216797
0.342,0.012360837310552597,0.018659593537449837,0.011157716624438763,-0.011064160615205765,0.0006865332834422588,0.016257839277386665
0.344,0.012496771290898323,0.018344881013035774,0.0137171670794487,-0.01135890744626522,-0.0010940325446426868,0.01637934148311615
0.346,0.012726237997412682,0.018021585419774055,0.016323121264576912,-0.011620691977441311,-0.0029337771702557802,0.016430463641881943
0.348,0.013050742447376251,0.01772499270737171,0.01896393857896328,-0.011857137084007263,-0.0047777374275028706,0.01643752120435238
0.35,0.013528713956475258,0.017499925568699837,0.021593661978840828,-0.012073563411831856,-0.006574688944965601,0.016425790265202522
0.352,0.0140505600720644,0.01735401526093483,0.02427869476377964,-0.012284345924854279,-0.008282268419861794,0.016417941078543663
0.354,0.014622943475842476,0.01725197210907936,0.02694789320230484,-0.012496360577642918,-0.009862735867500305,0.016431493684649467
0.356,0.015214386396110058,0.01721382513642311,0.029572444036602974,-0.012711322866380215,-0.011278597638010979,0.016473397612571716
0.358,0.015744656324386597,0.017226222902536392,0.03212633356451988,-0.012940261512994766,-0.012501534074544907,0.016538454219698906
0.36,0.01626591384410858,0.017336849123239517,0.0345839187502861,-0.013183347880840302,-0.01351400837302208,0.01663358323276043
0.362,0.016738057136535645,0.017556194216012955,0.03692096844315529,-0.013429917395114899,-0.014308234676718712,0.016748718917369843
0.364,0.017101356759667397,0.017873767763376236,0.0391373336315155,-0.013674969784915447,-0.014877949841320515,0.016868529841303825
0.366,0.017372775822877884,0.0182189978659153,0.041197631508111954,-0.013914630748331547,-0.015235565602779388,0.016979780048131943
0.368,0.017463210970163345,0.018679622560739517,0.0430365614593029,-0.014137654565274715,-0.015386645682156086,0.017074715346097946
0.37,0.017354926094412804,0.019225124269723892,0.04465029016137123,-0.014334969222545624,-0.015346391126513481,0.017148640006780624
0.372,0.017122995108366013,0.019875530153512955,0.04602211341261864,-0.014497368596494198,-0.015134027227759361,0.017201660200953484
0.374,0.016654204577207565,0.020625120028853416,0.047178659588098526,-0.014619177207350731,-0.014772172085940838,0.017232241109013557
0.376,0.016000203788280487,0.021388059481978416,0.048054058104753494,-0.014695740304887295,-0.014278842136263847,0.017238600179553032
0.378,0.01516265794634819,0.022207265719771385,0.04859713837504387,-0.014733128249645233,-0.013680601492524147,0.0172269344329834
0.38,0.014145029708743095,0.023034101352095604,0.048835765570402145,-0.01473641861230135,-0.012989016249775887,0.017201470211148262
0.382,0.012939689680933952,0.023916251957416534,0.048725154250860214,-0.014709347859025002,-0.012215864844620228,0.017161866649985313
0.384,0.01146012544631958,0.024814613163471222,0.04832391068339348,-0.01465650461614132,-0.011381963267922401,0.017113126814365387
0.386,0.009840292856097221,0.025684364140033722,0.047663766890764236,-0.01458313874900341,-0.010504468344151974,0.017060162499547005
0.388,0.008152628317475319,0.026551254093647003,0.046686802059412,-0.014504494145512581,-0.009595077484846115,0.016991809010505676
0.39,0.006398005411028862,0.02734280377626419,0.0454997681081295,-0.01442507840692997,-0.008665650151669979,0.016906823962926865
0.392,0.004578504711389542,0.02810097485780716,0.04406953975558281,-0.014345649629831314,-0.007729754317551851,0.01680755242705345
0.394,0.0027585551142692566,0.028852470219135284,0.042438432574272156,-0.014274884946644306,-0.006799949333071709,0.01668430306017399
0.396,0.0009192395955324173,0.029549606144428253,0.04064006358385086,-0.014216759242117405,-0.005884367041289806,0.016529448330402374
0.398,-0.0009016823023557663,0.030157096683979034,0.03866761550307274,-0.014174776151776314,-0.004989797715097666,0.0163537859916687
0.4,-0.0026538576930761337,0.030693061649799347,0.03655657544732094,-0.014152049086987972,-0.004124023020267487,0.016161516308784485
0.402,-0.004287914372980595,0.031201370060443878,0.034346166998147964,-0.014145729131996632,-0.003293016692623496,0.015958260744810104
0.404,-0.0057776812463998795,0.03166962414979935,0.032023560255765915,-0.014157787896692753,-0.0024969237856566906,0.015756620094180107
0.406,-0.0071791596710681915,0.032008178532123566,0.029628988355398178,-0.014184459112584591,-0.0017398748314008117,0.015567726455628872
0.408,-0.00842730887234211,0.032262809574604034,0.02722632884979248,-0.01421953272074461,-0.0010207232553511858,0.015400521457195282
0.41,-0.009547734633088112,0.032471664249897,0.02479715645313263,-0.014254762791097164,-0.00033656766754575074,0.015270251780748367
0.412,-0.01060030609369278,0.03262711316347122,0.022331690415740013,-0.014280905947089195,0.0003150427364744246,0.015179400332272053
0.414,-0.011488024145364761,0.032710082828998566,0.019900016486644745,-0.014293035492300987,0.0009352018823847175,0.01511383056640625
0.416,-0.012160793878138065,0.03272629529237747,0.017550531774759293,-0.014286634512245655,0.0015198473120108247,0.01506949681788683
0.418,-0.01265488751232624,0.03266049176454544,0.015326336026191711,-0.014252866618335247,0.002065144944936037,0.015044151805341244
0.42,-0.01305563747882843,0.03261185437440872,0.013174672611057758,-0.014186845161020756,0.00257267733104527,0.015026161447167397
0.422,-0.013262037187814713,0.03254605084657669,0.011104730889201164,-0.014087168499827385,0.0030406673904508352,0.014999927021563053
0.424,-0.013301456347107887,0.032473571598529816,0.009144919924438,-0.013952938839793205,0.00347177404910326,0.014950335025787354
0.426,-0.01321505382657051,0.03239345923066139,0.0073028020560741425,-0.013788770884275436,0.0038645300082862377,0.014864976517856121
0.428,-0.012994684278964996,0.03235149756073952,0.005588926374912262,-0.01359817385673523,0.004216064233332872,0.014740156009793282
0.43,-0.012627893127501011,0.03233623877167702,0.004083845764398575,-0.013389142230153084,0.004529287107288837,0.014582582749426365
0.432,-0.012116202153265476,0.03233719244599342,0.002748474245890975,-0.013167153112590313,0.004807710647583008,0.014397458173334599
0.434,-0.011572929099202156,0.03240871801972389,0.0015051966765895486,-0.012934626080095768,0.005049556959420443,0.014189029112458229
0.436,-0.010964264161884785,0.03256893530488014,0.00045164735638536513,-0.012701321393251419,0.005251845344901085,0.013967664912343025
0.438,-0.01019216701388359,0.03275680914521217,-0.00045079534174874425,-0.01247668731957674,0.005419313907623291,0.013747189193964005
0.44,-0.009347012266516685,0.03300857916474342,-0.0012044243048876524,-0.012256547808647156,0.005557929165661335,0.013547166250646114
0.442,-0.008470593951642513,0.03332138434052467,-0.0018294579349458218,-0.012040353380143642,0.005665502045303583,0.013385600410401821
0.444,-0.007520611397922039,0.033681873232126236,-0.0023158525582402945,-0.011832885444164276,0.00573460478335619,0.01326913945376873
0.446,-0.006459565833210945,0.0341033972799778,-0.0026660424191504717,-0.011630705557763577,0.005767764523625374,0.013203887268900871
0.448,-0.005370008293539286,0.03458881750702858,-0.0029023911338299513,-0.011425257660448551,0.005772325675934553,0.013203470967710018
0.45,-0.00429267343133688,0.03509712591767311,-0.00302831269800663,-0.011212961748242378,0.005752898287028074,0.013275082223117352
0.452,-0.0031806458719074726,0.0356292761862278,-0.0030062971636652946,-0.010989120230078697,0.005721092689782381,0.013414489105343819
0.454,-0.002050278475508094,0.03619099035859108,-0.002892807824537158,-0.01074872724711895,0.005689053796231747,0.01362304762005806
0.456,-0.000923601386602968,0.03674221411347389,-0.0027191347908228636,-0.010492614470422268,0.005661614704877138,0.013894653879106045
0.458,0.00013387727085500956,0.03725147619843483,-0.002446424448862672,-0.010220075957477093,0.005643427837640047,0.014226873405277729
0.46,0.0011312467977404594,0.03773022070527077,-0.002082091523334384,-0.009933252818882465,0.0056455060839653015,0.01461831945925951
0.462,0.002109737601131201,0.03819656744599342,-0.001684703049249947,-0.009638380259275436,0.005670224782079458,0.01506092306226492
0.464,0.0030210153199732304,0.03860664740204811,-0.0012235997710376978,-0.009341329336166382,0.005713564343750477,0.015544116497039795
0.466,0.00398268923163414,0.03895187750458717,-0.0006278885994106531,-0.00904612522572279,0.005764791741967201,0.016064811497926712
0.468,0.004931418225169182,0.039254192262887955,2.4921051590354182e-05,-0.00875258632004261,0.005821124650537968,0.01661800593137741
0.47,0.005796736106276512,0.039444927126169205,0.0007156143547035754,-0.008463329635560513,0.005881669465452433,0.017185641452670097
0.472,0.006635070778429508,0.039472583681344986,0.0014446158893406391,-0.008189155720174313,0.005933484993875027,0.01775285042822361
0.474,0.007478721439838409,0.03941536322236061,0.0021707459818571806,-0.00793355330824852,0.005966180469840765,0.01830831915140152
0.476,0.00826623011380434,0.03922748938202858,0.002935664961114526,-0.007693947292864323,0.0059744492173194885,0.018835965543985367
0.478,0.009032427333295345,0.03892422094941139,0.00374773470684886,-0.007478941231966019,0.005955568514764309,0.019319789484143257
0.48,0.009806668385863304,0.03847027197480202,0.0045863124541938305,-0.007291900925338268,0.005907629616558552,0.019741903990507126
0.482,0.010595759376883507,0.037873271852731705,0.005458092782646418,-0.007128857541829348,0.0058288490399718285,0.020094668492674828
0.484,0.011399501003324986,0.03716659918427467,0.006374693010002375,-0.00699073588475585,0.00572008453309536,0.020371077582240105
0.486,0.012179000303149223,0.036336902529001236,0.007329942658543587,-0.006880955770611763,0.005580093711614609,0.020561376586556435
0.488,0.012937437742948532,0.03541279211640358,0.008311589248478413,-0.0068069337867200375,0.005410059355199337,0.020670417696237564
0.49,0.013679633848369122,0.0344238318502903,0.009294162504374981,-0.006769488099962473,0.00522095849737525,0.020704971626400948
0.492,0.01439634244889021,0.033300403505563736,0.010313384234905243,-0.006765068043023348,0.005019888747483492,0.02067020907998085
0.494,0.015119592659175396,0.032133106142282486,0.011367548257112503,-0.006797144655138254,0.00480973394587636,0.020579859614372253
0.496,0.015799321234226227,0.030920986086130142,0.012444715946912766,-0.006868629716336727,0.004597884137183428,0.020446516573429108
0.498,0.01643397845327854,0.029621127992868423,0.013559253886342049,-0.006977572571486235,0.004394876770675182,0.020276948809623718
0.5,0.017032545059919357,0.02828216925263405,0.01470297109335661,-0.00712466798722744,0.004206457640975714,0.02007899433374405
0.502,0.0175661351531744,0.02689552679657936,0.015868928283452988,-0.007309316657483578,0.004034107085317373,0.01985594630241394
0.504,0.018047725781798363,0.02547645941376686,0.01706569269299507,-0.007526164874434471,0.003882062155753374,0.01961788907647133
0.506,0.01843290776014328,0.024062160402536392,0.018285738304257393,-0.007772904355078936,0.0037577117327600718,0.019376404583454132
0.508,0.01866009831428528,0.02267933078110218,0.019504088908433914,-0.008046368137001991,0.003677299479022622,0.01913120597600937
0.51,0.01885867305099964,0.021323205903172493,0.020803693681955338,-0.0083343256264925,0.003652342827990651,0.018888110294938087
0.512,0.01898021437227726,0.019972803071141243,0.022157078608870506,-0.008631337434053421,0.003686145879328251,0.01865445449948311
0.514,0.018992973491549492,0.018645288422703743,0.023547468706965446,-0.008932427503168583,0.0037857021670788527,0.018432950600981712
0.516,0.018937138840556145,0.017400743439793587,0.02493918500840664,-0.009233199059963226,0.003963530994951725,0.018222609534859657
0.518,0.01880479045212269,0.016207696869969368,0.02626996487379074,-0.0095291119068861,0.0042290594428777695,0.018023349344730377
0.52,0.01864224299788475,0.015049937181174755,0.027626771479845047,-0.009814933873713017,0.004586284980177879,0.01783193275332451
0.522,0.01842334493994713,0.013978960923850536,0.028991082683205605,-0.01009216345846653,0.00503528630360961,0.01763947680592537
0.524,0.018102841451764107,0.012983324937522411,0.030332624912261963,-0.010357895866036415,0.005577376112341881,0.01744026504456997
0.526,0.017689500004053116,0.012076380662620068,0.031680844724178314,-0.010602177120745182,0.0062165833078324795,0.017230119556188583
0.528,0.017293471843004227,0.011256220750510693,0.03298990800976753,-0.01082274317741394,0.0069539411924779415,0.01700480282306671
0.53,0.01689537800848484,0.010486605577170849,0.034304652363061905,-0.01101964246481657,0.007784957066178322,0.0167616605758667
0.532,0.016480306163430214,0.00979709904640913,0.03559763357043266,-0.011184179224073887,0.008704599924385548,0.016500383615493774
0.534,0.016094747930765152,0.009199145250022411,0.03687870502471924,-0.01131714228540659,0.009705400094389915,0.01622612029314041
0.536,0.015684057027101517,0.00872898381203413,0.03816094994544983,-0.011429829522967339,0.010771210305392742,0.015942765399813652
0.538,0.015300238505005836,0.008361819200217724,0.03944222256541252,-0.011521496810019016,0.011889462359249592,0.01565847173333168
0.54,0.014857098460197449,0.00809193029999733,0.04070669785141945,-0.01159345917403698,0.01303955353796482,0.015390760265290737
0.542,0.014367741532623768,0.007961276918649673,0.041896380484104156,-0.011652179062366486,0.014193779788911343,0.015155211091041565
0.544,0.0139805618673563,0.00793171301484108,0.04307953640818596,-0.011704297736287117,0.0153246084228158,0.01496855542063713
0.546,0.013623762875795364,0.007938388735055923,0.04419354721903801,-0.011757217347621918,0.016413526609539986,0.014850000850856304
0.548,0.013160711154341698,0.008013729006052017,0.04522619768977165,-0.01181621104478836,0.01744217984378338,0.014812275767326355
0.55,0.012660572305321693,0.008214954286813736,0.04622895270586014,-0.011884315870702267,0.018388912081718445,0.01486783754080534
0.552,0.012156721204519272,0.008475307375192642,0.04718703776597977,-0.01196342147886753,0.019240738824009895,0.015025289729237556
0.554,0.01163719967007637,0.00874138344079256,0.04817087948322296,-0.01205612812191248,0.019983842968940735,0.015284627676010132
0.556,0.01106724888086319,0.009033207781612873,0.04908531904220581,-0.012168418616056442,0.020609600469470024,0.015643706545233727
0.558,0.010472897440195084,0.009365086443722248,0.04991999641060829,-0.012300494126975536,0.021106887608766556,0.016090085729956627
0.56,0.009814269840717316,0.009753231890499592,0.050638847053050995,-0.0124545618891716,0.02146352082490921,0.01660308428108692
0.562,0.009068166837096214,0.010153775103390217,0.051279544830322266,-0.012629899196326733,0.021669307723641396,0.01717284508049488
0.564,0.008237959817051888,0.010566716082394123,0.05185740068554878,-0.012816163711249828,0.021722471341490746,0.017780490219593048
0.566,0.007378445938229561,0.010981564410030842,0.052360936999320984,-0.0129985511302948,0.021626241505146027,0.018399426713585854
0.568,0.006476471200585365,0.01142979133874178,0.05276486277580261,-0.013164850883185863,0.02139115519821644,0.019005563110113144
0.57,0.005500098690390587,0.011858946643769741,0.05308360606431961,-0.013296970166265965,0.021030332893133163,0.01957276649773121
0.572,0.004454644396901131,0.012263304553925991,0.05334598198533058,-0.013375090435147285,0.020563742145895958,0.02008293941617012
0.574,0.0033927559852600098,0.012695319019258022,0.05359828472137451,-0.013383539393544197,0.020021654665470123,0.020518571138381958
0.576,0.0022514257580041885,0.013146406970918179,0.05379217863082886,-0.013307244516909122,0.01942804828286171,0.020857160910964012
0.578,0.0010509379208087921,0.01360130961984396,0.05394933372735977,-0.0131404809653759,0.018802667036652565,0.02108735963702202
0.58,-0.00016709603369235992,0.014124876819550991,0.05410102754831314,-0.012888150289654732,0.01817050203680992,0.021208414807915688
0.582,-0.0014265552163124084,0.014737135730683804,0.05429121106863022,-0.012554274871945381,0.017552167177200317,0.021215468645095825
0.584,-0.002721847966313362,0.015383726917207241,0.05447734147310257,-0.012146656401455402,0.016958370804786682,0.021107034757733345
0.586,-0.003985799849033356,0.016094215214252472,0.054651323705911636,-0.011679613031446934,0.016394875943660736,0.02089647948741913
0.588,-0.005160976201295853,0.016830451786518097,0.0549427829682827,-0.011169172823429108,0.015863586217164993,0.02059759572148323
0.59,-0.006355989724397659,0.017647750675678253,0.055269960314035416,-0.010624498128890991,0.015365115366876125,0.020221341401338577
0.592,-0.00754181481897831,0.018598563969135284,0.05561882629990578,-0.010062525980174541,0.014895846135914326,0.01978985220193863
0.594,-0.008686887100338936,0.019528396427631378,0.05601416900753975,-0.009496964514255524,0.014459480531513691,0.01932348497211933
0.596,-0.009767254814505577,0.020511634647846222,0.056463614106178284,-0.008937503211200237,0.01405332051217556,0.018843695521354675
0.598,-0.010738428682088852,0.021556861698627472,0.0569852739572525,-0.00838509202003479,0.013673617504537106,0.018364349380135536
0.6,-0.011649271473288536,0.02262783795595169,0.057590633630752563,-0.007838387973606586,0.013313105329871178,0.017900574952363968
0.602,-0.012481313198804855,0.023725518956780434,0.058268096297979355,-0.0073036495596170425,0.012969426810741425,0.017475826665759087
0.604,-0.013210799545049667,0.024818429723381996,0.059004854410886765,-0.006778774317353964,0.012638948857784271,0.01710313931107521
0.606,-0.013843903318047523,0.025935182347893715,0.059736158698797226,-0.006264784839004278,0.01231249701231718,0.016794558614492416
0.608,-0.014352913945913315,0.027036676183342934,0.060561973601579666,-0.005760481581091881,0.011987535282969475,0.016558552160859108
0.61,-0.014750730246305466,0.02811051532626152,0.06143873557448387,-0.005263707600533962,0.011656709015369415,0.016393937170505524
0.612,-0.015072645619511604,0.029151927679777145,0.062302861362695694,-0.004781135357916355,0.011315635405480862,0.016300443559885025
0.614,-0.01526712067425251,0.0301370732486248,0.06320292502641678,-0.004313924815505743,0.010953407734632492,0.01627993769943714
0.616,-0.015331782400608063,0.030998241156339645,0.06410408020019531,-0.003867705352604389,0.010562934912741184,0.01632639206945896
0.618,-0.015242302790284157,0.03173733875155449,0.06505875289440155,-0.003457356244325638,0.01014422345906496,0.016433915123343468
0.62,-0.01516387052834034,0.03239251300692558,0.06599647551774979,-0.0030932920053601265,0.009698137640953064,0.016597457230091095
0.622,-0.01507672667503357,0.03295708820223808,0.06692969053983688,-0.0027790777385234833,0.00922131072729826,0.016806261613965034
0.624,-0.014889432117342949,0.03343011066317558,0.06779879331588745,-0.00251974631100893,0.00872669368982315,0.01705421879887581
0.626,-0.014574198052287102,0.03376675769686699,0.06860481947660446,-0.0023137968964874744,0.008228840306401253,0.017325231805443764
0.628,-0.014213573187589645,0.03399277850985527,0.06932149082422256,-0.0021516340784728527,0.00774065125733614,0.017613455653190613
0.63,-0.013833101838827133,0.03408242389559746,0.06988847255706787,-0.002021082676947117,0.0072753336280584335,0.017918569967150688
0.632,-0.013419104740023613,0.03402138873934746,0.07036750763654709,-0.001908663660287857,0.006841626018285751,0.018228553235530853
0.634,-0.013021893799304962,0.03384019061923027,0.07064775377511978,-0.0017957808449864388,0.006445552222430706,0.01852797344326973
0.636,-0.012659821659326553,0.03354455158114433,0.07071128487586975,-0.0016659097746014595,0.006084445398300886,0.018814491108059883
0.638,-0.012373603880405426,0.03314019367098808,0.07054737955331802,-0.0015058331191539764,0.0057577029801905155,0.0190814808011055
0.64,-0.012102724984288216,0.03263283893465996,0.0701969712972641,-0.0013049347326159477,0.005468517076224089,0.019317075610160828
0.642,-0.011873012408614159,0.0320291630923748,0.06966021656990051,-0.0010544415563344955,0.005213827360421419,0.019512325525283813
0.644,-0.011663125827908516,0.031311046332120895,0.06886110454797745,-0.0007555689662694931,0.004992935806512833,0.019664544612169266
0.646,-0.011413408443331718,0.03056718036532402,0.06773306429386139,-0.00041227880865335464,0.004810262005776167,0.01976548321545124
0.648,-0.011188087984919548,0.02978135272860527,0.06635504215955734,-3.118906170129776e-05,0.004674743860960007,0.01981470361351967
0.65,-0.01098783127963543,0.02896500751376152,0.0647861659526825,0.00038159266114234924,0.004605369176715612,0.01980573870241642
0.652,-0.01082218810915947,0.028081903234124184,0.06306926906108856,0.0008080769330263138,0.0046218265779316425,0.019736889749765396
0.654,-0.010757507756352425,0.027218827977776527,0.061152245849370956,0.001238417811691761,0.004741592798382044,0.019613564014434814
0.656,-0.010743366554379463,0.026388177648186684,0.059115733951330185,0.0016703056171536446,0.004977913573384285,0.019436916336417198
0.658,-0.010597126558423042,0.02559281326830387,0.05698251351714134,0.002092580311000347,0.005337053909897804,0.019223691895604134
0.66,-0.01044113002717495,0.024848947301506996,0.05470723286271095,0.0024991920217871666,0.005821297876536846,0.018987193703651428
0.662,-0.010279200971126556,0.024162301793694496,0.05232885852456093,0.002881762571632862,0.00642412481829524,0.018744084984064102
0.664,-0.010102469474077225,0.023590097203850746,0.04984983429312706,0.003238544799387455,0.007123489398509264,0.018511604517698288
0.666,-0.009812848642468452,0.023140914738178253,0.04729880020022392,0.003563366364687681,0.007890420965850353,0.018304474651813507
0.668,-0.009463811293244362,0.02280617505311966,0.044831763952970505,0.00384140620008111,0.008703546598553658,0.018135910853743553
0.67,-0.009005459025502205,0.02261066995561123,0.042369332164525986,0.004061864223331213,0.009531943127512932,0.018020426854491234
0.672,-0.008417694829404354,0.022567754611372948,0.03991696983575821,0.004211678635329008,0.010346144437789917,0.017973346635699272
0.674,-0.007732223719358444,0.02265358529984951,0.03746713325381279,0.0042769513092935085,0.011118012480437756,0.018007243052124977
0.676,-0.007000754587352276,0.022904401645064354,0.03506312891840935,0.004243130329996347,0.011827018111944199,0.018127793446183205
0.678,-0.006175524555146694,0.023257261142134666,0.03269949182868004,0.004093855153769255,0.012455899268388748,0.01834619604051113
0.68,-0.0052722301334142685,0.02366829663515091,0.030411992222070694,0.0038189380429685116,0.012994222342967987,0.01866474561393261
0.682,-0.004306604154407978,0.024197585880756378,0.02822965569794178,0.0034112734720110893,0.013434154912829399,0.019078830257058144
0.684,-0.003325739875435829,0.024783140048384666,0.026082757860422134,0.0028763245791196823,0.013771146535873413,0.019593385979533195
0.686,-0.002275279723107815,0.025482183322310448,0.02395782060921192,0.0022234786301851273,0.014004815369844437,0.020219070836901665
0.688,-0.0011871960014104843,0.026182180270552635,0.021986473351716995,0.0014579258859157562,0.014122499153017998,0.020956553518772125
0.69,-0.00015225447714328766,0.026902204379439354,0.020159203559160233,0.0005848081782460213,0.01412405539304018,0.021810194477438927
0.692,0.000859525054693222,0.027604108676314354,0.018406063318252563,-0.0003914274275302887,0.014010114595293999,0.022787589579820633
0.694,0.001798551995307207,0.02827644906938076,0.016884643584489822,-0.0014583664014935493,0.013771370984613895,0.023878587409853935
0.696,0.0025429846718907356,0.028919225558638573,0.015481202863156796,-0.00260057020932436,0.013404935598373413,0.025080250576138496
0.698,0.003170275129377842,0.02943897806107998,0.014165002852678299,-0.0038074152544140816,0.012910366989672184,0.026375627145171165
0.7,0.0036923722364008427,0.02983284369111061,0.013090162537992,-0.005054071545600891,0.012288938276469707,0.027731211856007576
0.702,0.004082109313458204,0.030109409242868423,0.012235366739332676,-0.006321880035102367,0.011545035056769848,0.029108859598636627
0.704,0.004297112114727497,0.03035736456513405,0.01158352941274643,-0.007592123933136463,0.010678231716156006,0.03046431578695774
0.706,0.0042714281007647514,0.030478481203317642,0.011102770455181599,-0.008839720860123634,0.009696264751255512,0.03175194561481476
0.708,0.0040426310151815414,0.03043842688202858,0.01085752621293068,-0.010050350800156593,0.00861455500125885,0.03292148560285568
0.71,0.003605805803090334,0.03029346838593483,0.0108267180621624,-0.011201981455087662,0.007447871379554272,0.033934928476810455
0.712,0.002981365192681551,0.030089382082223892,0.010996244847774506,-0.012270563282072544,0.006215689703822136,0.034755900502204895
0.714,0.002108911983668804,0.029827121645212173,0.011320941150188446,-0.013250969350337982,0.0049312240444123745,0.035368114709854126
0.716,0.0010432801209390163,0.029503827914595604,0.011932272464036942,-0.014122286811470985,0.003623328171670437,0.03576725721359253
0.718,-0.00028852932155132294,0.02917671762406826,0.012702901847660542,-0.014882617630064487,0.002327855210751295,0.035960953682661057
0.72,-0.0017868932336568832,0.02885914407670498,0.013563781976699829,-0.015522715635597706,0.0010693882359191775,0.03596026450395584
0.722,-0.0033575096167623997,0.028570180758833885,0.014589231461286545,-0.01603388413786888,-0.00013498419139068574,0.03577810898423195
0.724,-0.005089099518954754,0.028356557711958885,0.015764443203806877,-0.016412369906902313,-0.0012560570612549782,0.035430680960416794
0.726,-0.006982149090617895,0.028219228610396385,0.01699148863554001,-0.016657132655382156,-0.0022850544191896915,0.03494887799024582
0.728,-0.009006008505821228,0.028173452243208885,0.018254701048135757,-0.01676715910434723,-0.003206116147339344,0.034355759620666504
0.73,-0.011083275079727173,0.02825642190873623,0.019613852724432945,-0.016750913113355637,-0.004008641000837088,0.03367030248045921
0.732,-0.013288796879351139,0.028504379093647003,0.020951492711901665,-0.016618207097053528,-0.00469891307875514,0.032924897968769073
0.734,-0.01553687546402216,0.028867729008197784,0.0223075058311224,-0.016392430290579796,-0.005290851462632418,0.032165419310331345
0.736,-0.017868755385279655,0.029370315372943878,0.023695960640907288,-0.016094105318188667,-0.0057976217940449715,0.03143088519573212
0.738,-0.02032419666647911,0.030034072697162628,0.02508903481066227,-0.01575443707406521,-0.006234579253941774,0.030761219561100006
0.74,-0.02276914194226265,0.030800826847553253,0.026428263634443283,-0.015401653945446014,-0.006626580376178026,0.030189301818609238
0.742,-0.025292128324508667,0.031680114567279816,0.027535350993275642,-0.015057237818837166,-0.006994291674345732,0.02974458411335945
0.744,-0.02784084901213646,0.032697685062885284,0.028499163687229156,-0.014742795377969742,-0.007356362417340279,0.02945176139473915
0.746,-0.03035670891404152,0.033697135746479034,0.029348883777856827,-0.014479761943221092,-0.007740989327430725,0.029308496043086052
0.748,-0.03291257470846176,0.03470993787050247,0.030049968510866165,-0.014286456629633904,-0.008156219497323036,0.029315324500203133
0.75,-0.03551776334643364,0.03572750836610794,0.030589614063501358,-0.014174573123455048,-0.00860335398465395,0.02945314347743988
0.752,-0.03813629597425461,0.03676415607333183,0.03088124468922615,-0.01413559727370739,-0.009086648933589458,0.02969914674758911
0.754,-0.0407508984208107,0.03776169940829277,0.030987249687314034,-0.014168757945299149,-0.009591378271579742,0.03002864308655262
0.756,-0.04338239133358002,0.03864480182528496,0.030941948294639587,-0.014256236143410206,-0.010096566751599312,0.030397867783904076
0.758,-0.04599662125110626,0.039416324347257614,0.03066578321158886,-0.014389913529157639,-0.010586286894977093,0.030774051323533058
0.76,-0.04854748025536537,0.04010487720370293,0.030103666707873344,-0.014553106389939785,-0.011037318035960197,0.031123487278819084
0.762,-0.050997182726860046,0.04067422077059746,0.029362350702285767,-0.014721672981977463,-0.011428456753492355,0.03141458332538605
0.764,-0.05335569009184837,0.04106045886874199,0.02845861203968525,-0.014882178977131844,-0.011746167205274105,0.03161552920937538
0.766,-0.05563530698418617,0.04134179279208183,0.027276447042822838,-0.01502995379269123,-0.011976024135947227,0.03171990066766739
0.768,-0.057875677943229675,0.04140378162264824,0.02599215880036354,-0.015154709108173847,-0.012104468420147896,0.03171610087156296
0.77,-0.059957701712846756,0.041267406195402145,0.024592893198132515,-0.015269434079527855,-0.012142295017838478,0.03160553425550461
0.772,-0.06190832704305649,0.040972720831632614,0.023076508194208145,-0.01537013053894043,-0.012098727747797966,0.031390659511089325
0.774,-0.06369619071483612,0.040527354925870895,0.021397685632109642,-0.01547776535153389,-0.011982600204646587,0.03110242448747158
0.776,-0.0654064267873764,0.03989602252840996,0.019696475937962532,-0.015613450668752193,-0.011820067651569843,0.030766669660806656
0.778,-0.06698459386825562,0.039073001593351364,0.01786297746002674,-0.015798388049006462,-0.0116411242634058,0.030408963561058044
0.78,-0.0683717131614685,0.03811265155673027,0.016019240021705627,-0.016048213467001915,-0.011460951529443264,0.030048532411456108
0.782,-0.06962364912033081,0.03697587177157402,0.01419824082404375,-0.016384050250053406,-0.01131086889654398,0.029724128544330597
0.784,-0.07070120424032211,0.035761844366788864,0.0123593183234334,-0.01681220531463623,-0.011217438615858555,0.029452094808220863
0.786,-0.0716056376695633,0.034441959112882614,0.01042446494102478,-0.017322124913334846,-0.011187645606696606,0.02922421135008335
0.788,-0.0723055973649025,0.03303910419344902,0.00852750614285469,-0.017890483140945435,-0.01122895535081625,0.029029030352830887
0.79,-0.07290176302194595,0.03157998248934746,0.00661083310842514,-0.018501222133636475,-0.011341841891407967,0.028859324753284454
0.792,-0.07331506907939911,0.030009279027581215,0.004663094878196716,-0.019117942079901695,-0.011523582972586155,0.028681335970759392
0.794,-0.07357354462146759,0.02836800552904606,0.0028191988822072744,-0.019708149135112762,-0.011756198480725288,0.02847464755177498
0.796,-0.07372846454381943,0.026698121801018715,0.0009884306928142905,-0.02023348957300186,-0.01202726736664772,0.02821463719010353
0.798,-0.07368321716785431,0.025016793981194496,-0.0008375801262445748,-0.020658444613218307,-0.012310061603784561,0.027863113209605217
0.8,-0.07345865666866302,0.023326881229877472,-0.0027363160625100136,-0.02095339447259903,-0.012586446478962898,0.027411770075559616
0.802,-0.07319178432226181,0.021625526249408722,-0.004575145430862904,-0.021098459139466286,-0.012848618440330029,0.026852481067180634
0.804,-0.07278376817703247,0.019874580204486847,-0.006430631037801504,-0.021085040643811226,-0.013086325488984585,0.026171904057264328
0.806,-0.07222909480333328,0.018146522343158722,-0.008193140849471092,-0.02091551199555397,-0.013293568044900894,0.02537098340690136
0.808,-0.07154872268438339,0.016525276005268097,-0.00991189107298851,-0.02058745175600052,-0.013475407846271992,0.024463264271616936
0.81,-0.07072939723730087,0.01487541850656271,-0.011595193296670914,-0.020115692168474197,-0.013625970110297203,0.023474514484405518
0.812,-0.06996405869722366,0.013319975696504116,-0.013279128819704056,-0.019506942480802536,-0.013734993524849415,0.022428452968597412
0.814,-0.06905615329742432,0.011757856234908104,-0.014938730746507645,-0.01878122240304947,-0.013805539347231388,0.021347764879465103
0.816,-0.06804894655942917,0.01025963295251131,-0.016463331878185272,-0.0179717019200325,-0.01383270788937807,0.020262598991394043
0.818,-0.06695805490016937,0.008806233294308186,-0.0179563220590353,-0.017096705734729767,-0.013800390064716339,0.01920565776526928
0.82,-0.06583239138126373,0.007390980608761311,-0.019361814484000206,-0.016174670308828354,-0.013707920908927917,0.01818547025322914
0.822,-0.0647529736161232,0.006050114054232836,-0.020659737288951874,-0.015225900337100029,-0.013543393462896347,0.01721896044909954
0.824,-0.0635775476694107,0.004796985536813736,-0.021889502182602882,-0.014259177260100842,-0.013288052752614021,0.016313515603542328
0.826,-0.06237911432981491,0.003593448316678405,-0.023093875497579575,-0.013285821303725243,-0.012937840074300766,0.015479443594813347
0.828,-0.061207115650177,0.0025186568964272738,-0.024219410493969917,-0.012309516780078411,-0.012497775256633759,0.014707229100167751
0.83,-0.06004459783434868,0.001530650071799755,-0.02517719939351082,-0.011327038519084454,-0.011962820775806904,0.013987899757921696
0.832,-0.0588713064789772,0.0006628060946241021,-0.02611079439520836,-0.010344624519348145,-0.011331089772284031,0.013330075889825821
0.834,-0.057703182101249695,-0.0001049019701895304,-0.02697153389453888,-0.009357733651995659,-0.01061182003468275,0.01271802093833685
0.836,-0.0565522164106369,-0.0006761531112715602,-0.02782338485121727,-0.0083653898909688,-0.009811103343963623,0.012153372168540955
0.838,-0.05537577345967293,-0.00111961190123111,-0.028597194701433182,-0.007369973696768284,-0.008939552120864391,0.011640437878668308
0.84,-0.05420680716633797,-0.0014762863283976912,-0.02938656508922577,-0.00638933340087533,-0.008020028471946716,0.011190894059836864
0.842,-0.05304341018199921,-0.00170898309443146,-0.03009622171521187,-0.005434134975075722,-0.007052381057292223,0.010806526057422161
0.844,-0.052002646028995514,-0.001797674922272563,-0.03081582300364971,-0.004508280195295811,-0.006060732528567314,0.010492672212421894
0.846,-0.05097891762852669,-0.0018072117818519473,-0.03158187121152878,-0.0036381774116307497,-0.0050653135403990746,0.010266290977597237
0.848,-0.049895863980054855,-0.0016746511682868004,-0.032393261790275574,-0.0028226894792169333,-0.0040897163562476635,0.010128454305231571
0.85,-0.04895501956343651,-0.001391410012729466,-0.033157624304294586,-0.0020640355069190264,-0.003149807220324874,0.010084226727485657
0.852,-0.04801527410745621,-0.001007079379633069,-0.0338757149875164,-0.0013615121133625507,-0.0022829805966466665,0.01013785507529974
0.854,-0.04711022973060608,-0.000591277435887605,-0.034546397626399994,-0.0007172725163400173,-0.0015001448336988688,0.010273474268615246
0.856,-0.046260666102170944,-6.103459600126371e-05,-0.03528016805648804,-0.00013339705765247345,-0.0008185050101019442,0.010472475551068783
0.858,-0.04546104371547699,0.00047493030433543026,-0.03608370199799538,0.0003948076628148556,-0.0002580372092779726,0.010722830891609192
0.86,-0.044767286628484726,0.0011262898333370686,-0.03687981516122818,0.0008743484504520893,0.000177351976162754,0.011006784625351429
0.862,-0.044138967990875244,0.0017051701433956623,-0.037678465247154236,0.0013052565045654774,0.0004995538620278239,0.011286770924925804
0.864,-0.04373258352279663,0.0023069384042173624,-0.03847444802522659,0.0016948645934462547,0.000708018196746707,0.01152280904352665
0.866,-0.043364379554986954,0.0028800966683775187,-0.0392923578619957,0.0020448220893740654,0.0008136585238389671,0.011684644967317581
0.868,-0.043102823197841644,0.0034408573992550373,-0.040125831961631775,0.0023649553768336773,0.0008377963094972074,0.01174711063504219
0.87,-0.04289604350924492,0.003985405433923006,-0.04091241955757141,0.0026787477545440197,0.0007952760206535459,0.011684202589094639
0.872,-0.04281455650925636,0.004479408264160156,-0.04170529171824455,0.00298604229465127,0.0007036360912024975,0.011480741202831268
0.874,-0.04285051301121712,0.004937171936035156,-0.042517952620983124,0.0033034151419997215,0.0005813376628793776,0.011140323244035244
0.876,-0.0430164635181427,0.005341529846191406,-0.043275944888591766,0.0036484801676124334,0.00045316817704588175,0.010666031390428543
0.878,-0.04323204234242439,0.005733489990234375,-0.044057395309209824,0.004022564273327589,0.0003319056995678693,0.010073630139231682
0.88,-0.04356348142027855,0.006098747719079256,-0.044779740273952484,0.004429880529642105,0.0002451690670568496,0.009384057484567165
0.882,-0.04395652189850807,0.006403923500329256,-0.04554110765457153,0.004884028807282448,0.0002108426415361464,0.00863401498645544
0.884,-0.0444403700530529,0.006678581703454256,-0.04625193029642105,0.005375289358198643,0.00023684947518631816,0.007854137569665909
0.886,-0.04495807737112045,0.007029533851891756,-0.047024719417095184,0.005901784636080265,0.0003310617175884545,0.007065801881253719
0.888,-0.04552173241972923,0.0073099141009151936,-0.04782078042626381,0.006445793434977531,0.0005021409597247839,0.00630529411137104
0.89,-0.04616311937570572,0.007595062721520662,-0.04856228828430176,0.007002575322985649,0.00075232406379655,0.0055859885178506374
0.892,-0.046798739582300186,0.007884025573730469,-0.04933173954486847,0.007563615217804909,0.0010777288116514683,0.004927649162709713
0.894,-0.04743201285600662,0.008184432983398438,-0.050069428980350494,0.008128773421049118,0.001473183510825038,0.004329910036176443
0.896,-0.04815615341067314,0.008573532104492188,-0.05067015439271927,0.008690251968801022,0.0019125526305288076,0.0038139191456139088
0.898,-0.04888343811035156,0.008962631225585938,-0.05126079544425011,0.009242354892194271,0.00239011668600142,0.00337812677025795
0.9,-0.04961099103093147,0.009410858154296875,-0.05182443559169769,0.009791804477572441,0.0028958318289369345,0.0030138033907860518
0.902,-0.05036788806319237,0.009922027587890625,-0.05238311365246773,0.010326370596885681,0.003408603137359023,0.002709239022806287
0.904,-0.05113324895501137,0.010443687438964844,-0.052923496812582016,0.010833954438567162,0.003912049811333418,0.002455513458698988
0.906,-0.05188039317727089,0.010934829711914062,-0.05328858643770218,0.01131411362439394,0.004396182019263506,0.0022455770522356033
0.908,-0.05265798419713974,0.011513710021972656,-0.05358302593231201,0.011766985058784485,0.004851422738283873,0.002067017834633589
0.91,-0.05343096703290939,0.012138367630541325,-0.05373746529221535,0.012187983840703964,0.00526511250063777,0.0019063834333792329
0.912,-0.05411330610513687,0.012827875092625618,-0.05382545664906502,0.012575133703649044,0.00563481030985713,0.0017601812724024057
0.914,-0.054830536246299744,0.013575555756688118,-0.05380190536379814,0.012918494641780853,0.005959445610642433,0.0016184344422072172
0.916,-0.05557134747505188,0.014356615021824837,-0.0536777600646019,0.013211129233241081,0.006233770865947008,0.0014813856687396765
0.918,-0.05627303197979927,0.015101434662938118,-0.0534462109208107,0.013459309935569763,0.006476392038166523,0.0013529405696317554
0.92,-0.056956008076667786,0.015888215973973274,-0.05308566614985466,0.013666080310940742,0.006700026802718639,0.0012281694216653705
0.922,-0.05752132460474968,0.016637803986668587,-0.05258430168032646,0.013835021294653416,0.006913002580404282,0.0011075943475589156
0.924,-0.05814659222960472,0.017490388825535774,-0.052019815891981125,0.013966042548418045,0.007138408720493317,0.000992695684544742
0.926,-0.05870236083865166,0.01834583468735218,-0.051418647170066833,0.014081699773669243,0.007384170778095722,0.0008774678572081029
0.928,-0.05927149951457977,0.01922035403549671,-0.050757598131895065,0.014184819534420967,0.007654635235667229,0.0007544057443737984
0.93,-0.059727538377046585,0.020112039521336555,-0.05006534606218338,0.014284788630902767,0.00794637855142355,0.0006323307752609253
0.932,-0.06005202606320381,0.020943643525242805,-0.049393344670534134,0.014389310032129288,0.008270390331745148,0.0005110269994474947
0.934,-0.06040608137845993,0.021754266694188118,-0.04865969344973564,0.014502622187137604,0.008622239343822002,0.00038919327198527753
0.936,-0.060791268944740295,0.022558214142918587,-0.04796147719025612,0.01462162658572197,0.009006674401462078,0.00025433083646930754
0.938,-0.061018168926239014,0.023336412385106087,-0.04729572683572769,0.014742881990969181,0.009419932961463928,0.00011760993220377713
0.94,-0.061193883419036865,0.024111751466989517,-0.04665614292025566,0.014868187718093395,0.009855464100837708,-2.5546865799697116e-05
0.942,-0.061338502913713455,0.024875644594430923,-0.045996394008398056,0.014989528805017471,0.01031166035681963,-0.0001753542455844581
0.944,-0.06140092387795448,0.025572780519723892,-0.04546702280640602,0.015093259513378143,0.010784684680402279,-0.00033592444378882647
0.946,-0.06138819456100464,0.026183132082223892,-0.04487769678235054,0.015166651457548141,0.011271162889897823,-0.0005098316469229758
0.948,-0.06130938231945038,0.02676296792924404,-0.04440851882100105,0.015212314203381538,0.011769162490963936,-0.0006992756389081478
0.95,-0.06111399829387665,0.02732563577592373,-0.0439862459897995,0.01522987149655819,0.012274472042918205,-0.0009159179753623903
0.952,-0.06082506105303764,0.027810102328658104,-0.04359227791428566,0.015225723385810852,0.01278351154178381,-0.0011599947465583682
0.954,-0.06052601337432861,0.028282171115279198,-0.04323641583323479,0.01520913653075695,0.01328488253057003,-0.0014299389440566301
0.956,-0.060112033039331436,0.02872372232377529,-0.04293203726410866,0.015185831114649773,0.013780100271105766,-0.0017197004053741693
0.958,-0.059575680643320084,0.029040342196822166,-0.04261494055390358,0.015167743898928165,0.014273587614297867,-0.002030105097219348
0.96,-0.05889606475830078,0.029276853427290916,-0.04237863048911095,0.015159763395786285,0.01475767232477665,-0.0023629646748304367
0.962,-0.05810227245092392,0.029435161501169205,-0.042162347584962845,0.01517606619745493,0.015230999328196049,-0.002703026868402958
0.964,-0.057234860956668854,0.029499057680368423,-0.04197540506720543,0.015218643471598625,0.015703169628977776,-0.0030406364239752293
0.966,-0.0562678724527359,0.029482845216989517,-0.041775185614824295,0.015281230211257935,0.016169626265764236,-0.0033652479760348797
0.968,-0.05520285665988922,0.02941322699189186,-0.0415300652384758,0.015371449291706085,0.01662452332675457,-0.0036581719759851694
0.97,-0.05394749715924263,0.029142383486032486,-0.041292086243629456,0.01548704318702221,0.017065148800611496,-0.003908772021532059
0.972,-0.0526060089468956,0.028840068727731705,-0.041014522314071655,0.015610398724675179,0.01749204285442829,-0.00410380819812417
0.974,-0.0510527603328228,0.02846527472138405,-0.040725842118263245,0.01574080064892769,0.01791340485215187,-0.004239161964505911
0.976,-0.04950569570064545,0.02806568518280983,-0.04037954658269882,0.015871871262788773,0.01833314076066017,-0.004310385324060917
0.978,-0.04783850535750389,0.02756691351532936,-0.040005747228860855,0.01599840447306633,0.018753772601485252,-0.004320959094911814
0.98,-0.046134088188409805,0.026973728090524673,-0.03962215036153793,0.016118526458740234,0.019184447824954987,-0.0042708273977041245
0.982,-0.04438014701008797,0.02634430304169655,-0.039190225303173065,0.016236651688814163,0.019636521115899086,-0.004176632035523653
0.984,-0.042528100311756134,0.02570343390107155,-0.038654912263154984,0.01634824275970459,0.02011115290224552,-0.004057861398905516
0.986,-0.040648385882377625,0.025037769228219986,-0.038061972707509995,0.016465747728943825,0.02060600556433201,-0.003925589378923178
0.988,-0.03882826119661331,0.02437591925263405,-0.03740522637963295,0.016588818281888962,0.02112303115427494,-0.003795567201450467
0.99,-0.037027839571237564,0.023690227419137955,-0.036699555814266205,0.016719132661819458,0.021648377180099487,-0.0036721446085721254
0.992,-0.0352991484105587,0.023036004975438118,-0.03588990867137909,0.016860395669937134,0.022181838750839233,-0.0035784135106951
0.994,-0.033630870282649994,0.02246570773422718,-0.03499417006969452,0.016996903344988823,0.02271164394915104,-0.0035301228053867817
0.996,-0.03200913965702057,0.021869661286473274,-0.03402310982346535,0.0171242356300354,0.023230820894241333,-0.003529235254973173
0.998,-0.030460121110081673,0.021451951935887337,-0.03298542648553848,0.01724032312631607,0.023736625909805298,-0.003575987182557583
1.0,-0.02903742901980877,0.021119119599461555,-0.03198404610157013,0.017337609082460403,0.024226583540439606,-0.003663343843072653
1.002,-0.027787718921899796,0.020931245759129524,-0.03095116838812828,0.01740296743810177,0.024699775502085686,-0.0037932994309812784
1.004,-0.02672044187784195,0.020823480561375618,-0.029813265427947044,0.017444267868995667,0.025167342275381088,-0.003954124636948109
1.006,-0.025742344558238983,0.02079487033188343,-0.028696073219180107,0.0174606591463089,0.025634868070483208,-0.004136100877076387
1.008,-0.024977533146739006,0.0209732074290514,-0.02752384915947914,0.017454497516155243,0.02611817978322506,-0.0043256753124296665
1.01,-0.02431410551071167,0.021276475861668587,-0.02629130706191063,0.017441164702177048,0.0266267117112875,-0.004518435336649418
1.012,-0.023857366293668747,0.02175903506577015,-0.025029398500919342,0.017434481531381607,0.027161145582795143,-0.00471270177513361
1.014,-0.023543769493699074,0.022418977692723274,-0.023808272555470467,0.017441533505916595,0.027735872194170952,-0.004901404958218336
1.016,-0.023373877629637718,0.02317810244858265,-0.02259044535458088,0.017455879598855972,0.028345873579382896,-0.005085441749542952
1.018,-0.02333674021065235,0.024081233888864517,-0.021370260044932365,0.017481181770563126,0.028991853818297386,-0.0052680764347314835
1.02,-0.023393571376800537,0.025043491274118423,-0.020100124180316925,0.01752180978655815,0.029673097655177116,-0.005456473212689161
1.022,-0.02359992265701294,0.026076320558786392,-0.018796920776367188,0.01756756752729416,0.03039202280342579,-0.0056553673930466175
1.024,-0.023847311735153198,0.027196887880563736,-0.017491988837718964,0.017617521807551384,0.03114139288663864,-0.005866969935595989
1.026,-0.024101562798023224,0.028342250734567642,-0.016225377097725868,0.017667129635810852,0.03191095218062401,-0.006104504689574242
1.028,-0.024518977850675583,0.029582027345895767,-0.01498357392847538,0.01770048961043358,0.032692644745111465,-0.0063718874007463455
1.03,-0.025005865842103958,0.0308380164206028,-0.01377401128411293,0.017707906663417816,0.03347780182957649,-0.006670920643955469
1.032,-0.02546553686261177,0.03210735693573952,-0.012583250179886818,0.017687581479549408,0.03425660729408264,-0.006998924538493156
1.034,-0.025906551629304886,0.03337479010224342,-0.011393607594072819,0.017625626176595688,0.035016223788261414,-0.007352891378104687
1.036,-0.026392079889774323,0.03462410345673561,-0.010263903066515923,0.017512226477265358,0.035742927342653275,-0.007715120445936918
1.038,-0.026877041906118393,0.03580856695771217,-0.009203377179801464,0.017344150692224503,0.03642706200480461,-0.008076861500740051
1.04,-0.027336250990629196,0.03692913427948952,-0.008206862956285477,0.017112476751208305,0.037053182721138,-0.008419893682003021
1.042,-0.027758724987506866,0.03797436133027077,-0.007250216789543629,0.01682398095726967,0.03759901970624924,-0.008721242658793926
1.044,-0.028066471219062805,0.03894329443573952,-0.0064053768292069435,0.016479745507240295,0.0380580872297287,-0.008968625217676163
1.046,-0.028308779001235962,0.03983688727021217,-0.005659674294292927,0.01608135551214218,0.03841416910290718,-0.009141559712588787
1.048,-0.0285453200340271,0.0405883826315403,-0.005062996409833431,0.01563950814306736,0.03865804523229599,-0.009230639785528183
1.05,-0.02872522547841072,0.0412292554974556,-0.004611780401319265,0.015159604139626026,0.038780756294727325,-0.009243767708539963
1.052,-0.028905529528856277,0.04170132428407669,-0.004327503498643637,0.014646918512880802,0.03877795860171318,-0.009186387993395329
1.054,-0.028998568654060364,0.04206181317567825,-0.0041231331415474415,0.01411202922463417,0.03865721449255943,-0.009069540537893772
1.056,-0.0289701409637928,0.04227448254823685,-0.004048726987093687,0.013564741238951683,0.038424767553806305,-0.00890351738780737
1.058,-0.028935715556144714,0.04226017743349075,-0.004133929032832384,0.013012080453336239,0.038086313754320145,-0.008708755485713482
1.06,-0.028865668922662735,0.04206085950136185,-0.004334868397563696,0.012464468367397785,0.03765419125556946,-0.008501754142343998
1.062,-0.02869676798582077,0.0417480543255806,-0.00466151861473918,0.011927776969969273,0.03715033456683159,-0.008301268331706524
1.064,-0.02841181494295597,0.04122162237763405,-0.0050708153285086155,0.01140412874519825,0.036594536155462265,-0.008115834556519985
1.066,-0.02819913811981678,0.040525440126657486,-0.005582964979112148,0.010897999629378319,0.03600944206118584,-0.00794451218098402
1.068,-0.02799404039978981,0.03968334570527077,-0.0062065403908491135,0.01041402854025364,0.03541740030050278,-0.007798582781106234
1.07,-0.02769259735941887,0.03867721930146217,-0.006881816312670708,0.009954618290066719,0.03484676778316498,-0.007676772307604551
1.072,-0.027385327965021133,0.03750515356659889,-0.007569613866508007,0.009527325630187988,0.03431546688079834,-0.00757442694157362
1.074,-0.027076419442892075,0.036207202821969986,-0.008295373991131783,0.009141641668975353,0.033842600882053375,-0.007485989481210709
1.076,-0.02678181231021881,0.03476906195282936,-0.00902752298861742,0.008801332674920559,0.033433035016059875,-0.007403116207569838
1.078,-0.02641172520816326,0.033239368349313736,-0.009745846502482891,0.008504900150001049,0.033097077161073685,-0.007324574515223503
1.08,-0.026056617498397827,0.03164863958954811,-0.010452354326844215,0.00826224870979786,0.032837875187397,-0.0072474125772714615
1.082,-0.025637272745370865,0.029971128329634666,-0.011115288361907005,0.00808374397456646,0.03265482559800148,-0.0071658361703157425
1.084,-0.025249002501368523,0.028202062472701073,-0.01176956295967102,0.007969485595822334,0.032543595880270004,-0.007084526587277651
1.086,-0.024830995127558708,0.026345256716012955,-0.012385963462293148,0.007916060276329517,0.03249334543943405,-0.006998118944466114
1.088,-0.02439180761575699,0.0245056189596653,-0.012936652638018131,0.0079222172498703,0.03249563276767731,-0.006901721004396677
1.09,-0.023935893550515175,0.02270221896469593,-0.01343503687530756,0.007984449155628681,0.03253963962197304,-0.006796805188059807
1.092,-0.023471051827073097,0.02096748538315296,-0.01386960782110691,0.008090506307780743,0.03261546418070793,-0.006679847836494446
1.094,-0.023017702624201775,0.019303323701024055,-0.014263825491070747,0.008220960386097431,0.03272474184632301,-0.006541319191455841
1.096,-0.022518586367368698,0.0177536029368639,-0.01458614133298397,0.008353184908628464,0.032863862812519073,-0.006376784294843674
1.098,-0.02197420224547386,0.01630878634750843,-0.014870187267661095,0.008474740199744701,0.03302265331149101,-0.006185569800436497
1.1,-0.021354936063289642,0.015002252534031868,-0.015095050446689129,0.008579942397773266,0.03320483863353729,-0.005966797936707735
1.102,-0.02069973386824131,0.013848306611180305,-0.015253300778567791,0.008657129481434822,0.033414557576179504,-0.005725125782191753
1.104,-0.02000502124428749,0.012818338349461555,-0.015348021872341633,0.008699024096131325,0.0336453914642334,-0.005464816000312567
1.106,-0.01929612085223198,0.012007715180516243,-0.015389752574265003,0.00870443880558014,0.033897098153829575,-0.005197675433009863
1.108,-0.018574479967355728,0.01139450166374445,-0.015419800765812397,0.008672850206494331,0.034169334918260574,-0.004934570286422968
1.11,-0.017779380083084106,0.010969162918627262,-0.015369320288300514,0.008606004528701305,0.03446047380566597,-0.0046868533827364445
1.112,-0.016909120604395866,0.010747910477221012,-0.015311242081224918,0.008504859171807766,0.0347694493830204,-0.004468260332942009
1.114,-0.01596885174512863,0.01075363252311945,-0.015323185361921787,0.00837686937302351,0.0350969135761261,-0.0042876191437244415
1.116,-0.015006791800260544,0.010930062271654606,-0.015354324132204056,0.00823284313082695,0.03543822839856148,-0.004146202001720667
1.118,-0.014033263549208641,0.011276246048510075,-0.015432017855346203,0.008077271282672882,0.03579678758978844,-0.004046854097396135
1.12,-0.01297199260443449,0.011861803010106087,-0.015542607754468918,0.007910652086138725,0.03618484362959862,-0.003998251166194677
1.122,-0.011849740520119667,0.012601854279637337,-0.01569468528032303,0.007737681735306978,0.03660865128040314,-0.003999339882284403
1.124,-0.010771675035357475,0.013525963760912418,-0.015906887128949165,0.007566758431494236,0.037066273391246796,-0.0040469118393957615
1.126,-0.009719889611005783,0.014627457596361637,-0.01621760055422783,0.007391514256596565,0.03756197169423103,-0.004131984896957874
1.128,-0.008675403892993927,0.01582050509750843,-0.016614051535725594,0.0072123222053050995,0.038100700825452805,-0.004245174583047628
1.13,-0.007682179566472769,0.01719379611313343,-0.01713489182293415,0.007042796816676855,0.0386803075671196,-0.0043721552938222885
1.132,-0.00671185739338398,0.01873016357421875,-0.017802152782678604,0.006883955094963312,0.03929601609706879,-0.004493812099099159
1.134,-0.005841180682182312,0.02030467987060547,-0.018610453233122826,0.006730513647198677,0.03994327411055565,-0.004591122269630432
1.136,-0.005050865933299065,0.021935462951660156,-0.01947862282395363,0.006579438224434853,0.040607307106256485,-0.004645649343729019
1.138,-0.004297328181564808,0.023608209565281868,-0.02044059894979,0.0064283134415745735,0.04127772897481918,-0.004642645362764597
1.14,-0.0036334600299596786,0.02530384249985218,-0.02154453657567501,0.006271409802138805,0.041948046535253525,-0.0045737032778561115
1.142,-0.0030850032344460487,0.026953699067234993,-0.02271236851811409,0.006104876287281513,0.04260987788438797,-0.00442796153947711
1.144,-0.0026736389845609665,0.028563501313328743,-0.023971501737833023,0.00592759158462286,0.04325859248638153,-0.004204133525490761
1.146,-0.0024066390469670296,0.03017139621078968,-0.025315288454294205,0.005737129133194685,0.04389111325144768,-0.00390814570710063
1.148,-0.002251492813229561,0.03175830841064453,-0.026694688946008682,0.005528961308300495,0.04450736194849014,-0.0035516659263521433
1.15,-0.0021677762269973755,0.0332183837890625,-0.02809971198439598,0.005301208235323429,0.04511263221502304,-0.0031376585830003023
1.152,-0.0022323541343212128,0.03458213806152344,-0.029549241065979004,0.005049910396337509,0.04571233689785004,-0.0026731465477496386
1.154,-0.002417242154479027,0.03582763671875,-0.03105420246720314,0.004764405079185963,0.046306073665618896,-0.0021724626421928406
1.156,-0.0026852786540985107,0.03690338134765625,-0.03250732272863388,0.004446021746844053,0.04690367355942726,-0.0016492627328261733
1.158,-0.0030565140768885612,0.03783988952636719,-0.033901676535606384,0.004096037708222866,0.047520410269498825,-0.001118230982683599
1.16,-0.0035220403224229813,0.03859424591064453,-0.03525639697909355,0.0037117954343557358,0.04815305396914482,-0.0005903811543248594
1.162,-0.004039393737912178,0.039200782775878906,-0.03651604801416397,0.0032987124286592007,0.048797525465488434,-7.817801815690473e-05
1.164,-0.004644269123673439,0.03962993621826172,-0.037766192108392715,0.0028559493366628885,0.0494614839553833,0.0004075106407981366
1.166,-0.005333960056304932,0.039867401123046875,-0.03897706791758537,0.002387697109952569,0.050143782049417496,0.0008523092838004231
1.168,-0.006052562966942787,0.03994178771972656,-0.04006488248705864,0.0018990276148542762,0.05083572492003441,0.001240870333276689
1.17,-0.006842276081442833,0.039793968200683594,-0.041051000356674194,0.001388067496009171,0.051527682691812515,0.0015585442306473851
1.172,-0.007688568904995918,0.03943443298339844,-0.04192715510725975,0.0008562604198232293,0.05220736190676689,0.0017974203219637275
1.174,-0.008528750389814377,0.03894519805908203,-0.04269256815314293,0.00030360661912709475,0.05285525321960449,0.0019593939650803804
1.176,-0.009377866983413696,0.03828907012939453,-0.04333784803748131,-0.00027153792325407267,0.05345616117119789,0.0020470006857067347
1.178,-0.010260926559567451,0.03745269775390625,-0.04388866201043129,-0.0008778477204032242,0.0540032759308815,0.0020628836937248707
1.18,-0.011207066476345062,0.036522865295410156,-0.04433761537075043,-0.0015166718512773514,0.05448273569345474,0.002017121994867921
1.182,-0.012217087671160698,0.03553295135498047,-0.0446818582713604,-0.002190499799326062,0.05487973615527153,0.0019277003593742847
1.184,-0.013240864500403404,0.034453392028808594,-0.04496792331337929,-0.0029041648376733065,0.055190060287714005,0.001812425791285932
1.186,-0.014288920909166336,0.0333404541015625,-0.04512501880526543,-0.0036502392031252384,0.05541287362575531,0.0016892922576516867
1.188,-0.015368906781077385,0.032156944274902344,-0.045149292796850204,-0.004425998777151108,0.05554598569869995,0.0015738989459350705
1.19,-0.016415424644947052,0.030924798920750618,-0.04508373513817787,-0.005228666588664055,0.055597953498363495,0.0014809275744482875
1.192,-0.01749124936759472,0.029770852997899055,-0.04489218443632126,-0.006050293333828449,0.05557750165462494,0.0014247143408283591
1.194,-0.018527530133724213,0.028655054047703743,-0.04456288367509842,-0.0068846698850393295,0.05549458786845207,0.0014085205039009452
1.196,-0.019541217014193535,0.027591707184910774,-0.04409715160727501,-0.0077220238745212555,0.05536292493343353,0.0014332706341519952
1.198,-0.020532604306936264,0.026618005707859993,-0.04351620003581047,-0.008555440232157707,0.05519308149814606,0.0015007922193035483
1.2,-0.021486032754182816,0.025716783478856087,-0.042814094573259354,-0.009375464171171188,0.05499764531850815,0.001607904676347971
1.202,-0.02240029349923134,0.024878503754734993,-0.041982006281614304,-0.01016288623213768,0.0547894649207592,0.0017443997785449028
1.204,-0.023203331977128983,0.02412414737045765,-0.04101710021495819,-0.010900823399424553,0.05458312854170799,0.0018995385617017746
1.206,-0.023883311077952385,0.023455621674656868,-0.03988780453801155,-0.011573612689971924,0.054380595684051514,0.002067830879241228
1.208,-0.024491172283887863,0.022884368896484375,-0.038578566163778305,-0.012160476297140121,0.0541786253452301,0.0022449824027717113
1.21,-0.024975355714559555,0.022434234619140625,-0.037145864218473434,-0.012646002694964409,0.05396973714232445,0.0024254112504422665
1.212,-0.025351881980895996,0.022101402282714844,-0.035627491772174835,-0.013019002042710781,0.053746603429317474,0.002601172775030136
1.214,-0.025601670145988464,0.021821975708007812,-0.03401487320661545,-0.013271170668303967,0.05351061373949051,0.0027710150461643934
1.216,-0.025714240968227386,0.02160835452377796,-0.032258570194244385,-0.013403846882283688,0.0532548651099205,0.002932158997282386
1.218,-0.02569674327969551,0.021465303376317024,-0.030409229919314384,-0.01342544611543417,0.05297209322452545,0.0030778890941292048
1.22,-0.025580553337931633,0.021358491852879524,-0.028483496978878975,-0.01335542555898428,0.0526607371866703,0.003216280834749341
1.222,-0.025422003120183945,0.021286966279149055,-0.026496680453419685,-0.013217825442552567,0.05232102423906326,0.0033539722207933664
1.224,-0.025221165269613266,0.02128791995346546,-0.024447275325655937,-0.013035348616540432,0.0519518218934536,0.0035018317867070436
1.226,-0.02490466833114624,0.02133655734360218,-0.022384464740753174,-0.012830913066864014,0.05155312269926071,0.003668611403554678
1.228,-0.024607790634036064,0.021411897614598274,-0.02037965878844261,-0.01262572780251503,0.051127173006534576,0.0038582198321819305
1.23,-0.024375855922698975,0.021474840119481087,-0.018426721915602684,-0.012442302890121937,0.050680264830589294,0.004075148608535528
1.232,-0.024112900719046593,0.021506311371922493,-0.016527792438864708,-0.012287812307476997,0.050204142928123474,0.004323405213654041
1.234,-0.023820849135518074,0.02157592959702015,-0.014760150574147701,-0.012170573696494102,0.049684543162584305,0.004604731686413288
1.236,-0.023528555408120155,0.021674158051609993,-0.013105309568345547,-0.01209603063762188,0.049120526760816574,0.004915439989417791
1.238,-0.023253794759511948,0.021811487153172493,-0.011584504507482052,-0.012059436179697514,0.04850291460752487,0.005248056724667549
1.24,-0.023062290623784065,0.021979335695505142,-0.010241442359983921,-0.012056505307555199,0.04781728610396385,0.005591527558863163
1.242,-0.022916706278920174,0.022105220705270767,-0.009005727246403694,-0.01207442581653595,0.047063007950782776,0.005929827690124512
1.244,-0.022724885493516922,0.022258762270212173,-0.007881675846874714,-0.012101820670068264,0.04623027890920639,0.006245283409953117
1.246,-0.022488772869110107,0.022433284670114517,-0.006954738404601812,-0.012135157361626625,0.04531269147992134,0.006524212658405304
1.248,-0.02227725088596344,0.022574428468942642,-0.006199410185217857,-0.012166020460426807,0.044308338314294815,0.006755043286830187
1.25,-0.022049635648727417,0.022713664919137955,-0.005586046725511551,-0.01218273676931858,0.043207865208387375,0.006923091132193804
1.252,-0.02174556814134121,0.02286529913544655,-0.0051233964040875435,-0.01217601913958788,0.04201526567339897,0.0070258029736578465
1.254,-0.021347785368561745,0.02298450842499733,-0.004765971563756466,-0.012137449346482754,0.04074593260884285,0.007059019990265369
1.256,-0.020840799435973167,0.02305794134736061,-0.0045491233468055725,-0.012062408030033112,0.03941536694765091,0.007018661592155695
1.258,-0.020235136151313782,0.02310943976044655,-0.004475594963878393,-0.011953392997384071,0.038045115768909454,0.006910543888807297
1.26,-0.019595593214035034,0.02315998449921608,-0.004501800984144211,-0.011805322952568531,0.03666991740465164,0.00674863625317812
1.262,-0.018834490329027176,0.023159030824899673,-0.004637065809220076,-0.011618996039032936,0.035329680889844894,0.006548232864588499
1.264,-0.017930740490555763,0.023067478090524673,-0.004825191106647253,-0.011403955519199371,0.03406519070267677,0.006329710129648447
1.266,-0.01693696156144142,0.022922517731785774,-0.005132975988090038,-0.011170572601258755,0.03291981294751167,0.006114170886576176
1.268,-0.0158320851624012,0.022710802033543587,-0.005584324710071087,-0.010926814749836922,0.03192944824695587,0.005929302424192429
1.27,-0.014691680669784546,0.022459985688328743,-0.0061174738220870495,-0.010673951357603073,0.03112746961414814,0.005803737789392471
1.272,-0.013493544422090054,0.022115709260106087,-0.006765249650925398,-0.010414590127766132,0.030538072809576988,0.00576234282925725
1.274,-0.012306205928325653,0.021717073395848274,-0.007481171749532223,-0.010156456381082535,0.03018230013549328,0.005819038487970829
1.276,-0.011198218911886215,0.021228792145848274,-0.008314709179103374,-0.009910200722515583,0.030071618035435677,0.005979960784316063
1.278,-0.010193904861807823,0.02069282718002796,-0.009312775917351246,-0.009683116339147091,0.030206451192498207,0.006239850074052811
1.28,-0.009226767346262932,0.020137788727879524,-0.010458691976964474,-0.009473146870732307,0.030575022101402283,0.0065923649817705154
1.282,-0.008367892354726791,0.019547464326024055,-0.011727896519005299,-0.009277657605707645,0.03115495666861534,0.007018794771283865
1.284,-0.007730315905064344,0.018932344391942024,-0.01314347330480814,-0.009096374735236168,0.03191927820444107,0.007501010783016682
1.286,-0.007313976064324379,0.018351556733250618,-0.014657055959105492,-0.008923955261707306,0.03284885361790657,0.008015255443751812
1.288,-0.00706116808578372,0.017817499116063118,-0.016286732628941536,-0.008753536269068718,0.03392123058438301,0.00853206031024456
1.29,-0.006992655340582132,0.017244338989257812,-0.01803368143737316,-0.008571675978600979,0.03510252758860588,0.009033302776515484
1.292,-0.0070658838376402855,0.01671123504638672,-0.019853772595524788,-0.008366928435862064,0.036367543041706085,0.009496578015387058
1.294,-0.007316053844988346,0.01628398895263672,-0.021712934598326683,-0.008136753924190998,0.0376952663064003,0.009906234219670296
1.296,-0.0077973054721951485,0.015913009643554688,-0.023662207648158073,-0.007875364273786545,0.03905884176492691,0.010247803293168545
1.298,-0.008471344597637653,0.015625,-0.025625314563512802,-0.007579127326607704,0.040440432727336884,0.010508119128644466
1.3,-0.009331909008324146,0.015473365783691406,-0.02764018252491951,-0.007245163433253765,0.041825249791145325,0.010681161656975746
1.302,-0.01033956091850996,0.01538848876953125,-0.029677925631403923,-0.006880941800773144,0.04319300130009651,0.010765662416815758
1.304,-0.011482533998787403,0.015429496765136719,-0.031711891293525696,-0.006498880684375763,0.044536519795656204,0.010763930156826973
1.306,-0.012756172567605972,0.015611648559570312,-0.03373905271291733,-0.0061068846844136715,0.04583250358700752,0.010670337826013565
1.308,-0.014135140925645828,0.015918731689453125,-0.03575136885046959,-0.00571816973388195,0.047059398144483566,0.010492103174328804
1.31,-0.01560346782207489,0.01630115509033203,-0.037774935364723206,-0.005341568496078253,0.0482095330953598,0.010247580707073212
1.312,-0.01711345836520195,0.016782760620117188,-0.03976082801818848,-0.004981853533536196,0.049274150282144547,0.009950760751962662
1.314,-0.018757987767457962,0.017324447631835938,-0.041726354509592056,-0.004649979528039694,0.05025263875722885,0.009609304368495941
1.316,-0.02047089859843254,0.018006324768066406,-0.04371073469519615,-0.004346682224422693,0.051141031086444855,0.009235476143658161
1.318,-0.02224070578813553,0.0187835693359375,-0.045685943216085434,-0.0040665315464138985,0.05194434896111488,0.008840571157634258
1.32,-0.024098768830299377,0.019596099853515625,-0.04758032038807869,-0.0038085998967289925,0.05267302319407463,0.008440366014838219
1.322,-0.02591780014336109,0.02043437957763672,-0.04941561818122864,-0.003573889145627618,0.05334477499127388,0.008040265180170536
1.324,-0.027774251997470856,0.021320343017578125,-0.051219724118709564,-0.0033607762306928635,0.05397209897637367,0.007650414481759071
1.326,-0.029719136655330658,0.02225208282470703,-0.05305907875299454,-0.0031597591005265713,0.054564014077186584,0.007278755772858858
1.328,-0.03169002756476402,0.023143768310546875,-0.05490714684128761,-0.0029695003759115934,0.05512178689241409,0.006931209936738014
1.33,-0.0336969830095768,0.02406788058578968,-0.056756507605314255,-0.0027771322056651115,0.05565236881375313,0.006614550948143005
1.332,-0.03561012074351311,0.0249404925853014,-0.0585639588534832,-0.0025778852868825197,0.056153375655412674,0.006335225887596607
1.334,-0.03751431033015251,0.025744440034031868,-0.06035391613841057,-0.002375723095610738,0.05661320313811302,0.006086293607950211
1.336,-0.03942634165287018,0.02652931399643421,-0.062081217765808105,-0.002173734363168478,0.0570126548409462,0.005865579936653376
1.338,-0.041233040392398834,0.02731800265610218,-0.06376638263463974,-0.0019649737514555454,0.057337384670972824,0.005667360965162516
1.34,-0.04305729642510414,0.028100015595555305,-0.06540358066558838,-0.0017526746960356832,0.057568229734897614,0.005486503709107637
1.342,-0.044853575527668,0.02885914035141468,-0.06699168682098389,-0.0015435977838933468,0.05768836289644241,0.005325860343873501
1.344,-0.046588920056819916,0.029585840180516243,-0.06847629696130753,-0.0013457664754241705,0.057682376354932785,0.005179432686418295
1.346,-0.048237405717372894,0.030261995270848274,-0.06992924213409424,-0.0011663598706945777,0.05754391849040985,0.005055685993283987
1.348,-0.04978112503886223,0.03091144748032093,-0.07131271809339523,-0.0010117245838046074,0.05728040263056755,0.00495797349140048
1.35,-0.05118243023753166,0.031579017639160156,-0.07261613756418228,-0.0008927930612117052,0.056903451681137085,0.00489903474226594
1.352,-0.052462171763181686,0.03231334686279297,-0.07386231422424316,-0.0008192227687686682,0.05642711743712425,0.0048890672624111176
1.354,-0.05372607707977295,0.0330657958984375,-0.07501707971096039,-0.0007923967204988003,0.05587095394730568,0.0049399929121136665
1.356,-0.05488741770386696,0.033835411071777344,-0.07609709352254868,-0.0008094869554042816,0.05525939539074898,0.0050571938045322895
1.358,-0.05584562197327614,0.03460502624511719,-0.07709372788667679,-0.0008758080657571554,0.054618459194898605,0.0052502769976854324
1.36,-0.05659151077270508,0.03537464141845703,-0.07801166921854019,-0.0009880466386675835,0.053976211696863174,0.005520612932741642
1.362,-0.05727319419384003,0.03616142272949219,-0.07883470505475998,-0.0011419565416872501,0.05334462225437164,0.005860862322151661
1.364,-0.05782884359359741,0.036971092224121094,-0.07965424656867981,-0.0013389312662184238,0.052734892815351486,0.0062627168372273445
1.366,-0.05822770297527313,0.03776359558105469,-0.08040256798267365,-0.0015722049865871668,0.05216076970100403,0.00670924736186862
1.368,-0.05849777162075043,0.03857135772705078,-0.08108653128147125,-0.001837023301050067,0.05162857845425606,0.007188550196588039
1.37,-0.05858329311013222,0.03935050964355469,-0.08168376237154007,-0.0021261314395815134,0.051147811114788055,0.007687944453209639
1.372,-0.05856640636920929,0.04013538360595703,-0.08224648237228394,-0.00243437010794878,0.05072560906410217,0.00819073710590601
1.374,-0.058415137231349945,0.040892601013183594,-0.08281228691339493,-0.002750634914264083,0.05036064237356186,0.008686377666890621
1.376,-0.05814431980252266,0.0416412353515625,-0.08335492759943008,-0.00307180592790246,0.050057508051395416,0.009162184782326221
1.378,-0.0577537938952446,0.04234600067138672,-0.0838320404291153,-0.003393208608031273,0.04982796683907509,0.00960591621696949
1.38,-0.057213135063648224,0.04292774200439453,-0.08430159091949463,-0.003707543946802616,0.04967384412884712,0.010017037391662598
1.382,-0.05652488023042679,0.04346275329589844,-0.0847281813621521,-0.004009041469544172,0.04959600791335106,0.010388733819127083
1.384,-0.055735982954502106,0.043956756591796875,-0.08511953055858612,-0.004306695889681578,0.0495929978787899,0.01072234008461237
1.386,-0.05485013127326965,0.044411659240722656,-0.08551126718521118,-0.004612940829247236,0.04967239126563072,0.011025468818843365
1.388,-0.053838856518268585,0.04471111297607422,-0.0858977660536766,-0.004921894054859877,0.049838751554489136,0.011310883797705173
1.39,-0.05274961516261101,0.044882774353027344,-0.0862247496843338,-0.00522805517539382,0.05009694769978523,0.01157898735255003
1.392,-0.05157265439629555,0.04497337341308594,-0.08656715601682663,-0.005546682048588991,0.050440944731235504,0.011834407225251198
1.394,-0.05025728419423103,0.04491996765136719,-0.08694490045309067,-0.005881704390048981,0.050874337553977966,0.012083837762475014
1.396,-0.048878543078899384,0.044806480407714844,-0.08737177401781082,-0.00622927350923419,0.05139559507369995,0.01232982985675335
1.398,-0.04743744060397148,0.04458141326904297,-0.08777934312820435,-0.006583662703633308,0.05200246348977089,0.012575439177453518
1.4,-0.04596289247274399,0.044261932373046875,-0.08816917985677719,-0.006945066154003143,0.05267668515443802,0.012813679873943329
1.402,-0.04449758678674698,0.04388141632080078,-0.0885784924030304,-0.007313884794712067,0.05341140180826187,0.013038150034844875
1.404,-0.042958661913871765,0.04337024688720703,-0.08906415849924088,-0.007684100419282913,0.054193269461393356,0.013229253701865673
1.406,-0.04139484837651253,0.04278373718261719,-0.08953148871660233,-0.008053749799728394,0.05500981584191322,0.013379373587667942
1.408,-0.03975294530391693,0.042153358459472656,-0.09004522860050201,-0.008425770327448845,0.055850788950920105,0.013474173843860626
1.41,-0.03819458931684494,0.041466712951660156,-0.09056080877780914,-0.008793715387582779,0.05670270696282387,0.013506430201232433
1.412,-0.03656357526779175,0.04072856903076172,-0.09110342711210251,-0.009147467091679573,0.05755212903022766,0.013471296057105064
1.414,-0.034923333674669266,0.039886474609375,-0.09170648455619812,-0.009479480795562267,0.05839895084500313,0.013369215652346611
1.416,-0.033310357481241226,0.039008140563964844,-0.09239128977060318,-0.009783727116882801,0.059245191514492035,0.013205839321017265
1.418,-0.03167525306344032,0.03810691460967064,-0.09312254935503006,-0.010060816071927547,0.060089077800512314,0.012990874238312244
1.42,-0.030005041509866714,0.03711413964629173,-0.09379733353853226,-0.010309082455933094,0.06093260645866394,0.012746253050863743
1.422,-0.028339270502328873,0.03619098290801048,-0.09456226974725723,-0.01052227895706892,0.06177683547139168,0.012484317645430565
1.424,-0.02664680778980255,0.035219188779592514,-0.09532227367162704,-0.01071509625762701,0.06263035535812378,0.012231159955263138
1.426,-0.024950020015239716,0.03418731316924095,-0.09613711386919022,-0.010895016603171825,0.06349482387304306,0.012007012963294983
1.428,-0.02326866239309311,0.03325271233916283,-0.09704113751649857,-0.011072871275246143,0.0643840804696083,0.01181570254266262
1.43,-0.021605588495731354,0.03227614983916283,-0.09797739237546921,-0.011247463524341583,0.06530168652534485,0.011662713252007961
1.432,-0.01990818977355957,0.031305309385061264,-0.09891826659440994,-0.011417840607464314,0.06624960154294968,0.0115590151399374
1.434,-0.018214765936136246,0.0303344689309597,-0.09988732635974884,-0.011592715978622437,0.06724798679351807,0.011497478000819683
1.436,-0.01643262431025505,0.029355045408010483,-0.10084209591150284,-0.011756557039916515,0.06830614060163498,0.011465716175734997
1.438,-0.0146913081407547,0.028473850339651108,-0.10179466009140015,-0.011894600465893745,0.06942456215620041,0.011445262469351292
1.44,-0.012902345508337021,0.027579303830862045,-0.10275539755821228,-0.011997684836387634,0.07060591876506805,0.011419881135225296
1.442,-0.011188361793756485,0.026782985776662827,-0.10376417636871338,-0.012064161710441113,0.07186475396156311,0.011371137574315071
1.444,-0.00946062058210373,0.02599620260298252,-0.10476881265640259,-0.012091333046555519,0.07320171594619751,0.011282150633633137
1.446,-0.007830582559108734,0.02528666891157627,-0.10578255355358124,-0.01206047460436821,0.0746144950389862,0.011134983971714973
1.448,-0.006255779415369034,0.024687761440873146,-0.10679483413696289,-0.011969935148954391,0.0761055052280426,0.010921011678874493
1.45,-0.0046087875962257385,0.02412700094282627,-0.10776649415493011,-0.011822512373328209,0.0776795893907547,0.01064267661422491
1.452,-0.0030846931040287018,0.023642534390091896,-0.10878199338912964,-0.011623975820839405,0.07933403551578522,0.010309303179383278
1.454,-0.0016074888408184052,0.023253433406352997,-0.1097814291715622,-0.011377417482435703,0.08106396347284317,0.00993192195892334
1.456,-0.00018466264009475708,0.022953979671001434,-0.11073032766580582,-0.011089662089943886,0.0828547403216362,0.009538182057440281
1.458,0.0011218525469303131,0.022784225642681122,-0.11170028150081635,-0.010780852288007736,0.08470512181520462,0.009155054576694965
1.46,0.002386152744293213,0.02262973040342331,-0.11259329319000244,-0.010457515716552734,0.08659780770540237,0.008802476339042187
1.462,0.0035284757614135742,0.02258681319653988,-0.11350767314434052,-0.010133223608136177,0.08851074427366257,0.008496812544763088
1.464,0.0046495310962200165,0.02270125411450863,-0.11436621844768524,-0.009823559783399105,0.09042906016111374,0.008259769529104233
1.466,0.0056351833045482635,0.022892942652106285,-0.11518491804599762,-0.009539640508592129,0.09233542531728745,0.008102204650640488
1.468,0.0065072886645793915,0.02320479415357113,-0.11596773564815521,-0.009295092895627022,0.09419730305671692,0.008028476499021053
1.47,0.007277984172105789,0.02358817309141159,-0.11667614430189133,-0.009099232964217663,0.09599348157644272,0.008026357740163803
1.472,0.007973909378051758,0.02403067797422409,-0.11737726628780365,-0.008952244184911251,0.09770214557647705,0.008093062788248062
1.474,0.008602526038885117,0.024532310664653778,-0.11792108416557312,-0.008863917551934719,0.09931125491857529,0.008208400569856167
1.476,0.009118244051933289,0.025149337947368622,-0.1183718591928482,-0.008840993046760559,0.10080745071172714,0.008360186591744423
1.478,0.009592697024345398,0.025791160762310028,-0.11873197555541992,-0.008877670392394066,0.10217279195785522,0.008516279980540276
1.48,0.009945392608642578,0.026503555476665497,-0.1190134584903717,-0.008972154930233955,0.10340352356433868,0.008670330047607422
1.482,0.010207846760749817,0.027285568416118622,-0.11918926984071732,-0.009113812819123268,0.10449454933404922,0.008814149536192417
1.484,0.010433204472064972,0.028144828975200653,-0.11918860673904419,-0.009303289465606213,0.10545807331800461,0.008936748839914799
1.486,0.010641686618328094,0.029049865901470184,-0.11897708475589752,-0.009534038603305817,0.10629285126924515,0.009032629430294037
1.488,0.010764040052890778,0.030044548213481903,-0.11866483837366104,-0.009790591895580292,0.10699602216482162,0.009104437194764614
1.49,0.010844610631465912,0.031119339168071747,-0.11815399676561356,-0.010071659460663795,0.10758553445339203,0.009154817089438438
1.492,0.010812714695930481,0.032304756343364716,-0.11744800955057144,-0.010366342030465603,0.1080692857503891,0.009197692386806011
1.494,0.010832928121089935,0.033429138362407684,-0.11654309928417206,-0.01066543534398079,0.10845871269702911,0.009237755089998245
1.496,0.010828722268342972,0.03459548205137253,-0.11540186405181885,-0.010972447693347931,0.10876762866973877,0.009286095388233662
1.498,0.010760128498077393,0.035862915217876434,-0.11403641104698181,-0.011284646578133106,0.10901995003223419,0.009361724369227886
1.5,0.01063641905784607,0.037169449031353,-0.11254570633172989,-0.011605996638536453,0.10924213379621506,0.009470787830650806
1.502,0.010438427329063416,0.03843783587217331,-0.11093001812696457,-0.011933191679418087,0.10944802314043045,0.009619645774364471
1.504,0.010192636400461197,0.03973769396543503,-0.10913113504648209,-0.012277107685804367,0.10965368896722794,0.009811482392251492
1.506,0.009923044592142105,0.0410461351275444,-0.10715698450803757,-0.012636073864996433,0.10987124592065811,0.010043519549071789
1.508,0.009678985923528671,0.04239272326231003,-0.10510646551847458,-0.013004302978515625,0.11011385172605515,0.010327575728297234
1.51,0.009370625019073486,0.04372977465391159,-0.10292244702577591,-0.013388833962380886,0.11038701236248016,0.010660271160304546
1.512,0.008985936641693115,0.04500388354063034,-0.10072052478790283,-0.013779418542981148,0.1106925830245018,0.011036681942641735
1.514,0.008558854460716248,0.046335212886333466,-0.0984085202217102,-0.014185651205480099,0.1110306829214096,0.011457536369562149
1.516,0.00811609998345375,0.04764747619628906,-0.09606506675481796,-0.014601840637624264,0.11140222102403641,0.011916699819266796
1.518,0.007530584931373596,0.04886913299560547,-0.09367218613624573,-0.015014171600341797,0.11181224882602692,0.01239907555282116
1.52,0.007052380591630936,0.0500335693359375,-0.09126944839954376,-0.015425276011228561,0.11225968599319458,0.01290249265730381
1.522,0.006425287574529648,0.051163673400878906,-0.08884859830141068,-0.01583002135157585,0.11274833977222443,0.013428757898509502
1.524,0.00569654256105423,0.05229663848876953,-0.08647307008504868,-0.01622822880744934,0.1132742390036583,0.013971185311675072
1.526,0.004963282495737076,0.05337715148925781,-0.08408969640731812,-0.016623135656118393,0.11384350061416626,0.014518308453261852
1.528,0.004132479429244995,0.05436515808105469,-0.08177489787340164,-0.01700882986187935,0.11445113271474838,0.015064778737723827
1.53,0.0032144300639629364,0.055296897888183594,-0.07955453544855118,-0.01738625019788742,0.11510910093784332,0.015603979118168354
1.532,0.002224791795015335,0.05610847473144531,-0.07736282795667648,-0.017751555889844894,0.11581306159496307,0.016141599044203758
1.534,0.00112060084939003,0.05695629119873047,-0.0752432718873024,-0.018106136471033096,0.1165572926402092,0.016660472378134727
1.536,-2.422928810119629e-05,0.057639122009277344,-0.07316426187753677,-0.01844129152595997,0.11733997613191605,0.017164291813969612
1.538,-0.0011817626655101776,0.05819129943847656,-0.07111906260251999,-0.018752098083496094,0.11815598607063293,0.017649689689278603
1.54,-0.0024179890751838684,0.05871009826660156,-0.06921855360269547,-0.01903354935348034,0.11900383979082108,0.01810876466333866
1.542,-0.003772042691707611,0.05913829803466797,-0.06742112338542938,-0.01928720995783806,0.11988380551338196,0.018535712733864784
1.544,-0.005166156217455864,0.05944061651825905,-0.06569906324148178,-0.01951099932193756,0.12078940868377686,0.018931545317173004
1.546,-0.006640573963522911,0.05963802710175514,-0.06401629000902176,-0.019713617861270905,0.1217241883277893,0.019284117966890335
1.548,-0.008158331736922264,0.05968094244599342,-0.06242930144071579,-0.019900498911738396,0.12268020212650299,0.019593872129917145
1.55,-0.009732205420732498,0.05960846319794655,-0.06089204549789429,-0.0200865026563406,0.12364599853754044,0.019857212901115417
1.552,-0.011284884065389633,0.05937385931611061,-0.05938953161239624,-0.020280882716178894,0.12460927665233612,0.020060202106833458
1.554,-0.0128957349807024,0.05901623144745827,-0.05791613459587097,-0.02049652487039566,0.12555120885372162,0.020215312018990517
1.556,-0.014462651684880257,0.058480266481637955,-0.056554511189460754,-0.020752016454935074,0.1264631599187851,0.020322591066360474
1.558,-0.016060845926404,0.05779552832245827,-0.055192556232213974,-0.021047506481409073,0.12733067572116852,0.02038811706006527
1.56,-0.017735464498400688,0.05703926458954811,-0.05388575792312622,-0.021394822746515274,0.1281338632106781,0.02042941190302372
1.562,-0.019429253414273262,0.05616283789277077,-0.05254219472408295,-0.021793698891997337,0.12885652482509613,0.02044784463942051
1.564,-0.021190138533711433,0.05515671148896217,-0.051281772553920746,-0.022241389378905296,0.12948521971702576,0.020458299666643143
1.566,-0.023037567734718323,0.05407143011689186,-0.05004943162202835,-0.022744355723261833,0.1299995630979538,0.020479220896959305
1.568,-0.024841170758008957,0.052831653505563736,-0.04875176399946213,-0.023290859535336494,0.13041020929813385,0.020517736673355103
1.57,-0.026748914271593094,0.05155849829316139,-0.047502536326646805,-0.02387905679643154,0.1307135671377182,0.020580120384693146
1.572,-0.02869846671819687,0.05020619183778763,-0.046220459043979645,-0.024516526609659195,0.13091203570365906,0.02066444419324398
1.574,-0.03070439025759697,0.04883576184511185,-0.04493654519319534,-0.02518349699676037,0.13101254403591156,0.02075846865773201
1.576,-0.03281453251838684,0.04739571362733841,-0.043631017208099365,-0.02587755024433136,0.1310395747423172,0.020861320197582245
1.578,-0.03497414290904999,0.045949939638376236,-0.042243536561727524,-0.02658466435968876,0.13100413978099823,0.02097266912460327
1.58,-0.03718224912881851,0.044510845094919205,-0.040891095995903015,-0.027297653257846832,0.13092248141765594,0.02108069136738777
1.582,-0.039407506585121155,0.04302597418427467,-0.03951980918645859,-0.028008103370666504,0.13081444799900055,0.021181972697377205
1.584,-0.041702669113874435,0.04156971350312233,-0.03817850351333618,-0.028704095631837845,0.13069355487823486,0.02126471698284149
1.586,-0.04402495175600052,0.04005909338593483,-0.03679785504937172,-0.0293714702129364,0.1305904984474182,0.021321026608347893
1.588,-0.04642330855131149,0.03858089819550514,-0.03545387089252472,-0.02999456599354744,0.13051582872867584,0.02136199176311493
1.59,-0.04876495897769928,0.03715801611542702,-0.03410283103585243,-0.030564649030566216,0.13047613203525543,0.02138211950659752
1.592,-0.05100056529045105,0.0357055701315403,-0.03269761800765991,-0.03106403537094593,0.13047166168689728,0.021383997052907944
1.594,-0.053262859582901,0.03432083502411842,-0.031301259994506836,-0.03148452565073967,0.13050712645053864,0.021364692598581314
1.596,-0.05541538819670677,0.032941821962594986,-0.02995617687702179,-0.03182016685605049,0.13055551052093506,0.02133072540163994
1.598,-0.05756858363747597,0.031542785465717316,-0.028625495731830597,-0.03206771984696388,0.13059930503368378,0.021286003291606903
1.6,-0.05962264910340309,0.030256276950240135,-0.027310071513056755,-0.03223254159092903,0.13061492145061493,0.021241016685962677
1.602,-0.061491385102272034,0.028962140902876854,-0.02604394219815731,-0.03231647238135338,0.13058339059352875,0.021199163049459457
1.604,-0.06327325105667114,0.027699477970600128,-0.024794964119791985,-0.03232383355498314,0.13048997521400452,0.02117311954498291
1.606,-0.06480249762535095,0.02649594098329544,-0.023542623966932297,-0.032267238944768906,0.13033297657966614,0.021173223853111267
1.608,-0.06622855365276337,0.02531624585390091,-0.0223372969776392,-0.032160643488168716,0.13011330366134644,0.021200057119131088
1.61,-0.06744515895843506,0.024175651371479034,-0.021119888871908188,-0.03200870379805565,0.1298341006040573,0.021269969642162323
1.612,-0.06850218027830124,0.02308559976518154,-0.019833287224173546,-0.03182021901011467,0.1295040100812912,0.02138841152191162
1.614,-0.06934630870819092,0.022006040439009666,-0.01851295679807663,-0.03161304071545601,0.1291513741016388,0.02154693566262722
1.616,-0.07004860788583755,0.020912175998091698,-0.017230696976184845,-0.03139808773994446,0.12878288328647614,0.021740291267633438
1.618,-0.07075473666191101,0.019846921786665916,-0.01599048636853695,-0.031173039227724075,0.12841194868087769,0.021950624883174896
1.62,-0.07123805582523346,0.018845563754439354,-0.014732170850038528,-0.03095218352973461,0.12806066870689392,0.02216389589011669
1.622,-0.07154864072799683,0.017870908603072166,-0.013450780883431435,-0.030740410089492798,0.12772871553897858,0.022355709224939346
1.624,-0.07182857394218445,0.016925817355513573,-0.0121674295514822,-0.03054059110581875,0.1274208277463913,0.022507376968860626
1.626,-0.07201512902975082,0.01603127270936966,-0.010830819606781006,-0.03035079315304756,0.12713435292243958,0.02260321006178856
1.628,-0.07214809209108353,0.015210158191621304,-0.009495256468653679,-0.030168671160936356,0.1268720030784607,0.02262229472398758
1.63,-0.07232172042131424,0.014411932788789272,-0.008118147030472755,-0.02998724952340126,0.12661829590797424,0.022548262029886246
1.632,-0.07239401340484619,0.013668067753314972,-0.0066930376924574375,-0.029795998707413673,0.1263735443353653,0.022377021610736847
1.634,-0.07238660752773285,0.012959487736225128,-0.005211947951465845,-0.02958614192903042,0.12612475454807281,0.02211311087012291
1.636,-0.07239887118339539,0.01229286938905716,-0.0036910497583448887,-0.02935289591550827,0.12585315108299255,0.02176392264664173
1.638,-0.07247017323970795,0.011713988147675991,-0.002041424158960581,-0.029087239876389503,0.12554964423179626,0.021339841187000275
1.64,-0.07253433763980865,0.011238104663789272,-0.0003639371716417372,-0.028786126524209976,0.12520188093185425,0.020854318514466286
1.642,-0.07259892672300339,0.010779387317597866,0.0013667246093973517,-0.028450118377804756,0.12480375915765762,0.020325995981693268
1.644,-0.07266522943973541,0.010343559086322784,0.00315253552980721,-0.028091806918382645,0.12434089928865433,0.019779503345489502
1.646,-0.07276928424835205,0.01002693921327591,0.004971680697053671,-0.027719832956790924,0.1238095834851265,0.01924322172999382
1.648,-0.07287706434726715,0.00974179059267044,0.006829683668911457,-0.0273450780659914,0.12320376187562943,0.018744349479675293
1.65,-0.07303226739168167,0.009570129215717316,0.008766301907598972,-0.026984021067619324,0.12251713871955872,0.018310729414224625
1.652,-0.07319894433021545,0.009434707462787628,0.010689650662243366,-0.026646949350833893,0.12175419926643372,0.017959026619791985
1.654,-0.07338294386863708,0.00934506207704544,0.012617974542081356,-0.026341307908296585,0.12091942876577377,0.01769907958805561
1.656,-0.07358616590499878,0.009338387288153172,0.014475761912763119,-0.026082906872034073,0.12001137435436249,0.017534470185637474
1.658,-0.07374455034732819,0.009354599751532078,0.016290197148919106,-0.02587343193590641,0.11904042214155197,0.01746503636240959
1.66,-0.07396399229764938,0.009422310627996922,0.01804114319384098,-0.025720354169607162,0.11801314353942871,0.017483672127127647
1.662,-0.07419457286596298,0.009548195637762547,0.01971239410340786,-0.02562468871474266,0.11694270372390747,0.01756988652050495
1.664,-0.0743534043431282,0.009709366597235203,0.021287307143211365,-0.025585489347577095,0.11584332585334778,0.017699746415019035
1.666,-0.07449745386838913,0.009915361180901527,0.022751258686184883,-0.02560325898230076,0.11472681909799576,0.017854562029242516
1.668,-0.0745600014925003,0.010116586461663246,0.02409985102713108,-0.025667354464530945,0.11359598487615585,0.01801702380180359
1.67,-0.07454817742109299,0.010396013036370277,0.025340469554066658,-0.025770004838705063,0.1124609187245369,0.018170544877648354
1.672,-0.07445259392261505,0.010740289464592934,0.026468735188245773,-0.025913771241903305,0.11132727563381195,0.01830264925956726
1.674,-0.07423773407936096,0.011123666539788246,0.027532145380973816,-0.02608684077858925,0.11020074039697647,0.018397483974695206
1.676,-0.07384487986564636,0.011548051610589027,0.02850346453487873,-0.026278680190443993,0.10908060520887375,0.018455997109413147
1.678,-0.07334771752357483,0.012032519094645977,0.029338939115405083,-0.026478247717022896,0.10796737670898438,0.018473202362656593
1.68,-0.07271582633256912,0.012548456899821758,0.030079232528805733,-0.026681195944547653,0.10686853528022766,0.01843988336622715
1.682,-0.0719422847032547,0.013075838796794415,0.030762070789933205,-0.02688596211373806,0.1057785376906395,0.018362855538725853
1.684,-0.07109160721302032,0.01361371111124754,0.03131908178329468,-0.027081023901700974,0.10471060127019882,0.018245479092001915
1.686,-0.07004012912511826,0.014281283132731915,0.03186963498592377,-0.02727508172392845,0.10366833955049515,0.01809917949140072
1.688,-0.06890926510095596,0.014978419058024883,0.0322694331407547,-0.02746291644871235,0.10265964269638062,0.01793654076755047
1.69,-0.06768639385700226,0.015686044469475746,0.0326567105948925,-0.027640489861369133,0.10170028358697891,0.017778430134058
1.692,-0.06636090576648712,0.016454705968499184,0.033026810735464096,-0.02781423181295395,0.10079439729452133,0.017638228833675385
1.694,-0.06500931829214096,0.01724625565111637,0.03335050866007805,-0.027991218492388725,0.09994035214185715,0.01753396727144718
1.696,-0.0636390894651413,0.01810360886156559,0.0335671566426754,-0.02817312628030777,0.09914662688970566,0.017483074218034744
1.698,-0.062218695878982544,0.01895524002611637,0.03376233950257301,-0.02835114486515522,0.09841840714216232,0.017499316483736038
1.7,-0.060855649411678314,0.01976967789232731,0.03392035886645317,-0.02852678671479225,0.09774257987737656,0.017579469829797745
1.702,-0.05957430228590965,0.020617494359612465,0.033982958644628525,-0.02870865724980831,0.09711270034313202,0.01771746575832367
1.704,-0.05830642580986023,0.021439561620354652,0.03399871662259102,-0.028894800692796707,0.09653385728597641,0.017898831516504288
1.706,-0.057126134634017944,0.02227688767015934,0.03398505225777626,-0.029089361429214478,0.0959872454404831,0.018114883452653885
1.708,-0.05597354844212532,0.023078927770256996,0.03391150012612343,-0.029283693060278893,0.09547190368175507,0.01835552789270878
1.71,-0.0549563504755497,0.02380753681063652,0.033729616552591324,-0.02947666309773922,0.0949905589222908,0.018603477627038956
1.712,-0.05411151051521301,0.024518977850675583,0.03351515531539917,-0.029677368700504303,0.09453467279672623,0.01883656159043312
1.714,-0.053390540182590485,0.025236140936613083,0.033216264098882675,-0.029877731576561928,0.0941019058227539,0.019041743129491806
1.716,-0.05280638486146927,0.025838863104581833,0.032833777368068695,-0.030071930959820747,0.0936906486749649,0.019210491329431534
1.718,-0.05227304995059967,0.026347171515226364,0.032427918165922165,-0.030277080833911896,0.09329162538051605,0.019343560561537743
1.72,-0.05188192427158356,0.026781093329191208,0.031913988292217255,-0.030499935150146484,0.09290094673633575,0.019435204565525055
1.722,-0.05154871195554733,0.027168285101652145,0.0313250795006752,-0.030742965638637543,0.09250932931900024,0.019486315548419952
1.724,-0.05130395665764809,0.027476321905851364,0.030655723065137863,-0.031010515987873077,0.09211378544569016,0.019499583169817924
1.726,-0.05106784775853157,0.027638446539640427,0.02994467318058014,-0.03129930794239044,0.09170500934123993,0.019471263512969017
1.728,-0.05078683793544769,0.027689944952726364,0.029285483062267303,-0.03160906210541725,0.09127991646528244,0.019407005980610847
1.73,-0.0505932942032814,0.02762223407626152,0.02857803925871849,-0.031939759850502014,0.09084455668926239,0.019302677363157272
1.732,-0.05044732987880707,0.027470597997307777,0.02790077216923237,-0.03228534758090973,0.09040795266628265,0.01915779337286949
1.734,-0.05030418932437897,0.02714158035814762,0.02719423547387123,-0.03263719007372856,0.08997366577386856,0.018970951437950134
1.736,-0.05019120126962662,0.026665696874260902,0.02638048306107521,-0.032992903143167496,0.08955518156290054,0.018733998760581017
1.738,-0.05002861097455025,0.02611733414232731,0.025632061064243317,-0.03335268422961235,0.0891536995768547,0.018443187698721886
1.74,-0.04983611777424812,0.02543831802904606,0.024949822574853897,-0.03370576724410057,0.08877868205308914,0.018092185258865356
1.742,-0.049701958894729614,0.02461911179125309,0.02423170395195484,-0.034057773649692535,0.08843289315700531,0.01768389344215393
1.744,-0.049576207995414734,0.02372361160814762,0.023541435599327087,-0.034416601061820984,0.08811714500188828,0.0172218456864357
1.746,-0.049478501081466675,0.02273464947938919,0.02283419296145439,-0.03478499874472618,0.08783359825611115,0.016714803874492645
1.748,-0.04931455850601196,0.02163124829530716,0.022120246663689613,-0.03516954183578491,0.08757950365543365,0.01617203652858734
1.75,-0.04914195090532303,0.020480163395404816,0.021467551589012146,-0.03557492792606354,0.08734287321567535,0.015603313222527504
1.752,-0.048962779343128204,0.019226081669330597,0.02085314877331257,-0.03600352257490158,0.0871109887957573,0.015022553503513336
1.754,-0.04874535650014877,0.017899520695209503,0.020258456468582153,-0.03645869344472885,0.08688078820705414,0.014449507929384708
1.756,-0.048500239849090576,0.01654244214296341,0.019685916602611542,-0.036935776472091675,0.08663461357355118,0.013894938863813877
1.758,-0.04825516790151596,0.015106208622455597,0.01909455843269825,-0.03743303194642067,0.08635260909795761,0.013363008387386799
1.76,-0.04793625324964523,0.013614661991596222,0.018511896952986717,-0.037949491292238235,0.08602478355169296,0.012862946838140488
1.762,-0.04762319475412369,0.012138374149799347,0.018034731969237328,-0.038475267589092255,0.08563645929098129,0.012402803637087345
1.764,-0.04728560894727707,0.01064873393625021,0.01755724474787712,-0.03899871185421944,0.08517870306968689,0.011989529244601727
1.766,-0.046949394047260284,0.009067541919648647,0.01708466187119484,-0.03951125591993332,0.08464767783880234,0.011622152291238308
1.768,-0.046556465327739716,0.007527357432991266,0.0166944433003664,-0.040008530020713806,0.08404362201690674,0.011295456439256668
1.77,-0.046083636581897736,0.006020552013069391,0.016323484480381012,-0.04048215597867966,0.08336611837148666,0.010997387580573559
1.772,-0.04561834782361984,0.004506116732954979,0.015978340059518814,-0.04090789705514908,0.08262614160776138,0.010715773329138756
1.774,-0.04516920819878578,0.002986913314089179,0.01562618464231491,-0.04127347469329834,0.08183922618627548,0.010442562401294708
1.776,-0.04467801749706268,0.0014801076613366604,0.015347919426858425,-0.041578035801649094,0.08102434128522873,0.010167291387915611
1.778,-0.044232338666915894,8.58793737279484e-06,0.01510466169565916,-0.04181453213095665,0.08019179850816727,0.009877104312181473
1.78,-0.04378905147314072,-0.0014219237491488457,0.014903943054378033,-0.041973792016506195,0.07935616374015808,0.009571610018610954
1.782,-0.04329754412174225,-0.002762790070846677,0.014776494354009628,-0.042056046426296234,0.07852847874164581,0.009241322055459023
1.784,-0.04278618469834328,-0.004038806539028883,0.014728879556059837,-0.04206658899784088,0.07772161811590195,0.008884940296411514
1.786,-0.04236239194869995,-0.0052232700400054455,0.014684228226542473,-0.04200988635420799,0.07695136964321136,0.008510513231158257
1.788,-0.04196103662252426,-0.006338115781545639,0.014689573086798191,-0.04189173877239227,0.07622139155864716,0.008119693025946617
1.79,-0.04156089946627617,-0.00738811120390892,0.014787976630032063,-0.041720591485500336,0.0755346342921257,0.0077103483490645885
1.792,-0.04121406376361847,-0.008313175290822983,0.014914005063474178,-0.04150736331939697,0.07489511370658875,0.007282733451575041
1.794,-0.04089506343007088,-0.009121891111135483,0.015145343728363514,-0.04125867038965225,0.07430179417133331,0.006836242508143187
1.796,-0.04060571640729904,-0.009835239499807358,0.01545125525444746,-0.040973685681819916,0.0737481340765953,0.006369351875036955
1.798,-0.040341705083847046,-0.010416027158498764,0.01585080288350582,-0.04064662754535675,0.07322560995817184,0.005884611513465643
1.8,-0.04012788459658623,-0.010812755674123764,0.016309065744280815,-0.04027542099356651,0.07271914929151535,0.005385644268244505
1.802,-0.03990061581134796,-0.011063572019338608,0.01685122773051262,-0.03986363857984543,0.07221616059541702,0.004871905781328678
1.804,-0.03966207429766655,-0.011176105588674545,0.01747792959213257,-0.039411094039678574,0.07170484215021133,0.004351901821792126
1.806,-0.03940196335315704,-0.011130329221487045,0.018216026946902275,-0.038919202983379364,0.07116976380348206,0.0038355709984898567
1.808,-0.039142511785030365,-0.01091289147734642,0.019027506932616234,-0.03838350996375084,0.07059547305107117,0.003335782326757908
