Time [s],Acc_x [m/s^2],Acc_y [m/s^2],Acc_z [m/s^2],Gyro_x [1/s],Gyro_y [1/s],Gyro_z [1/s]
0.0,2.1699204808101058e-05,0.24185946583747864,0.00011697720765369013,0.005648711230605841,-0.004222462419420481,-0.0008486123406328261
0.002,2.0756520825671032e-05,0.24186041951179504,0.0001187354137073271,0.005648716352880001,-0.004222462885081768,-0.0008485934813506901
0.004,1.8526701751397923e-05,0.24185660481452942,0.00011907278530998155,0.005648720543831587,-0.004222461022436619,-0.0008485757862217724
0.006,1.630696715437807e-05,0.24186041951179504,0.00012082345347153023,0.005648723337799311,-0.00422245915979147,-0.000848553900141269
0.008,1.3149252481525764e-05,0.24185851216316223,0.00012076585699105635,0.0056487275287508965,-0.004222457762807608,-0.0008485317812301219
0.01,1.1802480003098026e-05,0.24186041951179504,0.0001222601713379845,0.005648732651025057,-0.004222455900162458,-0.0008485080325044692
0.012,7.562422979390249e-06,0.24186137318611145,0.00012411574425641447,0.005648737773299217,-0.004222454037517309,-0.0008484861464239657
0.014,1.3667122402694076e-06,0.24185851216316223,0.00012386776506900787,0.005648744758218527,-0.004222451709210873,-0.0008484603022225201
0.016,-4.83393159811385e-06,0.24185851216316223,0.00012433748634066433,0.005648749880492687,-0.004222447052598,-0.000848432828206569
0.018,-1.1747924872906879e-05,0.24186232686042786,0.00012488645734265447,0.005648759193718433,-0.004222443327307701,-0.000848402560222894
0.02,-2.2064094082452357e-05,0.24186041951179504,0.0001249368506250903,0.005648767575621605,-0.004222437739372253,-0.0008483736892230809
0.022,-3.502909021335654e-05,0.24185946583747864,0.00012578950554598123,0.005648777354508638,-0.0042224302887916565,-0.0008483431884087622
0.024,-4.923134474665858e-05,0.24185851216316223,0.00012516598508227617,0.005648787133395672,-0.004222421906888485,-0.0008483101264573634
0.026,-6.867642514407635e-05,0.24185851216316223,0.00012537393195088953,0.005648800637573004,-0.00422241073101759,-0.0008482761331833899
0.028,-8.86502384673804e-05,0.24185946583747864,0.00012616852473001927,0.00564881507307291,-0.004222399089485407,-0.0008482388802804053
0.03,-0.00011462529073469341,0.24185946583747864,0.00012578710447996855,0.005648831371217966,-0.004222385119646788,-0.0008482034900225699
0.032,-0.0001452396681997925,0.24186041951179504,0.00012485530169215053,0.005648850463330746,-0.004222367890179157,-0.0008481660042889416
0.034,-0.00018062788876704872,0.24186041951179504,0.00012565906217787415,0.005648870952427387,-0.004222347866743803,-0.0008481271215714514
0.036,-0.00022292033827397972,0.24185946583747864,0.00012415200762916356,0.00564889470115304,-0.00422232411801815,-0.0008480854448862374
0.038,-0.00027273522573523223,0.24186137318611145,0.00012529350351542234,0.0056489212438464165,-0.004222296178340912,-0.000848044699523598
0.04,-0.0003327967715449631,0.24185946583747864,0.00012213482114020735,0.005648952908813953,-0.004222263116389513,-0.0008479997632093728
0.042,-0.00039819060475565493,0.24186041951179504,0.00012418031110428274,0.0056489864364266396,-0.004222226329147816,-0.0008479587850160897
0.044,-0.0004752477107103914,0.24185851216316223,0.00012349738972261548,0.005649025086313486,-0.004222183022648096,-0.0008479152456857264
0.046,-0.0005609896034002304,0.24186041951179504,0.0001246160245500505,0.005649068858474493,-0.004222134593874216,-0.0008478707750327885
0.048,-0.0006576910964213312,0.24186041951179504,0.00012721116945613176,0.005649116355925798,-0.004222079645842314,-0.0008478272357024252
0.05,-0.0007365134079009295,0.24192622303962708,0.0001356093562208116,0.005649170372635126,-0.004222016781568527,-0.0008477832307107747
0.052,-0.0008155080722644925,0.24195387959480286,0.00017197633860632777,0.005649227648973465,-0.004221947398036718,-0.0008477382943965495
0.054,-0.0008892090991139412,0.24193766713142395,0.0001568859734106809,0.005649290978908539,-0.0042218719609081745,-0.0008476963848806918
0.056,-0.0009279357618652284,0.24198535084724426,0.00014358776388689876,0.00564936175942421,-0.0042217872105538845,-0.0008476495859213173
0.058,-0.0009683470707386732,0.24198630452156067,0.00014782819198444486,0.005649436730891466,-0.004221695009618998,-0.0008476062794215977
0.06,-0.0010041981004178524,0.24202445149421692,0.0001641025737626478,0.005649518221616745,-0.004221594426780939,-0.0008475639042444527
0.062,-0.0010335774859413505,0.2420683205127716,0.0001981250970857218,0.005649605765938759,-0.004221485927700996,-0.0008475208305753767
0.064,-0.0010284133022651076,0.24210456013679504,0.00021162584016565233,0.005649698432534933,-0.004221370443701744,-0.000847478921059519
0.066,-0.0009837278630584478,0.2421598732471466,0.0002567738411016762,0.005649797152727842,-0.004221246112138033,-0.0008474384085275233
0.068,-0.0008971209754236042,0.24219897389411926,0.000281048531178385,0.005649901460856199,-0.004221114795655012,-0.0008473999914713204
0.07,-0.0007892086869105697,0.2422657310962677,0.00029949002782814205,0.005650010891258717,-0.004220975562930107,-0.0008473636698909104
0.072,-0.0006137731834314764,0.24232962727546692,0.0003071131359320134,0.005650125443935394,-0.0042208293452858925,-0.0008473268826492131
0.074,-0.0003783086431212723,0.24240782856941223,0.00034855754347518086,0.00565024558454752,-0.0042206766083836555,-0.000847291958052665
0.076,-0.00011166083277203143,0.24247649312019348,0.0003931515966542065,0.0056503694504499435,-0.004220516420900822,-0.0008472581976093352
0.078,0.00025873584672808647,0.2425394356250763,0.00048146172775886953,0.005652204155921936,-0.004215811379253864,-0.000845582049805671
0.08,0.0007353633409366012,0.24261191487312317,0.0005836688214913011,0.005653679370880127,-0.004212066065520048,-0.0008442591060884297
0.082,0.0012791706249117851,0.24266532063484192,0.0006213079323060811,0.0056550647132098675,-0.004208659287542105,-0.000837654632050544
0.084,0.0019177914364263415,0.24269011616706848,0.0006285322597250342,0.005663821939378977,-0.0042001595720648766,-0.0008297374588437378
0.086,0.002663319231942296,0.24276068806648254,0.0006823789444752038,0.005673669278621674,-0.004185708239674568,-0.0008183657773770392
0.088,0.003423025831580162,0.24281027913093567,0.0007575299241580069,0.005690417718142271,-0.004171314183622599,-0.0008038392406888306
0.09,0.004289885982871056,0.24280455708503723,0.0008419935475103557,0.005712433718144894,-0.004146255552768707,-0.0007878420874476433
0.092,0.005238180980086327,0.24280264973640442,0.0009051880915649235,0.005735174752771854,-0.004116381518542767,-0.0007659452967345715
0.094,0.0062686605378985405,0.24276259541511536,0.0010153708280995488,0.005761200096458197,-0.004081339575350285,-0.0007349606603384018
0.096,0.007333151530474424,0.24267199635505676,0.0010714337695389986,0.005795125849545002,-0.004040516447275877,-0.0007021359633654356
0.098,0.008487364277243614,0.24257662892341614,0.001107717864215374,0.005832944996654987,-0.003994573839008808,-0.000667039304971695
0.1,0.009628640487790108,0.2424011528491974,0.001191119197756052,0.005876878276467323,-0.00394533621147275,-0.0006361689884215593
0.102,0.010813647881150246,0.24222376942634583,0.0012381062842905521,0.005922215990722179,-0.003895043395459652,-0.0006109813693910837
0.104,0.011989830061793327,0.24201110005378723,0.001275655347853899,0.005967872217297554,-0.00384211796335876,-0.0005936918314546347
0.106,0.013162670657038689,0.24174407124519348,0.001334004569798708,0.006003010552376509,-0.00379962264560163,-0.0005875108763575554
0.108,0.014360517263412476,0.24139121174812317,0.001372443395666778,0.006029337644577026,-0.003767982590943575,-0.0005965984892100096
0.11,0.015497054904699326,0.24105075001716614,0.0013977129710838199,0.006047123111784458,-0.003749089315533638,-0.0006282995454967022
0.112,0.016606386750936508,0.24069026112556458,0.0014332255814224482,0.006054326426237822,-0.0037532425485551357,-0.0006796072702854872
0.114,0.017649147659540176,0.24024394154548645,0.0014371878933161497,0.0060529159381985664,-0.003782200627028942,-0.000752133084461093
0.116,0.018647905439138412,0.23976996541023254,0.0014572141226381063,0.006046071648597717,-0.0038349409587681293,-0.0008437205106019974
0.118,0.01952999457716942,0.23928740620613098,0.0014414448523893952,0.006040672771632671,-0.0039130584336817265,-0.0009509352967143059
0.12,0.020379627123475075,0.2387581169605255,0.001411121804267168,0.006030626595020294,-0.004016794729977846,-0.0010702216532081366
0.122,0.02115985006093979,0.2382078468799591,0.0013687782920897007,0.0060172174125909805,-0.004145439714193344,-0.0011959504336118698
0.124,0.021863579750061035,0.2376108467578888,0.0012802587589249015,0.006001940928399563,-0.004303117282688618,-0.0013181520625948906
0.126,0.02244362235069275,0.2369690239429474,0.0012021925067529082,0.005977598950266838,-0.004480439238250256,-0.0014300387119874358
0.128,0.022993162274360657,0.23635104298591614,0.0011145269963890314,0.005950671620666981,-0.004668877460062504,-0.0015218587359413505
0.13,0.023502100259065628,0.2357645332813263,0.0010127947898581624,0.0059152464382350445,-0.004858722444623709,-0.001590720028616488
0.132,0.023926563560962677,0.2351532280445099,0.000895814155228436,0.005875183269381523,-0.005040458403527737,-0.0016278323018923402
0.134,0.024284977465867996,0.23452094197273254,0.0007901564240455627,0.00583767332136631,-0.005210269242525101,-0.001630250713787973
0.136,0.024548277258872986,0.23393157124519348,0.0006881821318529546,0.005808096844702959,-0.005353948567062616,-0.0015982004115357995
0.138,0.02478543110191822,0.23339274525642395,0.0005803181556984782,0.005782818887382746,-0.0054667117074131966,-0.0015334244817495346
0.14,0.024987436830997467,0.2328977882862091,0.0004843853530474007,0.005776676349341869,-0.005541668273508549,-0.0014473297633230686
0.142,0.025129737332463264,0.23238471150398254,0.0004027064424008131,0.0057865530252456665,-0.0055734240449965,-0.001342591131106019
0.144,0.025223813951015472,0.23191073536872864,0.0002748190308921039,0.005815435200929642,-0.005572724621742964,-0.0012278049252927303
0.146,0.02528052031993866,0.23145201802253723,0.00016275665257126093,0.005868170876055956,-0.005535143427550793,-0.0011222364846616983
0.148,0.02531074918806553,0.23109343647956848,9.288972069043666e-05,0.0059364717453718185,-0.005460504908114672,-0.0010415047872811556
0.15,0.025291666388511658,0.2307615578174591,1.2923532267450355e-05,0.00601082481443882,-0.005360329523682594,-0.000994124566204846
0.152,0.025228142738342285,0.23051360249519348,-6.830086203990504e-05,0.0060904910787940025,-0.005245361477136612,-0.0009861990110948682
0.154,0.02510601095855236,0.23029139637947083,-0.00017566468159202486,0.006167697720229626,-0.0051131052896380424,-0.0010188693413510919
0.156,0.02494400180876255,0.23011401295661926,-0.000278668972896412,0.006249595433473587,-0.004973440431058407,-0.0010963036911562085
0.158,0.02475924976170063,0.23000052571296692,-0.00039133854443207383,0.006326017901301384,-0.004837503656744957,-0.0012165909865871072
0.16,0.024500515311956406,0.2298898994922638,-0.0005301838391460478,0.006405399180948734,-0.004697454161942005,-0.001369177713058889
0.162,0.02417793683707714,0.22990134358406067,-0.0007021767669357359,0.006479800678789616,-0.004566854797303677,-0.0015433883527293801
0.164,0.023872006684541702,0.2299652397632599,-0.0008648639195598662,0.006551857106387615,-0.004453670233488083,-0.001726169721223414
0.166,0.023448847234249115,0.22999480366706848,-0.0010463413782417774,0.006621167995035648,-0.004355491604655981,-0.0019133803434669971
0.168,0.02302190288901329,0.23011496663093567,-0.001249969471246004,0.006685101427137852,-0.004278474021703005,-0.0020945745054632425
0.17,0.022549714893102646,0.23022940754890442,-0.001485306303948164,0.006742902100086212,-0.004222792107611895,-0.0022577170748263597
0.172,0.022019168362021446,0.23031523823738098,-0.0017513330094516277,0.006790195591747761,-0.004188381601125002,-0.0024058802518993616
0.174,0.021427609026432037,0.23043730854988098,-0.002000232692807913,0.006835161708295345,-0.00416991114616394,-0.0025325349997729063
0.176,0.02075786516070366,0.23054316639900208,-0.002255686093121767,0.006875507067888975,-0.00416206382215023,-0.0026353769935667515
0.178,0.02007158473134041,0.23065093159675598,-0.0025091744028031826,0.0069098277017474174,-0.004160854499787092,-0.0027173422276973724
0.18,0.019343575462698936,0.23065665364265442,-0.0027697780169546604,0.006946634501218796,-0.004168791696429253,-0.002776187611743808
0.182,0.0185431856662035,0.23075106739997864,-0.0030027790926396847,0.006978110410273075,-0.004181304480880499,-0.002819267101585865
0.184,0.01770247519016266,0.23082831501960754,-0.0032636933028697968,0.007021281868219376,-0.00419570179656148,-0.002843624446541071
0.186,0.016800470650196075,0.2308664619922638,-0.0034850859083235264,0.007071784231811762,-0.004213281441479921,-0.002859867876395583
0.188,0.015809636563062668,0.2308683693408966,-0.0037054959684610367,0.007124340161681175,-0.004223648924380541,-0.0028723934665322304
0.19,0.014747070148587227,0.23082640767097473,-0.003901869524270296,0.007174692116677761,-0.004234212450683117,-0.002885873429477215
0.192,0.013683568686246872,0.23078349232673645,-0.003996779676526785,0.0072291214019060135,-0.00424241553992033,-0.0029038796201348305
0.194,0.01265005674213171,0.2307758629322052,-0.004038783721625805,0.007274467498064041,-0.004248266573995352,-0.0029340831097215414
0.196,0.011550039052963257,0.23068049550056458,-0.004125941079109907,0.007303898222744465,-0.00424749543890357,-0.0029859556816518307
0.198,0.010523807257413864,0.23059752583503723,-0.004152518231421709,0.007317019626498222,-0.004237425047904253,-0.0030629769898951054
0.2,0.009517928585410118,0.23055747151374817,-0.004106949549168348,0.00730354618281126,-0.0042066797614097595,-0.0031489096581935883
0.202,0.008511591702699661,0.23050501942634583,-0.0039917840622365475,0.007270997390151024,-0.0041587152518332005,-0.0032375308219343424
0.204,0.007565795443952084,0.23045256733894348,-0.0038668697234243155,0.007218250073492527,-0.0040831067599356174,-0.0033202404156327248
0.206,0.006679466925561428,0.23045828938484192,-0.0036248897667974234,0.007155361119657755,-0.003981359302997589,-0.0033954239916056395
0.208,0.0058141425251960754,0.23047831654548645,-0.0033421132247895002,0.007088113576173782,-0.003862188896164298,-0.003452680306509137
0.21,0.005085685756057501,0.23050406575202942,-0.0030765843112021685,0.007017299998551607,-0.0037296158261597157,-0.003485281951725483
0.212,0.004425846505910158,0.2305918037891388,-0.0027376178186386824,0.006956355646252632,-0.0035960711538791656,-0.0034961216151714325
0.214,0.003896384034305811,0.23066523671150208,-0.0023616887629032135,0.006907275412231684,-0.0034764246083796024,-0.0034868167713284492
0.216,0.003514176234602928,0.2308349907398224,-0.0019283497240394354,0.006872180849313736,-0.003375366795808077,-0.003460831008851528
0.218,0.0032445858232676983,0.23113539814949036,-0.0014639839064329863,0.00685342401266098,-0.0033002726268023252,-0.00342072662897408
0.22,0.0031521362252533436,0.2314167320728302,-0.0009361952543258667,0.006859122309833765,-0.0032609249465167522,-0.0033775041811168194
0.222,0.0031188030261546373,0.23172953724861145,-0.0003757088852580637,0.006882644724100828,-0.003252902068197727,-0.0033380957320332527
0.224,0.003240528516471386,0.2321195900440216,0.00020859923097305,0.006917314138263464,-0.003268399741500616,-0.0033103248570114374
0.226,0.003460169304162264,0.23259738087654114,0.0008096206001937389,0.006963829509913921,-0.0032998891547322273,-0.003294793888926506
0.228,0.0038066920824348927,0.2330627739429474,0.0014749865513294935,0.007011037319898605,-0.0033427805174142122,-0.0032967962324619293
0.23,0.004204035736620426,0.2335825264453888,0.0021181521005928516,0.007050761487334967,-0.0033865137957036495,-0.0033158736769109964
0.232,0.004668361507356167,0.23416617512702942,0.0027803019620478153,0.007079613860696554,-0.00342582818120718,-0.0033505926840007305
0.234,0.005188849754631519,0.23481658101081848,0.003477001329883933,0.007088907994329929,-0.0034590535797178745,-0.003399929031729698
0.236,0.005747264716774225,0.23548415303230286,0.004096006974577904,0.00707642175257206,-0.0034901248291134834,-0.0034549490083009005
0.238,0.00627541309222579,0.23615649342536926,0.00469517707824707,0.007036403752863407,-0.0035177122335880995,-0.0035185269080102444
0.24,0.006770792417228222,0.23679926991462708,0.00524096330627799,0.006981776095926762,-0.0035307814832776785,-0.003588136751204729
0.242,0.007288163062185049,0.23752883076667786,0.005747390910983086,0.0069224536418914795,-0.0035359207540750504,-0.0036602842155843973
0.244,0.007771002594381571,0.23833182454109192,0.006184583529829979,0.006858060136437416,-0.003532727248966694,-0.0037308831233531237
0.246,0.008224424906075,0.23903658986091614,0.006488462910056114,0.0067945076152682304,-0.0035220752470195293,-0.003795885480940342
0.248,0.008580522611737251,0.23975279927253723,0.006737224757671356,0.006755032576620579,-0.0035029270220547915,-0.0038505252450704575
0.25,0.008851749822497368,0.24047186970710754,0.006907791364938021,0.006734874565154314,-0.00348091684281826,-0.0038948773872107267
0.252,0.00905117392539978,0.24125197529792786,0.007026261650025845,0.006728850770741701,-0.0034675037022680044,-0.0039322287775576115
0.254,0.0091796750202775,0.2420053780078888,0.007068154402077198,0.006736672483384609,-0.0034749205224215984,-0.003968990873545408
0.256,0.009222524240612984,0.2427549660205841,0.006981437094509602,0.006744254380464554,-0.003503874409943819,-0.004000911023467779
0.258,0.009178416803479195,0.24343493580818176,0.006804594770073891,0.0067490478977561,-0.003553094808012247,-0.004031800664961338
0.26,0.009072338230907917,0.24410536885261536,0.006569732446223497,0.006733517162501812,-0.003625457175076008,-0.004065016750246286
0.262,0.008904214948415756,0.24475958943367004,0.006241320166736841,0.0066950563341379166,-0.003714502789080143,-0.004103337414562702
0.264,0.008648786693811417,0.24538996815681458,0.005879436619579792,0.006632019765675068,-0.0038114581257104874,-0.004146385006606579
0.266,0.008353986777365208,0.2459898293018341,0.005438018124550581,0.006545489653944969,-0.003908474463969469,-0.0041984012350440025
0.268,0.007981708273291588,0.24654582142829895,0.005012767855077982,0.006440283264964819,-0.003998286090791225,-0.004263605456799269
0.27,0.007498519029468298,0.2470712959766388,0.004515421111136675,0.006330558098852634,-0.004065270535647869,-0.004342937376350164
0.272,0.007027560845017433,0.24747279286384583,0.003998807165771723,0.006226022262126207,-0.004105931613594294,-0.004439362790435553
0.274,0.006457657087594271,0.2478342354297638,0.003507219720631838,0.006131035275757313,-0.004117568489164114,-0.0045503596775233746
0.276,0.005869958084076643,0.2480936348438263,0.0029933552723377943,0.006057556718587875,-0.004109210334718227,-0.004669508431106806
0.278,0.005286999046802521,0.2483091652393341,0.0024799301754683256,0.0060062711127102375,-0.004083703737705946,-0.004788380116224289
0.28,0.004664907231926918,0.24846842885017395,0.002004937967285514,0.005980414804071188,-0.004043773282319307,-0.004893362056463957
0.282,0.004046490415930748,0.24857142567634583,0.0015629061963409185,0.005979151930660009,-0.0039932201616466045,-0.004983257967978716
0.284,0.0034222635440528393,0.24859526753425598,0.0011465508723631501,0.006001159083098173,-0.003943714778870344,-0.005051629152148962
0.286,0.002782657975330949,0.24845030903816223,0.0007379999733529985,0.00604290422052145,-0.0038943574763834476,-0.005093306768685579
0.288,0.002136239781975746,0.24819758534431458,0.00041321830940432847,0.006101713981479406,-0.0038543613627552986,-0.005107237957417965
0.29,0.0015530067030340433,0.24793913960456848,0.00010095005563925952,0.00617303466424346,-0.003823670092970133,-0.005104158539324999
0.292,0.0010479993652552366,0.24747946858406067,-0.00019483802316244692,0.006250945385545492,-0.0038002976216375828,-0.005089898128062487
0.294,0.0005574490060098469,0.24691107869148254,-0.0004233339859638363,0.006327847018837929,-0.0037842867895960808,-0.005078141577541828
0.296,0.0001619772519916296,0.24628832936286926,-0.0006113142590038478,0.006397884339094162,-0.0037701809778809547,-0.005076530389487743
0.298,-0.00012705731205642223,0.24558928608894348,-0.0007621223921887577,0.006460527423769236,-0.0037557994946837425,-0.005097563844174147
0.3,-0.0003687719872687012,0.2447843849658966,-0.0008607343188486993,0.006510968320071697,-0.0037310535553842783,-0.005138661712408066
0.302,-0.0005285984370857477,0.2438812553882599,-0.0009298358345404267,0.006543128751218319,-0.00368179171346128,-0.005199274979531765
0.304,-0.0006391529459506273,0.24291327595710754,-0.0009902172023430467,0.006568198092281818,-0.0036094726528972387,-0.00526711018756032
0.306,-0.0006413689698092639,0.241916686296463,-0.0010048523545265198,0.0065900664776563644,-0.0035069198347628117,-0.005329534877091646
0.308,-0.0006146393716335297,0.2408447563648224,-0.0009875021642073989,0.006611159536987543,-0.0033698175102472305,-0.0053847176022827625
0.31,-0.000538370106369257,0.23975661396980286,-0.0009830961935222149,0.006639979779720306,-0.003201565705239773,-0.0054231672547757626
0.312,-0.0004011480195913464,0.23863890767097473,-0.0009337857482023537,0.006675827316939831,-0.0030128557700663805,-0.005439136177301407
0.314,-0.00023101404076442122,0.2375488579273224,-0.0008476313669234514,0.006723205558955669,-0.0028113494627177715,-0.005431192461401224
0.316,-1.6468489775434136e-05,0.23645690083503723,-0.0007096149493008852,0.006789614912122488,-0.002612350508570671,-0.005405956879258156
0.318,0.0002117284166160971,0.23534300923347473,-0.0005354636814445257,0.006869901902973652,-0.002421362092718482,-0.005376639310270548
0.32,0.0004364006454125047,0.23437312245368958,-0.0003338974784128368,0.006950948853045702,-0.0022380684968084097,-0.005343616474419832
0.322,0.0006093274569138885,0.2334013283252716,-0.00013118449714966118,0.007032356690615416,-0.0020707084331661463,-0.0053171380423009396
0.324,0.0007551796734333038,0.23255732655525208,0.00010726721666287631,0.007103361189365387,-0.0019261148991063237,-0.005302203353494406
0.326,0.0008454709895886481,0.23178580403327942,0.00035608492908068,0.007156012579798698,-0.0017957949312403798,-0.005300624296069145
0.328,0.0008344440720975399,0.23105815052986145,0.0006396856624633074,0.007185388822108507,-0.0016732424264773726,-0.005305427126586437
0.33,0.0008075275109149516,0.2305002510547638,0.000907441193703562,0.007188640534877777,-0.001559612457640469,-0.005322707816958427
0.332,0.0008593785460107028,0.23000147938728333,0.0011675716377794743,0.007167307659983635,-0.001467746333219111,-0.005349910818040371
0.334,0.0007528189453296363,0.22962287068367004,0.001473837997764349,0.007114755921065807,-0.0013959130737930536,-0.005383818875998259
0.336,0.0006247738492675126,0.22930052876472473,0.0017142008291557431,0.007034348323941231,-0.0013484004884958267,-0.005416312254965305
0.338,0.0004951409646309912,0.2290678322315216,0.00193780695553869,0.006933247204869986,-0.0013289302587509155,-0.005443956702947617
0.34,0.0002935358206741512,0.22892287373542786,0.0021800168324261904,0.006813646759837866,-0.0013418784365057945,-0.005460239015519619
0.342,1.9140541553497314e-05,0.22878935933113098,0.0023192313965409994,0.0066773793660104275,-0.0013822580222040415,-0.0054581318981945515
0.344,-0.00021453900262713432,0.2287178337574005,0.002454580506309867,0.006533075124025345,-0.0014557690592482686,-0.005427654832601547
0.346,-0.00047050020657479763,0.2286863625049591,0.0025519742630422115,0.0063788010738790035,-0.0015594307333230972,-0.005362607538700104
0.348,-0.0007289073546417058,0.22868064045906067,0.002565900096669793,0.006218590773642063,-0.0016903365030884743,-0.005256713833659887
0.35,-0.0009849837515503168,0.22868254780769348,0.0025316562969237566,0.0060577113181352615,-0.0018376802327111363,-0.00511410366743803
0.352,-0.0012337699299678206,0.2286854088306427,0.002460833638906479,0.005899226292967796,-0.0019933374132961035,-0.004928625654429197
0.354,-0.0014481411781162024,0.2287168800830841,0.0023190623614937067,0.005742217879742384,-0.0021636791061609983,-0.004716383758932352
0.356,-0.0016856500878930092,0.22874358296394348,0.002163077937439084,0.005585467908531427,-0.0023432390298694372,-0.004482950549572706
0.358,-0.0018774733180180192,0.2287016212940216,0.0019613883923739195,0.005434205289930105,-0.002518976805731654,-0.0042478241957724094
0.36,-0.0020183820743113756,0.22869399189949036,0.0017210125224664807,0.0052879261784255505,-0.0026882668025791645,-0.004019422456622124
0.362,-0.0021303026005625725,0.2286558449268341,0.0014199832221493125,0.005152943078428507,-0.00285033555701375,-0.003801137674599886
0.364,-0.0021595123689621687,0.22866156697273254,0.0011397169437259436,0.005026575177907944,-0.002995438175275922,-0.0036065864842385054
0.366,-0.0021658949553966522,0.2285785973072052,0.0008611877565272152,0.004911456257104874,-0.00310992868617177,-0.0034346021711826324
0.368,-0.002141763223335147,0.22849753499031067,0.0005765793030150235,0.00481790117919445,-0.0031779150012880564,-0.0032913663890212774
0.37,-0.002043005544692278,0.22841933369636536,0.00027042266447097063,0.0047400170005857944,-0.0032027573324739933,-0.0031737193930894136
0.372,-0.001893544103950262,0.22829821705818176,4.119720324524678e-05,0.004682989791035652,-0.0031870221719145775,-0.003075310494750738
0.374,-0.001659521134570241,0.22823813557624817,-0.00016718186088837683,0.0046622189693152905,-0.0031353235244750977,-0.0029951282776892185
0.376,-0.0014005731791257858,0.22813895344734192,-0.0003448122297413647,0.004666740074753761,-0.003053525695577264,-0.0029304143972694874
0.378,-0.0010765204206109047,0.2279663383960724,-0.0005184695473872125,0.00470143835991621,-0.0029551214538514614,-0.002882307395339012
0.38,-0.000640105630736798,0.2278299629688263,-0.0006123835919424891,0.004753932356834412,-0.0028514154255390167,-0.0028474607970565557
0.382,-0.00021844630828127265,0.22775748372077942,-0.0006998971803113818,0.004823274910449982,-0.002759932540357113,-0.0028287051245570183
0.384,0.00019990597502328455,0.22762396931648254,-0.0007830292452126741,0.004905691836029291,-0.0026908512227237225,-0.0028227290604263544
0.386,0.0006908092764206231,0.22751334309577942,-0.0008220172603614628,0.004991755820810795,-0.0026465714909136295,-0.0028329575434327126
0.388,0.0011846758425235748,0.22742560505867004,-0.0007980541558936238,0.005077222362160683,-0.002636759076267481,-0.002856106497347355
0.39,0.0016807197825983167,0.22727110981941223,-0.0007408949313685298,0.00515793776139617,-0.0026562262792140245,-0.0028898303862661123
0.392,0.0021758698858320713,0.2271728813648224,-0.0006977008888497949,0.0052309781312942505,-0.0026968622114509344,-0.002941322745755315
0.394,0.002654481213539839,0.2270365059375763,-0.0006147889071144164,0.0052957539446651936,-0.0027526021003723145,-0.0030141903553158045
0.396,0.0031163468956947327,0.22696784138679504,-0.0004620149848051369,0.005357027985155582,-0.002808674704283476,-0.0031016506254673004
0.398,0.0035826130770146847,0.22688964009284973,-0.000299878855003044,0.005409033969044685,-0.002855018712580204,-0.003199421102181077
0.4,0.0039392937906086445,0.22677043080329895,-0.0001187152010970749,0.005457010120153427,-0.0028906413353979588,-0.0033083774615079165
0.402,0.004229539539664984,0.22669509053230286,7.775753329042345e-05,0.005497591104358435,-0.0029036160558462143,-0.0034196798224002123
0.404,0.004504750482738018,0.2266235649585724,0.00022609718143939972,0.005535234231501818,-0.002899465151131153,-0.003530550515279174
0.406,0.004737720359116793,0.22664359211921692,0.00038426928222179413,0.005567361135035753,-0.0028876126743853092,-0.0036452377680689096
0.408,0.004862126894295216,0.22669318318367004,0.0005567732732743025,0.005595413502305746,-0.0028616683557629585,-0.0037503221537917852
0.41,0.0049691712483763695,0.2267952263355255,0.0007043818477541208,0.005618867464363575,-0.002834437880665064,-0.0038569553289562464
0.412,0.004972783848643303,0.22692683339118958,0.0008442472317256033,0.005635388195514679,-0.0028113890439271927,-0.0039743236266076565
0.414,0.004914428107440472,0.22701457142829895,0.0009631264838390052,0.005637771915644407,-0.0027978140860795975,-0.004111975897103548
0.416,0.004848292097449303,0.22715380787849426,0.0011020349338650703,0.005625580437481403,-0.002799196867272258,-0.004284190479665995
0.418,0.004741690121591091,0.22731974720954895,0.0011882642284035683,0.005602612160146236,-0.0028183620888739824,-0.004484578501433134
0.42,0.00458119623363018,0.22748664021492004,0.0012609278783202171,0.005565345752984285,-0.00286120199598372,-0.004714073613286018
0.422,0.004414349794387817,0.2277078926563263,0.0013014667201787233,0.005506529472768307,-0.002921659266576171,-0.004968248773366213
0.424,0.004183904733508825,0.22792533040046692,0.0013320882571861148,0.005435262341052294,-0.002994784153997898,-0.005239935591816902
0.426,0.003936795052140951,0.22808554768562317,0.0013313422678038478,0.005358384922146797,-0.003073261119425297,-0.005512759555131197
0.428,0.003669965313747525,0.22830680012702942,0.0013190010795369744,0.005280184093862772,-0.0031521450728178024,-0.00577617296949029
0.43,0.0034020659513771534,0.2284870445728302,0.0012793571222573519,0.005217006895691156,-0.003214767202734947,-0.0060187773779034615
0.432,0.0031174938194453716,0.2286100685596466,0.0012268733698874712,0.005176869686692953,-0.0032499274238944054,-0.006234116852283478
0.434,0.002818302484229207,0.22869780659675598,0.0011364796664565802,0.005183360073715448,-0.0032571812625974417,-0.006411565933376551
0.436,0.0025103488005697727,0.22875025868415833,0.0010144979460164905,0.0052397409453988075,-0.003229533089324832,-0.006549668963998556
0.438,0.0021942886523902416,0.22875311970710754,0.0009499437874183059,0.0053563425317406654,-0.003168743336573243,-0.006646253168582916
0.44,0.0018582899356260896,0.2286682426929474,0.0008939795079641044,0.005544489715248346,-0.0030797147192060947,-0.006707432214170694
0.442,0.0014807613333687186,0.2286558449268341,0.0008883684640750289,0.005802070256322622,-0.002965794876217842,-0.0067434776574373245
0.444,0.0012141379993408918,0.22859099507331848,0.0008993027149699628,0.006117596291005611,-0.00283723883330822,-0.006769106723368168
0.446,0.0009268721332773566,0.2284708321094513,0.0009737384971231222,0.006481907330453396,-0.0027026375755667686,-0.006790955550968647
0.448,0.0005652643158100545,0.22836020588874817,0.0010629975004121661,0.006877780891954899,-0.002560732187703252,-0.0068107410334050655
0.45,0.00029254629043862224,0.22824671864509583,0.001216020667925477,0.007283098064363003,-0.002433333545923233,-0.006843367591500282
0.452,6.205763202160597e-05,0.2281809151172638,0.0015180560294538736,0.007685369811952114,-0.0023160064592957497,-0.006897651590406895
0.454,-0.00023739272728562355,0.228122740983963,0.0018082893220707774,0.008065871894359589,-0.002213358646258712,-0.006971938535571098
0.456,-0.00043219851795583963,0.22814467549324036,0.0021775695495307446,0.008422542363405228,-0.002145386068150401,-0.007072429172694683
0.458,-0.0006692649330943823,0.22820952534675598,0.002631489187479019,0.008742861449718475,-0.002112138317897916,-0.0071962131187319756
0.46,-0.0008911926997825503,0.22831156849861145,0.0031298650428652763,0.009028664790093899,-0.002116202609613538,-0.007338023278862238
0.462,-0.0010766948107630014,0.22848132252693176,0.003626285819336772,0.009276905097067356,-0.0021653359290212393,-0.007498137187212706
0.464,-0.001230655238032341,0.2287159264087677,0.004178877454251051,0.009501323103904724,-0.002259021857753396,-0.007666876073926687
0.466,-0.001317059388384223,0.22909167408943176,0.004760499577969313,0.009707133285701275,-0.0023830521386116743,-0.00783760379999876
0.468,-0.0013829009840264916,0.22954371571540833,0.005281556863337755,0.009900566190481186,-0.0025352127850055695,-0.008005719631910324
0.47,-0.0014228776562958956,0.23001959919929504,0.005795995704829693,0.010080529376864433,-0.0026948298327624798,-0.008163528516888618
0.472,-0.0014606271870434284,0.23052504658699036,0.006275912281125784,0.010255392640829086,-0.0028439261950552464,-0.008316712453961372
0.474,-0.0014945392031222582,0.23104575276374817,0.006711685098707676,0.010433981195092201,-0.002967539709061384,-0.008454727940261364
0.476,-0.0014263407792896032,0.23165705800056458,0.007096839603036642,0.01061627920717001,-0.0030577031429857016,-0.008570189587771893
0.478,-0.0013389342930167913,0.2322864830493927,0.007389456033706665,0.01080397516489029,-0.003102271119132638,-0.008664102293550968
0.48,-0.0012857569381594658,0.23291686177253723,0.007583300583064556,0.010993484407663345,-0.00310496031306684,-0.008737795054912567
0.482,-0.0012056680861860514,0.23348143696784973,0.007631189189851284,0.011177443899214268,-0.0030673600267618895,-0.008794433437287807
0.484,-0.0011180706787854433,0.23394110798835754,0.007563197053968906,0.01135438121855259,-0.00300757703371346,-0.008834256790578365
0.486,-0.0010372016113251448,0.2343597710132599,0.007385150529444218,0.011515091173350811,-0.002940157661214471,-0.0088583305478096
0.488,-0.0009237395133823156,0.23482611775398254,0.0071246437728405,0.01165219396352768,-0.0028787394985556602,-0.008874974213540554
0.49,-0.0008152311202138662,0.23516657948493958,0.006794135086238384,0.011761610396206379,-0.0028363496530801058,-0.008878885768353939
0.492,-0.0006984367500990629,0.2353678047657013,0.006344034802168608,0.011845886707305908,-0.0028169937431812286,-0.008874400518834591
0.494,-0.0005452476907521486,0.2355814278125763,0.005812954623252153,0.011902350932359695,-0.002827857621014118,-0.008855354972183704
0.496,-0.00044192466884851456,0.2356577217578888,0.005206862464547157,0.011934895068407059,-0.0028731548227369785,-0.008813358843326569
0.498,-0.00040359748527407646,0.23558905720710754,0.004527587443590164,0.011952458880841732,-0.0029503358528017998,-0.00874294713139534
0.5,-0.00032690190710127354,0.23544219136238098,0.0038071663584560156,0.011947233229875565,-0.0030540518928319216,-0.008648045361042023
0.502,-0.00028184568509459496,0.2352142632007599,0.0031197136268019676,0.01192436832934618,-0.0031837488058954477,-0.008534126915037632
0.504,-0.00025422510225325823,0.2349272072315216,0.002420980017632246,0.011880113743245602,-0.003323744283989072,-0.008398331701755524
0.506,-0.00026463164249435067,0.23458483815193176,0.0017238412983715534,0.011797253042459488,-0.003464597975835204,-0.008236892521381378
0.508,-0.00037074723513796926,0.23420432209968567,0.0010246356250718236,0.01167391613125801,-0.003606995800510049,-0.008059837855398655
0.51,-0.0004256738175172359,0.2337808907032013,0.00041678009438328445,0.011495334096252918,-0.0037348989862948656,-0.007872897200286388
0.512,-0.0005368407582864165,0.23332884907722473,-0.00013081055658403784,0.011257166974246502,-0.0038395423907786608,-0.007683039177209139
0.514,-0.0006671679439023137,0.2328968346118927,-0.0005467436858452857,0.010963100008666515,-0.003918793052434921,-0.0074991690926253796
0.516,-0.0008572094957344234,0.23235228657722473,-0.0009284716797992587,0.01062418706715107,-0.003961892798542976,-0.007326494436711073
0.518,-0.00104363018181175,0.2318430244922638,-0.0012565252836793661,0.010237007401883602,-0.003960464149713516,-0.007171629462391138
0.52,-0.0012682621600106359,0.23137858510017395,-0.001517252647317946,0.009808717295527458,-0.003923296928405762,-0.007040650118142366
0.522,-0.0014217658899724483,0.23099806904792786,-0.0016824003541842103,0.009364823810756207,-0.003841695375740528,-0.006938358303159475
0.524,-0.0016205800930038095,0.23069384694099426,-0.001787302317097783,0.008924728259444237,-0.003727053990587592,-0.00686434842646122
0.526,-0.0018300004303455353,0.23040106892585754,-0.001836988958530128,0.008493932895362377,-0.0035860762000083923,-0.006814196240156889
0.528,-0.0019816597923636436,0.23016265034675598,-0.0018325315322726965,0.00808845367282629,-0.0034228984732180834,-0.006789058912545443
0.53,-0.0021653762087225914,0.22994330525398254,-0.0017761237686499953,0.007718933746218681,-0.0032526899594813585,-0.006778353359550238
0.532,-0.0023075456265360117,0.22974303364753723,-0.0016874669818207622,0.007389741018414497,-0.0030887334141880274,-0.006773009896278381
0.534,-0.002396077150478959,0.2296161949634552,-0.0015714307082816958,0.007108130492269993,-0.002942870371043682,-0.006771113723516464
0.536,-0.0024790691677480936,0.2295408546924591,-0.0014921670081093907,0.006873738020658493,-0.002828401979058981,-0.006765963509678841
0.538,-0.002469348255544901,0.22945979237556458,-0.0013868567766621709,0.0066788410767912865,-0.002743994817137718,-0.006745705381035805
0.54,-0.002428510459139943,0.22938445210456848,-0.0012341641122475266,0.0065289936028420925,-0.002695116214454174,-0.0067144474014639854
0.542,-0.002274758880957961,0.22936537861824036,-0.001089234254322946,0.006412898190319538,-0.002682602033019066,-0.006669071037322283
0.544,-0.0020904296543449163,0.2293882668018341,-0.0009654116001911461,0.006323177833110094,-0.0027052080258727074,-0.006600901484489441
0.546,-0.0018261387012898922,0.22943976521492004,-0.0008241860195994377,0.006243537180125713,-0.002751254476606846,-0.0065025752410292625
0.548,-0.0014231629902496934,0.2295542061328888,-0.0007456708699464798,0.006173889618366957,-0.0028125960379838943,-0.006382979918271303
0.55,-0.0009760954999364913,0.2297668755054474,-0.0006220611976459622,0.006113743409514427,-0.0028809208888560534,-0.006244117394089699
0.552,-0.0004879198968410492,0.22992709279060364,-0.0005219837184995413,0.006051541771739721,-0.0029530120082199574,-0.0060878535732626915
0.554,3.071180253755301e-05,0.23015311360359192,-0.0004051293071825057,0.005987509619444609,-0.00301313865929842,-0.0059224325232207775
0.556,0.0006106436485424638,0.23039916157722473,-0.00026654754765331745,0.00592045858502388,-0.0030604929197579622,-0.00576147623360157
0.558,0.0012752441689372063,0.23072531819343567,-0.00013857727753929794,0.005845348816365004,-0.003097209148108959,-0.005616070237010717
0.56,0.0018843631260097027,0.2311411201953888,-4.602632543537766e-06,0.005765915382653475,-0.003136203158646822,-0.005496869329363108
0.562,0.0024823995772749186,0.23151686787605286,8.825038821669295e-05,0.005679674446582794,-0.00316581130027771,-0.005408663302659988
0.564,0.0030742480885237455,0.23201850056648254,0.0002777121844701469,0.0055922940373420715,-0.003196017351001501,-0.005348489619791508
0.566,0.0036082465667277575,0.2325744926929474,0.0004879144544247538,0.005509356968104839,-0.0032277703285217285,-0.005313611123710871
0.568,0.004151576664298773,0.23325827717781067,0.0007347713690251112,0.005425628274679184,-0.003251349087804556,-0.0052967616356909275
0.57,0.0046319724060595036,0.23412039875984192,0.0010521691292524338,0.0053477478213608265,-0.0032691056840121746,-0.005291587673127651
0.572,0.0049776360392570496,0.2349863350391388,0.001383021124638617,0.005284292623400688,-0.003278733929619193,-0.005285728722810745
0.574,0.005231980700045824,0.23589041829109192,0.0017254521371796727,0.005240312777459621,-0.0032663317397236824,-0.00527485366910696
0.576,0.005440289620310068,0.23693183064460754,0.002102581085637212,0.0052063800394535065,-0.003239025827497244,-0.005258365534245968
0.578,0.005544634535908699,0.23804762959480286,0.0024917875416576862,0.005177420098334551,-0.0031997081823647022,-0.0052258605137467384
0.58,0.005499031860381365,0.2391844093799591,0.0028913868591189384,0.005161117296665907,-0.003151234006509185,-0.005182261578738689
0.582,0.005378435365855694,0.24034789204597473,0.003269495675340295,0.005152830854058266,-0.0030997833237051964,-0.005127662792801857
0.584,0.005174038931727409,0.24151328206062317,0.0036672235000878572,0.005150813143700361,-0.0030454222578555346,-0.005066202022135258
0.586,0.0048519219271838665,0.24268820881843567,0.0040346006862819195,0.00515510281547904,-0.0029981895349919796,-0.004996937233954668
0.588,0.00444019166752696,0.2437448799610138,0.004393147304654121,0.005160331726074219,-0.0029662596061825752,-0.004916819743812084
0.59,0.003967562224715948,0.2447214424610138,0.0047622849233448505,0.005166313145309687,-0.0029444328974932432,-0.004820861387997866
0.592,0.0034130243584513664,0.24569323658943176,0.005094812251627445,0.005169704556465149,-0.0029315717983990908,-0.004717504605650902
0.594,0.0028018178418278694,0.24663642048835754,0.005374119617044926,0.005166445858776569,-0.002931294497102499,-0.004599705338478088
0.596,0.00214780168607831,0.24749568104743958,0.0056019253097474575,0.005155347287654877,-0.002934692893177271,-0.004477153532207012
0.598,0.0014579042326658964,0.24813082814216614,0.0057206833735108376,0.005131586920469999,-0.002942139282822609,-0.00435723876580596
0.6,0.0007916474714875221,0.24859336018562317,0.005779022350907326,0.005104864947497845,-0.0029615836683660746,-0.004248975310474634
0.602,0.0001385803334414959,0.24900725483894348,0.005842669866979122,0.00507384305819869,-0.002984225982800126,-0.004145234357565641
0.604,-0.0004728343337774277,0.2492370903491974,0.005820928607136011,0.005033230409026146,-0.0030035485979169607,-0.004052929114550352
0.606,-0.0010053601581603289,0.24937918782234192,0.005753678269684315,0.004991586320102215,-0.003015126334503293,-0.0039734262973070145
0.608,-0.001507007284089923,0.2494087517261505,0.00562011543661356,0.004943487234413624,-0.0030286668334156275,-0.003897621762007475
0.61,-0.001944814808666706,0.24938586354255676,0.005449906922876835,0.004893019329756498,-0.003034318098798394,-0.0038176020607352257
0.612,-0.0023223189637064934,0.2492075264453888,0.005253386218100786,0.004847572185099125,-0.003028196282684803,-0.0037302402779459953
0.614,-0.002578560495749116,0.24901679158210754,0.005021321587264538,0.004794712644070387,-0.0030115211848169565,-0.00362639082595706
0.616,-0.00275636138394475,0.24875739216804504,0.004751367028802633,0.004728570580482483,-0.0029898695647716522,-0.0035037947818636894
0.618,-0.002830774523317814,0.24842265248298645,0.004504161886870861,0.0046483417972922325,-0.0029632209334522486,-0.003375366097316146
0.62,-0.002845387440174818,0.24808791279792786,0.004230491816997528,0.0045559704303741455,-0.0029387918766587973,-0.003245582338422537
0.622,-0.002815394662320614,0.24768832325935364,0.003941516391932964,0.004449422471225262,-0.0029274090193212032,-0.0031217457726597786
0.624,-0.0027182972989976406,0.2472544014453888,0.003649309976026416,0.004321094136685133,-0.0029257771093398333,-0.003016440663486719
0.626,-0.0025334444362670183,0.2469053566455841,0.003392924088984728,0.004178199917078018,-0.0029374267905950546,-0.0029490559827536345
0.628,-0.0022736170794814825,0.24657824635505676,0.0031722954008728266,0.004027651157230139,-0.0029665944166481495,-0.0029221121221780777
0.63,-0.0020074239000678062,0.24617579579353333,0.003019389696419239,0.0038837764877825975,-0.00300867878831923,-0.0029354230500757694
0.632,-0.0017804555827751756,0.24578002095222473,0.002862284891307354,0.003755809972062707,-0.003055552951991558,-0.002998503390699625
0.634,-0.0014511190820485353,0.2455148994922638,0.0027596880681812763,0.003647823352366686,-0.003111989004537463,-0.0030991551466286182
0.636,-0.0011007656576111913,0.24524977803230286,0.002667246852070093,0.003566854167729616,-0.003177030012011528,-0.003235404845327139
0.638,-0.0007476240862160921,0.24503806233406067,0.0026301161851733923,0.0035188449546694756,-0.003245510859414935,-0.00339017016813159
0.64,-0.0003892902750521898,0.24483969807624817,0.002645628759637475,0.003498269245028496,-0.0033121216110885143,-0.003553098998963833
0.642,-3.0605122447013855e-05,0.24465087056159973,0.0027526316698640585,0.003509913105517626,-0.0033753502648323774,-0.003717259969562292
0.644,0.0003495068522170186,0.24446967244148254,0.0028750335332006216,0.0035485888365656137,-0.0034406117629259825,-0.0038776418659836054
0.646,0.0007515758043155074,0.24436381459236145,0.0030941551085561514,0.0036054968368262053,-0.0035075584892183542,-0.004033280070871115
0.648,0.0010650577023625374,0.24426940083503723,0.003352452302351594,0.0036674083676189184,-0.003568122396245599,-0.004180454183369875
0.65,0.0013639985118061304,0.24418166279792786,0.003619048511609435,0.003731844248250127,-0.0036226713564246893,-0.004312967881560326
0.652,0.0016274218214675784,0.24407008290290833,0.0038908657152205706,0.0037947059608995914,-0.0036713050212711096,-0.004431770648807287
0.654,0.0018455913523212075,0.24393942952156067,0.004182979930192232,0.003851854708045721,-0.0037090263795107603,-0.004529223777353764
0.656,0.0019955611787736416,0.24374964833259583,0.004446065053343773,0.003906382247805595,-0.0037374452222138643,-0.004605945665389299
0.658,0.0020794770680367947,0.24349024891853333,0.004696258809417486,0.003964666277170181,-0.003757152007892728,-0.004664750769734383
0.66,0.00215301220305264,0.2432098686695099,0.004883896559476852,0.004031649325042963,-0.0037675912026315928,-0.004696971271187067
0.662,0.002234687330201268,0.24296286702156067,0.005055380519479513,0.004119283519685268,-0.0037708713207393885,-0.00470685726031661
0.664,0.0023019711952656507,0.2426786720752716,0.005171607714146376,0.0042238798923790455,-0.0037765544839203358,-0.00470571918413043
0.666,0.002278276951983571,0.2423105537891388,0.005185076966881752,0.004342161118984222,-0.0037855578120797873,-0.004692631773650646
0.668,0.0022300779819488525,0.24182990193367004,0.005121035501360893,0.004473834298551083,-0.003797193057835102,-0.004675526171922684
0.67,0.002140586730092764,0.2413358986377716,0.004956088028848171,0.00460856594145298,-0.0038188525941222906,-0.004653810057789087
0.672,0.0020506337750703096,0.2408466637134552,0.0046954988501966,0.0047377548180520535,-0.0038526123389601707,-0.004632636439055204
0.674,0.0019233755301684141,0.24027350544929504,0.004293966572731733,0.0048507945612072945,-0.0038991195615381002,-0.0046177515760064125
0.676,0.0017208612989634275,0.2396250069141388,0.003831348614767194,0.004943874664604664,-0.003953919280320406,-0.0046120756305754185
0.678,0.0014859859365969896,0.23889067769050598,0.003231561277061701,0.005010880064219236,-0.0040125614032149315,-0.004617149475961924
0.68,0.0012516805436462164,0.23812392354011536,0.002584845758974552,0.005051509011536837,-0.00407128082588315,-0.00462937168776989
0.682,0.0010441397316753864,0.23733237385749817,0.0018941884627565742,0.005066773854196072,-0.004124224651604891,-0.004652967676520348
0.684,0.0008236130815930665,0.23652079701423645,0.0011930110631510615,0.005058167967945337,-0.00416863989084959,-0.004690370988100767
0.686,0.0005743899964727461,0.2356424629688263,0.000456722715171054,0.005037469789385796,-0.004206311888992786,-0.00474434532225132
0.688,0.0003729914897121489,0.2348194420337677,-0.00021582114277407527,0.0050077885389328,-0.00423045689240098,-0.004818337503820658
0.69,0.00024339513038285077,0.23397734761238098,-0.0009139025933109224,0.004980488680303097,-0.004241252783685923,-0.0049073416739702225
0.692,0.00012125191278755665,0.23319819569587708,-0.001545467646792531,0.004960671998560429,-0.004240832757204771,-0.005019118078052998
0.694,-5.165080074220896e-05,0.2323770821094513,-0.0021349575836211443,0.004954542499035597,-0.004217828158289194,-0.005148560740053654
0.696,-0.00019839114975184202,0.23160651326179504,-0.0026274078991264105,0.004961234983056784,-0.004179151728749275,-0.005289130844175816
0.698,-0.0002648088848218322,0.2309427559375763,-0.003018098883330822,0.004980849102139473,-0.004123323131352663,-0.005437408108264208
0.7,-0.0002782390220090747,0.23033621907234192,-0.0032838224433362484,0.0050216782838106155,-0.004047120921313763,-0.005584800615906715
0.702,-0.0002616988494992256,0.2297239601612091,-0.0034303790889680386,0.005076684057712555,-0.003952947445213795,-0.005717808846384287
0.704,-0.00020911393221467733,0.22915366291999817,-0.0034759046975523233,0.005140945315361023,-0.0038492202293127775,-0.005834001116454601
0.706,-9.494577534496784e-05,0.2286567986011505,-0.0033910428173840046,0.005222037900239229,-0.003738397266715765,-0.0059273745864629745
0.708,2.5639892555773258e-05,0.22824767231941223,-0.003212875220924616,0.005310138687491417,-0.003623847384005785,-0.005994576029479504
0.71,0.00012029148638248444,0.22799113392829895,-0.0028969584964215755,0.005406784359365702,-0.0035094106569886208,-0.006041014567017555
0.712,0.00027507683262228966,0.22776129841804504,-0.0024846589658409357,0.005514302756637335,-0.003401564434170723,-0.006062095984816551
0.714,0.0005242718034423888,0.22762587666511536,-0.0019142929231747985,0.005627683829516172,-0.0032976982183754444,-0.00606504688039422
0.716,0.0007182706613093615,0.22753050923347473,-0.0013275553938001394,0.005743606947362423,-0.003201904008165002,-0.006050162948668003
0.718,0.0009903727332130075,0.22751906514167786,-0.0006935752462595701,0.005869160406291485,-0.0031148965936154127,-0.006019253749400377
0.72,0.0012441098224371672,0.22760775685310364,-2.782214869512245e-05,0.00600051274523139,-0.0030373830813914537,-0.005981505382806063
0.722,0.0015216250903904438,0.2278023064136505,0.0006770745385438204,0.0061361598782241344,-0.0029750033281743526,-0.0059429737739264965
0.724,0.0017925769789144397,0.22803786396980286,0.00139922508969903,0.006263823248445988,-0.0029189789202064276,-0.005906325299292803
0.726,0.0020843413658440113,0.2283335030078888,0.0021296218037605286,0.006372877862304449,-0.002867985051125288,-0.005871244706213474
0.728,0.0023180083371698856,0.2287607491016388,0.002840435365214944,0.006455402355641127,-0.0028225737623870373,-0.005835441406816244
0.73,0.0025943599175661802,0.22926047444343567,0.0035259684082120657,0.006511189043521881,-0.002783667529001832,-0.005799717735499144
0.732,0.0028861062601208687,0.2298612892627716,0.004155246075242758,0.00654282420873642,-0.002754024462774396,-0.005761228501796722
0.734,0.0031143343076109886,0.23056891560554504,0.004721098579466343,0.006546247284859419,-0.00272735464386642,-0.005720043554902077
0.736,0.003308527870103717,0.2313089668750763,0.005246367305517197,0.006522923707962036,-0.002706392901018262,-0.00567668629810214
0.738,0.0034896766301244497,0.23208430409431458,0.005714884493499994,0.006483718287199736,-0.002689545741304755,-0.0056313504464924335
0.74,0.003644181415438652,0.23304179310798645,0.006107552908360958,0.006440905854105949,-0.002682581078261137,-0.005578896496444941
0.742,0.003779377555474639,0.23396971821784973,0.006399850826710463,0.00640586344525218,-0.0026854199822992086,-0.005521236918866634
0.744,0.003850786481052637,0.2348795235157013,0.006637568585574627,0.006379133090376854,-0.0026897399220615625,-0.005461185239255428
0.746,0.003927112091332674,0.23590567708015442,0.006849887780845165,0.0063673509284853935,-0.0027017032261937857,-0.0053941612131893635
0.748,0.00396886607632041,0.23692801594734192,0.006984470412135124,0.006383312400430441,-0.002718310570344329,-0.005323502700775862
0.75,0.003995797131210566,0.2378864586353302,0.007082081865519285,0.006422473583370447,-0.002733061322942376,-0.00524903554469347
0.752,0.003983684815466404,0.23883536458015442,0.007084124255925417,0.006479474250227213,-0.002746099838986993,-0.005173679441213608
0.754,0.003935514949262142,0.23972514271736145,0.007064922712743282,0.006548873148858547,-0.002758885035291314,-0.005099699832499027
0.756,0.00388878071680665,0.24050810933113098,0.0070427036844193935,0.006632121279835701,-0.002768836682662368,-0.005036829970777035
0.758,0.0038518032524734735,0.24122241139411926,0.007006809115409851,0.006717985961586237,-0.002782267751172185,-0.004985699895769358
0.76,0.0038030410651117563,0.24183180928230286,0.0069455294869840145,0.0067976610735058784,-0.002799284877255559,-0.004948724061250687
0.762,0.0037565291859209538,0.2423734962940216,0.006892436649650335,0.006868050433695316,-0.002823206363245845,-0.004932147450745106
0.764,0.0037076089065521955,0.24277690052986145,0.006848426535725594,0.006930637173354626,-0.002854227786883712,-0.004938159603625536
0.766,0.0035968513693660498,0.2431059181690216,0.006804652512073517,0.006975981406867504,-0.0028854289557784796,-0.004973231349140406
0.768,0.003454407677054405,0.24337294697761536,0.006776092108339071,0.00700444495305419,-0.002916952595114708,-0.005041716154664755
0.77,0.003287515603005886,0.2434559166431427,0.006741183809936047,0.007016936782747507,-0.0029410854913294315,-0.005144993308931589
0.772,0.00301802228204906,0.2433958351612091,0.006734647322446108,0.007010584697127342,-0.002959450241178274,-0.005279932636767626
0.774,0.0027020748239010572,0.24322989583015442,0.006712702102959156,0.006993742194026709,-0.002976885996758938,-0.0054472265765070915
0.776,0.0024082099553197622,0.2430734932422638,0.006733207032084465,0.006971064023673534,-0.0029960202518850565,-0.005641473922878504
0.778,0.0020801399368792772,0.24285796284675598,0.006761037744581699,0.006945028901100159,-0.003022007644176483,-0.005861503072082996
0.78,0.0016773238312453032,0.24242118000984192,0.006742886267602444,0.006915580946952105,-0.0030637674499303102,-0.006096175406128168
0.782,0.0011866139248013496,0.242008239030838,0.0067047374323010445,0.006887041963636875,-0.0031173769384622574,-0.006343803368508816
0.784,0.0006774917710572481,0.24155238270759583,0.006667787209153175,0.006854947190731764,-0.003180468687787652,-0.006598467938601971
0.786,0.0001279488205909729,0.24109366536140442,0.00658024474978447,0.00682506337761879,-0.0032573125790804625,-0.006852477788925171
0.788,-0.00048521673306822777,0.24058440327644348,0.006499192677438259,0.006803035270422697,-0.0033443206921219826,-0.007103432435542345
0.79,-0.0011241293977946043,0.24005034565925598,0.006337021477520466,0.006794069427996874,-0.0034298656973987818,-0.007351294159889221
0.792,-0.0017871176823973656,0.2396126091480255,0.006157405208796263,0.006796314846724272,-0.003500330029055476,-0.0075905113480985165
0.794,-0.0024051754735410213,0.2391844093799591,0.005909417290240526,0.006803194060921669,-0.0035493650939315557,-0.007817993871867657
0.796,-0.003009485313668847,0.23877814412117004,0.005649025551974773,0.0068131862208247185,-0.0035730183590203524,-0.008030489087104797
0.798,-0.0036190329119563103,0.2383575737476349,0.00533390324562788,0.006820543669164181,-0.0035790668334811926,-0.008227594196796417
0.8,-0.004153583664447069,0.23795226216316223,0.0050224619917571545,0.006822243798524141,-0.0035631449427455664,-0.008410985581576824
0.802,-0.004611020442098379,0.23754122853279114,0.004663208965212107,0.006803274620324373,-0.003532625501975417,-0.008570266887545586
0.804,-0.004971162416040897,0.23727038502693176,0.0042408728040754795,0.006769245956093073,-0.003491852432489395,-0.008705618791282177
0.806,-0.005232945084571838,0.23701384663581848,0.0038368941750377417,0.006722802296280861,-0.0034526758827269077,-0.008819188922643661
0.808,-0.0054140640422701836,0.23676779866218567,0.0034374312963336706,0.006665536668151617,-0.003418016480281949,-0.008920329622924328
0.81,-0.005477141123265028,0.2365427315235138,0.003020242555066943,0.006601148284971714,-0.0034005555789917707,-0.009016924537718296
0.812,-0.005416713654994965,0.23639777302742004,0.0026113165076822042,0.006539428140968084,-0.003403697395697236,-0.009113939478993416
0.814,-0.0052626654505729675,0.23628905415534973,0.0022808487992733717,0.006485227961093187,-0.0034233075566589832,-0.00921633094549179
0.816,-0.005040130577981472,0.23619559407234192,0.0019506019307300448,0.006448913365602493,-0.003457095008343458,-0.009328662417829037
0.818,-0.004692012909799814,0.23617079854011536,0.0016605000710114837,0.006435364950448275,-0.0035035184118896723,-0.009454981423914433
0.82,-0.004232337232679129,0.23611071705818176,0.0013741111615672708,0.006448416970670223,-0.0035600983537733555,-0.009601668454706669
0.822,-0.0037358650006353855,0.2361011803150177,0.0010419089812785387,0.006486853584647179,-0.0036205400247126818,-0.009763432666659355
0.824,-0.003278468968346715,0.23606780171394348,0.0007573370239697397,0.006539236754179001,-0.0036770226433873177,-0.00993435364216566
0.826,-0.002719384618103504,0.23605063557624817,0.0005728985997848213,0.006598723120987415,-0.0037212828174233437,-0.01011141948401928
0.828,-0.002171990228816867,0.23595908284187317,0.00042849581222981215,0.0066534169018268585,-0.0037517875898629427,-0.01028884295374155
0.83,-0.0016185455024242401,0.23587802052497864,0.00033863313728943467,0.006692308932542801,-0.003772315103560686,-0.010465570725500584
0.832,-0.0011311633279547095,0.23580077290534973,0.0002458600210957229,0.006709722802042961,-0.0037833822425454855,-0.010637566447257996
0.834,-0.0007158447406254709,0.23572447896003723,0.0001532736496301368,0.006703545339405537,-0.0037849321961402893,-0.010797355324029922
0.836,-0.0003083734482061118,0.23562434315681458,5.5861561122583225e-05,0.006670136004686356,-0.003786745248362422,-0.010938207618892193
0.838,6.245513213798404e-05,0.2353840172290802,-8.016000720090233e-06,0.0066100917756557465,-0.0037910467945039272,-0.011052495799958706
0.84,0.00029365040245465934,0.23511984944343567,-8.149199857143685e-05,0.00652318075299263,-0.0037955231964588165,-0.011131346225738525
0.842,0.00045398541260510683,0.23484423756599426,-0.00014115922385826707,0.006414390169084072,-0.003799841273576021,-0.011166959069669247
0.844,0.0005374522879719734,0.2345152199268341,-0.00020884149125777185,0.0062951985746622086,-0.003809174755588174,-0.011158464476466179
0.846,0.0005261916667222977,0.23412421345710754,-0.0002917883393820375,0.006172083783894777,-0.0038228242192417383,-0.011103468015789986
0.848,0.0004622663836926222,0.2337065041065216,-0.0003910867962986231,0.006056876387447119,-0.0038324566558003426,-0.011001910082995892
0.85,0.0003916143614333123,0.23322680592536926,-0.0005185339250601828,0.005950864404439926,-0.0038334853015840054,-0.010862120427191257
0.852,0.000248864758759737,0.2327766716480255,-0.0005716829909943044,0.005854201968759298,-0.003822755767032504,-0.010684803128242493
0.854,0.0001022207725327462,0.23232367634773254,-0.0006675192853435874,0.005766824819147587,-0.0038023150991648436,-0.01047537848353386
0.856,-9.876961121335626e-05,0.23183825612068176,-0.0007871004636399448,0.0056981900706887245,-0.0037765384186059237,-0.010252302512526512
0.858,-0.00027886941097676754,0.23142531514167786,-0.0008579240529797971,0.0056395395658910275,-0.0037427390925586224,-0.010020751506090164
0.86,-0.00040573152364231646,0.23113253712654114,-0.0009222908993251622,0.005591913126409054,-0.0037106620147824287,-0.009784715250134468
0.862,-0.0005233720876276493,0.23082831501960754,-0.000949881155975163,0.005553835071623325,-0.003683818504214287,-0.00955041591078043
0.864,-0.0006372863426804543,0.2305927574634552,-0.0009794692741706967,0.00552727747708559,-0.003660482820123434,-0.00933088455349207
0.866,-0.0007571184542030096,0.2304411232471466,-0.0010267077013850212,0.005507581867277622,-0.003647394245490432,-0.00913451611995697
0.868,-0.0008170927176252007,0.230350524187088,-0.0010613021440804005,0.0054887644946575165,-0.003651827573776245,-0.008968067355453968
0.87,-0.0008564793970435858,0.23035147786140442,-0.0010318453423678875,0.005472664255648851,-0.0036696498282253742,-0.008834014646708965
0.872,-0.0008941937703639269,0.23045828938484192,-0.000987862586043775,0.005453620105981827,-0.003702403511852026,-0.008736435323953629
0.874,-0.0008903101552277803,0.23064997792243958,-0.0009551348630338907,0.005437401123344898,-0.003744480200111866,-0.008676276542246342
0.876,-0.0007949779974296689,0.23093131184577942,-0.0008636185666546226,0.005424061790108681,-0.0037986410316079855,-0.008660159073770046
0.878,-0.0006862266454845667,0.23124602437019348,-0.0007698976551182568,0.0054178982973098755,-0.0038618918042629957,-0.008682524785399437
0.88,-0.0006232034647837281,0.23163512349128723,-0.0006603391375392675,0.0054225618951022625,-0.0039348118007183075,-0.008738601580262184
0.882,-0.0005046675796620548,0.23206523060798645,-0.0006016911356709898,0.005438393913209438,-0.004011144861578941,-0.008824169635772705
0.884,-0.00041064908145926893,0.23248198628425598,-0.0005322212819010019,0.005461256951093674,-0.0040810913778841496,-0.008933750912547112
0.886,-0.0003578242030926049,0.23290160298347473,-0.00044553499901667237,0.005492746829986572,-0.004147055558860302,-0.009061322547495365
0.888,-0.00030811663600616157,0.2333250343799591,-0.00035325309727340937,0.005520540289580822,-0.004198524635285139,-0.00920070894062519
0.89,-0.0002065340813715011,0.2338123619556427,-0.00026368623366579413,0.0055409823544323444,-0.004228856414556503,-0.009346259757876396
0.892,-0.00011855276534333825,0.2342405617237091,-0.0002074608491966501,0.0055538746528327465,-0.004236738197505474,-0.009488378651440144
0.894,-8.866941789165139e-05,0.234622985124588,-0.00017794025188777596,0.005554294213652611,-0.004219370428472757,-0.009620251134037971
0.896,-8.452136535197496e-05,0.23493197560310364,-0.00014479363744612783,0.005536653101444244,-0.004179099109023809,-0.009732553735375404
0.898,-7.481797365471721e-05,0.2351866066455841,-0.00013490488345269114,0.0055051459930837154,-0.004117457661777735,-0.009810402058064938
0.9,-4.9186481192009524e-05,0.2353840172290802,-0.00012630753917619586,0.005464434623718262,-0.004038308747112751,-0.009859434328973293
0.902,-8.04715818958357e-05,0.23550036549568176,-9.301956015406176e-05,0.0054100388661026955,-0.003943615593016148,-0.009872009977698326
0.904,-0.0001325890189036727,0.23560240864753723,-6.510686944238842e-05,0.005356166511774063,-0.003847434651106596,-0.009850334376096725
0.906,-0.0001427369425073266,0.2356272041797638,-8.233705011662096e-05,0.005315762013196945,-0.0037552800495177507,-0.00980717595666647
0.908,-0.00012641069770324975,0.2355985939502716,-9.546616638544947e-05,0.005290550645440817,-0.0036707271356135607,-0.009746062569320202
0.91,-0.00010086224210681394,0.2355833351612091,-6.469707295764238e-05,0.005278483498841524,-0.0035975666251033545,-0.00966753251850605
0.912,-6.419267447199672e-05,0.2355060875415802,-1.1367370461812243e-05,0.0052903881296515465,-0.0035392113495618105,-0.009583882056176662
0.914,-5.459358362713829e-06,0.23529914021492004,3.813657895079814e-05,0.005325776524841785,-0.003495397511869669,-0.00950818881392479
0.916,7.268191984621808e-05,0.2351255714893341,5.9696172684198245e-05,0.0053850566036999226,-0.0034676422365009785,-0.009445203468203545
0.918,0.0001960699155461043,0.23501494526863098,9.65788058238104e-05,0.005460983142256737,-0.0034509648103266954,-0.009400497190654278
0.92,0.00030628684908151627,0.23495009541511536,0.0001772775867721066,0.005551174748688936,-0.0034418695140630007,-0.009375830180943012
0.922,0.00043883820762857795,0.23488333821296692,0.0002709441469050944,0.005648464895784855,-0.003445941722020507,-0.009372381493449211
0.924,0.000627028988674283,0.2348518669605255,0.0004004536895081401,0.005738753825426102,-0.0034623579122126102,-0.009391345083713531
0.926,0.0008184502949006855,0.23487761616706848,0.0005684012430720031,0.005813996307551861,-0.0034778073895722628,-0.009434272535145283
0.928,0.000980214448645711,0.23496535420417786,0.000790622376371175,0.00587109662592411,-0.0034952617716044188,-0.009493264369666576
0.93,0.0011498782550916076,0.2351236641407013,0.0010489500127732754,0.005897429306060076,-0.0035136574879288673,-0.009560293518006802
0.932,0.0013474769657477736,0.23536112904548645,0.0013638886157423258,0.005890145432204008,-0.003532916307449341,-0.009638020768761635
0.934,0.0015726428246125579,0.23574355244636536,0.0016247360035777092,0.005851927679032087,-0.0035452167503535748,-0.009720271453261375
0.936,0.0017877042992040515,0.2362242043018341,0.0019153131870552897,0.005788955371826887,-0.0035497022327035666,-0.009797005914151669
0.938,0.00198119948618114,0.23679926991462708,0.0022526110988110304,0.005709491670131683,-0.0035462325904518366,-0.009872197173535824
0.94,0.0021552417892962694,0.23740676045417786,0.002556650433689356,0.005622877739369869,-0.0035295768175274134,-0.009947685524821281
0.942,0.0022985339164733887,0.23810294270515442,0.002847799565643072,0.005548681132495403,-0.003497448982670903,-0.01002905797213316
0.944,0.002404681406915188,0.23888877034187317,0.0031951202545315027,0.005503924563527107,-0.003447955474257469,-0.010112822987139225
0.946,0.002498697955161333,0.23978331685066223,0.003489662427455187,0.005497383885085583,-0.0033770985901355743,-0.010211154818534851
0.948,0.0025625010021030903,0.24083808064460754,0.003746502799913287,0.005539287347346544,-0.003285609884187579,-0.010331575758755207
0.95,0.0026560353580862284,0.24192526936531067,0.004001694265753031,0.005633708089590073,-0.0031833015382289886,-0.010479593649506569
0.952,0.002702949335798621,0.2430448830127716,0.004218157380819321,0.0057674590498209,-0.0030693477019667625,-0.010654925368726254
0.954,0.0027207753155380487,0.24419882893562317,0.004371454939246178,0.005942031741142273,-0.002947627566754818,-0.010853675194084644
0.956,0.0027084203902632,0.24535754323005676,0.004516928922384977,0.006156108342111111,-0.0028305589221417904,-0.011076407507061958
0.958,0.0026397183537483215,0.24649813771247864,0.004634467419236898,0.0063850246369838715,-0.0027201480697840452,-0.011307042092084885
0.96,0.0025489861145615578,0.24766448140144348,0.004674599040299654,0.006610201671719551,-0.0026221212465316057,-0.011540661565959454
0.962,0.002472135704010725,0.24880221486091614,0.004636650439351797,0.006826452910900116,-0.002542594913393259,-0.011767691001296043
0.964,0.0023288950324058533,0.24982550740242004,0.004556980915367603,0.007027478888630867,-0.0024902450386434793,-0.011983229778707027
0.966,0.002218276495113969,0.2507648766040802,0.004442539997398853,0.007204747758805752,-0.002463237615302205,-0.012176130898296833
0.968,0.002098922850564122,0.25161078572273254,0.004327107220888138,0.007356529589742422,-0.0024613826535642147,-0.012342865578830242
0.97,0.0019718073308467865,0.2523203194141388,0.004213165026158094,0.007482974324375391,-0.0024868438486009836,-0.012481095269322395
0.972,0.0018762013642117381,0.25293734669685364,0.004066397435963154,0.007586703635752201,-0.002533012768253684,-0.01258581131696701
0.974,0.001781759550794959,0.2534017860889435,0.003943266347050667,0.007665054406970739,-0.0025875335559248924,-0.012662283144891262
0.976,0.0017221759771928191,0.2536974251270294,0.0038014017045497894,0.007721250876784325,-0.002644130028784275,-0.01271504070609808
0.978,0.0016512615839019418,0.2539091408252716,0.0036372090689837933,0.007761478889733553,-0.002696767682209611,-0.012744832783937454
0.98,0.0015920721925795078,0.25399497151374817,0.003435078077018261,0.007788431830704212,-0.0027493536472320557,-0.012755118310451508
0.982,0.0015361106488853693,0.25383856892585754,0.003238624893128872,0.0078104413114488125,-0.002791827777400613,-0.012756219133734703
0.984,0.0014749167021363974,0.2535572350025177,0.0030458406545221806,0.007843034341931343,-0.002820810303092003,-0.012758512981235981
0.986,0.0013758331770077348,0.25318053364753723,0.002890823408961296,0.007886379957199097,-0.0028406293131411076,-0.012768839485943317
0.988,0.0012674987083300948,0.2527294456958771,0.0027695742901414633,0.007940002717077732,-0.0028579221107065678,-0.012789233587682247
0.99,0.0011707093799486756,0.25217440724372864,0.0026091623585671186,0.008009926415979862,-0.0028753220103681087,-0.012829430401325226
0.992,0.0010537419002503157,0.251555472612381,0.0024504843167960644,0.008100406266748905,-0.0028922471683472395,-0.012886316515505314
0.994,0.0009786093141883612,0.25092795491218567,0.0023109144531190395,0.008208218961954117,-0.0029131644405424595,-0.012960901483893394
0.996,0.0008832296007312834,0.25018981099128723,0.002124010119587183,0.00831914134323597,-0.002935780445113778,-0.013042964041233063
0.998,0.000748081598430872,0.24935725331306458,0.0019342221785336733,0.008424365893006325,-0.0029576015658676624,-0.013128767721354961
1.0,0.0006051102536730468,0.24848654866218567,0.0017908636946231127,0.008524177595973015,-0.0029779712203890085,-0.01320958137512207
1.002,0.0004837183514609933,0.2476072609424591,0.0016363824252039194,0.00861228909343481,-0.002993194153532386,-0.013276001438498497
1.004,0.00036389060551300645,0.24668601155281067,0.0014545245794579387,0.008677717298269272,-0.0029993897769600153,-0.013323442079126835
1.006,0.00021977501455694437,0.24577239155769348,0.0012241172371432185,0.008717893622815609,-0.003008014988154173,-0.013350243680179119
1.008,0.00011530352639965713,0.2448749840259552,0.0010017167078331113,0.008721261285245419,-0.003029999788850546,-0.013345969840884209
1.01,-2.757352194748819e-05,0.24392130970954895,0.0007884535589255393,0.0086813410744071,-0.003065320895984769,-0.013310672715306282
1.012,-0.00015847882605157793,0.2429361641407013,0.0005676050786860287,0.008603907190263271,-0.003121845657005906,-0.013247396796941757
1.014,-0.00026733166305348277,0.24197104573249817,0.000389239372452721,0.00848984532058239,-0.0031988038681447506,-0.013149583712220192
1.016,-0.000375763833289966,0.24102213978767395,0.0002317743346793577,0.008344067260622978,-0.003292738227173686,-0.013029435649514198
1.018,-0.00044725777115672827,0.24008753895759583,5.5404070735676214e-05,0.008177884854376316,-0.0033943362068384886,-0.012892673723399639
1.02,-0.0004916732432320714,0.23923972249031067,-0.00010827639198396355,0.00799691304564476,-0.0035001388750970364,-0.012738578952848911
1.022,-0.0004603949491865933,0.23845484852790833,-0.0002270265104016289,0.00780871557071805,-0.003596964990720153,-0.012571106664836407
1.024,-0.00041686685290187597,0.23771575093269348,-0.00030737437191419303,0.007622263394296169,-0.003677354659885168,-0.012396888807415962
1.026,-0.00035077842767350376,0.23696520924568176,-0.00035719890729524195,0.007448212243616581,-0.0037386694457381964,-0.012219387106597424
1.028,-0.0002532111539039761,0.23630812764167786,-0.0003878201241604984,0.007300995290279388,-0.0037779673002660275,-0.012039469555020332
1.03,-0.00010092336742673069,0.235782653093338,-0.0003943992778658867,0.0071788267232477665,-0.003796560689806938,-0.011856229044497013
1.032,7.889086555223912e-05,0.2354278862476349,-0.0003382162540219724,0.007080804090946913,-0.003796983975917101,-0.011672819033265114
1.034,0.00028890074463561177,0.2352171242237091,-0.0002777877089101821,0.007015807554125786,-0.0037847324274480343,-0.011492734774947166
1.036,0.0005080270348116755,0.23514273762702942,-0.00018545184866525233,0.006978467106819153,-0.0037688936572521925,-0.011317440308630466
1.038,0.0007063032826408744,0.23520472645759583,-7.140614616218954e-05,0.006968448404222727,-0.0037484834901988506,-0.011148550547659397
1.04,0.0009045656770467758,0.2354145348072052,5.6187658628914505e-05,0.006990366615355015,-0.003729673335328698,-0.010990473441779613
1.042,0.001038494985550642,0.23577407002449036,0.00022738469124305993,0.007036272902041674,-0.003711473662406206,-0.010851710103452206
1.044,0.0011148909106850624,0.23615458607673645,0.0003819342528004199,0.007095799315720797,-0.003690639277920127,-0.010723761282861233
1.046,0.0011820801300927997,0.23666194081306458,0.0005004030535928905,0.007159205619245768,-0.0036743630189448595,-0.01060003973543644
1.048,0.0012409200426191092,0.23729804158210754,0.0006352585041895509,0.007208107504993677,-0.00366144347935915,-0.010478122159838676
1.05,0.0012446378823369741,0.23796656727790833,0.0007785683847032487,0.007243013940751553,-0.0036505258176475763,-0.010357005521655083
1.052,0.0012117899022996426,0.23865988850593567,0.0009182908106595278,0.007246904540807009,-0.0036464398726820946,-0.01022949069738388
1.054,0.0011199366999790072,0.2393503487110138,0.0009774720529094338,0.007213130593299866,-0.0036520634312182665,-0.010084460489451885
1.056,0.0009620527271181345,0.24009612202644348,0.0010579240042716265,0.007147490046918392,-0.003666528267785907,-0.009926758706569672
1.058,0.0008162235608324409,0.2408142387866974,0.0011100431438535452,0.007059857249259949,-0.0036900790873914957,-0.0097555723041296
1.06,0.0006281915120780468,0.24146941304206848,0.00109431694727391,0.0069583021104335785,-0.003716509323567152,-0.009571628645062447
1.062,0.00045585117186419666,0.2421446144580841,0.001052633160725236,0.006856318097561598,-0.0037366121541708708,-0.009377461858093739
1.064,0.00030888020410202444,0.2427835762500763,0.0009856496471911669,0.00677600409835577,-0.003747110953554511,-0.009170321747660637
1.066,0.0001751350937411189,0.24335959553718567,0.0008726525120437145,0.006726153660565615,-0.0037466068752110004,-0.008949327282607555
1.068,3.6579993320629e-05,0.2438526451587677,0.000746473902836442,0.006711829919368029,-0.003740387037396431,-0.008719030767679214
1.07,-6.399836274795234e-05,0.24419310688972473,0.0006130581605248153,0.006725148763507605,-0.003722170600667596,-0.008479750715196133
1.072,-0.0001621161209186539,0.24448397755622864,0.0004961428930982947,0.006767316721379757,-0.0036908909678459167,-0.008228589780628681
1.074,-0.00022029149113222957,0.24477294087409973,0.0003740830288734287,0.006838873028755188,-0.0036529244389384985,-0.007972157560288906
1.076,-0.0002683224738575518,0.24495986104011536,0.00022509790142066777,0.006923609413206577,-0.0036150889936834574,-0.007717887870967388
1.078,-0.0003020090516656637,0.24506571888923645,4.4527572754304856e-05,0.007008376531302929,-0.0035813646391034126,-0.007471246179193258
1.08,-0.0003129931865260005,0.245151549577713,-0.00013772818783763796,0.007082424592226744,-0.0035547432489693165,-0.00723954476416111
1.082,-0.0003154406149405986,0.2451811134815216,-0.0003016783157363534,0.007137088570743799,-0.0035383484791964293,-0.007024842314422131
1.084,-0.0002591146039776504,0.24512770771980286,-0.0004767098871525377,0.007168910466134548,-0.003526687389239669,-0.006827688310295343
1.086,-0.0002246665389975533,0.24502471089363098,-0.0006317402585409582,0.0071731978096067905,-0.003525358159095049,-0.006644689943641424
1.088,-0.0002572577213868499,0.24479201436042786,-0.0007757769781164825,0.007147972472012043,-0.0035351740662008524,-0.006480363663285971
1.09,-0.00027292780578136444,0.24450209736824036,-0.0009172211866825819,0.007095614913851023,-0.0035565693397074938,-0.00633612833917141
1.092,-0.00026380567578598857,0.2442646324634552,-0.0010028408141806722,0.007027133367955685,-0.003576830727979541,-0.006206450518220663
1.094,-0.00027949819923378527,0.24394133687019348,-0.0011122090509161353,0.006948381662368774,-0.003594406647607684,-0.006086704786866903
1.096,-0.00034477500594221056,0.24353602528572083,-0.0012698366772383451,0.006864084862172604,-0.0036085231695324183,-0.005978960078209639
1.098,-0.0004119618097320199,0.24306204915046692,-0.00135696935467422,0.00678347097709775,-0.003615257330238819,-0.0058926790952682495
1.1,-0.0004130481684114784,0.2425871193408966,-0.001342943636700511,0.006718116346746683,-0.0036157930735498667,-0.0058261496014893055
1.102,-0.00044738268479704857,0.2420530617237091,-0.0013283517910167575,0.006676364690065384,-0.0036123669706285,-0.005770291201770306
1.104,-0.000522685528267175,0.24142172932624817,-0.0013494997983798385,0.006647436413913965,-0.003607674967497587,-0.0057205152697861195
1.106,-0.0005644065095111728,0.2408447563648224,-0.0013160285307094455,0.006637358106672764,-0.0036009829491376877,-0.005673639941960573
1.108,-0.0005497977836057544,0.24035361409187317,-0.001223264029249549,0.006644129753112793,-0.0035936725325882435,-0.005626793019473553
1.11,-0.0005249672685749829,0.23986533284187317,-0.0011240349849686027,0.006667066365480423,-0.003596133552491665,-0.005573934875428677
1.112,-0.0004963941173627973,0.23931410908699036,-0.0010090157156810164,0.006704746279865503,-0.0036096852272748947,-0.0055206394754350185
1.114,-0.00040036230348050594,0.23882678151130676,-0.0008392164600081742,0.006750802509486675,-0.003641049610450864,-0.005471480078995228
1.116,-0.00024251731520053,0.23840811848640442,-0.0005941285635344684,0.006803646683692932,-0.0036929778289049864,-0.005434373859316111
1.118,-0.00010851062688743696,0.23803237080574036,-0.0003290008462499827,0.0068575479090213776,-0.0037590740248560905,-0.005418987013399601
1.12,4.59047696494963e-05,0.23768332600593567,-5.3042156650917605e-05,0.006910989992320538,-0.003826234955340624,-0.0054383473470807076
1.122,0.00030346610583364964,0.23737910389900208,0.00021174646099098027,0.006967613007873297,-0.0038901055231690407,-0.0054978919215500355
1.124,0.0005252193077467382,0.23707106709480286,0.00046640881919302046,0.007026380393654108,-0.003947715740650892,-0.005595196969807148
1.126,0.0007613976486027241,0.23687461018562317,0.0007641821866855025,0.007080407813191414,-0.003997325897216797,-0.005738302133977413
1.128,0.001015478977933526,0.23676970601081848,0.0010541994124650955,0.00712919607758522,-0.004029412753880024,-0.005923744756728411
1.13,0.0012505595805123448,0.2366648018360138,0.001285527367144823,0.007178583648055792,-0.004041566979140043,-0.006139795761555433
1.132,0.0014378060586750507,0.23665621876716614,0.0015222093788906932,0.00723021337762475,-0.004038298036903143,-0.0063779340125620365
1.134,0.0016122376546263695,0.2366495430469513,0.0017033099429681897,0.007278932258486748,-0.004022504203021526,-0.006621708162128925
1.136,0.00172999978531152,0.2366199791431427,0.0018169472459703684,0.007323151454329491,-0.0039968229830265045,-0.006861703470349312
1.138,0.0018001934513449669,0.23655131459236145,0.001890059793367982,0.007375139743089676,-0.003962845541536808,-0.007087215781211853
1.14,0.0018282271921634674,0.23648932576179504,0.0019323163433000445,0.007438592612743378,-0.003916781395673752,-0.007292653433978558
1.142,0.0018081997986882925,0.23646262288093567,0.0018875865498557687,0.007505518849939108,-0.003854987910017371,-0.007466232869774103
1.144,0.0017485440475866199,0.23642638325691223,0.0017807020340114832,0.007582695689052343,-0.003780702129006386,-0.007603693287819624
1.146,0.0016490407288074493,0.23636534810066223,0.0016161790117621422,0.007672520354390144,-0.0037037739530205727,-0.007707138545811176
1.148,0.0015647957334294915,0.23633483052253723,0.0014325894881039858,0.007774559780955315,-0.003612731583416462,-0.007780461106449366
1.15,0.0014056551735848188,0.23627570271492004,0.0012074571568518877,0.007883825339376926,-0.003504746127873659,-0.007824613712728024
1.152,0.0012314323103055358,0.23613932728767395,0.0009541881154291332,0.007998929359018803,-0.0033907166216522455,-0.007839448750019073
1.154,0.0010393928969278932,0.23603060841560364,0.0007292343652807176,0.008110616356134415,-0.0032657193951308727,-0.007832136005163193
1.156,0.0008341147331520915,0.23587802052497864,0.0005132717778906226,0.008207549341022968,-0.0031376411207020283,-0.007813089527189732
1.158,0.0006249715806916356,0.23568442463874817,0.00024889124324545264,0.008292335085570812,-0.003011473221704364,-0.007786233443766832
1.16,0.0004163542471360415,0.23546507954597473,8.856047315930482e-06,0.008351767435669899,-0.002894504927098751,-0.007754730526357889
1.162,0.00021850308985449374,0.23527243733406067,-0.00021748399012722075,0.008375795558094978,-0.002793746767565608,-0.0077249095775187016
1.164,5.4207106586545706e-05,0.23504450917243958,-0.0003478651342447847,0.008359435945749283,-0.002707650186493993,-0.007701854221522808
1.166,-8.271096157841384e-05,0.2347441017627716,-0.0004010743577964604,0.008308556862175465,-0.0026365790981799364,-0.007681697141379118
1.168,-0.00021352576732169837,0.2344370186328888,-0.0004247309116180986,0.008230231702327728,-0.0025835989508777857,-0.007663985248655081
1.17,-0.00032311544055119157,0.23413851857185364,-0.00039643971831537783,0.008134491741657257,-0.0025511228013783693,-0.007647328544408083
1.172,-0.00036449002800509334,0.23376372456550598,-0.0003355753142386675,0.008030598983168602,-0.002535895211622119,-0.007629117928445339
1.174,-0.0003732162876985967,0.23341277241706848,-0.00016492544091306627,0.007924619130790234,-0.002535827225074172,-0.007606594357639551
1.176,-0.0003470793308224529,0.23315337300300598,5.2511473768390715e-05,0.007824230007827282,-0.002544780494645238,-0.00758083863183856
1.178,-0.0002882956468965858,0.2328958809375763,0.0002964027808047831,0.007738557644188404,-0.0025601701345294714,-0.007555768825113773
1.18,-0.00018761794490274042,0.23270323872566223,0.000612755655311048,0.007667829282581806,-0.0025755297392606735,-0.007528729271143675
1.182,-4.40894509665668e-05,0.23254111409187317,0.0009257225901819766,0.007611969485878944,-0.0025936828460544348,-0.007504771463572979
1.184,8.415518095716834e-05,0.23236659169197083,0.0013119152281433344,0.007569269277155399,-0.0026216411497443914,-0.007485864218324423
1.186,0.00022081582574173808,0.2322540581226349,0.0017037270590662956,0.007536272518336773,-0.0026588847395032644,-0.007475043646991253
1.188,0.0003896112903021276,0.23220160603523254,0.0020840999204665422,0.007515321485698223,-0.00270943739451468,-0.007474358659237623
1.19,0.0005731320707127452,0.2321634590625763,0.002455257112160325,0.007503025233745575,-0.002779182745143771,-0.0074879624880850315
1.192,0.0007545982953161001,0.23215964436531067,0.0028343915473669767,0.007492287550121546,-0.0028761373832821846,-0.007519477512687445
1.194,0.0008864219998940825,0.23219016194343567,0.0031866987701505423,0.007485708221793175,-0.003000087570399046,-0.007566886488348246
1.196,0.0010476441821083426,0.23223212361335754,0.0034935662988573313,0.007493830285966396,-0.003138224594295025,-0.007629507686942816
1.198,0.0012750755995512009,0.23229220509529114,0.0037661446258425713,0.0075134276412427425,-0.0032821164932101965,-0.007711334154009819
1.2,0.001426245435141027,0.2323770821094513,0.004002969712018967,0.007539005950093269,-0.0034253401681780815,-0.007810573559254408
1.202,0.0015422163996845484,0.23244765400886536,0.004113608971238136,0.007574455346912146,-0.003556223586201668,-0.007920457050204277
1.204,0.0016197896329686046,0.23248103260993958,0.004142921417951584,0.0076261549256742,-0.0036643457133322954,-0.008043383248150349
1.206,0.0016635141801089048,0.23248103260993958,0.004088708199560642,0.0076835863292217255,-0.0037306128069758415,-0.008169342763721943
1.208,0.0016618157969787717,0.2324676811695099,0.00393247464671731,0.0077435048297047615,-0.003756005084142089,-0.008292043581604958
1.21,0.0015705234836786985,0.23236945271492004,0.0037054221611469984,0.007809451315551996,-0.003737886669114232,-0.008409278467297554
1.212,0.001498966827057302,0.232303649187088,0.0034301194828003645,0.007866893894970417,-0.0036798270884901285,-0.008517851121723652
1.214,0.0014101113192737103,0.23227408528327942,0.003107771510258317,0.007915564812719822,-0.0035835029557347298,-0.008611262775957584
1.216,0.00128483260050416,0.23214629292488098,0.0026919350493699312,0.00794933270663023,-0.0034628070425242186,-0.008689249865710735
1.218,0.0010978986974805593,0.23195937275886536,0.0021835402585566044,0.007963883690536022,-0.003335024230182171,-0.008751031011343002
1.22,0.0008890844765119255,0.23176386952400208,0.0016638105735182762,0.007947529666125774,-0.003211387898772955,-0.008800642564892769
1.222,0.0006785646546632051,0.2316599190235138,0.0011502468260005116,0.00789566244930029,-0.0030978580471128225,-0.008842728100717068
1.224,0.00041153712663799524,0.2315378487110138,0.0005961057031527162,0.007810121867805719,-0.003002600045874715,-0.008877189829945564
1.226,0.0001198475802084431,0.2314005196094513,-8.306478775921278e-06,0.007691148668527603,-0.002932259812951088,-0.00890624150633812
1.228,-0.00014970761549193412,0.23128321766853333,-0.0006066513014957309,0.007547680288553238,-0.0028873621486127377,-0.008932380005717278
1.23,-0.00042425026185810566,0.23124316334724426,-0.0011923398124054074,0.0073808953166007996,-0.002865161281079054,-0.008954755961894989
1.232,-0.0007550098816864192,0.23123744130134583,-0.0017370200948789716,0.007203917484730482,-0.0028644250705838203,-0.008979002013802528
1.234,-0.0010517293121665716,0.2312631905078888,-0.0022332880180329084,0.007031154353171587,-0.0028759450651705265,-0.00900089181959629
1.236,-0.0013414750574156642,0.23131850361824036,-0.0026710545644164085,0.006868286523967981,-0.0028889235109090805,-0.009018532931804657
1.238,-0.0016349535435438156,0.23136523365974426,-0.0030640813056379557,0.006726492196321487,-0.0028948476538062096,-0.009031885303556919
1.24,-0.001922472147271037,0.23143485188484192,-0.003409590106457472,0.006607874296605587,-0.0028944218065589666,-0.009040850214660168
1.242,-0.0021789679303765297,0.23153403401374817,-0.003699777415022254,0.006511252839118242,-0.00288393534719944,-0.009045225568115711
1.244,-0.002402687445282936,0.2317524254322052,-0.0039002641569823027,0.00643822830170393,-0.002860528416931629,-0.00903781596571207
1.246,-0.0026154760271310806,0.23202136158943176,-0.004025985486805439,0.0063820285722613335,-0.002821507165208459,-0.009018185548484325
1.248,-0.0027968042995780706,0.2323007881641388,-0.004113964270800352,0.006335762329399586,-0.002772378735244274,-0.008990616537630558
1.25,-0.002912266179919243,0.23255828022956848,-0.004158928524702787,0.006294908933341503,-0.002721572993323207,-0.008959269151091576
1.252,-0.0030265238601714373,0.23273947834968567,-0.004115486517548561,0.006256559398025274,-0.002674918621778488,-0.008928540162742138
1.254,-0.003134452737867832,0.23290160298347473,-0.004030633717775345,0.006220409180969,-0.0026365849189460278,-0.00889892689883709
1.256,-0.0031326201278716326,0.23310187458992004,-0.003879534313455224,0.0061875199899077415,-0.0026108024176210165,-0.008874139748513699
1.258,-0.003143720794469118,0.2332172691822052,-0.003709098557010293,0.006159497424960136,-0.0026014919858425856,-0.008855314925312996
1.26,-0.003109875600785017,0.23336508870124817,-0.003476710757240653,0.006139833014458418,-0.002612107200548053,-0.008853400126099586
1.262,-0.0030627588275820017,0.23354247212409973,-0.003217737190425396,0.006132542155683041,-0.0026395204477012157,-0.008862567134201527
1.264,-0.0029693301767110825,0.23364737629890442,-0.002975961659103632,0.006137184798717499,-0.0026809507980942726,-0.00887266080826521
1.266,-0.0028562648221850395,0.23375514149665833,-0.002706116996705532,0.0061549656093120575,-0.002734479494392872,-0.008882530964910984
1.268,-0.002728515537455678,0.23386099934577942,-0.002401995239779353,0.00618406618013978,-0.0027889430057257414,-0.008891468867659569
1.27,-0.002567692194133997,0.2339954674243927,-0.0020918359514325857,0.006229954306036234,-0.002837706357240677,-0.008895236067473888
1.272,-0.002385487547144294,0.23409560322761536,-0.0017726372461766005,0.006289699114859104,-0.0028762854635715485,-0.008892659097909927
1.274,-0.0022206550929695368,0.23421481251716614,-0.0014825959224253893,0.006368348374962807,-0.002901419997215271,-0.008882061578333378
1.276,-0.002081716898828745,0.23436740040779114,-0.0012421708088368177,0.006465114187449217,-0.0029100757092237473,-0.008871931582689285
1.278,-0.0019259676337242126,0.23454192280769348,-0.001006153179332614,0.006576127372682095,-0.002904220949858427,-0.008871749974787235
1.28,-0.001749404240399599,0.23475268483161926,-0.0007419483154080808,0.006705956999212503,-0.0028874657582491636,-0.008884777314960957
1.282,-0.0015752147883176804,0.2350626289844513,-0.00046941140317358077,0.006855606567114592,-0.002861322835087776,-0.008921181783080101
1.284,-0.001409957418218255,0.23540213704109192,-0.00029308878583833575,0.007019037380814552,-0.0028233707416802645,-0.008988076820969582
1.286,-0.0012558118905872107,0.2357359230518341,-0.0001478839694755152,0.007183299399912357,-0.002776817884296179,-0.009079031646251678
1.288,-0.0011107811005786061,0.23609641194343567,-1.464536580897402e-05,0.007335328962653875,-0.0027277732733637094,-0.009196611121296883
1.29,-0.000987557228654623,0.2364664375782013,9.2219517682679e-05,0.00747300498187542,-0.0026744739152491093,-0.00933926459401846
1.292,-0.0008473640773445368,0.23688414692878723,0.0001774073316482827,0.00758854765444994,-0.0026106571312993765,-0.009493596851825714
1.294,-0.0006960342871025205,0.2373209297657013,0.00016904211952351034,0.007671112660318613,-0.002531661419197917,-0.009649176150560379
1.296,-0.0005298469914123416,0.23777106404304504,0.0001812287518987432,0.007719549350440502,-0.002439543604850769,-0.009802715852856636
1.298,-0.00039445143193006516,0.23820212483406067,0.00015920461737550795,0.007728432770818472,-0.002334492513909936,-0.009948577731847763
1.3,-0.000313970900606364,0.23859980702400208,0.00011406654812162742,0.007707339245826006,-0.0022198250517249107,-0.010086596012115479
1.302,-0.00022107055701781064,0.23895838856697083,4.945011460222304e-05,0.007660495117306709,-0.0020977656822651625,-0.010218765586614609
1.304,-0.00012387134484015405,0.2393045723438263,-2.990762186527718e-05,0.007594345603138208,-0.001971307210624218,-0.010345794260501862
1.306,-7.247178291436285e-05,0.23959258198738098,-0.00011471570905996487,0.007523045875132084,-0.0018482032464817166,-0.010475982911884785
1.308,-3.7873658584430814e-05,0.23980048298835754,-0.00020224912441335618,0.007457196246832609,-0.0017324240179732442,-0.010620957240462303
1.31,1.358070585411042e-05,0.23993685841560364,-0.00028783027664758265,0.00740579329431057,-0.0016252518398687243,-0.010785284452140331
1.312,4.549720324575901e-05,0.23998549580574036,-0.00034817191772162914,0.007377072237432003,-0.0015265335096046329,-0.010971488431096077
1.314,0.00010996087803505361,0.23999884724617004,-0.00037909968523308635,0.007374693173915148,-0.0014398127095773816,-0.011180054396390915
1.316,0.00016797104035504162,0.2399320900440216,-0.0003900465671904385,0.007399227470159531,-0.001362267998047173,-0.011405983939766884
1.318,0.00018752619507722557,0.23980143666267395,-0.00038610317278653383,0.007452142424881458,-0.0012928963406011462,-0.011646872386336327
1.32,0.0001980974047910422,0.23960593342781067,-0.00037860183510929346,0.00753381010144949,-0.0012369680916890502,-0.011894768103957176
1.322,0.00019047230307478458,0.23928168416023254,-0.00034948630491271615,0.0076375300996005535,-0.0012020181166008115,-0.012136786244809628
1.324,0.00021403242135420442,0.23885634541511536,-0.0002930069458670914,0.007754393387585878,-0.0011823619715869427,-0.012361481785774231
1.326,0.00023778091417625546,0.2383890450000763,-0.00025098156766034663,0.007882015779614449,-0.001185353845357895,-0.012561878189444542
1.328,0.00023720065655652434,0.23788931965827942,-0.0002083152357954532,0.008018216118216515,-0.0012187110260128975,-0.012734532356262207
1.33,0.00022978150809649378,0.23734095692634583,-0.00016162208339665085,0.008157201111316681,-0.0012806374579668045,-0.01287112943828106
1.332,0.0002610725350677967,0.23673442006111145,-5.745314047089778e-05,0.008298534899950027,-0.0013657129602506757,-0.012970875017344952
1.334,0.0003268978325650096,0.23615553975105286,9.671677980804816e-05,0.008440976962447166,-0.0014695574063807726,-0.013041208498179913
1.336,0.0003915373235940933,0.2355652153491974,0.00026929634623229504,0.008579038083553314,-0.0015914994291961193,-0.01308563631027937
1.338,0.0004519545182120055,0.23493865132331848,0.00041664636228233576,0.008717184886336327,-0.0017247891519218683,-0.01311475969851017
1.34,0.0005257487064227462,0.23429396748542786,0.0005363335367292166,0.008855649270117283,-0.001860960153862834,-0.013136418536305428
1.342,0.0006182311335578561,0.23364928364753723,0.0006751708569936454,0.008994033560156822,-0.0019958706106990576,-0.013150839135050774
1.344,0.0006881282315589488,0.23303893208503723,0.0007813757983967662,0.009127650409936905,-0.002126219915226102,-0.013162237592041492
1.346,0.0007512980373576283,0.2324247658252716,0.000853734731208533,0.009259632788598537,-0.0022460559848695993,-0.01318359188735485
1.348,0.0008314976585097611,0.23184111714363098,0.0009762863046489656,0.009397551417350769,-0.0023529964964836836,-0.013215468265116215
1.35,0.0009308196604251862,0.23127654194831848,0.0011182185262441635,0.00954266358166933,-0.0024468344636261463,-0.013252651318907738
1.352,0.0010280736023560166,0.2307157814502716,0.001225408399477601,0.009699062444269657,-0.0025310993660241365,-0.013297696597874165
1.354,0.0010880965273827314,0.23014548420906067,0.001309093669988215,0.009864370338618755,-0.0026031709276139736,-0.013345161452889442
1.356,0.0011174886021763086,0.22960761189460754,0.0013697859831154346,0.010048978962004185,-0.0026623059529811144,-0.01339395996183157
1.358,0.0011198916472494602,0.2290678322315216,0.0014162645675241947,0.010254106484353542,-0.0027094923425465822,-0.013451619073748589
1.36,0.001123476424254477,0.22856619954109192,0.0014535973314195871,0.010475847870111465,-0.0027381342370063066,-0.01351363305002451
1.362,0.0011375360190868378,0.2281036674976349,0.0014173422241583467,0.010716666467487812,-0.0027518286369740963,-0.013573998585343361
1.364,0.0011409753933548927,0.22768691182136536,0.0013821872416883707,0.01097965706139803,-0.0027537569403648376,-0.01363656297326088
1.366,0.0010998002253472805,0.22729113698005676,0.0013160506496205926,0.011266051791608334,-0.002737588481977582,-0.013703512959182262
1.368,0.001075508538633585,0.2268982231616974,0.0012190723791718483,0.01157050859183073,-0.002697430085390806,-0.013775697909295559
1.37,0.0010136172641068697,0.2265177071094513,0.001103272195905447,0.011887704022228718,-0.0026338619645684958,-0.0138555271551013
1.372,0.0009264241671189666,0.226169615983963,0.0009856312535703182,0.012207315303385258,-0.0025450224056839943,-0.013935745693743229
1.374,0.0008254837593995035,0.22590163350105286,0.0008789703133516014,0.012516997754573822,-0.0024251900613307953,-0.014017724432051182
1.376,0.0006932205869816244,0.22563078999519348,0.0007707389886491001,0.012813102453947067,-0.002275975188240409,-0.014107695780694485
1.378,0.0005461267428472638,0.22539332509040833,0.0006640059291385114,0.013091831468045712,-0.0021104791667312384,-0.014212614856660366
1.38,0.0004324904875829816,0.22523215413093567,0.0005550499772652984,0.01334837730973959,-0.0019319822313264012,-0.014340430498123169
1.382,0.0003571590350475162,0.22518256306648254,0.00042424799175933003,0.01357921864837408,-0.0017530226614326239,-0.014494700357317924
1.384,0.00030880080885253847,0.2252378761768341,0.0002998424170073122,0.013787908479571342,-0.0015873224474489689,-0.01468266174197197
1.386,0.0002670238900464028,0.22541239857673645,0.0001944876421475783,0.013972125947475433,-0.0014448281144723296,-0.014908197335898876
1.388,0.00020965603471267968,0.22571948170661926,0.00012779921235051006,0.014130184426903725,-0.0013324427418410778,-0.015168892219662666
1.39,0.00015639500634279102,0.2261667549610138,7.720923895249143e-05,0.014265833422541618,-0.0012510053347796202,-0.015458454377949238
1.392,0.0001084164614439942,0.22668269276618958,2.289479016326368e-05,0.014378422871232033,-0.00120471918489784,-0.015767989680171013
1.394,8.717914897715673e-05,0.22730258107185364,5.860737473994959e-06,0.014466792345046997,-0.0011906020808964968,-0.016088152304291725
1.396,9.54210918280296e-05,0.22797873616218567,1.808334309316706e-05,0.014528770931065083,-0.00120574701577425,-0.01641450822353363
1.398,0.00012055390106979758,0.22881892323493958,2.865857823053375e-05,0.01456549670547247,-0.0012485715560615063,-0.0167380440980196
1.4,0.0001465696404920891,0.22975829243659973,3.896640919265337e-05,0.014568540267646313,-0.0013117690104991198,-0.017050428315997124
1.402,0.0001873523578979075,0.23074248433113098,6.280385423451662e-05,0.014542589895427227,-0.0013801335589960217,-0.017348002642393112
1.404,0.0002403898979537189,0.2317972481250763,0.00012575018627103418,0.014491843059659004,-0.00144581391941756,-0.01763094589114189
1.406,0.0002801482623908669,0.23289969563484192,0.00019061003695242107,0.014419362880289555,-0.0015035133110359311,-0.017896482720971107
1.408,0.00031424223561771214,0.2340097725391388,0.0002873956982512027,0.014333290047943592,-0.0015506932977586985,-0.018148288130760193
1.41,0.00039515862590633333,0.2351560890674591,0.0003906336205545813,0.014226648956537247,-0.0015854309312999249,-0.01838909275829792
1.412,0.00043156518950127065,0.23632147908210754,0.0005240269238129258,0.014100881293416023,-0.0016066613607108593,-0.018612967804074287
1.414,0.00044641306158155203,0.23745349049568176,0.0006770671461708844,0.013957680203020573,-0.0016205878928303719,-0.01882360316812992
1.416,0.0005066362791694701,0.2385111153125763,0.0008310428238473833,0.013796168379485607,-0.0016321416478604078,-0.01902921311557293
1.418,0.0004930973518639803,0.2395048439502716,0.0009543266496621072,0.013609662652015686,-0.0016478437464684248,-0.019228214398026466
1.42,0.00047294225078076124,0.2403726875782013,0.0010593103943392634,0.013397947885096073,-0.0016753904055804014,-0.019411731511354446
1.422,0.00045819889055565,0.241153746843338,0.0011547283502295613,0.013168027624487877,-0.0017133047804236412,-0.019573351368308067
1.424,0.0004437702300492674,0.24182894825935364,0.0012547830119729042,0.012924829497933388,-0.0017588078044354916,-0.019711032509803772
1.426,0.000481211522128433,0.24240973591804504,0.0013528401032090187,0.01267676055431366,-0.0018145216163247824,-0.019824059680104256
1.428,0.0005384898977354169,0.2428751289844513,0.0014239014126360416,0.012430635280907154,-0.0018768224399536848,-0.019906483590602875
1.43,0.0005982864531688392,0.2432270348072052,0.0014814849710091949,0.012192022986710072,-0.0019364519976079464,-0.019954340532422066
1.432,0.0006925349589437246,0.24347689747810364,0.0015592463314533234,0.011960841715335846,-0.0019844810012727976,-0.01996617764234543
1.434,0.0007594988564960659,0.24360468983650208,0.0016024671494960785,0.011737543158233166,-0.0020161839202046394,-0.01994468830525875
1.436,0.0008364099776372313,0.2436552345752716,0.001650320366024971,0.011522945016622543,-0.0020230284426361322,-0.019903404638171196
1.438,0.0009847283363342285,0.2435922920703888,0.0016609657322987914,0.01131562888622284,-0.0020072513725608587,-0.01985231041908264
1.44,0.0011761921923607588,0.24345305562019348,0.0016109187854453921,0.011117234826087952,-0.0019728238694369793,-0.019798364490270615
1.442,0.0013811643002554774,0.24328044056892395,0.0014910405734553933,0.010925320908427238,-0.0019206114811822772,-0.019748495891690254
1.444,0.001591252046637237,0.24297240376472473,0.0012750312453135848,0.010733415372669697,-0.0018509605433791876,-0.019711069762706757
1.446,0.0018521021120250225,0.24258139729499817,0.0010539799695834517,0.0105431554839015,-0.001772511750459671,-0.01969607174396515
1.448,0.002120568882673979,0.2422066032886505,0.0008885796996764839,0.010357669554650784,-0.0016914643347263336,-0.01970708929002285
1.45,0.0023863823153078556,0.24179938435554504,0.0007275480893440545,0.010182438418269157,-0.0016118560452014208,-0.019748060032725334
1.452,0.0026390261482447386,0.24139025807380676,0.0005063427379354835,0.010017642751336098,-0.0015424694865942001,-0.01982826180756092
1.454,0.0028974530287086964,0.24091723561286926,0.00023598640109412372,0.00986842904239893,-0.0014865521807223558,-0.019958794116973877
1.456,0.0031514079309999943,0.24047091603279114,-5.932277417741716e-05,0.009731232188642025,-0.0014473999617621303,-0.020150858908891678
1.458,0.0034174174070358276,0.24008753895759583,-0.00038866212707944214,0.009609252214431763,-0.001421769498847425,-0.020416539162397385
1.46,0.0037228786386549473,0.2397489845752716,-0.0007468179683201015,0.009499190375208855,-0.0014036988141015172,-0.020762033760547638
1.462,0.003975594881922007,0.23947718739509583,-0.001125509850680828,0.009394826367497444,-0.001391012454405427,-0.02118493616580963
1.464,0.004225156269967556,0.2392444908618927,-0.0015306157292798162,0.009301839396357536,-0.0013819271698594093,-0.021680258214473724
1.466,0.004518059082329273,0.23914912343025208,-0.0019154357723891735,0.00921977311372757,-0.0013708530459553003,-0.02224256843328476
1.468,0.004806472919881344,0.2391538918018341,-0.0022910013794898987,0.009144220501184464,-0.0013446308439597487,-0.022856686264276505
1.47,0.005081012845039368,0.23918822407722473,-0.002690346213057637,0.009071120992302895,-0.0013000942999497056,-0.023505842313170433
1.472,0.005411708727478981,0.23935988545417786,-0.0030715155880898237,0.009000089019536972,-0.0012403556611388922,-0.024177271872758865
1.474,0.0057970574125647545,0.23963835835456848,-0.0034634678158909082,0.00892607867717743,-0.001162881264463067,-0.02486603707075119
1.476,0.006236228160560131,0.24000075459480286,-0.003836079267784953,0.00884585827589035,-0.001069930731318891,-0.025563830509781837
1.478,0.006704166531562805,0.24048426747322083,-0.004166536033153534,0.00875637587159872,-0.0009683509124442935,-0.026259219273924828
1.48,0.007208636961877346,0.2410307228565216,-0.004476985894143581,0.008666424080729485,-0.0008569014607928693,-0.026944752782583237
1.482,0.007807512767612934,0.2416410744190216,-0.004745461046695709,0.008585200645029545,-0.0007449169643223286,-0.027620859444141388
1.484,0.008443674072623253,0.2422952950000763,-0.004988355562090874,0.008513308130204678,-0.0006438568234443665,-0.028288204222917557
1.486,0.009150724858045578,0.2429971992969513,-0.005265033338218927,0.008456301875412464,-0.0005549071938730776,-0.0289485901594162
1.488,0.009964493103325367,0.24373725056648254,-0.005483482964336872,0.008417923003435135,-0.0004857672320213169,-0.02961007133126259
1.49,0.010825762525200844,0.24446967244148254,-0.005634268280118704,0.008398907259106636,-0.00044284030445851386,-0.03027823194861412
1.492,0.011694680899381638,0.24516013264656067,-0.005692401435226202,0.00839427299797535,-0.00042028279858641326,-0.030966753140091896
1.494,0.012565406039357185,0.24573710560798645,-0.005682026501744986,0.008396140299737453,-0.0004151335742790252,-0.031691063195466995
1.496,0.013446938246488571,0.2462787926197052,-0.005586065351963043,0.008400476537644863,-0.00042651162948459387,-0.03246092423796654
1.498,0.014365797862410545,0.24674132466316223,-0.005433231126517057,0.008405091241002083,-0.0004491833387874067,-0.033284515142440796
1.5,0.015306325629353523,0.2471494972705841,-0.0052567170932888985,0.008404008112847805,-0.0004751687229145318,-0.03416886180639267
1.502,0.016259418800473213,0.24749282002449036,-0.005072067026048899,0.008400524035096169,-0.0005000942619517446,-0.03512251749634743
1.504,0.01719004288315773,0.24773696064949036,-0.004838982131332159,0.00839700736105442,-0.0005203254404477775,-0.036143191158771515
1.506,0.018093988299369812,0.24793055653572083,-0.004574157297611237,0.008398176170885563,-0.0005287475069053471,-0.037226639688014984
1.508,0.018975820392370224,0.24803736805915833,-0.004223542753607035,0.008409770205616951,-0.0005251825205050409,-0.038364700973033905
1.51,0.01976124756038189,0.24803736805915833,-0.0038243692833930254,0.008432991802692413,-0.0004992574104107916,-0.039549004286527634
1.512,0.020424798130989075,0.2479276955127716,-0.0034210190642625093,0.008466707542538643,-0.00044388012611307204,-0.040771398693323135
1.514,0.021033430472016335,0.24774649739265442,-0.002994483569636941,0.00851505808532238,-0.00036003696732223034,-0.04202379286289215
1.516,0.02152206189930439,0.24742797017097473,-0.002558731706812978,0.008578311651945114,-0.0002453409833833575,-0.043303024023771286
1.518,0.021909670904278755,0.24706366658210754,-0.002128410618752241,0.008649645373225212,-9.358394891023636e-05,-0.044603895395994186
1.52,0.02218090370297432,0.24671271443367004,-0.0017064273124560714,0.008724775165319443,9.46865402511321e-05,-0.045916229486465454
1.522,0.022324267774820328,0.24627402424812317,-0.0013277516700327396,0.008805638179183006,0.00030798910302110016,-0.047234609723091125
1.524,0.02236451581120491,0.24582961201667786,-0.0009464850299991667,0.008892962709069252,0.0005419400404207408,-0.048555925488471985
1.526,0.02222701907157898,0.24538519978523254,-0.0005439282977022231,0.008990712463855743,0.0007915502646937966,-0.0498695895075798
1.528,0.022001376375555992,0.24491599202156067,-0.00015182854258455336,0.009102609008550644,0.0010346234776079655,-0.05116729810833931
1.53,0.02164863795042038,0.2444610893726349,0.0002459644165355712,0.009221790358424187,0.0012602958595380187,-0.052440956234931946
1.532,0.021096177399158478,0.2440061867237091,0.0006723396945744753,0.00934109091758728,0.0014694401761516929,-0.053690724074840546
1.534,0.020377125591039658,0.24355795979499817,0.0010634736390784383,0.009448401629924774,0.0016617460642009974,-0.05491846054792404
1.536,0.019532516598701477,0.24313071370124817,0.0013859422178938985,0.009543558582663536,0.001837443676777184,-0.05612090975046158
1.538,0.018626172095537186,0.2427683174610138,0.0016807561041787267,0.009631825610995293,0.0019992077723145485,-0.05730278789997101
1.54,0.017641326412558556,0.2424469292163849,0.0019415901042521,0.009717235341668129,0.002150022191926837,-0.05847012251615524
1.542,0.016575336456298828,0.24216178059577942,0.0021542836911976337,0.00979578122496605,0.0022948801051825285,-0.05962074175477028
1.544,0.015476621687412262,0.2419281303882599,0.002399010583758354,0.009860645979642868,0.0024394008796662092,-0.06075892969965935
1.546,0.014301134273409843,0.24171355366706848,0.0026235110126435757,0.009913532063364983,0.0025786575861275196,-0.06188462674617767
1.548,0.013024518266320229,0.24153998494148254,0.0028163446113467216,0.00995822437107563,0.0027063456363976,-0.06300022453069687
1.55,0.0116792693734169,0.2413969337940216,0.003006981685757637,0.00999346561729908,0.0028201474342495203,-0.06411168724298477
1.552,0.01030249334871769,0.2412872612476349,0.003189865965396166,0.01001732237637043,0.002915246644988656,-0.0652201846241951
1.554,0.008940264582633972,0.2412729561328888,0.0033765528351068497,0.010029753670096397,0.002995400922372937,-0.06632576882839203
1.556,0.007595705334097147,0.24127772450447083,0.0035215532407164574,0.010029774159193039,0.003062404925003648,-0.06742974370718002
1.558,0.006242985837161541,0.24125483632087708,0.0036065203603357077,0.010029872879385948,0.0031140753999352455,-0.06853344291448593
1.56,0.004905646666884422,0.24127677083015442,0.003644507611170411,0.01004311628639698,0.0031610075384378433,-0.06963535398244858
1.562,0.0036085795145481825,0.2413034737110138,0.003671287791803479,0.010080303996801376,0.003214484080672264,-0.07073718309402466
1.564,0.0023610251955688,0.2413664162158966,0.003733585122972727,0.010155746713280678,0.003274994669482112,-0.07183428108692169
1.566,0.0011584974126890302,0.24137023091316223,0.003800054546445608,0.010274793952703476,0.0033525682520121336,-0.07291686534881592
1.568,-8.923024870455265e-05,0.24135497212409973,0.0038746525533497334,0.010437672957777977,0.003449500072747469,-0.07398374378681183
1.57,-0.0013554887846112251,0.241397887468338,0.003967675380408764,0.010639593005180359,0.003562257159501314,-0.07502530515193939
1.572,-0.002547712530940771,0.2413788139820099,0.004070431925356388,0.010873410850763321,0.0036829097662121058,-0.07603010535240173
1.574,-0.0036873547360301018,0.2413492500782013,0.004211711697280407,0.011130176484584808,0.0038009865675121546,-0.07699228078126907
1.576,-0.004795875865966082,0.2412901222705841,0.004323447588831186,0.011392500251531601,0.003908088430762291,-0.07790114730596542
1.578,-0.005854674614965916,0.2412424385547638,0.004405654035508633,0.011642634868621826,0.003999283537268639,-0.07874257862567902
1.58,-0.006866073235869408,0.24120905995368958,0.004534271080046892,0.011875670403242111,0.004075562581419945,-0.07950844615697861
1.582,-0.007828004658222198,0.2411213219165802,0.0047483136877417564,0.01209031417965889,0.004141654819250107,-0.0801902711391449
1.584,-0.008745096623897552,0.2410145103931427,0.005003059282898903,0.01229623332619667,0.004195185378193855,-0.08077866584062576
1.586,-0.009617624804377556,0.24088957905769348,0.005290978588163853,0.012501370161771774,0.00423218822106719,-0.08126657456159592
1.588,-0.01041929330676794,0.2407255470752716,0.005599991884082556,0.012709978967905045,0.004249415826052427,-0.08165094256401062
1.59,-0.011169414967298508,0.24053481221199036,0.005936566740274429,0.012924954295158386,0.004252833779901266,-0.08193990588188171
1.592,-0.011877752840518951,0.24033644795417786,0.0063257841393351555,0.013150997459888458,0.004241602029651403,-0.08214113116264343
1.594,-0.012532125227153301,0.24013808369636536,0.006789024919271469,0.01339004561305046,0.0042154244147241116,-0.08225660026073456
1.596,-0.013129384256899357,0.23988154530525208,0.007308554369956255,0.013647947460412979,0.004183358978480101,-0.08229675143957138
1.598,-0.01370164193212986,0.2395801842212677,0.007822422310709953,0.013927627354860306,0.0041449363343417645,-0.08227061480283737
1.6,-0.01421472616493702,0.23923686146736145,0.00833473727107048,0.014225877821445465,0.004102048929780722,-0.08218540251255035
1.602,-0.014653131365776062,0.2389078438282013,0.008871739730238914,0.01453392580151558,0.004066068213433027,-0.08204466849565506
1.604,-0.015031909570097923,0.23862555623054504,0.009401699528098106,0.014846328645944595,0.004040181171149015,-0.08185258507728577
1.606,-0.015343531966209412,0.2382517158985138,0.009934069588780403,0.015155091881752014,0.0040228418074548244,-0.08161556720733643
1.608,-0.015640027821063995,0.23786261677742004,0.010495238937437534,0.015451028943061829,0.004015689250081778,-0.08134230226278305
1.61,-0.015951411798596382,0.23748496174812317,0.011081475764513016,0.015728164464235306,0.0040220157243311405,-0.08104727417230606
1.612,-0.01624690741300583,0.23714545369148254,0.011675011366605759,0.015975292772054672,0.004034533631056547,-0.08073949813842773
1.614,-0.01653449982404709,0.23681452870368958,0.012204935774207115,0.016185805201530457,0.004040768835693598,-0.08042681962251663
1.616,-0.016763456165790558,0.23654082417488098,0.012712533585727215,0.01635437086224556,0.004039595369249582,-0.08011509478092194
1.618,-0.01697235181927681,0.2362861931324005,0.013166536577045918,0.01647798717021942,0.004031756427139044,-0.0798027515411377
1.62,-0.01711512915790081,0.23606684803962708,0.013587062247097492,0.0165663193911314,0.004016523715108633,-0.07948761433362961
1.622,-0.017194045707583427,0.2359323799610138,0.01399228349328041,0.016629556193947792,0.004000385757535696,-0.07916545867919922
1.624,-0.017319831997156143,0.23586371541023254,0.014331281185150146,0.016670018434524536,0.003988193813711405,-0.07883153855800629
1.626,-0.017459124326705933,0.23587897419929504,0.01461830921471119,0.016693992540240288,0.003985291812568903,-0.07847736775875092
1.628,-0.017601728439331055,0.23589423298835754,0.014868417754769325,0.01671021245419979,0.00399750517681241,-0.07809387147426605
1.63,-0.01777290366590023,0.2359190285205841,0.01505193579941988,0.016726596280932426,0.004031467717140913,-0.07767709344625473
1.632,-0.017938630655407906,0.23603156208992004,0.015182399190962315,0.01675078459084034,0.004083855543285608,-0.07722750306129456
1.634,-0.01812582276761532,0.23620513081550598,0.015258332714438438,0.016777168959379196,0.004148619249463081,-0.076743945479393
1.636,-0.018329069018363953,0.23642733693122864,0.01524666789919138,0.016803907230496407,0.004228170961141586,-0.07622826844453812
1.638,-0.018551107496023178,0.23670676350593567,0.0151703841984272,0.016836490482091904,0.004317835904657841,-0.07568556070327759
1.64,-0.01879068836569786,0.23705390095710754,0.01504874974489212,0.01687839813530445,0.0044104596599936485,-0.07511237263679504
1.642,-0.019016124308109283,0.23737719655036926,0.014857287518680096,0.016927270218729973,0.004501285031437874,-0.07451136410236359
1.644,-0.019283797591924667,0.23766043782234192,0.014637196436524391,0.01697966456413269,0.004580856300890446,-0.07387983798980713
1.646,-0.01958434097468853,0.2379312813282013,0.01441938616335392,0.01703965663909912,0.004648752510547638,-0.07321466505527496
1.648,-0.019935494288802147,0.23818209767341614,0.01419647503644228,0.017109643667936325,0.004708415828645229,-0.07252318412065506
1.65,-0.020325571298599243,0.23840239644050598,0.01395407970994711,0.017182933166623116,0.004757246933877468,-0.0718069076538086
1.652,-0.02073877677321434,0.2385740578174591,0.013670389540493488,0.017252856865525246,0.004801131319254637,-0.07106629759073257
1.654,-0.02113695628941059,0.23872187733650208,0.01335863396525383,0.01731588877737522,0.004849324468523264,-0.0703030526638031
1.656,-0.0214831680059433,0.23881247639656067,0.013026256114244461,0.017369991168379784,0.004901934880763292,-0.06951731443405151
1.658,-0.021788131445646286,0.23885920643806458,0.012744973413646221,0.017411718145012856,0.004957050550729036,-0.0687083899974823
1.66,-0.022069070488214493,0.23887351155281067,0.012508261948823929,0.01744086481630802,0.005015688482671976,-0.06787404417991638
1.662,-0.022353703156113625,0.23882201313972473,0.012263537384569645,0.017454659566283226,0.005076295230537653,-0.06700648367404938
1.664,-0.022659411653876305,0.23869803547859192,0.012024393305182457,0.01745062880218029,0.00514156324788928,-0.06610070168972015
1.666,-0.022986890748143196,0.23851588368415833,0.011825786903500557,0.017432885244488716,0.005215815268456936,-0.06516163051128387
1.668,-0.02328907884657383,0.2382965385913849,0.011676753871142864,0.01740323007106781,0.005297737196087837,-0.06419182568788528
1.67,-0.02355538308620453,0.23798754811286926,0.011592600494623184,0.017363889142870903,0.00538753904402256,-0.06318870931863785
1.672,-0.023819012567400932,0.2375812828540802,0.011538248509168625,0.01731686107814312,0.005485964007675648,-0.06215778738260269
1.674,-0.024111077189445496,0.23713019490242004,0.011469864286482334,0.01726243458688259,0.005587627179920673,-0.06110253185033798
1.676,-0.024392878636717796,0.2366667091846466,0.011397922411561012,0.01720087230205536,0.005692224949598312,-0.0600215382874012
1.678,-0.024622932076454163,0.23614123463630676,0.011344775557518005,0.017132215201854706,0.005794109310954809,-0.05891774594783783
1.68,-0.0248396135866642,0.2355366051197052,0.011310981586575508,0.017055628821253777,0.005885083694010973,-0.05779533088207245
1.682,-0.025021694600582123,0.23494818806648254,0.011302896775305271,0.016962384805083275,0.005962525028735399,-0.05665471404790878
1.684,-0.025205187499523163,0.23434355854988098,0.011292103677988052,0.01684689335525036,0.006016912870109081,-0.05549297481775284
1.686,-0.02541554719209671,0.2336302101612091,0.011270526796579361,0.01670917309820652,0.006047782953828573,-0.05430786684155464
1.688,-0.025651831179857254,0.23288539052009583,0.011264892295002937,0.016553007066249847,0.006059806328266859,-0.05309653654694557
1.69,-0.02586541324853897,0.23214629292488098,0.011213410645723343,0.016377441585063934,0.0060447813011705875,-0.05185266584157944
1.692,-0.026014242321252823,0.2314005196094513,0.011110740713775158,0.01617669314146042,0.006000387482345104,-0.05057583376765251
1.694,-0.026096206158399582,0.2306547462940216,0.011005104519426823,0.015953902155160904,0.0059381043538451195,-0.04926622286438942
1.696,-0.026143576949834824,0.2299051582813263,0.010834730230271816,0.015718014910817146,0.005863287020474672,-0.0479159951210022
1.698,-0.026114609092473984,0.22916319966316223,0.010629513300955296,0.015472998842597008,0.0057782940566539764,-0.04652370139956474
1.7,-0.025963205844163895,0.22846129536628723,0.0104700718075037,0.015217798762023449,0.005683981813490391,-0.04509066045284271
1.702,-0.02578411065042019,0.2277536690235138,0.01032121293246746,0.014956765808165073,0.005582046695053577,-0.043618615716695786
1.704,-0.025573855265975,0.22705653309822083,0.010154161602258682,0.014695864170789719,0.005479886662214994,-0.04211203381419182
1.706,-0.0252704881131649,0.2264261543750763,0.009997047483921051,0.014435207471251488,0.005382980685681105,-0.04057539626955986
1.708,-0.024874288588762283,0.22584250569343567,0.009862285107374191,0.014174840413033962,0.005293684545904398,-0.039024509489536285
1.71,-0.024414164945483208,0.22527220845222473,0.009749186225235462,0.01391052920371294,0.005214496050029993,-0.037474341690540314
1.712,-0.023854674771428108,0.22475817799568176,0.009657601825892925,0.013638900592923164,0.005147125571966171,-0.035928744822740555
1.714,-0.023171572014689445,0.2243347465991974,0.009601936675608158,0.013360648415982723,0.005089557264000177,-0.03439674898982048
1.716,-0.02242082916200161,0.2239694893360138,0.009565240703523159,0.013078019954264164,0.005036014132201672,-0.03288581967353821
1.718,-0.021570047363638878,0.22368338704109192,0.009587058797478676,0.012785409577190876,0.004977248143404722,-0.03139273822307587
1.72,-0.020620785653591156,0.2235136330127716,0.009669838473200798,0.012478535994887352,0.004907144233584404,-0.029913142323493958
1.722,-0.0196125078946352,0.22345450520515442,0.00982673279941082,0.012163651175796986,0.004818071611225605,-0.02844819240272045
1.724,-0.01851954311132431,0.223514586687088,0.01007128693163395,0.011846210807561874,0.004705190192908049,-0.02700062096118927
1.726,-0.017385046929121017,0.22361662983894348,0.010323178954422474,0.01152847707271576,0.004571962170302868,-0.02556733228266239
1.728,-0.016185343265533447,0.22385409474372864,0.010572518222033978,0.011214069090783596,0.004426928237080574,-0.024150362238287926
1.73,-0.014926816336810589,0.22423842549324036,0.010852034203708172,0.01091061718761921,0.004271626938134432,-0.022755734622478485
1.732,-0.013629777356982231,0.224704772233963,0.011208475567400455,0.010621413588523865,0.004106926266103983,-0.021385975182056427
1.734,-0.012265695258975029,0.22524264454841614,0.011617306619882584,0.01034889928996563,0.0039396402426064014,-0.020052064210176468
1.736,-0.01085405983030796,0.22586825489997864,0.011996880173683167,0.010096671059727669,0.0037750881165266037,-0.018768170848488808
1.738,-0.009457209147512913,0.2265787422657013,0.012332316488027573,0.009864426217973232,0.003617126028984785,-0.017547786235809326
1.74,-0.008049544878304005,0.22733595967292786,0.012640086002647877,0.009652424603700638,0.0034618976060301065,-0.01640763133764267
1.742,-0.006646611727774143,0.2281809151172638,0.012926751747727394,0.009462126530706882,0.0033103034365922213,-0.015365802682936192
1.744,-0.005294546019285917,0.22905829548835754,0.013153049163520336,0.0092969611287117,0.0031718024984002113,-0.014433139935135841
1.746,-0.0039652506820857525,0.22994139790534973,0.013342645950615406,0.009162385948002338,0.0030547799542546272,-0.013611190021038055
1.748,-0.0026683341711759567,0.23085787892341614,0.013477003201842308,0.009059815667569637,0.002959588775411248,-0.012907854281365871
1.75,-0.0014378828927874565,0.23177054524421692,0.0135184396058321,0.008993685245513916,0.0028891966212540865,-0.012325824238359928
1.752,-0.00024673156440258026,0.23272326588630676,0.013476701453328133,0.00896731112152338,0.0028465555515140295,-0.011855661869049072
1.754,0.000903319101780653,0.23368647694587708,0.013335268013179302,0.008979402482509613,0.0028288206085562706,-0.011480148881673813
1.756,0.0019712932407855988,0.2346220314502716,0.013121798634529114,0.009031291119754314,0.002831142395734787,-0.011174242943525314
1.758,0.00299140065908432,0.23551848530769348,0.012814005836844444,0.00912028644233942,0.002847324125468731,-0.010917781852185726
1.76,0.003974086605012417,0.23641493916511536,0.012470098212361336,0.0092366524040699,0.0028653389308601618,-0.010698802769184113
1.762,0.004875918850302696,0.23730185627937317,0.012098380364477634,0.009366761893033981,0.0028700002003461123,-0.010495243594050407
1.764,0.00567009299993515,0.23813632130622864,0.011638140305876732,0.009506847709417343,0.002847802359610796,-0.010290826670825481
1.766,0.006391112692654133,0.2389536201953888,0.011157930828630924,0.00965164415538311,0.002790531376376748,-0.010082310996949673
1.768,0.0070734391920268536,0.23973849415779114,0.01062022615224123,0.009790907613933086,0.002695632167160511,-0.009862820617854595
1.77,0.007666419260203838,0.24045279622077942,0.010011428035795689,0.009923739358782768,0.0025633738841861486,-0.009631535038352013
1.772,0.008173204958438873,0.2411051094532013,0.009399978443980217,0.010050995275378227,0.0023985186126083136,-0.00939151830971241
1.774,0.008631867356598377,0.24173453450202942,0.008788504637777805,0.010172221809625626,0.0022119800560176373,-0.009148194454610348
1.776,0.009036947041749954,0.2423582375049591,0.00816241092979908,0.010288120247423649,0.0020228861831128597,-0.008904222398996353
1.778,0.009405144490301609,0.2429066002368927,0.007531655952334404,0.010398359969258308,0.001843074569478631,-0.008670136332511902
