Time [s],Acc_x [m/s^2],Acc_y [m/s^2],Acc_z [m/s^2],Gyro_x [1/s],Gyro_y [1/s],Gyro_z [1/s]
0.0,0.9426941275596619,0.30722713470458984,-0.24247878789901733,-0.07691606879234314,-0.726502537727356,-0.37601277232170105
0.05,1.659235954284668,0.07830047607421875,0.14128915965557098,-0.15181966125965118,-0.9720454216003418,-0.4454690217971802
0.1,1.4356794357299805,0.059604644775390625,0.07563110440969467,-0.14389246702194214,-0.38597267866134644,-0.43035733699798584
0.15,0.022687168791890144,-0.16448688507080078,-0.19127033650875092,-0.14933575689792633,0.04066617786884308,-0.3772355616092682
0.2,0.10822651535272598,-0.0733184814453125,-0.09119654446840286,-0.1988632082939148,-0.028856739401817322,-0.24927452206611633
0.25,0.877716600894928,0.20639705657958984,-0.24886733293533325,-0.1492258906364441,-0.02047872170805931,-0.10938886553049088
0.3,0.9648223519325256,0.24336719512939453,-0.7845505475997925,-0.11124566197395325,0.04750104993581772,-0.029149342328310013
0.35,1.7277071475982666,0.30193233489990234,-1.0480446815490723,-0.21232299506664276,0.07791202515363693,0.007641224190592766
0.4,2.014434814453125,0.31862545013427734,-0.7951122522354126,-0.40606480836868286,0.23743346333503723,-0.018626952543854713
0.45,0.7121081352233887,0.45285511016845703,-1.3339176177978516,-0.5848401784896851,0.30273568630218506,-0.09881171584129333
0.5,1.1429214477539062,0.4694194793701172,-1.109291672706604,-0.8371732831001282,0.12137267738580704,-0.14145931601524353
0.55,1.7387880086898804,0.07989692687988281,-0.5202472805976868,-1.1079223155975342,0.15403108298778534,-0.21193745732307434
0.6,2.4783012866973877,0.6654109954833984,-0.3646043539047241,-1.0519260168075562,0.28728070855140686,-0.23113998770713806
0.65,2.418735980987549,0.3823070526123047,-0.40505021810531616,-0.5887786149978638,0.8676220178604126,-0.31246694922447205
0.7,1.6392123699188232,-0.14743804931640625,-0.15537914633750916,-0.1886417716741562,1.4875919818878174,-0.46787309646606445
0.75,1.8259828090667725,-1.2334251403808594,-1.1284120082855225,0.21393291652202606,1.1049683094024658,-0.1141887903213501
0.8,2.777423620223999,-1.1899824142456055,-2.3083267211914062,0.9086478352546692,-0.12841543555259705,0.5209602117538452
0.85,2.7882239818573,-0.6208047866821289,-2.425183057785034,1.5350662469863892,-0.6847429871559143,0.9102520942687988
0.9,2.236055374145508,0.04215717315673828,-1.4654858112335205,1.8246772289276123,-0.4536445736885071,1.1237412691116333
0.95,0.9383567571640015,0.7317819595336914,-0.3392658829689026,1.8712795972824097,-0.02427665889263153,1.2412710189819336
1.0,-0.39884859323501587,0.8616151809692383,0.41097530722618103,1.6886433362960815,0.05029088258743286,1.2920202016830444
1.05,-1.0653197765350342,0.5099382400512695,1.2863099575042725,1.3682575225830078,-0.15509265661239624,1.2040152549743652
1.1,-1.4765026569366455,0.02066516876220703,2.09997296333313,0.9762654900550842,-0.13037607073783875,0.9608012437820435
1.15,-1.7770650386810303,-0.32891368865966797,2.689506769180298,0.5032515525817871,0.0897994190454483,0.5770599842071533
1.2,-2.061814546585083,-0.3499765396118164,3.039912223815918,-0.012547682970762253,0.25080493092536926,0.13089454174041748
1.25,-1.3728795051574707,-0.7761135101318359,2.622136116027832,-0.43323230743408203,0.19060905277729034,-0.2687825560569763
1.3,-0.9610484838485718,0.634455680847168,1.4196292161941528,-0.35463660955429077,-0.10514754056930542,-0.5703064799308777
1.35,-0.5224134922027588,1.3267745971679688,0.9949267506599426,-0.24812659621238708,-0.24012821912765503,-0.7675758004188538
1.4,0.7569765448570251,1.0180797576904297,1.189163327217102,-0.260191947221756,-0.044664084911346436,-0.8919206261634827
1.45,0.871163547039032,0.7939872741699219,0.931232213973999,-0.20422771573066711,0.19930768013000488,-0.8422142863273621
1.5,-0.30435776710510254,0.5720272064208984,0.36329740285873413,-0.11046512424945831,0.10690178722143173,-0.7269327640533447
1.55,-0.5376176238059998,0.48603248596191406,0.18476258218288422,-0.07046478986740112,-0.003705263137817383,-0.6328463554382324
1.6,0.1279909908771515,0.39475345611572266,-0.10480611026287079,-0.054802242666482925,-0.08314287662506104,-0.5031355023384094
1.65,0.21760247647762299,0.3679800033569336,-1.0089162588119507,-0.09045058488845825,-0.014192081987857819,-0.3588065505027771
1.7,0.1506209373474121,0.4204530715942383,-1.1508285999298096,-0.1991354078054428,0.012079566717147827,-0.3288131654262543
1.75,0.4225483536720276,0.22815418243408203,-0.7142528295516968,-0.40623584389686584,-0.07413070648908615,-0.3701635003089905
1.8,0.6838679909706116,0.16124629974365234,-0.3182855248451233,-0.5652084350585938,-0.07141245156526566,-0.3556627035140991
1.85,0.482290655374527,0.05677986145019531,0.1780930906534195,-0.6040444374084473,0.04342236369848251,-0.34094005823135376
1.9,0.12362763285636902,0.021604537963867188,0.29448869824409485,-0.5640875101089478,-0.13851597905158997,-0.34399116039276123
1.95,-0.1179780662059784,0.058834075927734375,0.1967165768146515,-0.48763880133628845,-0.4212277829647064,-0.29381561279296875
2.0,0.3493848741054535,0.011000633239746094,-0.01691415160894394,-0.4270493686199188,-0.5570400953292847,-0.21673740446567535
2.05,0.18309001624584198,0.18531513214111328,-0.2535820007324219,-0.40338945388793945,-0.5342150330543518,-0.16998256742954254
2.1,-0.035771384835243225,0.27570056915283203,-0.24070851504802704,-0.4628506898880005,-0.6570807099342346,-0.15202678740024567
2.15,0.43227532505989075,0.14742183685302734,-0.11989477276802063,-0.5456408858299255,-0.7380176186561584,-0.10849887132644653
2.2,0.12351647764444351,0.23923778533935547,-0.3168422281742096,-0.5128282904624939,-0.41796937584877014,-0.051373183727264404
2.25,0.4414927065372467,0.43911266326904297,-0.8048836588859558,-0.4760439395904541,-0.18253521621227264,0.01149563118815422
2.3,0.7215356826782227,0.5293655395507812,-1.7679296731948853,-0.5236240029335022,0.13690978288650513,-0.024577733129262924
2.35,1.131492257118225,0.40842247009277344,-1.8196266889572144,-0.793114423751831,0.13091154396533966,-0.1995553970336914
2.4,0.9881705641746521,0.35480308532714844,-1.0213072299957275,-1.079736590385437,-0.03043772652745247,-0.3419724702835083
2.45,-0.5745351314544678,1.117802619934082,-1.1491585969924927,-0.9820839166641235,0.06110188364982605,-0.3323608934879303
2.5,-0.06297846883535385,0.3365926742553711,-0.07652438431978226,-0.5597293376922607,-0.37193605303764343,-0.12410124391317368
2.55,0.2830158770084381,-0.6582345962524414,0.1553809493780136,0.07842819392681122,-0.7447353005409241,0.3128621578216553
2.6,1.6811082363128662,-0.9876651763916016,0.8398430347442627,0.44068044424057007,-1.3462096452713013,0.7408358454704285
2.65,1.9604568481445312,0.1781606674194336,2.8063101768493652,0.3688688576221466,-1.3186864852905273,0.8173383474349976
2.7,0.7499268054962158,0.8140249252319336,3.2547764778137207,-0.02743348479270935,-0.43267548084259033,0.5434970259666443
2.75,-0.12350568175315857,0.5077362060546875,1.9111781120300293,-0.3076035976409912,0.4561897814273834,0.18514254689216614
2.8,-0.3325408399105072,0.052504539489746094,0.9011871814727783,-0.36301931738853455,1.0749720335006714,-0.08482406288385391
2.85,-0.5681185722351074,-0.3602914810180664,0.07696562260389328,-0.3454742431640625,1.3372782468795776,-0.24470029771327972
2.9,-0.30929431319236755,-0.5182943344116211,-0.6335083842277527,-0.376150906085968,1.001920461654663,-0.22659632563591003
2.95,0.02529194951057434,-0.9197883605957031,-1.1316542625427246,-0.3805246353149414,0.7450815439224243,-0.20070578157901764
3.0,-0.25792232155799866,-1.0315008163452148,-1.1732676029205322,-0.07070896029472351,0.8509216904640198,-0.16348765790462494
3.05,-1.559640884399414,4.568123817443848,3.181898832321167,0.6208930015563965,0.9454391598701477,-0.06886306405067444
3.1,-2.5337493419647217,3.0230674743652344,2.6900665760040283,0.26370811462402344,0.28494811058044434,-0.34559762477874756
3.15,2.6226019859313965,1.3802804946899414,0.30767446756362915,0.26619985699653625,-1.3843796253204346,-0.029641112312674522
3.2,0.5097908973693848,0.4927053451538086,-1.0127180814743042,0.5782714486122131,-0.9193601012229919,-0.12160186469554901
3.25,0.004045847803354263,0.05591773986816406,-0.2129887342453003,0.7553065419197083,-0.36570701003074646,-0.18223869800567627
3.3,-0.30547019839286804,0.1810159683227539,-0.2612006962299347,0.7855057716369629,0.09537698328495026,-0.1421172022819519
3.35,-0.5669581890106201,0.3192625045776367,-0.8122938871383667,0.6475841999053955,0.17439445853233337,-0.07944940775632858
3.4,-0.1715584695339203,0.2594947814941406,-0.41830432415008545,0.4922467768192291,0.049543071538209915,0.004206102341413498
3.45,-0.10390963405370712,0.26573944091796875,-0.323741614818573,0.41725191473960876,0.16516295075416565,0.07897252589464188
3.5,0.12946103513240814,0.20198917388916016,-0.1780121922492981,0.3797047436237335,0.3294343650341034,0.1577225625514984
3.55,0.37869226932525635,0.13459014892578125,-0.1218884289264679,0.34943148493766785,0.42148923873901367,0.205998495221138
3.6,0.32646358013153076,0.15535545349121094,-0.02456936053931713,0.3516993522644043,0.5389266610145569,0.2334713190793991
3.65,0.0028007710352540016,0.1258859634399414,-0.1967860460281372,0.3639627993106842,0.624534547328949,0.2688274383544922
3.7,-0.23416663706302643,0.00677490234375,0.46951794624328613,0.3537895679473877,0.5440874099731445,0.32165205478668213
3.75,-0.8904621601104736,-0.04912090301513672,0.6172870397567749,0.437298446893692,0.45464032888412476,0.4008190929889679
3.8,-1.270777940750122,-0.08066749572753906,0.7789115905761719,0.5463273525238037,0.19408026337623596,0.529300332069397
3.85,-0.5384414792060852,-0.014547348022460938,1.4270439147949219,0.7071524858474731,0.07345203310251236,0.7064619660377502
3.9,0.6064212918281555,0.8759078979492188,1.6248224973678589,1.012797474861145,0.13416670262813568,0.8440786600112915
3.95,1.1384129524230957,1.0829010009765625,1.909238338470459,1.3119515180587769,0.4430083930492401,0.9094653129577637
4.0,1.6565337181091309,1.3653535842895508,1.6153995990753174,1.464674711227417,0.689329206943512,0.9629551768302917
4.05,0.41795653104782104,1.339585304260254,0.3746717572212219,1.4649556875228882,1.0101909637451172,0.9040632843971252
4.1,-1.2744094133377075,1.061929702758789,-0.7674647569656372,1.2791101932525635,1.2857378721237183,0.6564209461212158
4.15,-2.1159138679504395,-0.8734712600708008,-2.9929299354553223,0.8583446741104126,1.5374654531478882,0.27007222175598145
4.2,-1.9598382711410522,-1.8972558975219727,-1.7624552249908447,0.35210859775543213,1.5448172092437744,-0.3165524899959564
4.25,2.4187350273132324,0.9205293655395508,-7.475392818450928,-0.3591774106025696,1.541220784187317,-0.7948691844940186
4.3,-5.494483470916748,-1.6540031433105469,-2.4221668243408203,-0.23389631509780884,3.252462863922119,0.9900966882705688
4.35,2.0993218421936035,1.1694746017456055,1.7808802127838135,0.11851069331169128,0.03999257832765579,-0.22495533525943756
4.4,3.2332680225372314,1.136932373046875,0.8321919441223145,0.17576707899570465,-1.1837835311889648,-0.3325903117656708
4.45,-1.7178905010223389,-0.7945079803466797,-1.277437448501587,0.31482836604118347,-0.6786240339279175,0.22335128486156464
4.5,-0.47153839468955994,-0.5970697402954102,-1.1616568565368652,0.5556325316429138,-1.1964786052703857,-0.2515310049057007
4.55,-0.573481559753418,-0.9440584182739258,-0.15130655467510223,0.09916801750659943,-0.6992444396018982,-0.08553366363048553
4.6,-0.5602844953536987,-0.3616485595703125,0.2489348202943802,-0.7267084121704102,-0.4047597050666809,-0.07430201023817062
4.65,4.377838134765625,2.7073984146118164,-4.225210666656494,-0.9749096632003784,-0.6477744579315186,-0.4043422341346741
4.7,0.827426552772522,1.106729507446289,-2.392435312271118,-0.9069868326187134,0.4101143479347229,0.20175769925117493
4.75,0.6860872507095337,0.6409616470336914,0.31007665395736694,-1.233108639717102,-0.2298458367586136,-0.18570291996002197
4.8,0.9872588515281677,1.434408187866211,1.2479954957962036,-1.4513458013534546,-0.10073474049568176,-0.39550966024398804
4.85,1.2941560745239258,1.6313371658325195,1.3816537857055664,-1.395828366279602,-0.43420737981796265,-0.7880018949508667
4.9,1.2082513570785522,-1.273646354675293,2.862895965576172,-1.32142174243927,-0.9037364721298218,-0.9537873864173889
4.95,-0.2700331211090088,-1.0486268997192383,3.324657678604126,-0.8589434623718262,-0.6313833594322205,-0.7602786421775818
5.0,-1.5759495496749878,0.15302371978759766,1.956171989440918,-0.2135482281446457,0.22540085017681122,-0.392356276512146
5.05,-0.3986259698867798,0.34793949127197266,0.08540943264961243,0.08409086614847183,0.10219352692365646,-0.22744621336460114
5.1,0.2744407653808594,0.21146488189697266,-0.2397141456604004,0.03714185953140259,-0.2717112600803375,-0.1989697366952896
5.15,0.4336668848991394,0.050589561462402344,0.24552500247955322,-0.015141160227358341,-0.1778322458267212,-0.13300426304340363
5.2,0.2502940893173218,0.05160331726074219,0.45795735716819763,0.06314491480588913,0.025177937000989914,-0.07289481163024902
5.25,0.15910488367080688,0.06943225860595703,0.27055418491363525,0.13470205664634705,-0.016557013615965843,-0.06345392763614655
5.3,0.3530638813972473,0.20459270477294922,-0.14879262447357178,0.14706213772296906,-0.067716583609581,-0.048212092369794846
5.35,0.28022244572639465,0.16960811614990234,0.20246267318725586,0.1450706571340561,0.03599205240607262,-0.015830492600798607
5.4,-0.07372665405273438,0.13472747802734375,0.42920875549316406,0.1854323446750641,0.1168949156999588,0.021157916635274887
5.45,-0.3685574233531952,0.19224166870117188,0.30083972215652466,0.25981149077415466,0.11886052787303925,0.08600390702486038
5.5,-0.18323007225990295,0.1606616973876953,0.5131466388702393,0.32094255089759827,0.03034314513206482,0.13890737295150757
5.55,0.5164340138435364,0.2314157485961914,0.4976123571395874,0.420197069644928,-0.010697826743125916,0.20191505551338196
5.6,0.46057409048080444,0.8211584091186523,0.26097434759140015,0.5195668935775757,0.04205290228128433,0.2639036476612091
5.65,0.6234865188598633,0.9993762969970703,0.4888741075992584,0.5478350520133972,0.018954940140247345,0.2983230948448181
5.7,0.8261902928352356,0.9230785369873047,0.32465633749961853,0.5706093311309814,0.32320109009742737,0.37914079427719116
5.75,1.1866530179977417,0.4984140396118164,0.03779696300625801,0.542018711566925,0.6009435653686523,0.4586470127105713
5.8,0.9646161794662476,0.20508193969726562,0.43579480051994324,0.48338818550109863,0.7090927362442017,0.4960571825504303
5.85,1.2926160097122192,-0.41346073150634766,0.7608007192611694,0.4348261058330536,0.5599976181983948,0.4331165850162506
5.9,1.0612658262252808,-0.7444829940795898,0.6781838536262512,0.5689583420753479,0.24744628369808197,0.34020525217056274
5.95,1.2250111103057861,-0.3672065734863281,0.07762382924556732,0.9176802635192871,-0.32326942682266235,0.04155050218105316
6.0,2.48392915725708,0.08568763732910156,0.6863132119178772,1.0568268299102783,-0.41694390773773193,0.03141462802886963
6.05,1.257298469543457,-0.3761606216430664,1.3898433446884155,0.7248042225837708,0.060372889041900635,0.5284771919250488
6.1,0.1193820983171463,-0.4507169723510742,1.2929842472076416,0.289607435464859,-0.32168862223625183,0.5176852345466614
6.15,0.5498834252357483,-0.3597068786621094,0.9474151730537415,-0.06306424736976624,-1.1715222597122192,0.2809049189090729
6.2,-0.39896002411842346,-0.6070108413696289,0.3646042048931122,-0.38057786226272583,-1.4578832387924194,0.32596978545188904
6.25,-1.3702095746994019,-0.9060945510864258,-0.3350619673728943,-0.3669806718826294,-1.9609299898147583,0.21150097250938416
6.3,-2.5624043941497803,-1.5294303894042969,-1.4513988494873047,0.12400948256254196,-2.7199108600616455,0.024792950600385666
6.35,-4.260682582855225,-1.6983089447021484,-3.3728833198547363,0.775079071521759,-3.52889347076416,-0.25872740149497986
6.4,-2.121370315551758,0.3256349563598633,-3.781243085861206,1.211698055267334,-3.864537477493286,-0.7821651697158813
6.45,-3.9528114795684814,2.0526018142700195,-6.755605697631836,1.2587825059890747,-2.5529327392578125,-0.835042417049408
6.5,2.7196767330169678,1.1995038986206055,-1.3729544878005981,0.7267444729804993,-1.0187708139419556,-1.100856900215149
6.55,-0.5829486846923828,0.8585777282714844,-2.106741189956665,-0.5432337522506714,0.21922466158866882,-0.8416857123374939
6.6,0.5271676778793335,1.241286277770996,4.22526741027832,-0.02435564249753952,-1.03920578956604,-1.3434650897979736
6.65,-0.5015159249305725,1.4154691696166992,0.5685179829597473,-0.22608846426010132,0.10316376388072968,-0.6464977860450745
6.7,0.043320633471012115,0.7946815490722656,-2.06978440284729,-0.27557796239852905,0.4009679853916168,-0.4672616720199585
6.75,-0.5925046801567078,-0.04391193389892578,-2.4540934562683105,-0.4433831572532654,0.20615282654762268,-0.7434137463569641
6.8,-0.2326640784740448,-0.22770404815673828,0.11911912262439728,-0.5389585494995117,-0.6269581913948059,-1.1236904859542847
6.85,-0.43880531191825867,0.15645217895507812,1.0042856931686401,-0.6319933533668518,-0.49118176102638245,-0.9930263757705688
6.9,-0.8621273040771484,-0.3566007614135742,0.9947715997695923,-0.5205493569374084,-0.2321816384792328,-0.7682152986526489
6.95,-1.3682384490966797,-0.30504894256591797,0.09308421611785889,-0.37838810682296753,0.026510832831263542,-0.4419058859348297
7.0,-2.202301502227783,-0.12768173217773438,0.13861481845378876,-0.22025206685066223,0.1202613115310669,-0.18578337132930756
7.05,-2.933298349380493,-0.19677162170410156,-0.2443104237318039,-0.041793402284383774,-0.6847094297409058,0.006051972508430481
7.1,1.1733438968658447,-0.2077779769897461,-1.6016520261764526,-0.05090624839067459,-0.8962287902832031,0.18233151733875275
7.15,1.6895684003829956,0.6296052932739258,-1.3493329286575317,-0.3418695628643036,0.17168179154396057,0.05243697762489319
7.2,0.8944107294082642,0.6626749038696289,-0.13016396760940552,-0.49902501702308655,0.4096332788467407,-0.05894342437386513
7.25,0.5246425271034241,0.4257526397705078,-0.6008992195129395,-0.5485695004463196,0.5635899305343628,-0.17860537767410278
7.3,0.3991573452949524,0.15740680694580078,-0.37588897347450256,-0.6319148540496826,0.028467953205108643,-0.441066175699234
7.35,-0.7339382171630859,0.0852346420288086,-0.6885519027709961,-0.6622198820114136,-0.13714873790740967,-0.5603486895561218
7.4,-1.5861786603927612,0.028543472290039062,-0.9220892190933228,-0.6257678866386414,-0.35804319381713867,-0.5279625654220581
7.45,-2.2297894954681396,-0.34302616119384766,-1.5570523738861084,-0.6145113706588745,-0.8611668944358826,-0.3826102018356323
7.5,-3.5864405632019043,-0.6567535400390625,-1.9306361675262451,-0.6589973568916321,-1.4241193532943726,-0.11288151144981384
7.55,-4.2420148849487305,-0.8727455139160156,-4.408048152923584,-0.7127796411514282,-2.00516414642334,0.49005967378616333
7.6,-0.11093336343765259,-0.738642692565918,-11.553766250610352,-0.8493930101394653,-2.9048006534576416,1.5969679355621338
7.65,1.922826886177063,4.509515762329102,-5.999579906463623,-0.8408782482147217,-6.970786094665527,2.086664915084839
7.7,0.4511975944042206,3.318873405456543,-2.5104353427886963,0.5375721454620361,-5.956140041351318,0.8507719039916992
7.75,0.20733097195625305,1.9041709899902344,1.5877305269241333,1.5971571207046509,-3.204251766204834,-1.013527274131775
7.8,-0.4577600061893463,-0.9915771484375,4.585045337677002,2.3062219619750977,-1.4418116807937622,-1.834085464477539
7.85,1.5328396558761597,0.09623050689697266,2.86344838142395,2.3363142013549805,-1.1110215187072754,-1.1578013896942139
7.9,-4.77286958694458,2.585312843322754,2.1286978721618652,0.06931466609239578,-3.102754592895508,-0.3588773012161255
7.95,-2.2569992542266846,-0.3971738815307617,2.1608076095581055,-1.1211920976638794,-2.4146697521209717,0.5002390146255493
8.0,1.0820599794387817,0.4860687255859375,1.3863908052444458,-1.0447733402252197,-0.4224696755409241,1.0296058654785156
8.05,1.790130376815796,0.011945724487304688,0.43011850118637085,-0.7046722173690796,-0.23794573545455933,0.869562029838562
8.1,1.5575735569000244,-0.29631519317626953,-1.806126356124878,-0.5585742592811584,-0.7314575910568237,0.6052375435829163
8.15,-0.3786494731903076,-0.23606491088867188,-1.284793734550476,-0.6054711937904358,-0.8642393350601196,0.5038542747497559
8.2,-0.3842867910861969,0.0030689239501953125,-1.0344820022583008,-0.8251149654388428,-0.27955612540245056,0.4913853406906128
8.25,-0.07221290469169617,0.14851760864257812,-0.6664609909057617,-1.001158356666565,-0.292098730802536,0.49938124418258667
8.3,0.5179197192192078,1.0962276458740234,-0.063047856092453,-1.0993229150772095,-0.25063490867614746,0.39786118268966675
8.35,-0.5675960779190063,1.0598382949829102,-1.5517774820327759,-1.1357364654541016,-0.4112294912338257,0.28686001896858215
8.4,-0.8886427879333496,0.2124786376953125,-4.1955671310424805,-1.3373278379440308,-0.10693627595901489,0.18195651471614838
8.45,-4.029751777648926,0.1349506378173828,-6.709057331085205,-1.9591773748397827,0.00931704044342041,0.2935042977333069
8.5,-5.444276809692383,2.1493568420410156,-12.041950225830078,-2.814316749572754,0.7695106267929077,0.5079479217529297
8.55,5.852141380310059,6.755898475646973,-2.3391435146331787,-3.0539162158966064,1.3060381412506104,0.11516200006008148
8.6,6.523583889007568,-0.08382320404052734,-6.332149982452393,-1.1886018514633179,-0.6117255091667175,0.27277612686157227
8.65,3.9505741596221924,-0.8288564682006836,-2.947571277618408,1.6954258680343628,-2.192648410797119,0.3209143579006195
8.7,3.050607681274414,1.5677785873413086,3.5070252418518066,4.2093610763549805,-2.568786144256592,-0.08521690964698792
8.75,-1.0064376592636108,4.153536796569824,7.5798234939575195,5.793658256530762,-2.6076247692108154,-0.7603740692138672
8.8,-1.1404383182525635,-4.654407501220703,10.849810600280762,4.810576438903809,-0.42641788721084595,-0.7024503946304321
8.85,-2.6341490745544434,-4.712400913238525,5.364216327667236,1.0423502922058105,0.20321829617023468,0.1840435266494751
8.9,-3.7744007110595703,-6.363687038421631,0.9512260556221008,-1.15481698513031,-1.4828883409500122,0.17801180481910706
8.95,-0.7283557653427124,-2.0182089805603027,1.5442923307418823,-2.1825053691864014,-2.0307273864746094,0.3385572135448456
9.0,1.3498313426971436,0.5098257064819336,2.108431577682495,-1.977386713027954,-0.8054078817367554,0.261569082736969
9.05,-2.6944518089294434,0.9402694702148438,0.09679339826107025,-1.3882083892822266,-0.5568913817405701,-0.030278675258159637
9.1,0.23616787791252136,0.9180631637573242,-6.144440650939941,-1.3350505828857422,0.4883231222629547,-0.5036855340003967
9.15,-2.5148684978485107,1.739227294921875,-9.678506851196289,-2.1226308345794678,0.05571739375591278,-0.4549730122089386
9.2,1.2741817235946655,-0.07119369506835938,-15.804722785949707,-3.1116085052490234,1.745520830154419,-1.312402606010437
9.25,2.958944797515869,-8.932767868041992,-5.47824764251709,-2.1137759685516357,1.9642624855041504,-0.6769779920578003
9.3,2.0026135444641113,0.41932201385498047,-0.9684901237487793,1.79328453540802,-1.3598219156265259,0.6405510306358337
9.35,4.891012191772461,0.4647388458251953,7.055524826049805,4.917006969451904,-1.2657700777053833,0.7313912510871887
9.4,-7.961878776550293,-4.107621192932129,11.058415412902832,5.704022407531738,-1.8474540710449219,1.3215473890304565
9.45,6.307218551635742,2.4315881729125977,6.780794143676758,3.2295427322387695,3.0815114974975586,0.6381574869155884
9.5,4.3705549240112305,-0.996333122253418,7.863295555114746,-0.9551979303359985,-2.8296689987182617,-0.5864472389221191
9.55,-3.617248058319092,-2.4069042205810547,1.4572381973266602,-1.459898829460144,-3.024320363998413,-0.17291240394115448
9.6,0.275386244058609,0.6943578720092773,1.4191309213638306,-1.161184549331665,0.6541536450386047,-0.06809177994728088
9.65,-0.19158735871315002,0.5103740692138672,1.9756015539169312,-0.7958902716636658,-1.132096767425537,-0.03672076761722565
9.7,3.4560656547546387,0.5133943557739258,-0.38867539167404175,-0.6007267236709595,0.17823287844657898,-0.29118475317955017
9.75,0.6319261789321899,-0.12287235260009766,-0.2158237248659134,-0.5777981281280518,-0.6947203874588013,-0.3873693346977234
9.8,1.1426780223846436,0.6989564895629883,-1.4567015171051025,-0.5430397391319275,-0.09685225784778595,-0.5827944278717041
9.85,-1.0164536237716675,0.24104022979736328,-1.5242091417312622,-0.5407754182815552,-0.3884800970554352,-0.6565467119216919
9.9,-0.062332943081855774,0.8082075119018555,-0.19010531902313232,-0.38742250204086304,0.33392134308815,-0.782417356967926
9.95,0.31746983528137207,1.044830322265625,-0.5535666942596436,-0.11220654100179672,0.6126061677932739,-0.9082350730895996
10.0,2.6106221675872803,1.2543573379516602,1.2944895029067993,0.29014432430267334,0.9776799082756042,-1.215453028678894
10.05,2.372288942337036,3.0822324752807617,3.0057859420776367,0.7979710102081299,0.5953497886657715,-1.359989881515503
10.1,3.0327181816101074,3.5913429260253906,3.7899627685546875,1.7447001934051514,0.4621000587940216,-1.5661729574203491
10.15,7.022520065307617,-5.823876857757568,1.8520671129226685,3.047652006149292,2.242483615875244,-1.1714940071105957
10.2,12.0869722366333,-4.617892265319824,4.0931267738342285,1.461390495300293,6.389451503753662,-0.33957234025001526
10.25,7.889249324798584,-0.15637874603271484,0.6195445656776428,-1.6604607105255127,6.281954765319824,1.6416434049606323
10.3,2.3655519485473633,1.8458251953125,-2.3359434604644775,-1.666745901107788,6.009710311889648,3.1762068271636963
10.35,0.9955045580863953,1.3665847778320312,-7.914060592651367,-1.621392846107483,7.401351451873779,2.390843391418457
10.4,-5.595865726470947,-0.9494142532348633,-9.446890830993652,-1.0848599672317505,5.671346664428711,2.3774285316467285
10.45,-9.4446382522583,-1.9357409477233887,-3.622018814086914,0.6704080104827881,2.899662971496582,1.1972166299819946
10.5,-10.030146598815918,1.5342884063720703,-1.6123433113098145,0.03329656273126602,1.1504523754119873,-1.2875794172286987
10.55,-6.175289154052734,0.02356719970703125,-1.6961016654968262,-0.6297486424446106,1.3391003608703613,-2.7130587100982666
10.6,-6.09603214263916,0.17288684844970703,3.6237306594848633,-0.639664888381958,1.5953739881515503,-2.805803060531616
10.65,-3.9388267993927,0.5884943008422852,-1.3084344863891602,-0.1078266128897667,-0.4351901710033417,-1.51256263256073
10.7,-0.403846800327301,-0.009970664978027344,0.576850414276123,0.14222228527069092,-1.054294466972351,-0.6987061500549316
10.75,0.08352237939834595,-0.2365245819091797,-0.8351054787635803,-0.09967701137065887,0.004700418561697006,-0.542645275592804
10.8,-2.023550510406494,-0.4110832214355469,-1.5624639987945557,-0.07555215805768967,-0.0730239674448967,-0.32233789563179016
10.85,-6.818222522735596,-2.156247138977051,-0.18841636180877686,-0.0632355660200119,0.15471436083316803,0.25640439987182617
10.9,-10.476371765136719,0.018296241760253906,1.464811086654663,0.049379393458366394,0.1763446033000946,1.9883314371109009
10.95,-20.698190689086914,12.72730541229248,1.4438120126724243,0.32985934615135193,0.21884840726852417,3.9369056224823
11.0,-22.152942657470703,14.14916706085205,-2.7265565395355225,-0.33063799142837524,-1.4357926845550537,2.8514022827148438
11.05,-8.384310722351074,17.068439483642578,-3.7470614910125732,-2.27492356300354,-2.998960018157959,-3.6314704418182373
11.1,15.871244430541992,21.480426788330078,-18.28005599975586,-1.6447478532791138,-3.870746374130249,-10.870601654052734
11.15,25.550661087036133,1.1163263320922852,-6.392376899719238,-2.18105149269104,-4.969791412353516,-11.333703994750977
11.2,10.523804664611816,-19.213394165039062,-2.829829216003418,2.9417271614074707,-1.769890546798706,-7.888728141784668
11.25,8.042564392089844,-24.55433464050293,-11.178561210632324,3.3545711040496826,-0.664901614189148,0.37904447317123413
11.3,7.241843223571777,-19.196964263916016,7.877126216888428,-2.821505546569824,-3.0637340545654297,6.051059722900391
11.35,6.381677150726318,-13.99380111694336,4.5718159675598145,-0.22322365641593933,-1.6268248558044434,6.502547740936279
11.4,2.018505096435547,12.286515235900879,2.3182101249694824,-1.1503154039382935,-0.776681661605835,5.062864303588867
11.45,6.518701553344727,3.1683168411254883,-1.3467154502868652,-1.8098012208938599,-0.2653217911720276,0.5500953793525696
11.5,3.432180166244507,-1.8796672821044922,1.4222148656845093,-1.665436029434204,-1.9825572967529297,0.49719297885894775
11.55,-0.3067384958267212,1.8820610046386719,1.3714433908462524,-0.0008556041866540909,-0.002066892571747303,0.32080554962158203
11.6,-0.07816454768180847,-0.35022735595703125,1.682741641998291,0.10906576365232468,0.0905708596110344,0.29101091623306274
11.65,-0.00026950612664222717,1.5142841339111328,0.6380647420883179,-0.1351967453956604,-0.16899840533733368,0.4611419439315796
11.7,0.11903194338083267,-0.08903884887695312,-1.225075125694275,-0.04049326106905937,0.5426616668701172,0.23397868871688843
11.75,-1.1929198503494263,0.09611034393310547,-0.024574190378189087,0.14587818086147308,0.16204625368118286,0.5101160407066345
11.8,0.2890406847000122,0.17417335510253906,-1.609919786453247,0.17841419577598572,0.7323810458183289,0.32168254256248474
11.85,-0.20747074484825134,0.5343017578125,-1.6437362432479858,0.08271567523479462,0.23102647066116333,0.4139876067638397
11.9,0.13175886869430542,-0.5870447158813477,-1.0413010120391846,-0.006854819133877754,0.21935079991817474,0.3329160213470459
11.95,-0.23482833802700043,0.8615150451660156,-1.3249591588974,-0.029038503766059875,0.03544652834534645,0.3468307852745056
12.0,0.07059384882450104,-0.8631610870361328,-0.8750544190406799,0.09569371491670609,0.05768921971321106,0.34592828154563904
12.05,-0.4028974771499634,0.1633596420288086,-0.891391396522522,0.04729396477341652,0.08438177406787872,0.34910327196121216
12.1,-0.25412601232528687,0.14121341705322266,-0.7463741302490234,-0.016328949481248856,0.021481186151504517,0.29314032196998596
12.15,0.3216891884803772,0.3993053436279297,-0.8158988356590271,-0.019482655450701714,0.05390410125255585,0.24528247117996216
12.2,1.8582358360290527,1.3678359985351562,-1.0688252449035645,-0.016716763377189636,0.162374809384346,0.10155128687620163
12.25,2.0226409435272217,2.227571487426758,-1.4657087326049805,-0.009248614311218262,0.2722371220588684,-0.4864601790904999
12.3,1.4438000917434692,-1.9045486450195312,0.670133113861084,0.2815937101840973,-0.09636526554822922,-1.2406420707702637
12.35,-0.25496822595596313,-1.0838289260864258,-1.817155122756958,0.3070940375328064,-0.40943196415901184,-1.4028310775756836
12.4,-2.8104159832000732,1.8925189971923828,-1.8361432552337646,0.3256053328514099,-0.7251973748207092,-0.7722533941268921
12.45,-1.9642910957336426,2.612429618835449,-2.004619598388672,0.03577845171093941,-0.1837797909975052,-0.5226247310638428
12.5,-1.0948224067687988,-0.2707643508911133,-0.12358744442462921,-0.1180683895945549,-0.1762007176876068,-0.09702373296022415
12.55,-0.6406352519989014,0.5355710983276367,0.03922276571393013,-0.04032120481133461,-0.041993219405412674,0.00919999647885561
12.6,0.01980701833963394,-0.30858612060546875,-1.5579874515533447,0.17359857261180878,0.20656269788742065,0.03177596628665924
12.65,-0.2951336205005646,-0.31760692596435547,-1.0128055810928345,0.14768147468566895,-0.004344909451901913,0.0234662052243948
12.7,-0.0019303560256958008,0.542637825012207,-1.1309715509414673,0.03627873584628105,0.02203887701034546,-0.046151407063007355
12.75,-0.6348161697387695,0.6118059158325195,-0.03624875843524933,-0.02568044327199459,-0.07580986618995667,-0.07331933826208115
12.8,-0.5017140507698059,-0.09566116333007812,0.0012584999203681946,0.06386875361204147,0.02234187349677086,-0.04869968444108963
12.85,-0.43874332308769226,0.4203977584838867,-0.02550172060728073,0.19332900643348694,0.09271994233131409,-0.011002985760569572
12.9,-0.08119092136621475,0.1670093536376953,-0.8983529806137085,0.2725846469402313,0.21150480210781097,0.009145144373178482
12.95,-0.09538014978170395,0.1541128158569336,-1.141120195388794,0.2327045053243637,0.1504378765821457,-0.0031495261937379837
13.0,-0.25299057364463806,0.0824432373046875,-0.7435081601142883,0.1324794888496399,0.050990208983421326,-0.006945297122001648
13.05,-0.19892343878746033,0.09039688110351562,-0.8607961535453796,0.07502521574497223,0.03800266236066818,0.008385720662772655
13.1,-0.5455494523048401,0.13556957244873047,-0.795008659362793,0.04754647612571716,-0.007472289726138115,0.05454438552260399
13.15,-0.42217740416526794,0.08914470672607422,-0.9282179474830627,-0.009286152198910713,-0.004167955834418535,0.11151544749736786
13.2,-0.49178221821784973,-0.07083892822265625,-0.9336682558059692,-0.1149752140045166,-0.046864502131938934,0.1671748161315918
13.25,-0.26617011427879333,-0.31719207763671875,-1.1525969505310059,-0.2332378774881363,-0.022855276241898537,0.2316230833530426
13.3,-0.8032085299491882,0.24403858184814453,-1.2060105800628662,-0.33623361587524414,-0.04761854559183121,0.3112516701221466
13.35,-0.7496926784515381,0.2554054260253906,-0.331770122051239,-0.42628389596939087,-0.14978446066379547,0.37466758489608765
13.4,-0.5731619000434875,-0.15006256103515625,-0.6832364797592163,-0.4609145522117615,0.1066351979970932,0.44973433017730713
13.45,-0.4821837246417999,0.04912090301513672,-0.14958596229553223,-0.5191184878349304,-0.1324484497308731,0.5718684792518616
13.5,0.059140320867300034,0.21579551696777344,-0.5152117609977722,-0.47834062576293945,0.042864155024290085,0.5849427580833435
13.55,-0.05562891438603401,0.7509078979492188,-0.48725515604019165,-0.47073665261268616,-0.2047484964132309,0.6309084892272949
13.6,0.3738950788974762,0.42719268798828125,0.21355150640010834,-0.36620810627937317,-0.413532555103302,0.4735460877418518
13.65,0.29729002714157104,0.5133838653564453,0.1459788978099823,-0.25047391653060913,-0.3509097993373871,0.3972354531288147
13.7,-0.07322061061859131,0.3942832946777344,-0.5659686923027039,-0.139237642288208,-0.2774558365345001,0.2703075110912323
13.75,-1.1425278186798096,0.36901283264160156,0.2103402018547058,-0.11963392794132233,-0.40540066361427307,0.28848394751548767
13.8,-0.8805772662162781,0.33252811431884766,0.06024371087551117,-0.006667574867606163,-0.045970819890499115,0.4039842486381531
13.85,-0.16837207973003387,-0.21948623657226562,-0.029472412541508675,0.058564040809869766,0.39211466908454895,0.4953283369541168
13.9,-0.19204378128051758,0.3976631164550781,-0.37695130705833435,0.06752276420593262,0.6809291839599609,0.45948830246925354
13.95,0.11816954612731934,1.7777652740478516,-1.0235469341278076,0.04480341076850891,0.9028411507606506,0.2891368269920349
14.0,0.20793581008911133,-0.30141258239746094,0.09018702059984207,0.09729457646608353,0.3155536651611328,0.16718147695064545
14.05,0.7047441005706787,0.24821853637695312,-0.517276406288147,0.16393207013607025,0.2717043161392212,0.033430349081754684
14.1,-0.11062832176685333,-0.13498783111572266,0.3207414448261261,0.3315984606742859,0.04273902624845505,-0.11611128598451614
14.15,0.1571090817451477,-0.14411258697509766,-0.8696737289428711,0.3908933401107788,0.36790013313293457,-0.1969030499458313
14.2,-0.0032040178775787354,0.053562164306640625,-1.604063868522644,0.37404367327690125,0.22358843684196472,-0.20303353667259216
14.25,-0.34739330410957336,0.23424911499023438,-0.4140653908252716,0.33886173367500305,-0.1542273312807083,-0.05035186558961868
14.3,1.0635051727294922,-0.2558479309082031,-2.5935251712799072,0.226225346326828,0.1723291128873825,-0.11766687780618668
14.35,-0.0938962996006012,-0.08232784271240234,-1.9564114809036255,-0.050429727882146835,-0.29349496960639954,-0.1397172212600708
14.4,-0.18953287601470947,0.03642559051513672,-1.1028401851654053,-0.2578011453151703,-0.2999076247215271,-0.19434933364391327
14.45,-0.3858075737953186,-0.4224205017089844,-0.5911672115325928,-0.3718278706073761,-0.26296892762184143,-0.13631078600883484
14.5,-0.8729161024093628,-0.15961170196533203,-1.1381237506866455,-0.4533899426460266,-0.1978980004787445,-0.08407607674598694
14.55,-0.8376007080078125,-0.33676719665527344,0.04098935425281525,-0.47409310936927795,-0.5122446417808533,0.05848255753517151
14.6,0.2243785411119461,-0.583709716796875,-0.6823458075523376,-0.5031718015670776,-0.33996424078941345,0.10958969593048096
14.65,-0.4030607044696808,0.060329437255859375,-0.13196685910224915,-0.4924596846103668,-0.29812800884246826,0.19020725786685944
14.7,-0.7494975328445435,0.007419586181640625,-0.35119742155075073,-0.5166623592376709,-0.14232869446277618,0.2900415360927582
14.75,0.4017202854156494,0.30916881561279297,-0.00626305490732193,-0.5307357311248779,-0.10876800119876862,0.2772962749004364
14.8,-0.3629545569419861,0.9610795974731445,0.5251446962356567,-0.40644586086273193,-0.1449003517627716,0.25662243366241455
14.85,-1.868449091911316,3.5628395080566406,0.05479896068572998,-0.2608202397823334,-0.1037178486585617,0.22122997045516968
14.9,-2.7169392108917236,5.43328857421875,-1.7851818799972534,-0.5246683955192566,0.22394375503063202,-0.31390705704689026
14.95,-3.5493452548980713,-9.431453704833984,-0.20764216780662537,-1.3057630062103271,0.36274632811546326,-0.9543164968490601
15.0,-5.725928783416748,-10.266592025756836,-2.548203706741333,-2.0003256797790527,0.7457176446914673,-1.718837857246399
15.05,0.6277013421058655,-11.654533386230469,-3.161648750305176,-1.4206821918487549,-0.9997687339782715,-2.991138458251953
15.1,2.5817480087280273,-2.217237949371338,0.7162221670150757,-0.7894003987312317,-3.9374210834503174,-1.3101048469543457
15.15,5.007308006286621,4.354206085205078,-1.2628746032714844,0.6149473190307617,-3.7266554832458496,-2.1005899906158447
15.2,5.763476371765137,9.844414710998535,-6.1747002601623535,1.5082571506500244,-2.937457323074341,-1.4548020362854004
15.25,-3.8140673637390137,-1.777761459350586,-5.067994594573975,1.212884545326233,-1.851487398147583,0.040523044764995575
15.3,-3.669163942337036,0.10700702667236328,2.271367073059082,-1.6984963417053223,-1.3892946243286133,0.8945842981338501
15.35,-0.8184747695922852,-4.206178188323975,0.5996372103691101,-0.26376527547836304,0.7773934006690979,1.175945520401001
15.4,7.173327445983887,-3.6673030853271484,-2.8158118724823,1.3102984428405762,1.4218465089797974,1.4545173645019531
15.45,2.140512466430664,-2.607227325439453,2.7816247940063477,0.36484402418136597,-0.2007904052734375,2.469529867172241
15.5,5.675136566162109,-1.6854772567749023,7.244937419891357,-0.20408830046653748,1.101300835609436,2.5865652561187744
15.55,13.889779090881348,-3.747133255004883,-2.1618666648864746,-1.5530941486358643,1.4852656126022339,2.8663418292999268
15.6,1.0857899188995361,4.287461280822754,-0.21042445302009583,-2.117766857147217,-1.2599480152130127,1.0938416719436646
15.65,2.0445773601531982,-1.0407905578613281,-0.8669412732124329,-1.1586323976516724,1.4424936771392822,0.5447531938552856
15.7,2.268605947494507,-0.4706392288208008,-0.7663569450378418,-1.0230695009231567,0.17505833506584167,0.6895654201507568
15.75,-0.4426041841506958,-1.1640233993530273,0.9497341513633728,-0.7827017307281494,0.3469211757183075,0.7795660495758057
15.8,-0.667849600315094,2.864874839782715,-2.096331834793091,-0.6865788102149963,0.31334564089775085,0.38354596495628357
15.85,-0.21328890323638916,1.5115957260131836,-2.2828855514526367,-0.4430514872074127,0.0038844048976898193,0.23958763480186462
15.9,1.869122862815857,-0.9519786834716797,2.3538663387298584,-0.2154652178287506,-0.09399671107530594,-0.20930597186088562
15.95,-0.28904470801353455,1.3328380584716797,-1.6649683713912964,-0.027887312695384026,0.25340813398361206,-0.04900447651743889
16.0,0.7972486019134521,-0.520014762878418,1.7026616334915161,0.28449174761772156,0.026851706206798553,-0.2698401212692261
16.05,1.0956645011901855,-0.8815860748291016,-1.0331237316131592,0.23014701902866364,0.3961915373802185,-0.4743563234806061
16.1,-0.13308310508728027,-0.15855789184570312,-0.9753925204277039,0.23718489706516266,-0.2064092457294464,-0.11364512890577316
16.15,-1.5695449113845825,-0.8785324096679688,0.8407862782478333,0.1996169239282608,-0.20204316079616547,-0.14221836626529694
16.2,0.20245900750160217,0.021758079528808594,-1.4537009000778198,-0.014467865228652954,0.20303186774253845,-0.4648076891899109
16.25,0.1847529411315918,-1.5448112487792969,-0.7252038717269897,-0.035012975335121155,0.15146371722221375,-0.05988774821162224
16.3,0.47870302200317383,-0.10878467559814453,-2.732323408126831,-0.35764989256858826,-0.003875553607940674,-0.19472722709178925
16.35,-0.26593008637428284,-0.2990236282348633,-0.698628306388855,-0.31871533393859863,-0.4384252727031708,0.12433185428380966
16.4,-0.10303158313035965,0.8254423141479492,-1.2882795333862305,-0.39778774976730347,-0.2402975857257843,-0.014101330190896988
16.45,-1.400063395500183,1.003854751586914,0.34216317534446716,-0.20867174863815308,-0.40539273619651794,0.25904977321624756
16.5,0.09714285284280777,-0.12480735778808594,-0.09940730035305023,-0.07534752786159515,-0.20405161380767822,-0.08840668946504593
16.55,0.33025795221328735,0.4126625061035156,-0.1326550543308258,0.027048010379076004,-0.29286935925483704,-0.0363854244351387
16.6,-0.5232109427452087,0.31151771545410156,-0.6215947866439819,0.11714081466197968,-0.06376904994249344,0.03752363473176956
16.65,-0.4658251702785492,0.18022727966308594,-1.127933382987976,0.15703453123569489,-0.06623754650354385,-0.01733977720141411
16.7,-0.0020774512086063623,0.1130361557006836,-0.03958974778652191,0.2223319709300995,-0.18384546041488647,0.08392825722694397
16.75,-0.248419389128685,-0.06485462188720703,-0.2504671812057495,0.21544919908046722,-0.021029099822044373,0.0766569972038269
16.8,-1.1226952075958252,0.48081302642822266,-0.004835367202758789,0.2383102923631668,0.06284710764884949,0.09596508741378784
16.85,-0.4468809962272644,-0.6159839630126953,-0.7296761274337769,0.2597886025905609,0.4377206265926361,-0.06242383271455765
16.9,-0.5339211225509644,-0.01372528076171875,-1.3759281635284424,0.17281249165534973,0.47741466760635376,-0.06058908998966217
16.95,-0.02257074974477291,-0.5244235992431641,-0.20373758673667908,0.06942002475261688,0.5494697690010071,-0.09415165334939957
17.0,1.5213243961334229,-0.6864748001098633,-2.7498531341552734,-0.08318878710269928,0.6046680212020874,-0.20951174199581146
17.05,1.4220877885818481,-0.7088937759399414,-2.6027839183807373,-0.24994534254074097,-0.16620323061943054,-0.04714019596576691
17.1,-0.18861506879329681,0.6167850494384766,-0.5937962532043457,-0.42954906821250916,-0.7297275066375732,0.06727628409862518
17.15,-2.2333931922912598,1.0592679977416992,1.1789039373397827,-0.2936772406101227,-0.7932193279266357,0.16815555095672607
17.2,-0.8552501201629639,-0.994542121887207,1.3157918453216553,-0.047684233635663986,-0.17612908780574799,-0.03927924856543541
17.25,0.5843518972396851,0.3346405029296875,-1.1747385263442993,-0.11187941581010818,0.06614455580711365,-0.14242717623710632
17.3,0.1666034609079361,0.33011817932128906,-0.5439544320106506,0.018155641853809357,0.022441428154706955,0.07157520949840546
17.35,1.5221811532974243,-0.38796138763427734,-0.8611591458320618,0.013565564528107643,0.006858423352241516,-0.05924254283308983
17.4,0.9632923007011414,0.31474876403808594,-0.8100008964538574,-0.10265439003705978,-0.4674743413925171,0.12523308396339417
17.45,-0.809986412525177,0.25356101989746094,0.22985048592090607,-0.11530737578868866,-0.6719930171966553,0.42103642225265503
17.5,-1.3093056678771973,-0.6593656539916992,-0.01884143054485321,-0.13504450023174286,-0.20437245070934296,0.36424145102500916
17.55,-0.29655468463897705,0.6620292663574219,-2.1382696628570557,0.1607861965894699,-0.05710934102535248,0.13447175920009613
17.6,0.7919986248016357,0.5921421051025391,-2.698258399963379,0.6836850643157959,-0.11634483933448792,0.05590769276022911
17.65,0.06671948730945587,-0.5037298202514648,-0.9874405264854431,0.9720369577407837,-0.3537437915802002,0.18740421533584595
17.7,-0.32516494393348694,3.770425796508789,4.8863115310668945,1.046859860420227,-0.7450034022331238,0.3518259823322296
17.75,2.6426641941070557,-1.5515766143798828,-1.0389385223388672,0.2860082983970642,0.7537635564804077,-0.375047892332077
17.8,-2.418450117111206,-0.0896148681640625,2.3056538105010986,0.4198762774467468,-0.788192093372345,0.27419817447662354
17.85,0.9113835096359253,0.8400983810424805,-0.26355671882629395,0.47280386090278625,0.4296908974647522,-0.39092302322387695
17.9,0.627643346786499,1.574885368347168,-1.3732316493988037,0.6367296576499939,0.1778038740158081,-0.126916766166687
17.95,-0.2612626850605011,0.44180774688720703,-0.05395584553480148,0.732477605342865,-0.2135578691959381,-0.2838513255119324
18.0,1.5310139656066895,-0.688751220703125,-0.9440784454345703,0.7227445840835571,0.4448629915714264,-0.7048818469047546
18.05,0.4973200559616089,-0.34314441680908203,-0.3423183858394623,0.6351228952407837,-0.4855659306049347,-0.7331792116165161
18.1,-2.6892712116241455,1.144270896911621,-0.4105776250362396,0.5742843747138977,-0.6237888336181641,-0.36760732531547546
18.15,-0.07633513957262039,-2.500009059906006,0.3624539077281952,0.5588429570198059,-0.2051687389612198,-0.8349623084068298
18.2,0.10108989477157593,0.7401762008666992,-0.9727388024330139,0.06439660489559174,-1.3760371208190918,-0.584454357624054
18.25,-3.3564999103546143,0.8484582901000977,0.9955029487609863,0.15252511203289032,-1.080618977546692,-0.6477325558662415
18.3,0.22378161549568176,0.11110591888427734,-1.68489670753479,0.640277624130249,0.7264302372932434,-0.6203948259353638
18.35,-0.47997069358825684,-0.008609771728515625,-2.5200815200805664,0.3521360158920288,0.3822242319583893,-0.46634966135025024
18.4,0.0031437426805496216,-0.28656482696533203,-2.3035004138946533,-0.07533305883407593,-0.1474570780992508,-0.19965362548828125
18.45,-1.0358771085739136,0.37226104736328125,0.44922664761543274,-0.46004733443260193,-0.749923050403595,-0.0167183056473732
18.5,-0.23865683376789093,-0.32646751403808594,-0.5460604429244995,-0.264881432056427,-0.04795249551534653,0.08693806827068329
18.55,-0.6246868371963501,0.41523170471191406,-0.21167634427547455,-0.28120553493499756,0.18082895874977112,0.25069206953048706
18.6,1.4997522830963135,-0.9464216232299805,-0.7202084064483643,-0.307183176279068,0.010325368493795395,0.18301980197429657
18.65,-0.49846547842025757,0.9383020401000977,0.36178499460220337,-0.41769009828567505,-0.1972072422504425,0.4862605631351471
18.7,0.822022557258606,-0.1087045669555664,-1.1466337442398071,-0.27057328820228577,0.12160775810480118,0.4036945104598999
18.75,-1.926884651184082,0.5824613571166992,0.45501455664634705,-0.40381067991256714,-0.4835611879825592,0.5635440945625305
18.8,0.6292445659637451,0.1760997772216797,-0.903064489364624,-0.1071925088763237,0.5113537311553955,0.35577914118766785
18.85,-1.235682487487793,2.8630142211914062,-1.8569177389144897,-0.2508474588394165,0.23678193986415863,0.23695269227027893
18.9,-0.6978614330291748,-1.140284538269043,-0.6210681796073914,0.024284765124320984,1.167338490486145,0.062341656535863876
18.95,-2.108942985534668,1.6158647537231445,-0.7651575803756714,-0.23874834179878235,0.8030068874359131,0.20562992990016937
19.0,-0.2450314313173294,0.22159481048583984,-2.279388666152954,-0.28154927492141724,1.1115984916687012,0.15386927127838135
19.05,1.5445194244384766,-0.02241230010986328,-2.2480878829956055,-0.5948657989501953,0.5777528882026672,0.3453284502029419
19.1,0.7026165723800659,0.07471466064453125,0.7351164221763611,-0.7503139972686768,-0.4681589603424072,0.5725048184394836
19.15,-0.7870671153068542,1.111964225769043,1.1259233951568604,-0.7093351483345032,-0.2880154550075531,0.4813387095928192
19.2,0.30987098813056946,1.362959861755371,-0.6282474994659424,-0.427325040102005,0.5874431133270264,0.0019138343632221222
19.25,0.412479043006897,-0.9869613647460938,1.7722305059432983,-0.21178047358989716,-0.020734507590532303,0.26068201661109924
19.3,-0.4155311584472656,1.4746599197387695,-0.4042034447193146,-0.12544599175453186,0.06355079263448715,0.09336318075656891
19.35,1.3005832433700562,-0.6644830703735352,-0.3586823344230652,0.016136830672621727,0.5259584784507751,-0.11779152601957321
19.4,0.8487043380737305,-0.23421001434326172,-0.6728308200836182,0.03277662768959999,0.07744531333446503,0.04431925714015961
19.45,-0.37636876106262207,0.9317398071289062,-1.6450797319412231,0.06267907470464706,0.219748392701149,0.014233945868909359
19.5,0.7348450422286987,-0.5539112091064453,-0.1636011302471161,0.009000618010759354,0.10181545466184616,-0.1554003804922104
19.55,-0.884961724281311,0.7207536697387695,0.19555747509002686,0.04042652249336243,-0.29589417576789856,0.06777782738208771
19.6,0.9676473140716553,-1.0890741348266602,-0.08384259045124054,0.056355178356170654,0.1356099396944046,-0.283683180809021
19.65,0.1286063939332962,1.5169458389282227,0.2570880651473999,0.024255357682704926,-0.35826873779296875,-0.1672525852918625
19.7,0.7811697125434875,-0.004119873046875,-0.5865367650985718,0.1396665871143341,0.23047220706939697,-0.45284128189086914
19.75,0.7662058472633362,0.5417814254760742,-0.5592350959777832,0.20126980543136597,0.001690547913312912,-0.37574419379234314
19.8,-1.4817487001419067,3.670948028564453,-0.6699924468994141,0.4349556863307953,-0.6746087074279785,-0.17310090363025665
19.85,0.6179747581481934,-1.035116195678711,1.428491473197937,0.8216853737831116,-0.5949831008911133,-0.398439884185791
19.9,0.6999124884605408,0.8300752639770508,-2.0392706394195557,0.9202489256858826,-0.7243673205375671,-0.5151508450508118
19.95,-1.7865198850631714,-1.272130012512207,-0.6025139093399048,0.8252026438713074,-1.0914709568023682,-0.3606750965118408
20.0,-0.42802655696868896,-1.2322101593017578,-0.8657231330871582,0.670563817024231,-0.328204482793808,-0.898694634437561
20.05,-0.6617048978805542,-1.7165718078613281,-0.6253403425216675,0.5124377608299255,0.08466239273548126,-0.3370128273963928
20.1,-2.715714454650879,0.6930150985717773,-0.9266458749771118,0.12970183789730072,-0.42767250537872314,-0.33154287934303284
20.15,0.36506906151771545,-0.5914993286132812,-1.2296922206878662,0.24752597510814667,0.44882288575172424,-0.14437411725521088
20.2,-0.13952019810676575,0.45047473907470703,-1.1600737571716309,-0.012419451028108597,0.07594932615756989,0.0668664276599884
20.25,0.10126380622386932,-0.8697481155395508,-0.510565459728241,-0.19527451694011688,-0.29026901721954346,0.012490931898355484
20.3,-0.199936181306839,0.3602714538574219,-0.838050365447998,-0.19798563420772552,-0.05785790830850601,0.1490941196680069
20.35,-1.0973273515701294,-0.04121589660644531,0.9681329727172852,-0.3363185524940491,-0.5926753878593445,0.16629965603351593
20.4,0.6911664605140686,0.2944221496582031,-1.3302583694458008,-0.18029645085334778,0.10035308450460434,0.05792584270238876
20.45,-0.020852841436862946,-0.7936782836914062,-0.5875915884971619,-0.2702070474624634,-0.41853585839271545,0.24576616287231445
20.5,-0.24981652200222015,-0.896458625793457,0.542646586894989,-0.45052340626716614,-0.6731855869293213,0.31649285554885864
20.55,0.2949739992618561,-1.7230415344238281,0.3118992745876312,-0.4268881678581238,-0.1798926293849945,0.47856682538986206
20.6,-2.0559303760528564,1.8291292190551758,-3.238304376602173,-0.4495110511779785,-0.06622669845819473,0.7414754033088684
20.65,0.6605841517448425,-2.599058151245117,0.14099818468093872,-0.3094280958175659,0.5715002417564392,0.3530678153038025
20.7,-2.8008010387420654,3.9430627822875977,-2.397641897201538,-0.37334126234054565,1.0005474090576172,0.6941260695457458
20.75,4.239066123962402,-4.521083354949951,-0.18343821167945862,-0.3424474000930786,1.7265920639038086,0.36333808302879333
20.8,0.7724394798278809,3.6685361862182617,-3.3345580101013184,-0.7739989757537842,0.07241193950176239,1.0031872987747192
20.85,0.5450471639633179,-1.7992162704467773,1.1562268733978271,-0.7336159944534302,0.24459168314933777,0.8220112919807434
20.9,0.4801069498062134,3.7971715927124023,-2.0192649364471436,-0.8484127521514893,-0.5021588802337646,0.8679102063179016
20.95,-2.1108665466308594,2.078907012939453,1.2182623147964478,-0.26678961515426636,-0.8926281929016113,0.8326596617698669
21.0,2.0981876850128174,-3.273007392883301,2.513697385787964,-0.2750815153121948,0.2954410910606384,0.4323151111602783
21.05,-3.4376683235168457,6.345526695251465,-4.082622051239014,0.13565866649150848,-0.16305753588676453,0.2490009218454361
21.1,3.4789466857910156,-1.4130315780639648,-0.34800028800964355,-0.11478261649608612,0.4433518052101135,-0.1696508377790451
21.15,-0.9505334496498108,0.2687349319458008,-0.1868392527103424,0.03879007324576378,-0.6045534610748291,0.366538405418396
21.2,-0.20102845132350922,0.4915733337402344,-0.28299111127853394,0.044403303414583206,-0.08840066194534302,-0.30034345388412476
21.25,-0.23597562313079834,0.7850723266601562,-0.1386343091726303,0.11923779547214508,-0.2016456574201584,-0.13681912422180176
21.3,-1.516355037689209,0.8625726699829102,0.082944855093956,0.23219572007656097,0.043998077511787415,-0.15407004952430725
21.35,-0.018109366297721863,1.0824909210205078,-0.9315429329872131,0.31526052951812744,0.3232867419719696,-0.36199668049812317
21.4,1.8444111347198486,1.1180734634399414,-1.6495493650436401,0.32775649428367615,0.24662718176841736,-0.38562315702438354
21.45,-0.19959861040115356,4.3311567306518555,0.36204618215560913,0.4381004571914673,0.07675451040267944,-0.6938596963882446
21.5,-2.148421287536621,8.503975868225098,-0.17281261086463928,0.7380015254020691,0.47766679525375366,-1.4735198020935059
21.55,-1.1021299362182617,6.634116172790527,-6.070428371429443,1.4315210580825806,0.010518468916416168,-2.356003761291504
21.6,8.20334529876709,3.4342041015625,0.7660366892814636,2.0769855976104736,-3.177891492843628,-4.005251884460449
21.65,3.730393648147583,3.470677375793457,1.5551929473876953,1.1713961362838745,-1.3447421789169312,-4.160243034362793
21.7,-7.227230072021484,4.933201789855957,7.71597957611084,-0.19730645418167114,-3.373480796813965,-3.455721616744995
21.75,1.489274263381958,1.2250957489013672,2.9767861366271973,0.36735057830810547,-1.1927285194396973,-3.8128228187561035
21.8,2.5252034664154053,-0.7067537307739258,2.4453938007354736,-0.1345365047454834,0.02046382427215576,-3.2528982162475586
21.85,3.183363199234009,-2.0400123596191406,1.3037031888961792,-1.0471758842468262,0.4874454140663147,-3.02817702293396
21.9,3.3743369579315186,-2.3594746589660645,0.6216514110565186,-1.1516252756118774,0.8185374736785889,-2.6841354370117188
21.95,2.9250712394714355,-3.961027145385742,0.6260204315185547,-0.5267072916030884,1.3947886228561401,-2.346129894256592
22.0,1.8821542263031006,-6.1270318031311035,-0.5530053973197937,0.1282009780406952,1.8352644443511963,-1.8962165117263794
22.05,0.27033138275146484,-5.748311996459961,-0.8862980008125305,-0.022291556000709534,1.928460717201233,-1.2876098155975342
22.1,-1.3413227796554565,-5.215656280517578,-0.7015560865402222,-0.09284907579421997,1.8169538974761963,-0.7031987309455872
22.15,0.3214852809906006,-3.147151470184326,0.6917704343795776,-0.40913018584251404,2.063565254211426,-0.18834823369979858
22.2,2.0189595222473145,-4.894283771514893,0.7670127153396606,0.16584064066410065,2.0015618801116943,-0.5373795032501221
22.25,2.7285115718841553,-7.198373794555664,1.0912812948226929,0.5441503524780273,2.2560484409332275,-0.8169636130332947
22.3,0.29194381833076477,-7.900601387023926,0.5588878393173218,0.5325525999069214,2.0010452270507812,-0.5270936489105225
22.35,1.967553973197937,-4.19057559967041,-2.1997694969177246,0.854496419429779,2.3543872833251953,0.8505281805992126
22.4,1.3550784587860107,-2.502626419067383,-7.4507222175598145,1.2046024799346924,2.5111756324768066,0.9391878843307495
22.45,0.6001405715942383,-2.2380805015563965,-5.172209739685059,0.5884124636650085,2.2447221279144287,1.4428417682647705
22.5,1.335504412651062,-0.013772010803222656,-5.5334858894348145,0.6879990696907043,1.4652222394943237,2.1849658489227295
22.55,1.1521601676940918,-1.1169443130493164,-5.87196683883667,1.4484620094299316,1.0424326658248901,0.6668016314506531
22.6,-0.7592809796333313,-2.9766335487365723,-5.637572765350342,1.8396261930465698,1.5573503971099854,-0.35777345299720764
22.65,1.4030555486679077,-1.8260064125061035,-7.81904935836792,2.003610372543335,2.3621625900268555,0.8147674798965454
22.7,-1.856787919998169,-1.190587043762207,-10.805660247802734,2.3882126808166504,3.3465237617492676,0.5713732838630676
22.75,-8.395312309265137,-1.4783201217651367,-12.919167518615723,2.7778284549713135,4.506598949432373,-0.24483326077461243
22.8,-12.763943672180176,1.0285844802856445,-11.141809463500977,3.8393852710723877,4.070193290710449,0.3295518755912781
22.85,-15.784405708312988,7.209044456481934,-4.421304702758789,5.488981246948242,2.646942377090454,0.996432900428772
22.9,-10.015620231628418,10.262679100036621,11.766359329223633,5.772998809814453,1.9217877388000488,-0.4212498962879181
22.95,2.128889322280884,6.728363990783691,6.388034343719482,1.140594720840454,5.104247570037842,-2.5253357887268066
23.0,-0.7651598453521729,0.650517463684082,6.737092971801758,-2.0191071033477783,8.353784561157227,-1.3335500955581665
23.05,7.838660717010498,-0.4377174377441406,6.575268745422363,-1.8047603368759155,3.8597521781921387,-0.9929195046424866
23.1,-2.2084851264953613,-7.576127529144287,1.4152659177780151,-0.23144365847110748,1.6556470394134521,-0.1943858414888382
23.15,2.2428650856018066,3.0957202911376953,-2.402374029159546,0.513789713382721,-0.33918237686157227,-0.6792512536048889
23.2,-5.881380558013916,0.4272432327270508,-0.5306166410446167,0.0792054682970047,1.6318680047988892,0.05042151361703873
23.25,0.4681016206741333,0.1078939437866211,0.45610174536705017,-0.07660169899463654,-0.24401894211769104,-0.3340248763561249
23.3,-1.806401014328003,-0.9147157669067383,0.7285928726196289,0.12988075613975525,0.4398770332336426,-0.16435188055038452
23.35,-2.0800962448120117,-0.5810680389404297,1.1530566215515137,0.3194596767425537,0.5727962851524353,-0.06858247518539429
23.4,-0.4131200313568115,-0.5706071853637695,0.9260965585708618,0.5360895991325378,-0.2753690779209137,-0.145370215177536
23.45,-1.3753623962402344,-0.11541366577148438,-0.42103439569473267,0.7333502769470215,-0.3735429346561432,-0.11226507276296616
23.5,-1.5291682481765747,-0.8133697509765625,-0.27275386452674866,0.7345371246337891,-0.4137037396430969,-0.021159134805202484
23.55,-1.3546271324157715,0.20958900451660156,-1.3231149911880493,0.8655573725700378,-0.6286497712135315,0.04877766966819763
23.6,-0.8633443713188171,0.3027801513671875,-0.6647040247917175,0.8029578924179077,-0.12362852692604065,0.37626078724861145
23.65,-0.08276429027318954,1.0253210067749023,-0.3241890072822571,0.6539093255996704,0.10661903023719788,0.5877430438995361
23.7,0.3720666170120239,1.1508874893188477,-0.2813296616077423,0.4731449782848358,0.15579238533973694,0.6334539651870728
23.75,-1.1916390657424927,1.3745965957641602,-1.1320858001708984,0.026088468730449677,0.5969125032424927,1.0462523698806763
23.8,-3.7532546520233154,0.5909509658813477,-0.3757561445236206,0.06657782942056656,0.3349528908729553,0.839070200920105
23.85,-3.0895895957946777,1.3135156631469727,2.154219388961792,0.0830015242099762,-0.13900800049304962,0.8065680265426636
23.9,1.86818265914917,3.4822492599487305,4.5466837882995605,0.36745351552963257,-0.49341514706611633,0.7728390097618103
23.95,0.838671088218689,1.463414192199707,0.30035853385925293,0.19000452756881714,1.3647048473358154,1.1730107069015503
24.0,-5.232675552368164,-3.037013053894043,3.3348069190979004,-0.514136791229248,2.1546833515167236,1.753043532371521
24.05,-2.3627548217773438,-3.879002571105957,0.7120686173439026,-1.0663468837738037,-0.10254020988941193,-0.08252444118261337
24.1,3.638716697692871,0.02097320556640625,-3.8629696369171143,-1.7580506801605225,-1.6699234247207642,-1.2528457641601562
24.15,2.160367965698242,-1.5675649642944336,-6.838672161102295,-1.8991490602493286,0.8989238739013672,-0.05113436281681061
24.2,4.695085525512695,-0.6034355163574219,-1.1536699533462524,-0.9336315989494324,2.493441104888916,-0.3140448033809662
24.25,8.87382698059082,8.154736518859863,-2.4395129680633545,-0.74281907081604,2.0204598903656006,0.31740835309028625
24.3,2.5473594665527344,0.24045085906982422,1.4829260110855103,0.010938695631921291,-0.16284134984016418,0.04029059037566185
24.35,3.162310838699341,-2.7083091735839844,-2.44353985786438,0.23170384764671326,-0.0429973229765892,-0.858111560344696
24.4,-2.7417044639587402,-1.8651857376098633,0.6629698872566223,0.38843297958374023,2.532426595687866,-0.20985610783100128
24.45,-1.8667486906051636,1.5433721542358398,0.39977961778640747,0.4445161819458008,0.6880415081977844,-0.5716079473495483
24.5,-0.897165060043335,0.2850761413574219,0.1498710811138153,0.4810168743133545,0.5732817649841309,-0.4317195415496826
24.55,-2.6017074584960938,0.003246307373046875,1.8212366104125977,0.6370609998703003,0.7150253057479858,0.029277870431542397
24.6,0.383065402507782,0.724757194519043,-0.5660735964775085,0.4785558879375458,-0.6606026887893677,-0.36725500226020813
24.65,1.5071061849594116,0.6425390243530273,-0.7658228874206543,0.3648865222930908,-0.44607552886009216,-0.24667973816394806
24.7,0.43722793459892273,1.1143312454223633,-0.4336758852005005,0.22986838221549988,-0.046055782586336136,-0.10844013094902039
24.75,1.7028926610946655,2.6043262481689453,-0.16142748296260834,-0.06881080567836761,-0.15304574370384216,-0.1756889820098877
24.8,0.36555516719818115,1.2352418899536133,-1.4206700325012207,-0.09031730890274048,0.5750316977500916,-0.06426489353179932
24.85,0.029439009726047516,-0.030801773071289062,-1.0890644788742065,-0.29013490676879883,0.9692766070365906,0.035246342420578
24.9,0.3271082043647766,-0.841334342956543,-2.4266586303710938,-0.585849404335022,0.9891318082809448,-0.04450664296746254
24.95,-0.49693983793258667,-0.5937509536743164,-1.0810645818710327,-0.8198100924491882,1.407179832458496,-0.008099541068077087
25.0,-1.006548523902893,-0.34050750732421875,0.492333322763443,-0.9950964450836182,1.405073881149292,-0.03408561646938324
25.05,-2.2480783462524414,-0.2948923110961914,3.247504472732544,-0.6455147862434387,1.3041869401931763,0.24352306127548218
25.1,-1.7434052228927612,-0.5634040832519531,2.86781907081604,-0.39238327741622925,0.5509689450263977,0.2049948275089264
25.15,-0.19195206463336945,-0.014898300170898438,1.0999773740768433,-0.07785885035991669,0.1842619627714157,0.2096743881702423
25.2,0.29171428084373474,0.03759574890136719,0.4473592936992645,0.09249924123287201,0.2056434452533722,0.27283066511154175
25.25,0.08571252971887589,-0.7377510070800781,-1.0873332023620605,0.0014232215471565723,-0.07809396833181381,0.08842457830905914
25.3,-0.24084585905075073,0.3027029037475586,0.4108806848526001,0.009613833390176296,0.08377259969711304,0.1042504832148552
25.35,-0.47770020365715027,-0.002040863037109375,0.9294209480285645,-0.05594438686966896,0.009774425998330116,0.02334757335484028
25.4,-1.295444130897522,-0.14281368255615234,2.833921432495117,0.07034504413604736,-0.18150869011878967,0.022652873769402504
25.45,-2.948639154434204,-1.9229750633239746,3.5141594409942627,0.4866734743118286,-0.880894660949707,0.18086379766464233
25.5,-3.314715623855591,-0.8486499786376953,3.1228084564208984,1.0910805463790894,-1.972872257232666,0.3281954228878021
25.55,-4.376031398773193,3.8852081298828125,3.232771635055542,1.4047913551330566,-2.6929922103881836,0.5754556655883789
25.6,-0.044482722878456116,2.2632551193237305,-2.383749008178711,1.2822880744934082,-2.909882068634033,0.4236423969268799
25.65,2.178056240081787,-0.5445747375488281,-3.430422782897949,1.42266845703125,-2.3333311080932617,0.9145622849464417
25.7,8.781235694885254,1.066929817199707,-6.096560955047607,0.870441734790802,-2.530146837234497,-0.29799938201904297
25.75,13.262104988098145,2.4012508392333984,-7.80543327331543,-0.5337331891059875,0.31528621912002563,-1.105616807937622
25.8,0.6731289029121399,1.4107131958007812,-2.1371543407440186,-1.1115119457244873,3.7697770595550537,0.34615081548690796
25.85,-3.171609401702881,-1.0402088165283203,-1.365537166595459,-1.4617938995361328,2.580310821533203,-0.586705207824707
25.9,-4.580611705780029,-2.6197705268859863,1.297055959701538,-1.7781840562820435,2.7052204608917236,-1.017393946647644
25.95,-5.552635669708252,-2.6964950561523438,5.973953723907471,-1.078644871711731,2.072296380996704,-0.47267478704452515
26.0,-3.434232473373413,-1.6765098571777344,5.739577293395996,-0.02029341273009777,-0.586290180683136,-0.3251841366291046
26.05,-0.05631420016288757,-0.2052602767944336,2.7220048904418945,0.7439755797386169,-1.399637222290039,-0.3822241425514221
26.1,-2.0615878105163574,1.6598806381225586,4.800306797027588,1.3844358921051025,0.08975496888160706,0.0646519660949707
26.15,-0.23246020078659058,0.1380329132080078,-0.36586523056030273,1.3660203218460083,-1.1178077459335327,-0.15840093791484833
26.2,-1.6584486961364746,-0.4160289764404297,0.28196489810943604,1.6047042608261108,-1.4945052862167358,0.28238993883132935
26.25,-2.997490882873535,-0.26354408264160156,-0.08735863864421844,1.685266375541687,-1.9233171939849854,0.5263895988464355
26.3,-4.883473873138428,-0.6526012420654297,1.184898018836975,1.9290411472320557,-2.1544861793518066,1.1812431812286377
26.35,-3.4581551551818848,0.3616151809692383,-3.093482494354248,2.0862176418304443,-3.207522392272949,1.3765252828598022
26.4,-0.1063469648361206,0.606541633605957,-4.244084358215332,2.0693421363830566,-4.0973429679870605,1.3446171283721924
26.45,7.2948479652404785,3.7122793197631836,-3.9394092559814453,1.5990149974822998,-3.9874541759490967,0.8703716397285461
26.5,16.261030197143555,7.728598594665527,-2.19875431060791,0.1358955055475235,-1.6440677642822266,-0.7190918922424316
26.55,9.174518585205078,4.9139814376831055,-0.750652551651001,-2.793410062789917,3.157665491104126,-1.24381685256958
26.6,1.574091911315918,-0.6045351028442383,-4.092947006225586,-3.547694206237793,4.445491313934326,-1.1438732147216797
26.65,-1.9426655769348145,-3.3936376571655273,-4.475986480712891,-3.326906442642212,3.867133617401123,-1.5733808279037476
26.7,-4.64926815032959,-5.242452144622803,-1.283355474472046,-3.0809073448181152,4.094039440155029,-0.9330046772956848
26.75,-6.571452617645264,-4.9937920570373535,4.882978916168213,-2.1099367141723633,3.0698323249816895,-0.6281754970550537
26.8,-5.337304592132568,-2.668405532836914,4.682853698730469,-1.113067626953125,-0.012102439999580383,-0.4594794511795044
26.85,-1.5968756675720215,-0.5630912780761719,2.371201753616333,-0.20749884843826294,-0.9039040207862854,-0.46215423941612244
26.9,-0.20135429501533508,1.871377944946289,3.5075130462646484,0.6114248633384705,0.7120245099067688,-0.47849366068840027
26.95,-1.129362940788269,0.4341602325439453,2.7183454036712646,0.9365392923355103,0.43417245149612427,-0.3075030446052551
27.0,0.2826845049858093,-0.18962383270263672,0.44283527135849,1.1424791812896729,-0.722287654876709,-0.5382784605026245
27.05,-2.336524486541748,1.0174598693847656,3.78208065032959,1.6335574388504028,-0.42468494176864624,0.1455135941505432
27.1,-2.540719985961914,0.15909481048583984,0.3820266127586365,1.7044048309326172,-1.5097424983978271,0.051771678030490875
27.15,-2.539494514465332,0.26181602478027344,-0.5583312511444092,1.8178285360336304,-1.6667896509170532,0.49985766410827637
27.2,-3.496616840362549,0.1998434066772461,-0.547426700592041,1.861059546470642,-2.0633184909820557,1.1055102348327637
27.25,-0.33311891555786133,0.6163311004638672,-2.909109592437744,1.5959229469299316,-2.2885546684265137,0.8862805962562561
27.3,-1.4065486192703247,-0.3445558547973633,-2.1022472381591797,1.3945437669754028,-2.438748836517334,1.4049122333526611
27.35,-1.463778018951416,1.1149673461914062,-1.3027136325836182,1.364266037940979,-3.64724063873291,1.3595316410064697
27.4,0.8548457026481628,2.375425338745117,-1.5700401067733765,1.0956569910049438,-4.071652889251709,1.0306410789489746
27.45,10.148431777954102,6.260170936584473,-1.844486951828003,0.2841910719871521,-3.088818073272705,0.07434092462062836
27.5,16.094749450683594,5.00328254699707,-3.2941060066223145,-1.4761950969696045,0.35785791277885437,-1.2528690099716187
27.55,5.608994483947754,1.6169605255126953,-2.000645399093628,-3.25197172164917,3.669290542602539,-1.9918040037155151
27.6,0.05830928683280945,-4.448640823364258,-5.651528835296631,-3.5690009593963623,3.7047548294067383,-2.023137092590332
27.65,-4.508382797241211,-6.024537086486816,-2.548912525177002,-3.4299545288085938,4.533268451690674,-1.7995375394821167
27.7,-3.8696932792663574,-4.50972318649292,-1.691617727279663,-2.7224247455596924,3.4271128177642822,-1.8145631551742554
27.75,-6.101000785827637,-4.255812644958496,2.7194759845733643,-1.8114371299743652,3.1222002506256104,-1.0038995742797852
27.8,-5.244699001312256,-1.521993637084961,8.163604736328125,-0.45542794466018677,1.5102423429489136,-0.7574881911277771
27.85,-3.610469102859497,-1.4652986526489258,4.082179069519043,0.43563079833984375,-1.1395394802093506,-0.4628707766532898
27.9,-2.7838079929351807,2.8406753540039062,4.409499645233154,1.4156709909439087,-1.0241622924804688,-0.36854225397109985
27.95,-0.039429619908332825,-0.008876800537109375,1.994740605354309,1.641500473022461,-0.08376425504684448,-0.42616409063339233
28.0,-4.803663730621338,1.8162660598754883,6.134750843048096,2.489842176437378,-0.6260291337966919,0.6716384291648865
28.05,-0.2050328105688095,-0.4735403060913086,-1.361483097076416,2.336634397506714,-3.078953981399536,-0.04956996440887451
28.1,-5.190642833709717,-2.5445303916931152,-1.6384084224700928,2.7110512256622314,-2.8480451107025146,1.2180081605911255
28.15,-4.433560848236084,1.1433534622192383,-2.094278335571289,3.043308734893799,-4.336501598358154,0.9272279143333435
28.2,-4.080543518066406,0.3913736343383789,-3.1196365356445312,2.9322195053100586,-4.727540969848633,1.371605396270752
28.25,-1.3846749067306519,-1.6465787887573242,-8.608202934265137,2.2976584434509277,-5.371652603149414,1.3325570821762085
28.3,4.757017135620117,6.027287483215332,-3.5029656887054443,2.7846176624298096,-5.242349624633789,-0.14139898121356964
28.35,5.266840934753418,2.902785301208496,0.3809485137462616,1.3371531963348389,-2.1427440643310547,-0.37885016202926636
28.4,4.086263179779053,0.9528350830078125,5.265331745147705,0.6323320865631104,0.49043452739715576,-1.086477518081665
28.45,-1.1156214475631714,-0.07989501953125,1.4925087690353394,-0.4753343462944031,1.4555188417434692,-1.093440294265747
28.5,-4.663915634155273,-0.12599468231201172,-0.7584940791130066,-0.37443235516548157,0.11391165852546692,-1.1725060939788818
28.55,-6.39844274520874,0.6308164596557617,-2.3367865085601807,-0.42720621824264526,-0.5513584613800049,-1.7386868000030518
28.6,-5.149909019470215,-1.146134376525879,-4.116988182067871,-0.26127028465270996,-0.300309956073761,-2.614165782928467
28.65,10.002632141113281,4.127566337585449,0.480312705039978,0.5131692886352539,-1.1308727264404297,-3.737604856491089
28.7,7.791522979736328,-1.742030143737793,-0.08014869689941406,-0.9705247282981873,0.7851479053497314,-0.6448407173156738
28.75,-0.12228545546531677,-2.325981616973877,-2.617612361907959,-1.1533699035644531,-0.08957380056381226,0.9814422726631165
28.8,0.8678305149078369,1.233621597290039,0.09609958529472351,0.2059991955757141,-1.7363874912261963,-0.01752806082367897
28.85,0.45476046204566956,0.11798667907714844,0.733694314956665,-0.02162274345755577,-0.23506632447242737,0.10378845781087875
28.9,-0.43176060914993286,-0.5622644424438477,-1.2091457843780518,-0.35869085788726807,0.1407657414674759,0.2627098858356476
28.95,0.8654145002365112,-1.7158536911010742,-0.5833846926689148,-0.02235281467437744,-0.228250652551651,0.13381531834602356
29.0,-1.1004369258880615,1.9306421279907227,2.198794364929199,0.09606827795505524,-0.7319358587265015,0.21983452141284943
29.05,-0.3536474108695984,0.24423885345458984,0.1937893182039261,-0.2033134400844574,-0.5646288394927979,0.1287611573934555
29.1,-0.18586397171020508,-0.2318410873413086,0.1875706911087036,-0.15715645253658295,-0.40081116557121277,0.10425733774900436
29.15,-0.36137381196022034,-0.4578580856323242,0.13361071050167084,-0.1523798257112503,-0.140648752450943,0.1369331032037735
29.2,-0.6758162975311279,0.7438535690307617,1.1684352159500122,-0.019525956362485886,-0.3520204722881317,0.10857044160366058
29.25,-0.7705049514770508,0.6184682846069336,0.30937039852142334,-0.15099743008613586,-0.32483863830566406,0.08077852427959442
29.3,-0.5982804894447327,0.7351522445678711,0.10742263495922089,-0.20721517503261566,-0.23484164476394653,0.06789539754390717
29.35,-0.2900388836860657,0.6463155746459961,0.6134318113327026,-0.22446531057357788,-0.19836634397506714,-0.02498050034046173
29.4,-0.030775796622037888,0.2757444381713867,0.22218948602676392,-0.2893831133842468,-0.09537728130817413,-0.12001984566450119
29.45,0.08670678734779358,-0.27051448822021484,0.21322646737098694,-0.3030136823654175,-0.127395361661911,-0.22445912659168243
29.5,-0.053708918392658234,-0.09667015075683594,0.48071661591529846,-0.24269820749759674,-0.06871134042739868,-0.2818542420864105
29.55,-0.4454643726348877,0.1887350082397461,0.04526320472359657,-0.3189377188682556,0.03579302132129669,-0.29403939843177795
29.6,-0.31273478269577026,-0.580449104309082,-0.5686159729957581,-0.2703836262226105,0.0067537399008870125,-0.26774755120277405
29.65,-0.7213068008422852,-0.5804471969604492,-0.4700833857059479,-0.17984434962272644,-0.11423362791538239,-0.1432691067457199
29.7,-0.18953576683998108,-0.19023418426513672,0.000172443687915802,-0.09780071675777435,-0.33491015434265137,-0.021692804992198944
29.75,-0.059836965054273605,-0.01826000213623047,0.07833492755889893,-0.08462733775377274,-0.3685077428817749,0.055615298449993134
29.8,0.17649990320205688,0.14729785919189453,0.47482481598854065,-0.03402940183877945,-0.34281107783317566,0.04829924926161766
29.85,0.2713680863380432,-0.1799631118774414,0.3741936683654785,-0.014552664011716843,-0.16385164856910706,0.005558943375945091
29.9,0.22951185703277588,0.08603668212890625,0.7387233376502991,0.04301087185740471,-0.06691647320985794,-0.019261911511421204
29.95,-0.058071330189704895,-0.015900611877441406,-0.17027196288108826,-0.05065743252635002,0.0947292372584343,-0.03617238253355026
30.0,-0.12319276481866837,-0.45629310607910156,-0.3556867837905884,0.006113268435001373,0.12209513783454895,-0.02979445643723011
30.05,-0.6650977730751038,0.3853769302368164,-0.05861073359847069,0.019911257550120354,0.03269731625914574,0.026167843490839005
30.1,0.023228876292705536,0.050327301025390625,-0.24748671054840088,0.016882438212633133,-0.1467217057943344,0.01165612693876028
30.15,-0.32215696573257446,0.8105487823486328,0.43947431445121765,0.08356131613254547,-0.18605659902095795,0.025356987491250038
30.2,-0.04868420213460922,-0.01482391357421875,0.17857767641544342,0.02476985938847065,-0.12465140968561172,-0.03434945270419121
30.25,0.18964159488677979,-0.20698928833007812,0.2897074520587921,0.03881993517279625,-0.0587228424847126,-0.03166365996003151
30.3,-0.11731909215450287,0.17922496795654297,0.3764511048793793,0.028210308402776718,0.021939655765891075,-0.020335786044597626
30.35,0.1483631283044815,-0.3090953826904297,-0.06207094341516495,-0.015334516763687134,0.0005203727632761002,-0.04798852279782295
30.4,-0.3001421093940735,0.3364858627319336,0.13980230689048767,0.012118060141801834,0.058768101036548615,-0.038010984659194946
30.45,-0.13664363324642181,-0.007256507873535156,-0.038254715502262115,-0.024534394964575768,0.1196335107088089,-0.06723303347826004
30.5,-0.17802710831165314,-0.18951988220214844,-0.1987718790769577,-0.0348796546459198,0.08692212402820587,-0.0558287613093853
30.55,-0.3799845576286316,-0.016020774841308594,-0.1517055630683899,-0.029016591608524323,0.05326837673783302,-0.030257001519203186
30.6,-0.15791289508342743,-0.2433490753173828,-0.22588461637496948,-0.03889160230755806,-0.01435079239308834,0.011905647814273834
30.65,-0.1468561291694641,0.18122196197509766,0.1867983192205429,0.0358039066195488,-0.07312024384737015,0.04909037426114082
30.7,0.3558499813079834,0.49585914611816406,0.7656646966934204,0.061370059847831726,-0.059612590819597244,0.04638117179274559
30.75,0.1255154013633728,-0.002105712890625,0.2633693218231201,-0.030482318252325058,0.09868928045034409,0.017251383513212204
30.8,0.034207168966531754,-0.19321632385253906,-0.1628383845090866,-0.029056644067168236,0.10466386377811432,0.023248756304383278
30.85,-0.3441983759403229,0.08760738372802734,-0.032317038625478745,-0.017742840573191643,0.10659920424222946,0.05869914963841438
30.9,-0.5625947117805481,1.1121692657470703,0.23334166407585144,-0.044596217572689056,0.07496516406536102,0.08298014104366302
30.95,-0.20896047353744507,0.1456451416015625,-0.4053841233253479,-0.16577601432800293,0.1815819889307022,-0.023986252024769783
31.0,0.03259006142616272,-0.6682672500610352,-0.20033696293830872,-0.1040961891412735,0.17020832002162933,-0.05655844509601593
31.05,0.7517943978309631,-0.6708669662475586,0.6323406100273132,0.05505136400461197,0.10508400201797485,-0.0015186835080385208
31.1,0.5650537610054016,-0.4049692153930664,1.0383424758911133,0.10235252976417542,0.23753845691680908,0.11448414623737335
31.15,0.33522677421569824,-0.23842239379882812,0.7946605086326599,0.08004282414913177,0.5185956358909607,0.19620899856090546
31.2,0.7125681638717651,-0.3365621566772461,0.9773117899894714,0.2622711658477783,0.6785739660263062,0.1766810268163681
31.25,2.305239200592041,-0.5915908813476562,1.1350350379943848,0.5212816596031189,0.852200984954834,0.17025524377822876
31.3,3.393038034439087,-1.265690803527832,0.293644517660141,0.4691861569881439,1.1333693265914917,0.4599299728870392
31.35,2.488833427429199,-1.0084295272827148,-0.393207848072052,0.2327941507101059,1.145409107208252,1.2620813846588135
31.4,0.1689259111881256,-2.4658641815185547,-1.7854161262512207,-0.05293156951665878,1.1243168115615845,2.043083429336548
31.45,-2.218574285507202,-1.7607336044311523,-2.192080497741699,0.514598548412323,0.5645923018455505,1.9088380336761475
31.5,-2.4344615936279297,0.9097661972045898,-1.4459919929504395,1.1326053142547607,-0.05233639478683472,1.3731881380081177
31.55,-2.450448513031006,0.8627481460571289,-1.61946702003479,1.0651015043258667,-0.2334757149219513,1.2584654092788696
31.6,-2.6719741821289062,1.9889802932739258,-0.2464360147714615,0.8926242589950562,-0.5606899857521057,1.0422618389129639
31.65,-2.746974468231201,1.697641372680664,0.026832908391952515,0.6208171844482422,-0.4899212718009949,0.8898354172706604
31.7,-1.970754861831665,0.8639755249023438,0.7467854022979736,0.44820377230644226,-0.21787339448928833,0.7557071447372437
31.75,-1.6700959205627441,0.22957515716552734,1.031538963317871,0.12791778147220612,-0.3302602767944336,0.6194321513175964
31.8,-1.3801259994506836,-0.2462301254272461,0.21027150750160217,-0.021154383197426796,-0.5297236442565918,0.453767865896225
31.85,-1.491602897644043,-0.32311248779296875,0.25891605019569397,0.1557205319404602,-0.714802622795105,0.30000779032707214
31.9,-1.5323988199234009,-0.16941356658935547,-0.27254125475883484,0.3269660770893097,-0.8832824230194092,0.2330777645111084
31.95,-1.2157526016235352,0.05211925506591797,-0.805904746055603,0.4925636053085327,-0.9814757108688354,0.2556720972061157
32.0,-1.3845983743667603,-0.2440357208251953,-0.7513006329536438,0.620072066783905,-1.1073131561279297,0.2926327586174011
32.05,-1.0166945457458496,0.4188079833984375,-0.9724011421203613,0.9144644141197205,-1.428665280342102,0.25130194425582886
32.1,-0.8995151519775391,1.1600255966186523,0.7669844627380371,1.2221788167953491,-1.4738619327545166,0.33831164240837097
32.15,-2.1626811027526855,1.9621086120605469,2.1901681423187256,0.8753901124000549,-1.0373810529708862,0.1394461691379547
32.2,-2.0650694370269775,2.069310188293457,1.4736340045928955,0.1901116669178009,-0.37310969829559326,-0.3914286196231842
32.25,-0.5487847328186035,1.9861373901367188,1.065836787223816,0.17357394099235535,-0.027407467365264893,-1.0315994024276733
32.3,0.48811864852905273,1.769759178161621,0.40366336703300476,0.335124135017395,0.13505372405052185,-1.6653125286102295
32.35,2.5386550426483154,0.12157249450683594,0.02520383894443512,0.20545285940170288,0.27535542845726013,-2.1232192516326904
32.4,2.864429473876953,-2.2326912879943848,-0.2182542383670807,-0.006493717432022095,0.31164178252220154,-2.0868546962738037
32.45,3.1568267345428467,-2.2134575843811035,0.015259400010108948,-0.07278092205524445,0.06393006443977356,-1.8709852695465088
32.5,3.8114070892333984,-2.8331260681152344,0.6478143930435181,-0.15045374631881714,-0.3409361243247986,-1.383689284324646
32.55,2.865100860595703,-1.1349496841430664,0.5245344638824463,-0.35939934849739075,-0.5707277059555054,-0.8211312294006348
32.6,0.8261634111404419,0.024315834045410156,1.2981702089309692,-0.4610093832015991,-0.8090311288833618,-0.43699634075164795
32.65,2.2096333503723145,0.030014991760253906,2.545057773590088,-0.589533269405365,-0.984134316444397,-0.39034509658813477
32.7,4.3401007652282715,0.2812814712524414,2.324462652206421,-0.8462539315223694,-0.47384175658226013,-0.2788185775279999
32.75,2.765517473220825,1.5825891494750977,5.396317481994629,-0.3870387077331543,0.7798672318458557,-0.25243890285491943
32.8,2.2176496982574463,1.3612241744995117,3.02197265625,-0.2425001561641693,2.6962907314300537,-0.8825411200523376
32.85,1.7304465770721436,0.6727724075317383,-1.4312399625778198,-0.05534195154905319,3.7885851860046387,-1.2945274114608765
32.9,3.275070905685425,-0.4552936553955078,-2.16463041305542,0.7400496602058411,3.6202287673950195,-1.6686420440673828
32.95,2.417030096054077,-1.0363969802856445,-2.616241931915283,0.6249009370803833,3.7502503395080566,-1.6818376779556274
33.0,0.6870682239532471,-1.581315040588379,-4.484655380249023,0.28271254897117615,3.839332103729248,-1.35909903049469
33.05,-0.9899923801422119,-0.904484748840332,-4.303138732910156,0.4215356111526489,3.9738659858703613,-1.3180924654006958
33.1,-4.916802406311035,0.8604936599731445,-2.840670585632324,0.25258076190948486,3.723721981048584,-0.9321709871292114
33.15,-7.4825005531311035,0.8206138610839844,-0.6336299777030945,-0.06601487100124359,2.4816033840179443,-0.5113660097122192
33.2,-6.278182506561279,0.8277349472045898,1.4753611087799072,-0.2188570499420166,1.11026930809021,-0.327737033367157
33.25,-2.5837244987487793,0.20479679107666016,2.058837413787842,-0.2593202292919159,0.19515924155712128,-0.13310366868972778
33.3,-1.5430673360824585,-0.3922920227050781,1.2218788862228394,-0.1300525814294815,-0.15257063508033752,0.036585427820682526
33.35,-1.249964952468872,0.5366058349609375,0.2739104926586151,-0.007507919333875179,-0.44202595949172974,0.215915247797966
33.4,-0.6683313846588135,0.7655363082885742,-0.245670884847641,-0.034762509167194366,-0.6397366523742676,0.2711433470249176
33.45,-0.29696354269981384,0.3817415237426758,-0.3407076597213745,-0.06472047418355942,-0.6089063882827759,0.3095623552799225
33.5,0.6145638823509216,0.3331422805786133,0.23632702231407166,-0.06666041910648346,-0.4928836226463318,0.31907761096954346
33.55,1.1461325883865356,-0.11036109924316406,0.4953063726425171,-0.11220960319042206,-0.38777783513069153,0.34405791759490967
33.6,1.0854092836380005,-0.35755157470703125,-0.11067866533994675,-0.0842805877327919,-0.26308417320251465,0.23879142105579376
33.65,-0.10519256442785263,-0.05273151397705078,0.23505157232284546,-0.05387916415929794,-0.10135698318481445,0.24107405543327332
33.7,-1.1744672060012817,-0.13199424743652344,0.07198025286197662,-0.10548726469278336,-0.14256514608860016,0.2594093382358551
33.75,-2.733886241912842,-1.1947975158691406,-0.9395948052406311,-0.13991360366344452,-0.42837387323379517,0.3628295063972473
33.8,-1.3264575004577637,-3.4604973793029785,-2.3492848873138428,0.2166891098022461,-1.3803918361663818,0.2561320662498474
33.85,-0.08006367087364197,-3.334010124206543,-3.4846858978271484,0.8741609454154968,-1.861883282661438,0.537064790725708
33.9,0.6572862267494202,-3.3383421897888184,-1.1985435485839844,1.5878640413284302,-1.975921630859375,0.8599458932876587
33.95,-1.307979941368103,0.14092159271240234,0.3516245186328888,1.3533772230148315,-2.110398292541504,1.343296766281128
34.0,-0.8735303282737732,4.782750129699707,3.0087006092071533,1.228335976600647,-2.202502727508545,0.690575122833252
34.05,2.3269834518432617,4.985074043273926,6.423145771026611,0.6373717188835144,-1.5856575965881348,0.4483574628829956
34.1,1.7694799900054932,0.47475147247314453,1.6532621383666992,-0.6436737775802612,-1.2481998205184937,1.0829379558563232
34.15,3.539868116378784,-1.446141242980957,1.0438554286956787,-0.369826078414917,-1.5732300281524658,0.5309157371520996
34.2,1.1639429330825806,-0.8105344772338867,0.47568315267562866,-0.2691243886947632,-1.0279500484466553,0.35901907086372375
34.25,-0.6405168175697327,0.8467340469360352,0.8400164246559143,0.15435606241226196,-0.5583851337432861,0.1395353078842163
34.3,-1.6323570013046265,0.9116106033325195,-0.16420826315879822,-0.09817584604024887,-0.11085499823093414,0.20778793096542358
34.35,-1.1950191259384155,-0.0754384994506836,-0.8739042282104492,-0.30804207921028137,-0.15446846187114716,0.4306904077529907
34.4,-0.9787611961364746,0.7094888687133789,-1.0516301393508911,-0.45066940784454346,-0.6606117486953735,0.5008582472801208
34.45,-2.5590980052948,1.4344358444213867,-0.9059423208236694,-0.5279036164283752,-1.3624579906463623,0.5963212251663208
34.5,-4.408597946166992,1.320307731628418,-0.5089612007141113,-0.4909428060054779,-2.1341540813446045,0.6641420125961304
34.55,-1.9763879776000977,0.14708995819091797,0.2669517695903778,-0.15106239914894104,-2.5937283039093018,0.5337074995040894
34.6,1.7513375282287598,0.23348236083984375,3.6209065914154053,0.5748565793037415,-2.4369726181030273,0.01745857298374176
34.65,3.5954527854919434,1.604475975036621,7.903162956237793,0.5467179417610168,-1.1673610210418701,-0.6645262241363525
34.7,4.532434463500977,0.5719547271728516,3.096900701522827,-0.8075027465820312,1.0443298816680908,-1.2832324504852295
34.75,1.9464681148529053,-0.21979045867919922,0.9251147508621216,0.023843206465244293,2.1006197929382324,-1.5394004583358765
34.8,-1.3553822040557861,0.7014856338500977,1.56392502784729,0.214189812541008,2.9462931156158447,-2.7391576766967773
34.85,-0.8040707111358643,-0.6740312576293945,-1.4831644296646118,-1.105716586112976,5.438802719116211,-3.669732093811035
34.9,-0.6918135285377502,-3.0519142150878906,-5.4079084396362305,-1.0732524394989014,7.474071502685547,-3.492053985595703
34.95,2.0249874591827393,-4.424191474914551,-4.628159999847412,0.16002792119979858,6.813693523406982,-3.228850841522217
35.0,1.0112000703811646,0.27396297454833984,-2.270658254623413,0.4609508514404297,5.865097999572754,-1.753344178199768
35.05,-2.4795045852661133,4.8583478927612305,0.5106878280639648,0.28722241520881653,2.467424154281616,-0.2015315592288971
35.1,9.17236328125,-2.976238250732422,-3.7837023735046387,-1.0279697179794312,-3.5999109745025635,-0.8705689311027527
35.15,2.8360331058502197,0.6616640090942383,-1.68319571018219,-0.744949460029602,-0.9805768728256226,-0.3744518756866455
35.2,3.476310968399048,-0.9205446243286133,-1.8476989269256592,-1.052729606628418,-0.43776190280914307,-0.40913650393486023
35.25,-2.9130218029022217,-0.11567020416259766,-0.8596978187561035,-0.4946921467781067,2.326033115386963,0.2792857587337494
35.3,-4.458802223205566,0.27689361572265625,2.95509934425354,0.08861894905567169,3.808950185775757,0.911072850227356
35.35,0.5409913063049316,-0.641571044921875,2.4050042629241943,0.5440317988395691,3.8279507160186768,0.7553414106369019
35.4,-3.908757448196411,0.20429420471191406,4.244833946228027,1.3752248287200928,7.057367324829102,-0.01452615112066269
35.45,-3.8428053855895996,1.711543083190918,7.151014804840088,1.4711889028549194,8.88820743560791,-0.239983931183815
35.5,0.9701254963874817,0.4541606903076172,7.927567005157471,1.8880538940429688,10.667632102966309,0.36374014616012573
35.55,1.4531092643737793,-1.0552244186401367,8.702237129211426,2.2673723697662354,12.799184799194336,0.18908612430095673
35.6,9.926932334899902,-2.2494802474975586,12.4089994430542,1.5272403955459595,14.841510772705078,-1.0382585525512695
35.65,14.55947494506836,-0.1299457550048828,-3.3229668140411377,-0.4989148676395416,12.57361888885498,-1.2846806049346924
35.7,6.5754289627075195,1.4596328735351562,-9.307994842529297,-1.2289330959320068,7.397593021392822,-0.2633577287197113
35.75,1.1459481716156006,1.1428194046020508,-8.216622352600098,-0.7410182952880859,4.5520734786987305,-0.361824095249176
35.8,-0.7671520709991455,1.165186882019043,-5.45087194442749,-0.5494270920753479,4.2206950187683105,-1.165130376815796
35.85,-0.5436383485794067,-0.9707298278808594,-6.457558631896973,-0.7065041065216064,6.2111310958862305,-2.3455872535705566
35.9,-2.374936103820801,-3.6426210403442383,-5.709323406219482,-0.9115530848503113,6.942500114440918,-2.559497117996216
35.95,-6.277795314788818,-2.852436065673828,-5.136979579925537,-0.48447614908218384,5.8822712898254395,-1.417880654335022
36.0,-6.871004104614258,-2.663818836212158,-3.9642386436462402,0.9006243944168091,3.650315284729004,-0.10967221856117249
36.05,-6.8225202560424805,-1.146906852722168,-4.469485759735107,2.6945743560791016,1.6700406074523926,0.34605562686920166
36.1,0.036976829171180725,4.117738723754883,-2.303736448287964,4.297333717346191,-1.072944164276123,0.2772215008735657
36.15,5.392962455749512,6.493613243103027,3.322772741317749,3.4409499168395996,-1.3837347030639648,-0.5149314403533936
36.2,-5.494870662689209,4.215584754943848,1.107466459274292,0.18673881888389587,2.142646312713623,-0.4469430446624756
36.25,-0.03007984161376953,0.8871669769287109,6.534491539001465,-0.13385707139968872,-0.3235815167427063,-0.8430789113044739
36.3,1.9490108489990234,-2.155661106109619,3.0042107105255127,0.44712936878204346,-0.6378803849220276,-0.3745056688785553
36.35,-1.0027639865875244,2.3929738998413086,5.167149543762207,0.9482071995735168,1.1251537799835205,0.2470099925994873
36.4,4.953884601593018,1.9206609725952148,10.662154197692871,1.8450931310653687,1.9596552848815918,0.11145932972431183
36.45,-4.687033176422119,-0.041291236877441406,4.599963665008545,1.749618649482727,4.737061500549316,0.5284956693649292
36.5,-7.810198783874512,1.4365015029907227,-0.32406240701675415,-2.6356561183929443,2.563953399658203,-0.8681823015213013
36.55,9.510014533996582,4.238385200500488,-15.765752792358398,-7.559749603271484,1.7993817329406738,-0.4324897527694702
36.6,5.465774059295654,-5.523879051208496,-14.943099021911621,-7.005090713500977,4.696905612945557,0.32040935754776
36.65,10.79177474975586,-13.331260681152344,-10.749743461608887,-1.9164698123931885,-0.6720228791236877,2.7407021522521973
36.7,-2.8391668796539307,7.267861366271973,-10.589286804199219,5.16006326675415,-0.16195523738861084,2.5521295070648193
36.75,-12.760167121887207,8.528149604797363,8.343035697937012,5.530005931854248,-0.9645637273788452,2.701772689819336
36.8,-16.26923370361328,-3.4108424186706543,11.096277236938477,1.5661216974258423,-2.733105421066284,1.0020332336425781
36.85,0.9396274089813232,-2.55604887008667,3.2477638721466064,-0.4454856514930725,-2.953472137451172,-0.9686903953552246
36.9,-1.4712332487106323,-0.7667417526245117,2.3128020763397217,-0.9182798862457275,0.8254768252372742,-1.3401610851287842
36.95,-2.0692145824432373,-2.1775588989257812,1.626819133758545,-0.26464149355888367,-0.5118168592453003,-0.7451124787330627
37.0,-0.8772435784339905,-0.7107925415039062,1.1574835777282715,0.12633083760738373,-0.4948269724845886,-0.5386661291122437
37.05,1.9021546840667725,0.3834800720214844,0.13654766976833344,0.24082757532596588,-0.06164497509598732,-0.4187815189361572
37.1,0.9188500642776489,0.8963155746459961,0.530771791934967,0.17088845372200012,-0.13949799537658691,-0.314119428396225
37.15,-1.535854458808899,-0.2427663803100586,2.1274118423461914,0.3341633379459381,0.5559168457984924,-0.14351627230644226
37.2,-0.3832959532737732,-0.49298667907714844,3.8214008808135986,1.0862616300582886,1.8589481115341187,0.3124946653842926
37.25,1.819870948791504,0.35398292541503906,0.9722652435302734,1.792093276977539,1.679823637008667,0.5388452410697937
37.3,4.024557113647461,2.3953189849853516,-4.9412126541137695,1.4742776155471802,2.1453795433044434,0.23802730441093445
37.35,0.719879686832428,2.657621383666992,-5.078927040100098,0.45209741592407227,3.076111316680908,0.2776142358779907
37.4,-1.3625142574310303,-0.3551349639892578,-3.5555949211120605,-0.3758571147918701,3.047886848449707,0.39505237340927124
37.45,-2.894188165664673,-1.3126029968261719,-1.4785429239273071,-0.845460832118988,3.455159902572632,0.4820502996444702
37.5,-2.825807809829712,-1.4025421142578125,0.7889466285705566,-0.829227864742279,2.6230616569519043,0.591973602771759
37.55,0.15106201171875,-1.343557357788086,0.03590872511267662,-0.5000369548797607,0.5888903737068176,0.6080031991004944
37.6,1.544630765914917,-0.43355846405029297,-0.696269154548645,-0.36549192667007446,0.29002082347869873,0.5418253540992737
37.65,0.43871408700942993,-0.3603181838989258,0.34413576126098633,-0.4596358835697174,0.996870756149292,0.5852581262588501
37.7,0.15856191515922546,-0.7959985733032227,0.7564436197280884,-0.4537367522716522,0.8356003761291504,0.37502187490463257
37.75,-0.7964392900466919,-1.0234298706054688,1.0521442890167236,-0.15233559906482697,-0.0903812125325203,0.28165292739868164
37.8,-0.5584508776664734,-0.9224338531494141,1.4216265678405762,0.36817818880081177,-1.806012511253357,0.3486083149909973
37.85,-1.1624994277954102,-0.3412466049194336,1.661537766456604,0.8377067446708679,-2.7440624237060547,0.4584731459617615
37.9,1.1764358282089233,2.034364700317383,0.014337487518787384,1.3781712055206299,-3.60699725151062,0.4955083131790161
37.95,4.624820232391357,4.284603118896484,0.7625997066497803,1.6624510288238525,-3.5670437812805176,0.750479519367218
38.0,1.7299985885620117,2.3548221588134766,0.8318403959274292,1.4769971370697021,-2.9304234981536865,1.0094459056854248
38.05,2.5911498069763184,-0.6913604736328125,-1.9816313982009888,1.4004757404327393,-3.0627670288085938,0.6826074719429016
38.1,2.225776433944702,-2.8482799530029297,-3.328597068786621,0.9948042035102844,-1.5436203479766846,0.40466007590293884
38.15,0.5100222826004028,-3.640925407409668,-3.011669397354126,0.6185449361801147,0.10607023537158966,0.26955467462539673
38.2,-1.6538153886795044,-4.582528591156006,-3.0287587642669678,0.6706985831260681,0.5018730163574219,-0.1318121999502182
38.25,-3.2757794857025146,-3.7959556579589844,-3.905979871749878,1.4674302339553833,-0.369006872177124,-0.9280528426170349
38.3,6.6885552406311035,1.1262750625610352,-0.3488117456436157,2.4527859687805176,-1.685011625289917,-2.164801836013794
38.35,6.801384925842285,1.5011749267578125,1.3953235149383545,0.7987593412399292,0.7423515319824219,-0.9489771723747253
38.4,-3.630131244659424,2.003323554992676,1.128580927848816,-0.4123196303844452,0.8091346025466919,-0.31554102897644043
38.45,2.3837788105010986,4.252298355102539,2.1973676681518555,0.18601007759571075,-2.290513038635254,-1.9690942764282227
38.5,-0.7134891748428345,1.648798942565918,-2.172295331954956,-0.47591632604599,-0.6331970691680908,-1.2236748933792114
38.55,-0.10823336243629456,1.6455202102661133,-1.8302276134490967,-0.4235769510269165,-1.6873847246170044,-1.6274619102478027
38.6,3.344836711883545,0.25260257720947266,1.7400689125061035,-0.4990951418876648,-2.0622994899749756,-1.6469942331314087
38.65,3.0057051181793213,-0.48413562774658203,2.5071189403533936,-0.5872035622596741,-0.46990668773651123,-1.2017954587936401
38.7,0.5633516311645508,-0.36504173278808594,0.3771877884864807,-0.4269947409629822,0.876106858253479,-0.8851593136787415
38.75,-0.8388725519180298,-0.2995023727416992,-0.12086550891399384,-0.332282692193985,1.1454176902770996,-0.6425885558128357
38.8,-0.6876218318939209,-0.4201650619506836,0.6844813227653503,-0.24865111708641052,0.6325352787971497,-0.4869329333305359
38.85,-0.8833358287811279,-0.20608043670654297,0.44282853603363037,-0.04729711264371872,0.6703760623931885,-0.24698840081691742
38.9,-0.03117971494793892,-0.418792724609375,0.8560594320297241,0.13725975155830383,0.34092414379119873,-0.14875076711177826
38.95,0.36308085918426514,-0.09682369232177734,0.868654191493988,0.3561175465583801,0.2875978946685791,-0.025659821927547455
39.0,0.7384311556816101,-0.17232418060302734,0.4544965624809265,0.5655505061149597,0.2971409261226654,0.03560396656394005
39.05,0.08504734933376312,-0.2248973846435547,-0.20792356133460999,0.7287832498550415,0.43714284896850586,0.062180809676647186
39.1,0.12145018577575684,-0.22050857543945312,0.7050265073776245,0.9145669341087341,0.7735456228256226,0.17235063016414642
39.15,0.5832151770591736,-0.5615739822387695,0.488099068403244,1.048003077507019,1.0127849578857422,0.22989720106124878
39.2,0.28757354617118835,-0.9324207305908203,-1.2225637435913086,1.122696876525879,1.0191776752471924,0.19511917233467102
39.25,0.5428252220153809,-0.5342779159545898,-0.527820348739624,1.0120118856430054,0.6237615346908569,0.18483279645442963
39.3,0.36494430899620056,1.3546161651611328,1.60170578956604,1.0304139852523804,0.3446609377861023,0.3459216356277466
39.35,2.197775363922119,2.30593204498291,1.2328473329544067,1.2672199010849,0.12919357419013977,0.40530696511268616
39.4,3.515648126602173,3.4745607376098633,2.965494155883789,1.4309570789337158,0.2929809093475342,0.632716953754425
39.45,2.8747763633728027,2.739924430847168,6.00850772857666,1.527256965637207,1.0644522905349731,0.9166487455368042
39.5,0.3677295446395874,0.8377866744995117,3.289182424545288,1.2485159635543823,2.2239909172058105,1.3731257915496826
39.55,-4.414608001708984,-0.2671041488647461,1.4961284399032593,0.11005350947380066,2.217410087585449,1.85304856300354
39.6,-1.6943426132202148,0.699559211730957,1.7143254280090332,-1.4480775594711304,0.3325572609901428,0.732219934463501
39.65,-2.995316982269287,1.3606224060058594,-1.225875735282898,-2.372919797897339,-0.6437177658081055,0.22306430339813232
39.7,-2.875495195388794,0.1940298080444336,-2.928447961807251,-2.395479440689087,-1.7411774396896362,-0.006189614534378052
39.75,-0.7824329137802124,0.5638532638549805,-3.071542501449585,-2.2901246547698975,-2.1891415119171143,0.1057172566652298
39.8,-2.2636702060699463,0.10126972198486328,-4.824448585510254,-2.334317684173584,-1.328580379486084,0.49493664503097534
39.85,-1.5114134550094604,-1.8784427642822266,-5.946831703186035,-2.123131513595581,-1.931361436843872,0.2409917414188385
39.9,1.7861168384552002,-2.7292652130126953,-5.21921443939209,-1.785547137260437,-2.715325355529785,-0.07031778991222382
39.95,3.2847392559051514,-2.5886669158935547,-4.806826114654541,-1.4255532026290894,-1.8983231782913208,-0.26365309953689575
40.0,3.3460209369659424,-2.253282070159912,-4.750646591186523,-0.7080618143081665,-0.6670424342155457,-0.5149188041687012
40.05,3.7276644706726074,-1.7655181884765625,-3.343977928161621,0.25697413086891174,-0.09736038744449615,-0.6072160005569458
40.1,3.29943585395813,-0.967646598815918,-1.6303473711013794,1.105056881904602,0.6368181705474854,-0.4283037483692169
40.15,1.231485366821289,1.1987371444702148,2.77482271194458,1.3400042057037354,1.2042524814605713,-0.2919708788394928
40.2,1.7109922170639038,3.232484817504883,4.476324558258057,0.5650473833084106,0.7931073307991028,-0.5319207906723022
40.25,3.1124963760375977,0.5590600967407227,1.0779238939285278,0.017447393387556076,0.09058427065610886,-0.7873543500900269
40.3,4.341922760009766,-2.181979179382324,1.201407551765442,0.3175243139266968,0.09324317425489426,-0.8799132704734802
40.35,3.173781156539917,-1.4170637130737305,0.4527451992034912,0.7109794020652771,2.060471773147583,-0.7763208150863647
40.4,-3.7452797889709473,-0.3225889205932617,-0.11352722346782684,1.2844672203063965,3.8129653930664062,-0.37926313281059265
40.45,-3.8559763431549072,0.36766529083251953,1.1611988544464111,1.2329316139221191,1.8514163494110107,-0.4432108402252197
40.5,-1.283879041671753,0.15230083465576172,1.5535645484924316,1.0499343872070312,-0.19481946527957916,-0.548148512840271
40.55,-3.133035182952881,0.7362298965454102,0.6217359304428101,1.1556895971298218,-0.3431365489959717,-0.18954113125801086
40.6,-2.8678860664367676,0.8579740524291992,-0.7754436731338501,1.0924427509307861,-0.6733865141868591,0.11722712963819504
40.65,-0.360141396522522,-0.04779338836669922,-0.44399675726890564,1.0499473810195923,-0.8330775499343872,0.5006951689720154
40.7,0.7290167212486267,-0.7666873931884766,0.10655713081359863,1.0787904262542725,-0.7731452584266663,0.8962293863296509
40.75,-0.1500924676656723,-0.720001220703125,0.025264732539653778,1.1366708278656006,-1.035138726234436,1.1163126230239868
40.8,-0.9723727107048035,-0.49223804473876953,0.25584664940834045,1.2246373891830444,-1.502044439315796,1.3039295673370361
40.85,1.067230224609375,1.1571664810180664,1.0834276676177979,1.3020610809326172,-1.7884838581085205,1.2922476530075073
40.9,2.561662435531616,2.2809133529663086,1.6794425249099731,1.4173108339309692,-1.545116662979126,1.1378629207611084
40.95,3.3375155925750732,1.2225008010864258,0.5171524286270142,1.3118665218353271,-0.9102077484130859,0.8151063919067383
41.0,4.569663047790527,0.5227422714233398,-0.7133110165596008,0.8580754995346069,-0.24208688735961914,0.48494288325309753
41.05,5.370699882507324,-0.6719093322753906,-1.7729772329330444,0.46669700741767883,0.34890368580818176,-0.0870819091796875
41.1,3.2864816188812256,-1.4371185302734375,-1.7225134372711182,0.21649077534675598,1.0130478143692017,-0.5280776023864746
41.15,1.9194881916046143,-0.38760948181152344,0.08272594213485718,0.17983505129814148,1.8218737840652466,-1.0430161952972412
41.2,0.9482777118682861,-0.3545808792114258,-0.33116626739501953,0.1240694671869278,2.6344096660614014,-1.24651038646698
41.25,-4.857114791870117,-0.19336414337158203,0.11448603868484497,0.1882670521736145,2.13291072845459,-0.47633790969848633
41.3,-8.12716007232666,0.9470453262329102,2.148024082183838,0.363603413105011,0.6782271265983582,-0.058319155126810074
41.35,-3.6569652557373047,1.3467741012573242,2.09547758102417,0.4315989017486572,-0.45791521668434143,-0.19071300327777863
41.4,-0.9662799835205078,0.9388227462768555,0.9015360474586487,0.541333019733429,-1.078576683998108,0.47047385573387146
41.45,-1.7628822326660156,-0.4472780227661133,-0.3698193430900574,0.5659581422805786,-1.6028636693954468,1.2368824481964111
41.5,-2.541059970855713,-1.3158531188964844,-0.2754956781864166,0.6133257150650024,-1.9625773429870605,1.637272834777832
41.55,-1.1464837789535522,-1.738485336303711,0.5244562029838562,0.8196271657943726,-2.235065460205078,1.8645250797271729
41.6,-1.0481308698654175,-3.4566802978515625,-0.19536183774471283,0.855575442314148,-2.8295483589172363,2.3819968700408936
41.65,-0.83024001121521,-3.2768712043762207,-2.7749555110931396,1.0612051486968994,-3.4877817630767822,2.279325008392334
41.7,2.38969087600708,-0.642176628112793,-2.204861879348755,1.651269793510437,-3.1977503299713135,1.655436635017395
41.75,5.720188140869141,1.0272798538208008,0.1802411675453186,1.80042564868927,-2.187356948852539,1.314642071723938
41.8,6.581489086151123,2.127100944519043,0.2544931471347809,1.4653462171554565,-0.92705237865448,1.0953035354614258
41.85,3.983510971069336,3.188839912414551,0.7449533343315125,1.0354148149490356,0.502372145652771,0.7883632183074951
41.9,1.1895315647125244,2.85628604888916,0.8586673736572266,0.3993861973285675,1.6378543376922607,0.43845367431640625
41.95,0.7812780141830444,0.08494091033935547,-0.9041537046432495,-0.1992051899433136,2.409233570098877,0.4409390687942505
42.0,-2.755408763885498,-3.781167507171631,-0.23797579109668732,-0.03314370661973953,2.56148099899292,0.5531209707260132
42.05,0.1585843861103058,-0.06726360321044922,3.856569290161133,0.8689186573028564,2.083178997039795,-0.8985731601715088
42.1,2.9466423988342285,1.4501314163208008,2.7457876205444336,0.43279245495796204,1.6009931564331055,-0.49871063232421875
42.15,0.3072701692581177,-0.8976716995239258,0.37843069434165955,-0.09573238343000412,1.6690374612808228,0.6591463088989258
42.2,1.3829071521759033,-0.2881937026977539,-0.2820184826850891,-0.052294082939624786,1.7757903337478638,0.2581040859222412
42.25,0.8958065509796143,-0.1057291030883789,-0.8824450969696045,-0.11650433391332626,1.5581023693084717,0.5825347304344177
42.3,0.26988503336906433,0.9781961441040039,-0.2662792503833771,0.016289226710796356,1.492113471031189,1.0590713024139404
42.35,-0.06506108492612839,-0.0719614028930664,1.0745961666107178,0.3175807595252991,1.1863408088684082,1.817929744720459
42.4,0.19104236364364624,-1.7411260604858398,1.8331207036972046,0.40024858713150024,0.25645771622657776,2.04205584526062
42.45,-1.0149314403533936,-1.707667350769043,0.9457979798316956,0.1494787633419037,-1.0564608573913574,1.3502576351165771
42.5,-2.4621496200561523,-0.4236574172973633,-0.2903052866458893,-0.06011287868022919,-1.650761365890503,-0.2685391902923584
42.55,-2.1060469150543213,0.41951847076416016,0.518846869468689,-0.02224448323249817,-1.4844287633895874,-1.1448255777359009
42.6,-3.9585626125335693,0.41719532012939453,1.1775193214416504,-0.265220582485199,-1.2401527166366577,-0.16920875012874603
42.65,-3.999013662338257,0.18689823150634766,0.28066959977149963,-0.288650780916214,-0.8281738758087158,0.23118282854557037
42.7,-1.7733519077301025,-0.0767526626586914,-1.1223046779632568,-0.23228496313095093,-0.6428876519203186,0.27049529552459717
42.75,-1.419569969177246,-0.5100317001342773,-1.3874266147613525,-0.18427041172981262,-0.554253101348877,0.35219985246658325
42.8,-0.7894284129142761,-0.29633331298828125,-1.1004927158355713,0.1933099776506424,-0.13784518837928772,-0.41002219915390015
42.85,0.6371663212776184,-1.160181999206543,-0.14807003736495972,0.5487121939659119,0.11554500460624695,-1.1143862009048462
42.9,1.5488113164901733,-2.5500855445861816,0.27167776226997375,0.5567860007286072,-0.214466392993927,-1.4569389820098877
42.95,1.595358967781067,-2.221200466156006,-0.245499849319458,0.04059544950723648,-0.4600971043109894,-1.6199719905853271
43.0,5.805658340454102,-0.5610189437866211,0.061193108558654785,-0.3207245469093323,-0.19223707914352417,-1.9310671091079712
43.05,6.396491050720215,1.0121440887451172,1.4239122867584229,-0.43881088495254517,0.5817165970802307,-1.6706897020339966
43.1,-22.17658233642578,63.7678337097168,-10.065388679504395,-0.9151966571807861,0.2782908082008362,-3.382633686065674
43.15,-19.141321182250977,61.164180755615234,-13.969161033630371,-0.7691757678985596,0.2994781732559204,-2.5647664070129395
43.2,-3.433905839920044,0.6750116348266602,-1.3748928308486938,0.01845592074096203,0.9208345413208008,-0.028238262981176376
43.25,-1.1094355583190918,-0.1396770477294922,-0.20238901674747467,-0.04724625125527382,0.3659701347351074,0.004645085893571377
43.3,-1.3508373498916626,-0.045688629150390625,0.21041443943977356,-0.04705667123198509,0.0019217806402593851,0.006831365637481213
43.35,0.10676021873950958,-0.17357158660888672,0.2715027928352356,-0.01581525057554245,0.02375209517776966,0.008032652549445629
43.4,0.1851782202720642,-0.17031097412109375,0.2888900339603424,0.01028343103826046,0.02011648565530777,-0.010481306351721287
43.45,0.8983752727508545,-0.255218505859375,0.4866142272949219,0.026123154908418655,0.30353525280952454,-0.026203550398349762
43.5,0.8147213459014893,-0.042046546936035156,0.9396615028381348,0.028035692870616913,0.7276889681816101,-0.041293367743492126
43.55,-1.3621270656585693,0.09113788604736328,0.6913395524024963,0.013850707560777664,0.8959074020385742,-0.02440844662487507
43.6,-1.2746834754943848,-0.10327625274658203,0.21975639462471008,6.421763100661337e-05,0.6542773842811584,0.0048975045792758465
43.65,0.12072695046663284,-0.20040130615234375,0.16305430233478546,-0.011815651319921017,0.20862749218940735,0.022773146629333496
43.7,0.21165022253990173,-0.16113758087158203,0.1545199602842331,-0.009735737927258015,0.01196593139320612,0.022861262783408165
43.75,0.20637653768062592,-0.11935710906982422,0.1496836245059967,-0.002199050271883607,0.006390433292835951,0.008662877604365349
43.8,0.16498759388923645,-0.15069198608398438,0.15401697158813477,-0.0004017258179374039,0.003185377921909094,0.0019397488795220852
43.85,0.1633896678686142,-0.18453025817871094,0.15991099178791046,-0.0005709710530936718,0.0010574988555163145,0.002257409505546093
43.9,0.15978197753429413,-0.15460968017578125,0.1887904852628708,-0.00013390743697527796,-0.00108729291241616,0.0041812085546553135
43.95,0.12453213334083557,-0.09910964965820312,0.20525705814361572,0.0010499116033315659,-0.0009657202754169703,0.005126160103827715
44.0,0.14091458916664124,-0.08351707458496094,0.17528319358825684,0.0010135878110304475,-0.0011233313707634807,0.004969542380422354
44.05,0.1716671586036682,-0.12435054779052734,0.15313619375228882,0.0015168569516390562,-0.0021305233240127563,0.0015372536145150661
44.1,0.1519947648048401,-0.19090557098388672,0.15252088010311127,0.0030524067115038633,-0.0021835055667907,-0.0019099159399047494
44.15,0.12853078544139862,-0.1621541976928711,0.12723489105701447,0.002707388950511813,-0.0021737413480877876,-0.00283994572237134
44.2,0.12651756405830383,-0.12770843505859375,0.1274595558643341,0.003094104118645191,-0.002179386792704463,-0.0017333690775558352
44.25,0.12425398081541061,-0.13045787811279297,0.16895487904548645,0.0023655197583138943,-0.0021476582624018192,0.0017468957230448723
44.3,0.09809158742427826,-0.08098506927490234,0.1624772697687149,0.0005929389735683799,-0.0020956427324563265,0.002866626251488924
44.35,0.08462158590555191,-0.13145828247070312,0.1433219462633133,0.0004501288931351155,-0.0009309067390859127,0.0019091075519099832
44.4,0.10169535875320435,-0.18570899963378906,0.15576091408729553,0.00023857616179157048,-0.0011263341875746846,0.0007634133216924965
44.45,0.10074816644191742,-0.15675926208496094,0.1611005812883377,0.0010445958469063044,0.0002165586338378489,-0.0015462161973118782
44.5,0.0843605250120163,-0.1378326416015625,0.1572362333536148,0.000773030798882246,0.0044866688549518585,-0.002473199740052223
44.55,0.09571778029203415,-0.1285858154296875,0.15795382857322693,6.698608922306448e-05,0.03809615224599838,0.0012309300946071744
44.6,0.13261036574840546,-0.12912464141845703,0.18944764137268066,0.001124641508795321,0.07335495948791504,0.0015424600569531322
44.65,0.06439200043678284,-0.11290836334228516,0.18411746621131897,0.0021994172129780054,0.07745251059532166,0.0017481888644397259
44.7,0.02053217962384224,-0.13030719757080078,0.13175733387470245,0.001882306532934308,0.036876145750284195,0.004964574705809355
44.75,0.038880933076143265,-0.13745784759521484,0.11909717321395874,0.002254378516227007,0.0016871714033186436,0.004701479338109493
44.8,0.039721883833408356,-0.08923053741455078,0.14502404630184174,0.002518830820918083,-0.000948610482737422,0.001281662262044847
44.85,0.06068451330065727,-0.1252765655517578,0.14418281614780426,0.0012181999627500772,-0.0011631890665739775,0.0008071563206613064
44.9,0.0740164965391159,-0.1584177017211914,0.1276475042104721,0.0019075057934969664,-0.002144099213182926,-0.0031932226847857237
44.95,0.05346417427062988,-0.15785503387451172,0.14743377268314362,0.0038283374160528183,-0.0010300525464117527,-0.009808211587369442
45.0,0.030783385038375854,-0.14262771606445312,0.16831490397453308,0.004409413319081068,-0.0013088075211271644,-0.011824104934930801
45.05,0.04455215111374855,-0.10680675506591797,0.16996383666992188,0.0027004904113709927,-0.00219016638584435,-0.007855040952563286
45.1,0.05754825845360756,-0.08120536804199219,0.15894919633865356,0.0016161586390808225,-0.0009449461358599365,-0.0035842449869960546
45.15,0.05026930943131447,-0.12730979919433594,0.1397407352924347,0.001300106872804463,0.0012242940720170736,0.0010776410344988108
45.2,0.05148576200008392,-0.11054706573486328,0.15113869309425354,-0.0011956084053963423,0.0035259309224784374,0.019034691154956818
45.25,0.06312574446201324,-0.1026754379272461,0.15585622191429138,-0.004480999428778887,0.002262718742713332,0.041983917355537415
45.3,0.07129210233688354,-0.16343116760253906,0.14326830208301544,-0.003797551617026329,-0.004428360611200333,0.04176647961139679
45.35,0.059633929282426834,-0.1676177978515625,0.12506639957427979,0.0011378074996173382,-0.010513223707675934,0.05398508533835411
45.4,0.02452317252755165,-0.13063335418701172,0.13708189129829407,0.0020587581675499678,-0.011513647623360157,0.004787934944033623
45.45,0.013432084582746029,-0.0996551513671875,0.12367191165685654,0.0037014507688581944,-0.007311105262488127,-0.04162360727787018
45.5,0.02199188619852066,-0.12188053131103516,0.120335154235363,0.007024387829005718,-0.005707760341465473,-0.026769712567329407
45.55,0.03812255710363388,-0.11308670043945312,0.13501712679862976,0.008002628572285175,-0.004076097626239061,-0.009301796555519104
45.6,0.03828708454966545,-0.087249755859375,0.1222081184387207,0.008863501250743866,-0.0022419404704123735,-0.006378842983394861
45.65,0.04026704281568527,-0.10626697540283203,0.10899169743061066,0.009018815122544765,-0.00227136118337512,-0.010734271258115768
45.7,0.04112023115158081,-0.10235404968261719,0.1393672525882721,0.003638103138655424,-0.004666624590754509,-0.012857487425208092
45.75,0.02598850429058075,-0.11898422241210938,0.11608246713876724,0.00561533123254776,0.0008387515554204583,-0.016634929925203323
45.8,0.033052243292331696,-0.13367176055908203,0.11130813509225845,0.007394455838948488,0.0049893492832779884,-0.01879058964550495
45.85,0.12674449384212494,0.2122335433959961,0.398706316947937,0.011706444434821606,-0.0023392573930323124,-0.04706594720482826
45.9,1.3953148126602173,-2.319009780883789,5.457574367523193,0.5747058391571045,0.652580738067627,-0.5962988138198853
45.95,4.319432735443115,-16.50175666809082,12.860194206237793,0.6535462141036987,0.384225070476532,-0.45764848589897156
46.0,8.407647132873535,-6.550969123840332,0.6708365678787231,-0.05387893691658974,-0.5257874131202698,0.16439054906368256
46.05,2.3613667488098145,7.441058158874512,-3.383305072784424,0.041171494871377945,-1.1520254611968994,0.18679523468017578
46.1,-9.327774047851562,28.68930435180664,-9.12729263305664,-0.1964370310306549,-0.750189483165741,-0.01244267262518406
46.15,-11.074584007263184,24.954463958740234,-14.994389533996582,-0.5138882994651794,0.017977803945541382,0.14691424369812012
46.2,-11.365134239196777,8.589171409606934,-10.940738677978516,-0.04899141564965248,0.20191000401973724,0.1926223635673523
46.25,-5.6270527839660645,2.595518112182617,-3.9394726753234863,-0.06919852644205093,0.050511837005615234,0.23594677448272705
46.3,-0.2890377938747406,-0.11158180236816406,0.0394914373755455,-0.20919567346572876,-0.02025907300412655,0.20369753241539001
46.35,-1.0430392026901245,-2.316227912902832,-0.5228068828582764,0.10597105324268341,-0.014359645545482635,0.7958362102508545
46.4,-6.931858062744141,-5.349801540374756,0.7210219502449036,0.21564091742038727,-1.104777216911316,2.9797234535217285
46.45,-3.4653687477111816,-2.6650662422180176,1.4400100708007812,0.27258265018463135,-2.2212796211242676,1.0286028385162354
46.5,-0.4558899998664856,-0.19423484802246094,-0.003313254565000534,0.8942533731460571,-2.509064197540283,-0.28837692737579346
46.55,0.5528039336204529,-0.6507997512817383,-0.966355562210083,1.1997565031051636,-2.514859914779663,-0.5539782643318176
46.6,0.6744022965431213,-0.8658857345581055,-0.28732025623321533,1.1450493335723877,-2.608211040496826,-0.8559386730194092
46.65,1.5604264736175537,-0.6366033554077148,0.6817169785499573,1.1424295902252197,-2.715010166168213,-0.8889622092247009
46.7,4.639288902282715,0.1993255615234375,5.001148700714111,1.201016902923584,-2.39882493019104,-0.8210148811340332
46.75,5.393625259399414,0.44490909576416016,5.662449836730957,0.30687493085861206,-1.109400987625122,-0.13886918127536774
46.8,2.1920459270477295,-0.06401729583740234,1.0092251300811768,-0.8761147856712341,-0.1005248874425888,0.5348495244979858
46.85,-0.017658503726124763,-0.36155128479003906,0.5995413661003113,-0.40052589774131775,0.08663315325975418,0.3276538550853729
46.9,-0.8910713195800781,-0.4268655776977539,-0.15358474850654602,-0.5485643148422241,0.06826213002204895,0.3401612937450409
46.95,-0.4910663962364197,-0.3509035110473633,0.4410228133201599,-0.41554200649261475,0.23614543676376343,0.249250128865242
47.0,-0.036334581673145294,-0.7287664413452148,1.4865822792053223,0.05180830508470535,0.3425813615322113,-0.008538888767361641
47.05,0.30623215436935425,-0.4492969512939453,0.5245007872581482,0.10862395167350769,0.28575462102890015,-0.19182544946670532
47.1,0.47554081678390503,-0.2462444305419922,0.24224644899368286,0.19962602853775024,0.16243331134319305,-0.26213884353637695
47.15,0.8757456541061401,0.23278522491455078,-0.4339960217475891,0.05748544633388519,0.17288778722286224,-0.14719906449317932
47.2,0.23949144780635834,0.30387115478515625,-0.9955190420150757,0.04951488971710205,0.20532158017158508,-0.031331468373537064
47.25,-0.248512864112854,0.06407833099365234,-0.48251545429229736,0.2878630757331848,0.1677311658859253,-0.07026483863592148
47.3,-0.17253415286540985,-0.28702831268310547,-0.006469949148595333,0.2771877348423004,0.07238300144672394,-0.05346241220831871
47.35,0.08444559574127197,-0.027190208435058594,0.031244955956935883,0.13331827521324158,0.03381209075450897,-0.03541257977485657
47.4,-0.37297457456588745,0.004429817199707031,0.007903477177023888,0.14032720029354095,0.04807721823453903,-0.012006262317299843
47.45,-0.753261387348175,-0.02736186981201172,0.5010573863983154,0.16247567534446716,0.22623056173324585,0.03094659559428692
47.5,-0.8708257675170898,-0.15593910217285156,0.2820931673049927,-0.17768508195877075,0.4581616222858429,0.25601473450660706
47.55,0.3610959053039551,-0.45058250427246094,0.4892224073410034,-0.3180175721645355,0.569109320640564,0.23803561925888062
47.6,1.1246064901351929,-0.4840984344482422,0.28439298272132874,-0.4242277145385742,0.19350039958953857,0.12984979152679443
47.65,0.752336323261261,-0.042502403259277344,-0.10966762900352478,-0.3177373707294464,-0.36917150020599365,-0.05914432927966118
47.7,-0.02105604112148285,0.026340484619140625,-1.0020654201507568,0.0651940256357193,-0.7048294544219971,-0.30409306287765503
47.75,1.071847677230835,2.161489486694336,-1.5388301610946655,0.4484458267688751,-0.5683942437171936,-1.4327143430709839
47.8,0.3151731789112091,1.311690330505371,-0.5639026761054993,-0.4271788001060486,-0.813011646270752,-1.5442146062850952
47.85,-0.41690078377723694,0.03132057189941406,0.07524240761995316,-0.4481428265571594,-0.9120616912841797,-0.6376029849052429
47.9,-0.7275853157043457,-0.1337270736694336,0.15896563231945038,0.13546016812324524,-0.4881493151187897,-0.1219683289527893
47.95,-0.3395009934902191,-0.16296100616455078,0.08901342004537582,0.21915362775325775,-0.06857748329639435,-0.005470290780067444
48.0,0.8998425602912903,-0.4187288284301758,0.1829426884651184,0.15095853805541992,0.08645205199718475,0.03751702234148979
48.05,0.1971784383058548,-0.06491565704345703,0.06176114082336426,0.13250306248664856,0.08401821553707123,0.31025975942611694
