Time [s],Acc_x [m/s^2],Acc_y [m/s^2],Acc_z [m/s^2],Gyro_x [1/s],Gyro_y [1/s],Gyro_z [1/s]
0.0,0.31909191608428955,0.2978792190551758,-0.27021780610084534,0.17332184314727783,-0.07465383410453796,0.11944472789764404
0.05,-0.03913053125143051,0.1930837631225586,-0.093995600938797,0.1474543958902359,-0.23274028301239014,0.05062228813767433
0.1,0.46647149324417114,0.2761220932006836,-0.6550883650779724,0.03503050282597542,-0.46989816427230835,0.294158399105072
0.15,3.0393238067626953,-1.344435691833496,-8.33484172821045,-0.08593963086605072,-1.0239863395690918,0.8476973176002502
0.2,7.281818389892578,-1.3552169799804688,-15.57182788848877,-0.022165441885590553,-1.1770226955413818,-0.047134146094322205
0.25,8.081315994262695,0.047611236572265625,-8.373455047607422,0.7729352116584778,-1.5819880962371826,-0.3587515950202942
0.3,4.576773643493652,1.6551294326782227,1.8496718406677246,1.3783979415893555,-1.0901787281036377,1.860453486442566
0.35,-2.610231876373291,0.24068355560302734,5.970658779144287,0.961785614490509,0.35558944940567017,3.712843179702759
0.4,-9.849493980407715,-4.141951084136963,7.1446709632873535,0.09868219494819641,0.6980891227722168,3.684330701828003
0.45,3.059769630432129,2.6490249633789062,14.070584297180176,-0.8584765195846558,0.05801317095756531,1.0044903755187988
0.5,4.800999641418457,4.5625152587890625,10.681965827941895,-1.8042593002319336,-0.041609227657318115,-1.6949098110198975
0.55,-1.4380210638046265,0.7584609985351562,3.4474027156829834,-1.449949860572815,-0.29767268896102905,-2.284970283508301
0.6,-2.4530293941497803,0.5136938095092773,1.1859049797058105,-0.5580675601959229,-0.540069580078125,-1.7742263078689575
0.65,-1.396633505821228,0.1895437240600586,0.5107206106185913,-0.15022745728492737,-0.2057572901248932,-0.8526004552841187
0.7,0.1917804777622223,0.23102474212646484,0.26298752427101135,-0.039961449801921844,0.01512971892952919,-0.4363701045513153
0.75,-0.3364962935447693,0.11110591888427734,0.42696335911750793,0.004818286746740341,0.039108119904994965,-0.7317730188369751
0.8,-0.7345592975616455,0.08565330505371094,0.32739871740341187,0.12502658367156982,0.01881502941250801,-0.7330105900764465
0.85,-0.38870498538017273,0.22367286682128906,-0.09099461138248444,0.19522038102149963,-0.026425927877426147,-0.4175737500190735
0.9,-0.07955766469240189,0.2957010269165039,-0.09672001749277115,0.10982313752174377,-0.05895153060555458,-0.16174666583538055
0.95,0.03976157680153847,0.2327432632446289,0.0016242244746536016,0.010060990229249,-0.023934336379170418,-0.08695454150438309
1.0,0.04786445200443268,0.18568038940429688,0.06244850158691406,-0.04554679989814758,0.04525195434689522,-0.06689173728227615
1.05,0.101109579205513,0.14465713500976562,0.16477857530117035,-0.05316876620054245,0.10253649950027466,-0.0900980681180954
1.1,0.06972192972898483,0.05818653106689453,0.2669374346733093,-0.013768603093922138,0.1295522153377533,-0.18817564845085144
1.15,-0.014068522490561008,0.12825679779052734,0.1658625453710556,0.044936053454875946,0.09468334913253784,-0.2548980414867401
1.2,-0.002137245610356331,0.21432971954345703,0.1384618580341339,0.06513895094394684,0.0653192326426506,-0.2685818672180176
1.25,0.05745738744735718,0.17503833770751953,0.1504763960838318,0.06878823041915894,0.06965997070074081,-0.27571794390678406
1.3,0.0839545801281929,0.23318195343017578,0.1936504989862442,0.10478070378303528,0.06961975246667862,-0.32517507672309875
1.35,-0.04741150885820389,-0.0982217788696289,-0.19581173360347748,0.17273901402950287,0.05182696878910065,-0.3840482831001282
1.4,-0.16274572908878326,-0.009531974792480469,-0.10325217992067337,0.3132030963897705,0.035901084542274475,-0.4483608305454254
1.45,-0.39324769377708435,0.3020601272583008,0.24849490821361542,0.4048515260219574,0.08221134543418884,-0.3873707950115204
1.5,-0.579014778137207,0.4106884002685547,0.22379177808761597,0.4390571713447571,0.2904754877090454,-0.3405463397502899
1.55,-0.7513965368270874,0.4465150833129883,0.0021285079419612885,0.16052067279815674,0.2657066583633423,0.09301384538412094
1.6,1.2801179885864258,0.9164104461669922,-4.543076038360596,-0.2779710292816162,-0.28232330083847046,1.0205901861190796
1.65,2.153886079788208,-0.19045162200927734,-8.611227989196777,-0.9358879327774048,0.295062392950058,0.880853533744812
1.7,2.2424535751342773,-0.8702659606933594,-8.876197814941406,-0.7121142745018005,0.02169698476791382,0.19087502360343933
1.75,3.236140251159668,0.896728515625,-6.000317573547363,0.55426025390625,-0.9399760961532593,0.08690513670444489
1.8,3.780261993408203,2.4808759689331055,-1.6398605108261108,1.6291300058364868,-1.4360249042510986,0.3583787977695465
1.85,3.392521381378174,2.3057451248168945,2.2599053382873535,2.2536659240722656,-1.4646506309509277,0.8196901082992554
1.9,1.5715867280960083,0.4950113296508789,4.478628635406494,2.1699583530426025,-1.1584333181381226,1.68611741065979
1.95,-0.6945262551307678,-1.2773780822753906,5.131460189819336,1.4487195014953613,-1.074373483657837,2.5958328247070312
2.0,-2.4243109226226807,-2.00570011138916,5.337738513946533,0.5872633457183838,-1.0346744060516357,3.089205026626587
2.05,-4.657392978668213,-1.91546630859375,5.025824546813965,0.05815213918685913,-0.740068256855011,2.62143611907959
2.1,-6.215261459350586,-2.868636131286621,3.8170084953308105,-0.2712225615978241,-0.5839126706123352,1.0311390161514282
2.15,-4.26186466217041,-0.8486328125,4.058294296264648,-0.43911921977996826,-0.3435176610946655,-0.5945705771446228
2.2,-0.8892645239830017,1.2985830307006836,3.134263277053833,-0.8661214113235474,0.519454836845398,-1.2811000347137451
2.25,3.7403011322021484,6.332289695739746,-1.422389268875122,-1.4165163040161133,0.9458696842193604,-1.3133870363235474
2.3,1.765992283821106,2.8403491973876953,-0.4247027039527893,-2.21441912651062,0.365645170211792,-2.0425307750701904
2.35,-1.4766000509262085,0.45882606506347656,1.2141799926757812,-2.0927228927612305,-0.44577932357788086,-2.4944169521331787
2.4,-2.140333414077759,1.1193151473999023,0.2556203603744507,-1.230376124382019,-0.7792617678642273,-2.0943031311035156
2.45,-2.818131923675537,-0.042563438415527344,1.5749974250793457,-0.6379334926605225,-0.345284640789032,-1.1186158657073975
2.5,-0.761542797088623,-0.3205556869506836,1.6534010171890259,-0.19265621900558472,-0.40691688656806946,-0.31735727190971375
2.55,0.06960340589284897,-0.024446487426757812,-0.024722250178456306,0.1748325079679489,-0.3752448856830597,-0.3101458251476288
2.6,-0.08215395361185074,-0.048888206481933594,-0.38767680525779724,0.26822736859321594,-0.11069517582654953,-0.3405775725841522
2.65,-0.08710804581642151,0.07526779174804688,-0.5498448014259338,0.2743517756462097,0.046815864741802216,-0.2637261152267456
2.7,0.17582660913467407,0.32369232177734375,-0.8210290670394897,0.18204516172409058,0.07374408841133118,-0.17015643417835236
2.75,0.16057851910591125,0.19565391540527344,-0.4480251967906952,0.08152488619089127,0.05349181964993477,-0.10319919884204865
2.8,-0.26394474506378174,-0.1191396713256836,0.11854513734579086,0.06029476597905159,0.05605635792016983,-0.07915095239877701
2.85,-0.194374680519104,-0.02894115447998047,0.019763454794883728,0.05825700983405113,0.03144080936908722,-0.056498102843761444
2.9,0.03141722455620766,0.14713382720947266,-0.25880107283592224,0.09573493897914886,0.020998449996113777,-0.07932648062705994
2.95,-0.21255739033222198,-0.028542518615722656,-0.5665950775146484,0.13827817142009735,0.029250875115394592,-0.10477933287620544
3.0,0.02374931424856186,0.02817249298095703,-0.3996530771255493,0.1673664003610611,0.01746577024459839,-0.13270039856433868
3.05,0.31635749340057373,0.22933101654052734,-0.20348168909549713,0.23129278421401978,-0.0094514861702919,-0.18153434991836548
3.1,-0.10279063880443573,0.5182466506958008,-0.27418166399002075,0.30349206924438477,-0.02353641390800476,-0.22326228022575378
3.15,-0.5055159330368042,1.1044578552246094,0.43463027477264404,0.2824612557888031,0.08376803994178772,-0.10538418591022491
3.2,-1.279797911643982,1.1577749252319336,-0.38267064094543457,0.7972507476806641,0.42396485805511475,0.3990557789802551
3.25,-1.3763941526412964,1.478510856628418,1.1187127828598022,1.358086347579956,0.22421890497207642,1.5083283185958862
3.3,0.001636117696762085,1.7587127685546875,3.302534818649292,2.2978460788726807,-0.20976686477661133,2.494091272354126
3.35,0.5231703519821167,2.108168601989746,4.553844928741455,3.467468500137329,-0.48637592792510986,2.3249547481536865
3.4,-4.1722636222839355,-3.0685863494873047,7.913318634033203,3.1318702697753906,-0.2548501491546631,0.9808949828147888
3.45,-5.434233665466309,-4.502704620361328,7.630388259887695,0.4038528800010681,0.6021866798400879,-0.19504842162132263
3.5,-3.786919593811035,-2.874530792236328,5.578944683074951,-1.7993268966674805,0.9742476344108582,-1.385605812072754
3.55,-1.5417382717132568,0.4507570266723633,5.041365146636963,-2.7293505668640137,0.8479076027870178,-1.9900158643722534
3.6,1.7987632751464844,3.3302793502807617,3.6348941326141357,-3.3731577396392822,1.5732698440551758,-1.8060755729675293
3.65,5.693149089813232,6.318009376525879,-1.1951881647109985,-3.4268107414245605,2.4900574684143066,-1.457082748413086
3.7,7.328807830810547,0.7129192352294922,-10.778525352478027,-3.4234585762023926,3.163543462753296,-1.24227774143219
3.75,5.16030216217041,-7.581913948059082,-18.78542709350586,-2.640852928161621,2.6561453342437744,0.24714256823062897
3.8,-0.8015358448028564,-5.305722236633301,-14.09931468963623,-0.12496759742498398,1.2781741619110107,0.35430920124053955
3.85,0.35992980003356934,0.41606903076171875,-4.100412368774414,2.01778507232666,0.40281403064727783,0.07078137993812561
3.9,-0.7897817492485046,0.5142860412597656,-0.7367505431175232,1.898987054824829,-0.2747034430503845,-0.9338285326957703
3.95,-0.7113869786262512,0.15086650848388672,-0.8540266752243042,0.5954626202583313,-0.13338527083396912,-0.4554711580276489
4.0,0.26057785749435425,0.07853889465332031,-0.705039381980896,0.05056203901767731,0.11737452447414398,0.17773647606372833
4.05,0.3318464457988739,0.07554340362548828,-0.683988094329834,0.02965880185365677,0.11537084728479385,0.21168552339076996
4.1,0.16699104011058807,0.0898580551147461,-0.8104332089424133,0.024936072528362274,0.13125371932983398,0.2040231078863144
4.15,0.38312533497810364,0.20275211334228516,-0.523603081703186,-0.0021482817828655243,0.15928027033805847,0.14393307268619537
4.2,0.24697831273078918,0.18073272705078125,-0.5684276223182678,0.0438353605568409,0.09844210743904114,-0.04449166730046272
4.25,0.23604848980903625,0.1935281753540039,-0.6833588480949402,0.10811621695756912,0.04931623488664627,-0.15014544129371643
4.3,0.11953480541706085,0.14608097076416016,-0.6908708810806274,0.14629743993282318,0.07130055129528046,-0.17302514612674713
4.35,0.009613335132598877,0.1503448486328125,-0.6312776207923889,0.14306871592998505,0.07031475007534027,-0.15141411125659943
4.4,-0.11275247484445572,0.021450042724609375,-0.979703962802887,0.14873164892196655,0.0824831947684288,-0.04725468531250954
4.45,0.05350235104560852,0.07243537902832031,-0.912944495677948,0.07075032591819763,0.06383483856916428,0.021658485755324364
4.5,0.20281022787094116,0.1780681610107422,-0.6740043759346008,-0.004671954084187746,-0.0019352921517565846,0.0073894173838198185
4.55,0.11995422840118408,0.1010274887084961,-0.6727810502052307,-0.030126016587018967,-0.057379305362701416,-0.05655095353722572
4.6,0.08434050530195236,0.0865335464477539,-0.6817324757575989,-0.045503467321395874,-0.0993385910987854,-0.10929445177316666
4.65,-0.0721944198012352,0.10071182250976562,-0.4532164931297302,-0.04386364668607712,-0.11934280395507812,-0.10546059161424637
4.7,0.24807104468345642,0.16862010955810547,-0.4641416668891907,-0.03816632553935051,-0.1576249748468399,-0.07108257710933685
4.75,-0.0851229578256607,0.0923624038696289,-0.5847905874252319,-0.014997605234384537,-0.1192082092165947,-0.16870123147964478
4.8,0.17644953727722168,0.24912071228027344,-0.6478961706161499,0.006767460610717535,-0.16956859827041626,-0.169462651014328
4.85,0.257732093334198,0.3529090881347656,-0.5100131034851074,0.057813726365566254,-0.11101406812667847,-0.3084230422973633
4.9,1.0178182125091553,0.7937517166137695,0.0559970960021019,0.23501862585544586,0.0037612617015838623,-0.39514604210853577
4.95,2.468999147415161,1.4091615676879883,-0.46070560812950134,0.5042235255241394,-0.20231196284294128,-0.26807358860969543
5.0,2.4890060424804688,0.8975629806518555,-1.202972650527954,0.7257901430130005,-0.8561919927597046,-0.06727282702922821
5.05,3.2256083488464355,-0.4567995071411133,-0.7995918989181519,0.5825140476226807,-0.9520866870880127,0.13070718944072723
5.1,1.8426073789596558,-0.4793891906738281,0.945231020450592,0.37526431679725647,0.3171440660953522,0.48468005657196045
5.15,-0.6937661170959473,-0.6315193176269531,3.8273282051086426,0.2041337639093399,1.1719915866851807,0.6493142247200012
5.2,-1.3183082342147827,-0.2713136672973633,5.524818420410156,-0.13311922550201416,1.2918813228607178,0.534624457359314
5.25,-0.5966101884841919,0.6629877090454102,4.39364767074585,-0.9324162602424622,1.2330721616744995,0.47840452194213867
5.3,1.0844087600708008,2.92745304107666,-0.20198602974414825,-1.5495516061782837,1.1901932954788208,0.6872050762176514
5.35,0.20403644442558289,1.8553361892700195,-4.268824577331543,-2.0546388626098633,1.3298732042312622,0.8854745626449585
5.4,-2.272308111190796,-0.4700918197631836,-6.305687427520752,-1.899665355682373,1.4576104879379272,1.0683324337005615
5.45,-2.3193562030792236,-3.778818130493164,-7.750041961669922,-1.2557724714279175,0.984699010848999,0.4825010597705841
5.5,-1.9765568971633911,-0.225982666015625,0.8234685659408569,-0.26126816868782043,-0.7609593868255615,-0.6624777317047119
5.55,-0.7613716125488281,1.221083641052246,2.4605553150177,1.2921470403671265,-0.9675636291503906,-0.6888648867607117
5.6,2.2290561199188232,2.0015649795532227,-1.6902085542678833,1.8124324083328247,-0.37173885107040405,0.09849786013364792
5.65,1.3721282482147217,1.175119400024414,-1.2173316478729248,0.9082151651382446,-0.15344926714897156,0.13692256808280945
5.7,0.4989279508590698,0.16312122344970703,-0.3005400598049164,0.2610049247741699,-0.12687082588672638,0.05920795351266861
5.75,0.5489354133605957,0.11635494232177734,-0.3111923038959503,0.1381424516439438,-0.11336469650268555,-0.005204495973885059
5.8,0.17542386054992676,0.17859935760498047,-0.41524842381477356,0.14960558712482452,-0.09042967855930328,-0.11218982189893723
5.85,0.09688570350408554,0.18706417083740234,-0.5204264521598816,0.16159071028232574,-0.07393570244312286,-0.07242146134376526
5.9,-0.012059155851602554,0.11978340148925781,-0.6187737584114075,0.14237438142299652,-0.04967200383543968,0.0020924657583236694
5.95,0.006022348999977112,0.1215963363647461,-0.5770357251167297,0.09292928874492645,-0.040618471801280975,0.05986269190907478
6.0,0.14140239357948303,0.16601276397705078,-0.4497836232185364,0.06677840650081635,-0.026972509920597076,0.08318187296390533
6.05,0.2581261098384857,0.16808414459228516,-0.5644254684448242,0.06349662691354752,-0.0048679206520318985,0.06406905502080917
6.1,0.05127820000052452,0.28107738494873047,-0.5049841403961182,0.05022216960787773,-0.04216684401035309,-0.02729467861354351
6.15,-0.010634955018758774,0.3231525421142578,-0.4415245056152344,0.10149344801902771,-0.012627005577087402,-0.0650438591837883
6.2,0.0068494901061058044,0.0044231414794921875,-0.5996347665786743,0.15281474590301514,-0.03846987336874008,-0.00894063152372837
6.25,0.040038101375103,-0.007044792175292969,-0.6594634652137756,0.11730442941188812,-0.12626498937606812,0.030255842953920364
6.3,0.6212473511695862,0.1060323715209961,-0.7339980006217957,0.07407648861408234,-0.18149219453334808,0.01937270350754261
6.35,0.40162158012390137,0.18383407592773438,-0.6442357897758484,0.025327149778604507,-0.17292451858520508,-0.08002571016550064
6.4,0.2529279291629791,0.0826864242553711,-0.8637070655822754,-0.06024402379989624,-0.15329310297966003,-0.13439631462097168
6.45,-0.3854803740978241,0.6618452072143555,-0.025707481428980827,-0.11765951663255692,-0.10112433135509491,-0.06772442907094955
6.5,-2.2290656566619873,1.2306585311889648,-2.047558546066284,0.2333749532699585,0.04841087758541107,0.8150848150253296
6.55,0.18829989433288574,-4.751023292541504,-25.490089416503906,0.16146883368492126,-0.9210726022720337,2.5438435077667236
6.6,7.515048027038574,-6.641170978546143,-25.0684757232666,-1.006008505821228,-3.0440587997436523,0.681541919708252
6.65,13.998862266540527,-2.377225399017334,-8.662416458129883,-0.3745475113391876,-6.7296929359436035,-1.717069149017334
6.7,11.885815620422363,2.915691375732422,1.675943374633789,1.307238221168518,-7.4602274894714355,-0.9301465153694153
6.75,4.999660015106201,3.0749807357788086,5.2983856201171875,1.8723965883255005,-5.353927135467529,0.2829921245574951
6.8,-0.5176217555999756,2.9646949768066406,5.4421868324279785,1.9465742111206055,-3.132040023803711,1.4627169370651245
6.85,-3.619734764099121,1.968343734741211,3.5011260509490967,1.55423104763031,-1.281822919845581,2.346503496170044
6.9,-4.914339065551758,0.6389760971069336,2.7490484714508057,1.0567432641983032,-0.6936036348342896,2.5061612129211426
6.95,-4.077836990356445,-0.6777191162109375,3.4211368560791016,1.0827341079711914,-0.9417092800140381,2.224147319793701
7.0,-2.008887767791748,0.06143665313720703,3.972916841506958,1.260250210762024,-1.5035905838012695,2.097827434539795
7.05,-1.9473817348480225,-0.9369897842407227,4.05451774597168,0.8907091021537781,-2.208564043045044,1.5063457489013672
7.1,-3.414987325668335,-2.936008930206299,3.325146198272705,0.3591760993003845,-2.646940231323242,1.389148235321045
7.15,-6.049149990081787,-4.753959655761719,2.4004805088043213,-0.6582211256027222,-2.333596706390381,1.3385765552520752
7.2,-2.0442512035369873,-6.706851005554199,-3.3152427673339844,-0.8503015637397766,-1.0543787479400635,-1.080693244934082
7.25,-1.5175098180770874,-0.48533153533935547,-0.9369590878486633,-0.2945478558540344,-0.6708067059516907,-2.3065993785858154
7.3,-2.260793685913086,1.7064638137817383,-0.041965216398239136,0.7454729080200195,-0.8513066172599792,-2.622098445892334
7.35,-0.33071285486221313,-0.9638938903808594,-0.6874412894248962,1.5538731813430786,-1.9951711893081665,-2.6382477283477783
7.4,1.2051509618759155,-2.254295825958252,1.9998482465744019,0.753049373626709,-2.6385421752929688,-2.0531363487243652
7.45,3.4537346363067627,1.5065279006958008,0.2711232602596283,-0.7710939049720764,-2.082089900970459,-1.930869698524475
7.5,-0.9796210527420044,3.7168264389038086,-2.4313528537750244,-0.03302460163831711,-2.0138587951660156,-1.3806661367416382
7.55,-7.28140115737915,5.088311195373535,-1.3688727617263794,0.5950155854225159,-1.1276048421859741,-0.6768768429756165
7.6,-2.839590072631836,2.1998491287231445,-0.7353657484054565,0.01644062250852585,-0.0980747789144516,-0.36203840374946594
7.65,0.6267706155776978,0.47463417053222656,-0.6934374570846558,-0.3220493793487549,0.08136661350727081,-0.19817820191383362
7.7,0.6576593518257141,0.28081512451171875,-0.7983066439628601,-0.3393777012825012,0.03545438498258591,-0.20097291469573975
7.75,0.9546296000480652,0.009411811828613281,-1.0481880903244019,-0.26996681094169617,0.01959824189543724,-0.18310299515724182
7.8,0.988692581653595,-0.053627967834472656,-1.1505367755889893,-0.16427020728588104,-0.08121131360530853,-0.11634892225265503
7.85,0.4309135377407074,0.06111717224121094,-0.9448013305664062,-0.09917102754116058,-0.1862889975309372,-0.023068387061357498
7.9,0.12353388220071793,0.4398317337036133,-1.4507060050964355,-0.1768268197774887,-0.2165158987045288,0.032424308359622955
7.95,-1.616424560546875,2.315567970275879,-1.976071834564209,-0.5071483850479126,-0.32937556505203247,0.21729058027267456
8.0,-2.103620767593384,4.144928932189941,-2.9859113693237305,-2.1069886684417725,-0.6523635387420654,0.8077454566955566
8.05,-5.247661590576172,3.0192174911499023,-5.5852203369140625,-4.5495500564575195,-1.1872200965881348,2.0761313438415527
8.1,-7.89490270614624,-13.88041877746582,-14.480230331420898,-2.842747926712036,-0.9180974960327148,1.4082279205322266
8.15,-4.473728656768799,-8.803937911987305,-14.130586624145508,0.8101994395256042,-0.5845850706100464,-1.0689043998718262
8.2,2.5261106491088867,1.1128969192504883,-6.446216583251953,3.0678887367248535,-0.4512099027633667,-2.567291736602783
8.25,5.376944065093994,1.641103744506836,0.26087692379951477,2.976994276046753,-0.4064204692840576,-2.3914499282836914
8.3,11.658019065856934,2.936939239501953,8.545198440551758,2.145608425140381,0.0032416582107543945,-1.5502313375473022
8.35,8.679628372192383,-3.87844181060791,14.570778846740723,2.304823160171509,-1.7815066576004028,0.21722020208835602
8.4,0.5844298601150513,2.74737548828125,4.927160739898682,0.5544998645782471,-2.648956298828125,0.6111595034599304
8.45,2.0530991554260254,2.830368995666504,-0.7790597081184387,-1.4826425313949585,-1.271953821182251,1.4451310634613037
8.5,1.3713574409484863,0.6309995651245117,-0.8374783396720886,-1.1680598258972168,-0.10234302282333374,1.408064842224121
8.55,0.6456477642059326,0.13433837890625,-1.2087066173553467,-0.14191649854183197,0.20912650227546692,0.8539910912513733
8.6,1.061937689781189,0.06129741668701172,-1.2127755880355835,0.045026496052742004,0.2785134017467499,0.56806880235672
8.65,0.8776301741600037,0.15512561798095703,-1.3540090322494507,-0.2898719608783722,0.18633146584033966,0.3565463721752167
8.7,0.8589842319488525,0.3479585647583008,-1.6507515907287598,-0.6934263110160828,0.17434076964855194,0.21084904670715332
8.75,1.0195958614349365,0.8202657699584961,-2.109926223754883,-1.3020424842834473,0.10012522339820862,0.15164399147033691
8.8,0.33094313740730286,1.7215070724487305,-4.2902302742004395,-2.2993111610412598,-0.18536606431007385,-0.20798857510089874
8.85,-0.4779030680656433,3.0533323287963867,-9.27942180633545,-4.556611061096191,-0.6834445595741272,-0.5091171264648438
8.9,1.5572984218597412,16.1414794921875,-10.314332008361816,-8.223522186279297,-0.8549522161483765,-0.46897071599960327
8.95,-5.539733409881592,-4.141322135925293,-19.764366149902344,-2.9074478149414062,-2.9916462898254395,2.546161413192749
9.0,0.27181142568588257,-7.6313252449035645,-15.925324440002441,4.1699090003967285,-2.172333240509033,1.5565457344055176
9.05,3.075139284133911,8.5180025100708,-4.39410400390625,7.0213422775268555,-1.6250585317611694,0.7829560041427612
9.1,0.5192128419876099,11.553475379943848,24.490394592285156,7.0273637771606445,-1.36043381690979,-0.030373692512512207
9.15,-8.046913146972656,-2.803989887237549,36.63086700439453,3.999213457107544,0.065498948097229,-0.1428164541721344
9.2,-6.191420555114746,3.1429271697998047,12.036757469177246,-0.7955026030540466,-0.4085405468940735,0.7712941765785217
9.25,1.397270917892456,2.405858039855957,1.3951563835144043,-1.935354471206665,-0.2016468048095703,1.049911618232727
9.3,0.9801754951477051,0.21132183074951172,-1.6050864458084106,-0.9535446166992188,0.024005889892578125,0.6459866762161255
9.35,0.4097520709037781,0.32574462890625,-1.5791609287261963,-0.6128873825073242,0.08544948697090149,0.5447121858596802
9.4,0.40360796451568604,0.5102415084838867,-1.2214564085006714,-0.4616103768348694,0.1361095905303955,0.3752647042274475
9.45,2.553440570831299,1.5597562789916992,-1.1055347919464111,-0.48209118843078613,-0.5872250199317932,0.12227068096399307
9.5,9.224091529846191,-0.17113971710205078,-4.037684440612793,-1.4162336587905884,-0.856041669845581,-1.8195289373397827
9.55,7.768014907836914,0.8292913436889648,-4.374561786651611,-3.398355722427368,-0.3562750518321991,-5.595976829528809
9.6,8.168971061706543,-6.630188465118408,-5.876720428466797,-1.473468542098999,-0.9051715135574341,-1.493293285369873
9.65,5.829405784606934,-6.068502426147461,-4.596644878387451,0.3276362419128418,-0.779088020324707,3.0280256271362305
9.7,1.8830835819244385,1.2856054306030273,-1.8362021446228027,1.7461493015289307,0.43440648913383484,3.0818872451782227
9.75,-2.777740240097046,3.432326316833496,-0.5472902655601501,1.04511296749115,1.4951823949813843,3.171659469604492
9.8,-6.067975997924805,2.8050537109375,0.3093545138835907,-0.36429980397224426,2.1521596908569336,2.733603000640869
9.85,-4.872509479522705,-0.2167196273803711,2.603597402572632,0.03950837254524231,2.346898078918457,1.447187900543213
9.9,-4.880631923675537,-1.5759782791137695,1.910595417022705,0.7157179713249207,1.8193491697311401,-0.17910772562026978
9.95,-6.30343770980835,-2.075399875640869,1.2672699689865112,0.771894633769989,2.4639217853546143,-1.7693287134170532
10.0,-6.348196506500244,-4.427842617034912,4.8348565101623535,-0.04309740662574768,4.171695709228516,-2.981539249420166
10.05,-1.4053195714950562,-13.227718353271484,-12.174019813537598,-0.19332784414291382,2.74716854095459,-1.988006353378296
10.1,2.545229911804199,-3.362137794494629,-7.095126628875732,1.0269919633865356,0.37245315313339233,0.2661415934562683
10.15,-0.02252359688282013,2.247335433959961,-2.6115055084228516,1.516585350036621,-0.16952596604824066,0.9464796781539917
10.2,1.734028935432434,0.8739185333251953,-2.0834124088287354,0.48901093006134033,0.22379067540168762,0.6080887317657471
10.25,1.3294168710708618,0.46065425872802734,-0.9832928776741028,-0.32792189717292786,0.4006478786468506,-0.04173615574836731
10.3,1.169959306716919,0.31609630584716797,-1.0621891021728516,-0.43797942996025085,0.37641027569770813,-0.4451933205127716
10.35,0.6426413655281067,0.33331966400146484,-0.8280248641967773,-0.4035123884677887,0.5492265224456787,-0.5592553019523621
10.4,0.9742597341537476,0.1304311752319336,-0.8988676071166992,-0.19238616526126862,1.0499557256698608,-0.30069074034690857
10.45,1.0702167749404907,-0.3356161117553711,-0.30828770995140076,0.0436624176800251,1.6837818622589111,-0.09959784150123596
10.5,0.920297384262085,0.36774539947509766,-1.7547038793563843,0.19443732500076294,2.1053905487060547,-0.04224439337849617
10.55,1.071146011352539,0.15191936492919922,-1.7557841539382935,0.29761365056037903,2.736708641052246,0.054093144834041595
10.6,-0.20571613311767578,0.5087642669677734,-2.5167367458343506,0.17891304194927216,3.577651262283325,-0.07868591696023941
10.65,-6.407752513885498,-6.774380683898926,-4.290721893310547,-0.6242753267288208,3.7765564918518066,0.13219255208969116
10.7,-1.4058516025543213,-4.427997589111328,-2.876354694366455,-2.409064531326294,3.4737038612365723,0.8144659996032715
10.75,7.138656139373779,1.936141014099121,-7.444272041320801,-1.583970546722412,1.4677361249923706,0.2899872362613678
10.8,-0.18487578630447388,-3.573169708251953,8.306365013122559,2.6937663555145264,-4.052054405212402,0.2130265086889267
10.85,22.135278701782227,17.164188385009766,13.543655395507812,0.7095563411712646,-2.969715118408203,-0.02242961898446083
10.9,13.853078842163086,9.681990623474121,4.648874759674072,0.4602750241756439,-1.3570317029953003,-1.0490634441375732
10.95,4.0468268394470215,1.1680622100830078,-1.0523608922958374,0.4164963364601135,0.2560516893863678,-1.0440346002578735
11.0,2.8559422492980957,0.23978328704833984,-1.900086760520935,-0.08377362787723541,0.40172964334487915,-0.2879059910774231
11.05,1.2211273908615112,0.6273412704467773,-0.8041587471961975,-0.5021042227745056,0.08818764239549637,-0.3220578134059906
11.1,0.3242930769920349,-0.46105098724365234,0.5542982220649719,-0.6723946332931519,0.12391331791877747,-0.6784788966178894
11.15,-1.3676480054855347,0.5066652297973633,1.7614610195159912,-0.4001363217830658,-0.004456698894500732,-0.4482043385505676
11.2,-0.36605575680732727,0.5203399658203125,0.786857008934021,-0.2068825513124466,-0.026014402508735657,-0.03283393383026123
11.25,2.2365798950195312,1.1974096298217773,0.6190121173858643,0.6745770573616028,-1.0103535652160645,0.6172524094581604
11.3,-3.0005831718444824,1.9339990615844727,2.4990577697753906,0.7642993927001953,-4.89811897277832,1.8259742259979248
11.35,-11.55717658996582,2.642622947692871,0.8483768701553345,-0.08687470108270645,-5.542987823486328,1.4890192747116089
11.4,-2.179572105407715,-0.12719440460205078,-0.765204906463623,-0.3843110203742981,-2.4138331413269043,0.6296000480651855
11.45,0.3703615665435791,0.11959075927734375,-0.57895827293396,-0.3505270779132843,-0.9358835816383362,-0.24187788367271423
11.5,-0.32449018955230713,0.14655399322509766,-0.26821690797805786,-0.189137801527977,-0.7329109311103821,-0.39243772625923157
11.55,-0.4078177809715271,-0.1077585220336914,-0.283089816570282,0.019759926944971085,-0.28170275688171387,0.023127583786845207
11.6,0.8389056921005249,-0.17632007598876953,-0.43873167037963867,0.10162222385406494,0.055634789168834686,0.4203014373779297
11.65,0.7459044456481934,0.18681621551513672,-0.7427011132240295,0.15340791642665863,0.09953077882528305,0.18038488924503326
11.7,0.9728275537490845,0.11043834686279297,-0.49069398641586304,0.0802505686879158,0.11231488734483719,0.07930897921323776
11.75,0.7767833471298218,0.14148235321044922,-0.8902239799499512,0.05575944110751152,0.06406974047422409,-0.030653532594442368
11.8,0.840325117111206,0.04466724395751953,-0.4850812256336212,0.016791120171546936,0.019777165725827217,-0.0002530419733375311
11.85,0.9376685619354248,0.055174827575683594,-0.5808393359184265,0.0636926218867302,0.03150239586830139,0.029260406270623207
11.9,0.4723694622516632,0.20302391052246094,-0.6065787076950073,0.11683925241231918,0.06099385768175125,0.06146113947033882
11.95,0.8679115176200867,0.015585899353027344,-0.8238470554351807,0.15031084418296814,0.07505675405263901,0.20350287854671478
12.0,1.0398826599121094,-0.07996559143066406,-0.6113947629928589,0.0845080092549324,0.05047057569026947,0.20557153224945068
12.05,1.127867341041565,0.1358795166015625,-0.4471866190433502,-0.018318651244044304,0.08130025863647461,0.18592412769794464
12.1,0.6239357590675354,0.2323904037475586,-0.730036199092865,0.03033117577433586,0.15174083411693573,0.1639208197593689
12.15,-0.057395968586206436,0.15228748321533203,-0.7440276145935059,0.06272507458925247,0.12964986264705658,0.21714691817760468
12.2,-3.9717869758605957,0.03386402130126953,-1.3508989810943604,-0.02945331484079361,0.1954609453678131,0.3483678698539734
12.25,0.37102508544921875,-0.44904422760009766,-1.6172471046447754,-0.22411254048347473,0.29026204347610474,0.7171959280967712
12.3,1.629311203956604,-0.34538745880126953,-0.4440982937812805,-0.4774945378303528,0.07988724112510681,0.616847038269043
12.35,0.5170233845710754,-0.19608592987060547,-0.589419424533844,-0.24642589688301086,0.011390581727027893,0.26980534195899963
12.4,0.44491270184516907,-0.02118396759033203,-0.2121296525001526,-0.1378365308046341,-0.033831559121608734,0.11607751995325089
12.45,0.8812943696975708,0.18097209930419922,-0.34360000491142273,-0.025445669889450073,-0.026282545179128647,0.13830524682998657
12.5,0.5870380401611328,0.019883155822753906,-0.4019075930118561,0.10965146124362946,0.09687171876430511,0.1431872546672821
12.55,0.8473020195960999,-0.23636436462402344,-1.1592284440994263,0.11168384552001953,0.09886631369590759,0.010884303599596024
12.6,1.0786678791046143,0.051016807556152344,-0.7571144104003906,-0.022847265005111694,-0.05655371770262718,-0.17966419458389282
12.65,0.22324272990226746,0.1459188461303711,-0.114398293197155,-0.04994579777121544,-0.18994911015033722,-0.20300494134426117
12.7,0.15573304891586304,0.08663654327392578,-0.34591448307037354,0.04407532885670662,-0.06870714575052261,0.04493854194879532
12.75,0.41475313901901245,0.03552722930908203,-0.4149097800254822,0.09580381214618683,0.04725657030940056,0.20954081416130066
12.8,0.96462482213974,0.035552978515625,-0.5347043871879578,0.05354190245270729,0.08791304379701614,0.13543762266635895
12.85,1.0256541967391968,0.1393270492553711,-0.6197046041488647,-0.01200741995126009,0.04126203805208206,-0.008941715583205223
12.9,0.7100327610969543,0.08872509002685547,-0.46947166323661804,-0.029171710833907127,-0.003817906603217125,-0.06805770844221115
12.95,0.5420477390289307,0.11623477935791016,-0.46161773800849915,-0.0032054195180535316,-0.011081893928349018,-0.04023442417383194
13.0,0.6558049917221069,0.039984703063964844,-0.48619839549064636,0.027031470090150833,0.024703525006771088,-0.0035925954580307007
13.05,0.7419905662536621,0.04297161102294922,-0.4862377941608429,0.018716245889663696,0.016266262158751488,-0.01933177001774311
13.1,0.9223290085792542,0.04768943786621094,-0.49933749437332153,0.01415658462792635,-0.0069392407312989235,-0.03641447797417641
13.15,0.6959913969039917,0.12852764129638672,-0.4430772364139557,0.002839553402736783,-0.03660588711500168,-0.06737709790468216
13.2,0.6477596759796143,0.033295631408691406,-0.44894760847091675,0.011010255664587021,-0.03115556389093399,-0.058206554502248764
13.25,0.6902557611465454,0.039841651916503906,-0.45593634247779846,0.01963258907198906,-0.039517223834991455,-0.07477391511201859
13.3,0.70121169090271,0.13788318634033203,-0.4657461941242218,0.03743525594472885,-0.04964002966880798,-0.08162928372621536
13.35,0.44552579522132874,0.2210063934326172,-0.3699922561645508,0.0659450963139534,-0.03196552023291588,-0.10700518637895584
13.4,0.5107927322387695,0.2192096710205078,-0.4426254630088806,0.10352189093828201,-0.026115503162145615,-0.08995087444782257
13.45,0.7426519393920898,-0.053473472595214844,-0.4501328766345978,0.12705540657043457,-0.04511093348264694,-0.02980075590312481
13.5,-0.09439834207296371,0.21546363830566406,-0.4070451855659485,0.07979660481214523,0.04220673814415932,0.07729791849851608
13.55,-3.225372314453125,1.2394962310791016,1.0924201011657715,-0.10189618170261383,-0.17791526019573212,0.1431485414505005
13.6,-3.31168532371521,0.7235879898071289,-0.3103986382484436,-0.2614678144454956,-1.804819941520691,-0.090179942548275
13.65,0.5175488591194153,0.17387676239013672,-1.5208666324615479,-0.1842563897371292,-3.588589668273926,0.14232993125915527
13.7,4.6084771156311035,-0.32262229919433594,-0.3137917220592499,-0.046294692903757095,-3.5544333457946777,0.39825233817100525
13.75,-0.040028028190135956,0.7266035079956055,-1.362115502357483,0.24354590475559235,-1.3137861490249634,-0.12206955254077911
13.8,0.007197707891464233,0.45216846466064453,-0.7704416513442993,0.2690519392490387,-0.20827558636665344,-0.306115061044693
13.85,1.1200486421585083,0.0031414031982421875,-0.015961557626724243,0.195762038230896,-0.10485910624265671,-0.2919875681400299
13.9,0.7510001063346863,0.27863025665283203,-0.30691468715667725,0.21382273733615875,-0.07814141362905502,-0.21432551741600037
13.95,0.4021257162094116,0.19175148010253906,-0.5033656358718872,0.15652552247047424,-0.0021964460611343384,0.023292914032936096
14.0,0.505173921585083,0.08478641510009766,-0.3184775412082672,0.05520746856927872,0.06629712134599686,0.26156726479530334
14.05,0.3192053735256195,0.2756519317626953,-0.4669239819049835,0.027587447315454483,0.1609923541545868,0.3315339684486389
14.1,0.4424841105937958,0.27033329010009766,-0.4473048746585846,-0.04244891181588173,0.20299175381660461,0.3699846863746643
14.15,0.5113588571548462,0.30551910400390625,-0.2875169515609741,-0.0814204066991806,0.16608849167823792,0.22107045352458954
14.2,0.4361289441585541,0.35848140716552734,-0.3279315233230591,-0.1117849200963974,0.04674305021762848,0.0209072045981884
14.25,-0.37682801485061646,0.24487972259521484,-0.5541455745697021,-0.1003432348370552,0.03306000679731369,-0.06148684769868851
14.3,1.6580705642700195,-0.7690296173095703,-0.24592670798301697,-0.09863808751106262,0.11315713822841644,-0.006611958146095276
14.35,1.2265650033950806,-0.2059011459350586,-0.1830909252166748,-0.08502379804849625,0.08999039232730865,-0.06075463443994522
14.4,0.9444764852523804,0.09395027160644531,0.030970823019742966,0.031783442944288254,-0.022138170897960663,-0.2690214514732361
14.45,0.48173531889915466,-0.0031156539916992188,0.025968361645936966,0.1712256222963333,-0.08940586447715759,-0.471681147813797
14.5,0.21854567527770996,-0.034862518310546875,-0.348188191652298,0.20319397747516632,-0.050886139273643494,-0.43637993931770325
14.55,-0.39258843660354614,0.5290899276733398,-0.6347058415412903,0.19284942746162415,0.0800091102719307,-0.2844338119029999
14.6,-0.23818743228912354,4.446990013122559,-3.5678415298461914,0.11236604303121567,0.7664071321487427,-0.04158172011375427
14.65,-0.9772414565086365,1.7206459045410156,-1.856858730316162,0.17970681190490723,2.5315146446228027,-0.491939902305603
14.7,-3.3599212169647217,6.083695411682129,-0.09097965061664581,0.12679623067378998,1.8673115968704224,0.08473745733499527
14.75,-0.05296619236469269,2.67305850982666,-0.05775266885757446,-0.0006413161754608154,0.42754724621772766,0.8784355521202087
14.8,-4.635978698730469,1.3917160034179688,-0.1209540069103241,-0.532081663608551,-1.1818327903747559,0.286506325006485
14.85,0.09323222935199738,-0.03456687927246094,-0.02429177425801754,-0.465946763753891,-4.09114408493042,-0.0967910960316658
14.9,9.685741424560547,-0.8092794418334961,6.829333305358887,0.05903598293662071,-3.727357864379883,0.19625313580036163
14.95,4.72487211227417,-0.6047258377075195,3.0114517211914062,0.8823910355567932,-0.7822934985160828,-0.7818157076835632
15.0,1.4317961931228638,0.1391611099243164,0.16954056918621063,0.09145024418830872,0.05020124465227127,-0.03865405544638634
15.05,0.4124073386192322,0.22115039825439453,-0.3444090485572815,-0.15194278955459595,0.20780615508556366,0.33688652515411377
15.1,-0.1887567639350891,0.29549503326416016,-0.6496046781539917,0.0009541166946291924,0.14041444659233093,0.17632517218589783
15.15,0.07134807109832764,0.37600135803222656,-0.7349203824996948,0.022946106269955635,-0.02122395671904087,0.09022543579339981
15.2,0.6824050545692444,-0.11298465728759766,-0.0022940821945667267,-0.010918575339019299,-0.0703050047159195,0.1419084668159485
15.25,0.361770898103714,0.191650390625,-0.3944072723388672,-0.060300007462501526,-0.05804495885968208,0.24004021286964417
15.3,1.508915662765503,-0.10419654846191406,0.17308756709098816,-0.12291804701089859,-0.0226663276553154,0.3290644586086273
15.35,2.018892288208008,-0.175689697265625,0.2163618505001068,0.04630694538354874,-0.05487484484910965,0.002688237000256777
15.4,1.4986239671707153,-0.0813302993774414,0.27845463156700134,0.25794893503189087,-0.15328246355056763,-0.39689743518829346
15.45,0.9664973616600037,0.15716075897216797,-0.12583477795124054,0.29373735189437866,-0.2071872502565384,-0.41319772601127625
15.5,1.1040234565734863,0.3012266159057617,-0.4937899112701416,0.25135117769241333,-0.24016420543193817,-0.6223784685134888
15.55,-1.7164950370788574,1.6390199661254883,-2.4703471660614014,0.08940475434064865,-0.3093830347061157,-1.0308833122253418
15.6,-3.6372246742248535,0.8221368789672852,1.9324169158935547,-0.5301422476768494,-1.6182222366333008,-1.0677143335342407
15.65,-1.8002760410308838,0.5383777618408203,0.4501569867134094,0.3272772431373596,-2.797488212585449,-0.4155350923538208
15.7,-0.06422172486782074,-0.4724540710449219,-1.1550335884094238,0.514060914516449,-2.9478142261505127,-0.41995400190353394
15.75,2.3274199962615967,-0.6506862640380859,0.35030776262283325,0.5155699849128723,-2.81101131439209,-0.12107814848423004
15.8,0.7684123516082764,-0.5620851516723633,2.002873420715332,0.013856571167707443,-1.6096408367156982,0.5368866920471191
15.85,2.48734188079834,-1.0537729263305664,-4.1305694580078125,0.4218505322933197,-0.8655425906181335,1.2630386352539062
15.9,1.3737118244171143,-0.5852899551391602,0.4898088276386261,-0.4791575074195862,-0.3085446357727051,0.9086605310440063
15.95,0.9968785047531128,-0.530756950378418,0.584712028503418,-0.43697160482406616,-0.08588889986276627,0.4891926050186157
16.0,0.5510581135749817,0.33525562286376953,1.1594502925872803,-0.35780069231987,-0.026250988245010376,0.24891501665115356
16.05,0.7486768364906311,0.1643695831298828,0.7946485877037048,-0.22445173561573029,-0.09412197023630142,0.15382450819015503
16.1,0.8684605956077576,-0.03235816955566406,-0.0655144527554512,0.05435439944267273,-0.0893709659576416,-0.050156839191913605
16.15,0.8963523507118225,-0.12630367279052734,0.1637357622385025,-0.05706168711185455,-0.11923817545175552,-0.020090242847800255
16.2,0.6292414665222168,0.06531238555908203,-0.0784938782453537,-0.1370759755373001,-0.10871081054210663,0.006200450472533703
16.25,0.27428513765335083,0.06604766845703125,-0.5637739896774292,-0.07032862305641174,-0.0018821023404598236,-0.009487730450928211
16.3,0.20399180054664612,0.38403797149658203,-0.36113154888153076,-0.2900266945362091,0.06107176095247269,0.057115957140922546
16.35,0.4753243923187256,0.3621511459350586,0.035569120198488235,-0.5526909828186035,0.08631175756454468,0.18626949191093445
16.4,0.6530721187591553,0.1883392333984375,0.1432957798242569,-0.6641767024993896,0.10006538033485413,0.24600927531719208
16.45,0.9263543486595154,-0.21682071685791016,0.4758763909339905,-0.7962728142738342,0.09686954319477081,0.3343818485736847
16.5,1.1395219564437866,-0.12009906768798828,1.2366536855697632,-0.7069228887557983,0.10865838825702667,0.2298072874546051
16.55,0.7638719081878662,0.034600257873535156,0.8411464095115662,-0.1533551663160324,0.038155172020196915,-0.0037836814299225807
16.6,0.59942626953125,-0.0269317626953125,0.29145777225494385,0.21060195565223694,-0.029292218387126923,-0.11804840713739395
16.65,0.23064878582954407,0.2172536849975586,-0.2435559779405594,0.3099992573261261,-0.06271247565746307,-0.13064517080783844
16.7,0.36435437202453613,0.13591670989990234,0.15853829681873322,0.26596778631210327,-0.08563687652349472,-0.09022416174411774
16.75,0.35788407921791077,0.1122884750366211,0.07828521728515625,0.28347739577293396,-0.11691296100616455,-0.09076650440692902
16.8,0.4508075714111328,0.1978902816772461,0.2484302818775177,0.30200839042663574,-0.08112119883298874,-0.10235732793807983
16.85,0.42234793305397034,0.14609050750732422,-0.19372513890266418,0.36456599831581116,-0.06372830271720886,-0.12909331917762756
16.9,0.31149354577064514,0.20235919952392578,-0.35614919662475586,0.4118824005126953,-0.005764998495578766,-0.2256300151348114
16.95,0.34055569767951965,0.2850475311279297,-0.2592690587043762,0.3272247314453125,0.04865174740552902,-0.24029748141765594
17.0,0.19434215128421783,0.26519775390625,-0.05300972983241081,0.2170257717370987,0.03962172567844391,-0.2087886482477188
17.05,-2.127500534057617,0.7336673736572266,-2.449378490447998,0.26465901732444763,0.1783631443977356,-0.199627086520195
17.1,-0.6277161836624146,0.4197244644165039,-0.8388497829437256,0.05903720483183861,0.03306924179196358,-0.01580267958343029
17.15,0.19518491625785828,0.10327339172363281,0.011075197719037533,0.0013422276824712753,-0.017064914107322693,0.030347781255841255
17.2,-0.027303852140903473,0.1832561492919922,-0.8605719208717346,0.08249286562204361,0.018115486949682236,-0.01735752448439598
17.25,0.2698957622051239,0.12073326110839844,-0.19844847917556763,-0.13591721653938293,0.049298956990242004,0.09800252318382263
17.3,0.0674598440527916,0.29705238342285156,-0.44228532910346985,-0.3067523241043091,0.08471914380788803,0.18005076050758362
17.35,-0.2566802501678467,0.27248668670654297,-0.2902868390083313,-0.7049992680549622,0.15766537189483643,0.2954535484313965
17.4,-5.438305377960205,-0.1972980499267578,-0.32138943672180176,-0.5971484184265137,0.20594897866249084,0.020948514342308044
17.45,-6.180688858032227,0.04620647430419922,0.19272148609161377,0.2015291005373001,0.04106511175632477,-0.49618789553642273
17.5,-1.0864930152893066,0.6283693313598633,0.2939140498638153,0.3854691982269287,-0.3060225546360016,-0.885729968547821
17.55,3.4331130981445312,-0.1940898895263672,-0.5537805557250977,0.1087995320558548,-0.06157170236110687,-0.9553341865539551
17.6,4.2688679695129395,-1.0489788055419922,-0.23868054151535034,-0.19879934191703796,-0.127277672290802,-0.24974645674228668
17.65,4.026061534881592,-0.0726633071899414,-0.1251264214515686,-0.4209434986114502,-0.8980600833892822,0.5727627873420715
17.7,3.8332226276397705,0.30549144744873047,2.278879165649414,-0.4542246460914612,-1.0763249397277832,0.5093962550163269
17.75,-0.015643522143363953,-0.7288818359375,1.1825884580612183,-0.10321922600269318,-0.3914666771888733,0.10103234648704529
17.8,0.7515840530395508,0.5000181198120117,-1.401313066482544,0.31764334440231323,-0.3347238302230835,0.45560580492019653
17.85,0.23884239792823792,0.6570672988891602,-0.7094199657440186,-0.0908791720867157,-0.02128833904862404,0.340117871761322
17.9,0.403797447681427,0.34331798553466797,0.7759816646575928,-0.18541079759597778,0.09910355508327484,0.27122947573661804
17.95,0.19562987983226776,1.2931785583496094,0.8094189167022705,0.10803420096635818,-0.042938508093357086,0.09410595893859863
18.0,0.09584035724401474,0.49349498748779297,1.0690838098526,0.674739420413971,0.03285233676433563,-0.1447317898273468
18.05,-0.01775333657860756,0.26208972930908203,0.09694939106702805,1.119529128074646,0.23554745316505432,-0.10064457356929779
18.1,0.7579613924026489,0.3567543029785156,0.6156194806098938,1.153343915939331,0.7853227853775024,0.06538371741771698
18.15,0.5052981972694397,-0.1372976303100586,-0.3492903411388397,1.041073203086853,0.3702641725540161,0.3531402051448822
18.2,0.8478877544403076,-0.6675291061401367,-1.2106009721755981,0.8214948177337646,0.12195798754692078,0.07430368661880493
18.25,1.7528194189071655,-0.8146343231201172,-0.5559303760528564,0.5746909976005554,0.18416404724121094,-0.13011552393436432
18.3,1.9831838607788086,-1.297591209411621,-0.834886908531189,0.596666693687439,-0.041499003767967224,0.0025194212794303894
18.35,1.8865622282028198,-1.4080839157104492,-0.4201221466064453,0.4725595712661743,-0.18053026497364044,0.08002396672964096
18.4,-0.1303061693906784,-0.1341533660888672,-0.989691972732544,0.38335487246513367,-0.0966697558760643,-0.1134597510099411
18.45,-0.4143064320087433,0.20386791229248047,-0.5599936246871948,-0.017323464155197144,0.06895225495100021,-0.12663856148719788
18.5,-0.08659788966178894,-0.009215354919433594,-1.104445219039917,-0.21657513082027435,0.17502674460411072,-0.15487521886825562
18.55,-2.0661675930023193,1.9627819061279297,1.8397477865219116,-0.5015756487846375,0.2077244222164154,-0.1698606014251709
18.6,-0.1681058555841446,0.5795049667358398,0.717199981212616,-0.47068873047828674,0.1418597400188446,-0.0014292895793914795
18.65,-0.22996482253074646,-0.19567203521728516,-0.14337044954299927,-0.4804108142852783,0.13631688058376312,-0.14340968430042267
18.7,0.9881752133369446,0.47260189056396484,-0.8163767457008362,-0.6542392373085022,0.14180143177509308,-0.0895327478647232
18.75,1.9285857677459717,-0.5540876388549805,-0.354221373796463,-0.4719822406768799,0.12518973648548126,0.01721065863966942
18.8,1.8540096282958984,-0.8713626861572266,-1.1620479822158813,-0.23165974020957947,-0.0413951501250267,0.057446207851171494
18.85,1.3132247924804688,-0.5864572525024414,-0.31779348850250244,-0.3838081955909729,-0.21335333585739136,0.3020285665988922
18.9,0.3149537444114685,-0.8667097091674805,-0.009704025462269783,-0.10957447439432144,-0.06482218205928802,0.12820014357566833
18.95,0.35743454098701477,-0.41200923919677734,0.08513284474611282,-0.009348362684249878,-0.06914504617452621,-0.025142410770058632
19.0,-0.041678331792354584,0.3310222625732422,-0.15307733416557312,0.03204837441444397,-0.041358716785907745,-0.1466563194990158
19.05,0.6768347024917603,-0.22199344635009766,0.2933540642261505,0.054122865200042725,-0.04305616766214371,-0.1392515003681183
19.1,0.5633746385574341,-0.2801656723022461,0.12412938475608826,0.16598983108997345,-0.007830467075109482,-0.1945837438106537
19.15,0.11269965022802353,-0.1269521713256836,-0.029808711260557175,0.035963594913482666,-0.056608982384204865,-0.10323641449213028
19.2,0.1306208372116089,0.09684467315673828,0.40361133217811584,-0.08912450820207596,-0.04061286896467209,-0.10496370494365692
19.25,0.018636666238307953,0.0830831527709961,-0.0068465182557702065,-0.06703858077526093,-0.01826399564743042,-0.15034691989421844
19.3,-0.10863937437534332,0.23024654388427734,-0.35976576805114746,-0.14672136306762695,-0.0492096021771431,-0.1007813811302185
19.35,0.009495539590716362,0.2418222427368164,-0.1697586327791214,-0.33378857374191284,0.017710134387016296,-0.02101173996925354
19.4,0.1607941836118698,-0.01823902130126953,0.010621655732393265,-0.4149821102619171,0.04970152676105499,0.01832589879631996
19.45,0.059748269617557526,0.30889034271240234,-0.2712147533893585,-0.4105435013771057,0.0786847323179245,-0.027890397235751152
19.5,0.45755699276924133,0.5033092498779297,-0.5003792643547058,-0.4062468111515045,0.08372117578983307,-0.0049107689410448074
19.55,0.1837116777896881,-0.13902854919433594,0.42993661761283875,-0.33488956093788147,0.029503338038921356,0.04284384846687317
19.6,-0.10836275666952133,0.07241249084472656,-0.027151670306921005,-0.24133069813251495,-0.018920019268989563,0.0816858783364296
19.65,-0.06849081069231033,0.16881084442138672,-0.07711462676525116,-0.20449098944664001,-0.002670593559741974,0.1307367980480194
19.7,0.0837232917547226,0.07329463958740234,0.3262310326099396,-0.06203009560704231,0.06062787398695946,0.13726790249347687
19.75,-0.17644470930099487,0.3697061538696289,0.14272356033325195,0.1714344471693039,0.02848616987466812,0.08704297989606857
19.8,-0.48772740364074707,0.9490222930908203,-0.586400032043457,0.4537922441959381,0.03527170419692993,0.0027915053069591522
19.85,0.04490125924348831,0.34549617767333984,1.3637394905090332,0.7166592478752136,0.11457255482673645,-0.044422831386327744
19.9,0.96533203125,0.055335044860839844,0.4835044741630554,1.0167826414108276,0.12909004092216492,-0.11610545217990875
19.95,0.19159741699695587,0.010622024536132812,-0.3239701986312866,0.9977039694786072,0.06720489263534546,0.011679701507091522
20.0,-0.23470759391784668,0.23030376434326172,-0.6709057092666626,0.7580121755599976,0.10401999950408936,0.15816782414913177
20.05,-0.060573384165763855,0.024827003479003906,-0.04288173466920853,0.5028294324874878,0.14115628600120544,0.18215420842170715
20.1,0.32993796467781067,-0.18407917022705078,-0.630420982837677,0.3480692505836487,-0.14312252402305603,0.043999142944812775
20.15,-0.13660486042499542,0.18378353118896484,-0.12109372019767761,0.16782553493976593,-0.07911398261785507,0.0077620334923267365
20.2,-0.026880189776420593,0.05382061004638672,-0.4836077392101288,0.053204577416181564,0.0026779547333717346,0.089930459856987
20.25,0.3577933609485626,-0.15116024017333984,0.032802388072013855,-0.14978022873401642,0.022425558418035507,0.0028641168028116226
20.3,-0.2778894603252411,0.1422252655029297,0.3496638834476471,-0.26107707619667053,-0.005827203392982483,-0.11232725530862808
20.35,0.07343874126672745,0.24593067169189453,0.14289557933807373,-0.29980790615081787,0.06081056594848633,-0.14494889974594116
20.4,-0.19605892896652222,0.3280649185180664,0.36167746782302856,-0.26331770420074463,0.0804700031876564,-0.12639030814170837
20.45,-0.42592111229896545,0.5304441452026367,0.3174450099468231,-0.24329164624214172,0.13337281346321106,-0.0831681340932846
20.5,0.30228039622306824,0.1424856185913086,-0.39876991510391235,-0.19213522970676422,0.10571322590112686,-0.0531565360724926
20.55,-0.05421481281518936,0.5705118179321289,-0.006868109107017517,-0.24261552095413208,0.007550634443759918,-0.03838689625263214
20.6,0.4440302848815918,0.1068887710571289,-0.49772945046424866,-0.2120160013437271,-0.020840153098106384,0.017738666385412216
20.65,0.3782217502593994,0.19788074493408203,-0.03913448005914688,-0.16459746658802032,-0.018290337175130844,0.01926477625966072
20.7,0.34172090888023376,0.0972585678100586,0.07783859223127365,-0.08181056380271912,-0.037177201360464096,-0.045974016189575195
20.75,0.531838595867157,-0.059067726135253906,0.43052539229393005,-0.09134439378976822,-0.0907454788684845,-0.0591391958296299
20.8,-0.04828713834285736,0.14368438720703125,-0.28999948501586914,0.0273163840174675,-0.0993453860282898,-0.09416043758392334
20.85,0.1280025839805603,-0.012724876403808594,0.2698216736316681,-0.03390299528837204,-0.024972030892968178,0.013295568525791168
20.9,-0.21079999208450317,2.342007637023926,-3.0292651653289795,0.03257526457309723,-0.08893601596355438,0.013915024697780609
20.95,-0.17222893238067627,0.7800207138061523,-1.0825883150100708,-0.18641872704029083,0.055274996906518936,0.13274480402469635
21.0,0.1307215690612793,0.0711202621459961,0.08281148970127106,-0.3704657554626465,0.046219319105148315,0.2333827018737793
21.05,0.14942914247512817,0.1119232177734375,0.19132579863071442,-0.33658790588378906,0.0007612854242324829,0.20458953082561493
21.1,1.0729399919509888,-0.06795501708984375,0.7897607684135437,-0.4043888449668884,0.11836808919906616,0.1591041535139084
21.15,-0.5064442753791809,-0.3309926986694336,2.401486396789551,-0.6954819560050964,0.12254589796066284,-0.020776163786649704
21.2,-4.303525447845459,1.5313072204589844,-0.37389153242111206,-0.37690526247024536,-0.8550860285758972,-0.4918736517429352
21.25,-6.782893657684326,0.00323486328125,0.9129393696784973,-0.08567865192890167,1.1947553157806396,-0.514090895652771
21.3,0.40886834263801575,0.08763980865478516,4.330173492431641,0.7794641852378845,3.0101349353790283,-1.184871792793274
21.35,4.868434906005859,0.5600004196166992,3.499913215637207,0.6334455013275146,1.804520606994629,-0.7458703517913818
21.4,1.9289005994796753,-0.005158424377441406,-0.8870772123336792,0.1472618132829666,0.7607631683349609,-0.07114660739898682
21.45,3.346766471862793,-0.10069561004638672,1.0504536628723145,-0.14194566011428833,-0.3851294219493866,0.6493242383003235
21.5,-1.6522330045700073,1.0575809478759766,-1.4952576160430908,0.11208532750606537,-0.28616833686828613,0.3341681957244873
21.55,0.5519081950187683,-0.36400508880615234,2.5177712440490723,-0.32111987471580505,-0.038102731108665466,0.5445913672447205
21.6,-0.4103254973888397,0.19978904724121094,-0.4329335391521454,-0.17170032858848572,0.10310200601816177,0.30321791768074036
21.65,0.29401156306266785,0.8061532974243164,0.7027968764305115,-0.4102214574813843,0.27367204427719116,0.3156619668006897
21.7,0.5825443863868713,-0.06291770935058594,1.6065871715545654,-0.17888236045837402,0.03696560859680176,0.24103930592536926
21.75,-0.9037288427352905,0.8023290634155273,-0.14897966384887695,0.025160083547234535,-0.6537649035453796,0.09078385680913925
21.8,-2.892488479614258,2.1700620651245117,-3.6963253021240234,-0.36054643988609314,-0.8770787119865417,0.06516752392053604
21.85,-0.3972550332546234,0.9903383255004883,-0.40610483288764954,-0.33249592781066895,-0.3260999321937561,0.04026750475168228
21.9,-0.16885292530059814,0.2538328170776367,0.3542693257331848,-0.23289842903614044,-0.0950683131814003,0.00605759397149086
21.95,0.507693886756897,0.13622188568115234,0.2985057532787323,-0.17860636115074158,0.09637950360774994,-0.050608716905117035
22.0,0.15167012810707092,-0.14249420166015625,-0.423215389251709,-0.09626030921936035,0.19389469921588898,-0.2270379513502121
22.05,2.8659780025482178,0.33176326751708984,-0.07999482750892639,-0.1733630895614624,0.5439330339431763,-0.24398528039455414
22.1,7.009109020233154,2.472990036010742,2.4292287826538086,-0.17416003346443176,2.462648868560791,-0.9567251205444336
22.15,7.116124153137207,-0.4507303237915039,-3.2045745849609375,-1.0921380519866943,7.247353553771973,-0.40385013818740845
22.2,-4.34766149520874,-2.8966116905212402,-3.398162841796875,0.045941516757011414,9.918487548828125,0.3243159055709839
22.25,-16.997116088867188,-0.6595754623413086,5.643205165863037,1.2335351705551147,6.224292278289795,-0.9929513335227966
22.3,-0.4554297626018524,-0.787877082824707,-3.0683987140655518,1.0950006246566772,0.7720224857330322,0.43040868639945984
22.35,-0.548566460609436,-1.9802231788635254,0.11072076112031937,-0.07108017802238464,-0.29647958278656006,-0.13130231201648712
22.4,0.34317493438720703,-0.4553985595703125,-0.1439681053161621,-0.09754491597414017,-0.15823857486248016,-0.5262963175773621
22.45,-1.550634741783142,0.9949932098388672,0.37765756249427795,-0.05928773805499077,-0.0045726001262664795,-0.6791204214096069
22.5,-0.19233013689517975,0.24310302734375,-0.41654834151268005,-0.06598874926567078,0.14310923218727112,-0.42558249831199646
22.55,-0.7165967226028442,0.07973480224609375,-0.29241102933883667,-0.1527765989303589,0.2208348512649536,-0.5138996243476868
22.6,-1.2864384651184082,0.03482246398925781,-0.09440391510725021,-0.1393660455942154,0.17595720291137695,-0.3800705373287201
22.65,-0.928589940071106,0.12929248809814453,0.2610775828361511,-0.06172255054116249,0.1482866406440735,-0.052404921501874924
22.7,-0.4382769763469696,0.24134540557861328,0.22727490961551666,0.039757028222084045,0.07155273854732513,0.17348341643810272
22.75,-0.856274425983429,0.4985694885253906,0.5030965209007263,0.1164882481098175,0.09354951977729797,0.09596191346645355
22.8,-1.7423845529556274,-0.25789928436279297,-0.489825963973999,0.06236203387379646,0.2445637583732605,-0.011833900585770607
22.85,-0.897540807723999,-0.3698301315307617,0.6634620428085327,-0.18535535037517548,0.7642408609390259,-0.009861943311989307
22.9,-1.063598871231079,-1.0041084289550781,0.594881534576416,-0.39554929733276367,2.393587827682495,-0.1823556125164032
22.95,-1.3893780708312988,-9.97668743133545,-0.28119897842407227,-0.6424967050552368,4.1787872314453125,-0.5829821825027466
23.0,-2.9964182376861572,-1.2948846817016602,3.897947311401367,-0.4905720353126526,7.658665180206299,-0.10575652122497559
23.05,-1.391674518585205,0.3617525100708008,-9.268884658813477,-0.35170987248420715,7.808223724365234,0.10022342205047607
23.1,-4.780206680297852,1.0321483612060547,0.2062332034111023,-0.2541976273059845,7.839686393737793,1.6767164468765259
23.15,2.197544574737549,3.2980337142944336,12.34802532196045,1.9227747917175293,6.577359199523926,3.31075119972229
23.2,1.5466982126235962,-3.650326728820801,18.238256454467773,3.225860357284546,4.231722831726074,1.365092158317566
23.25,-9.592726707458496,-3.8066306114196777,20.078298568725586,-0.1972319632768631,2.0277225971221924,0.2407142072916031
23.3,-8.72736930847168,9.095704078674316,11.938326835632324,-2.9679949283599854,-0.27058708667755127,-0.12315938621759415
23.35,3.226139545440674,17.58465576171875,-4.768401145935059,-4.881784439086914,0.9205794334411621,-0.4972185790538788
23.4,3.9960289001464844,2.907761573791504,-17.71332550048828,-5.420889854431152,-0.12718653678894043,-1.5025367736816406
23.45,6.467735767364502,-30.951282501220703,-33.165897369384766,-4.289989948272705,0.9157334566116333,-1.0845327377319336
23.5,5.325133323669434,-11.15523910522461,-15.385025024414062,2.1403932571411133,0.5744605660438538,-0.9336724281311035
23.55,-10.469837188720703,-8.49714183807373,-20.14301109313965,5.207583427429199,4.005827903747559,-3.187129020690918
23.6,-8.173569679260254,2.8426408767700195,-13.823626518249512,5.6697611808776855,1.3316998481750488,-2.2437782287597656
23.65,0.3933506906032562,5.093818664550781,-3.7870583534240723,4.765247344970703,-0.6158220767974854,-2.2443151473999023
23.7,4.980881214141846,2.924984931945801,5.841780185699463,3.408292770385742,-0.6679975986480713,-1.9941918849945068
23.75,8.888031959533691,-4.833503723144531,12.707161903381348,1.8327730894088745,-0.1979948878288269,-0.9117884635925293
23.8,-4.470235824584961,-24.450929641723633,17.023408889770508,-3.0773305892944336,0.6797666549682617,1.6821472644805908
23.85,0.18930232524871826,-9.527931213378906,14.031538009643555,-3.200380802154541,0.6104692220687866,1.3013157844543457
23.9,10.598640441894531,3.2143354415893555,3.7670249938964844,-3.6207449436187744,0.0356675386428833,1.5113636255264282
23.95,2.1731674671173096,4.717286109924316,5.402855396270752,-2.9237747192382812,-1.0714178085327148,0.048013731837272644
24.0,-2.74641489982605,-1.3164424896240234,-0.04517446458339691,-0.9506292939186096,-0.6604229211807251,0.23914921283721924
24.05,-1.9928871393203735,-1.7512521743774414,-1.888060212135315,-0.18066605925559998,0.06680437922477722,0.6748032569885254
24.1,-0.4598692059516907,-0.046794891357421875,-0.38983455300331116,0.045406416058540344,0.34526532888412476,0.6886295080184937
24.15,-0.3990508019924164,0.43491077423095703,-0.9898089170455933,0.09317409992218018,0.22138667106628418,0.35453152656555176
24.2,-3.4062886238098145,1.6711483001708984,-1.6317142248153687,-0.016490817070007324,-0.3543073236942291,0.2070859670639038
24.25,-8.082781791687012,0.45294857025146484,-5.33539342880249,-0.31050652265548706,-2.0188701152801514,0.4553515911102295
24.3,7.780081272125244,-0.07091045379638672,4.839191913604736,0.8212580680847168,-7.933314800262451,-1.7246984243392944
24.35,5.806507110595703,2.540349006652832,2.6202311515808105,1.765923023223877,-5.439779281616211,-0.9173464179039001
24.4,4.915747165679932,0.7169456481933594,-2.8515994548797607,-0.0816832184791565,-1.2497615814208984,0.6218070983886719
24.45,0.14695829153060913,0.14383220672607422,-0.1461307853460312,-0.6949512958526611,-0.21051247417926788,0.6886373162269592
24.5,-0.29370415210723877,0.1752147674560547,0.8357910513877869,-0.1743527501821518,-0.061382319778203964,0.3451835513114929
24.55,-0.8420664072036743,-0.04607868194580078,0.08701656758785248,0.14162257313728333,0.03886556252837181,0.11120937019586563
24.6,-0.9603621959686279,0.2241954803466797,0.1869206726551056,0.14381878077983856,0.025237634778022766,0.05048591271042824
24.65,-0.1402214914560318,1.2712163925170898,-0.1402963548898697,0.16955257952213287,0.22458416223526,0.06855577230453491
24.7,-0.9100701212882996,-0.276824951171875,-0.41131770610809326,0.2998943030834198,0.4195040464401245,0.09600269794464111
24.75,-1.5190578699111938,0.35170936584472656,-0.5331333875656128,0.4316543936729431,0.3822667598724365,0.4371890723705292
24.8,-0.24660679697990417,-0.09853267669677734,0.1652148813009262,0.29645562171936035,0.12193726748228073,1.0672286748886108
24.85,-0.9708297848701477,0.20685100555419922,0.03286115825176239,0.08833110332489014,-0.07114093005657196,1.1769070625305176
24.9,-0.5943489670753479,-0.546839714050293,-0.22679485380649567,0.010351493954658508,0.01408427581191063,1.3869967460632324
24.95,-0.23599982261657715,-0.4696073532104492,-0.29154327511787415,-0.21011921763420105,-0.020944539457559586,1.3907294273376465
25.0,-0.04587024450302124,-0.8774919509887695,-0.3816071152687073,-0.5219978094100952,-0.2461250126361847,1.197848916053772
25.05,-0.17410317063331604,-1.5534982681274414,-1.0233922004699707,-0.9760497212409973,-0.4871528148651123,0.9911308288574219
25.1,-0.07646772265434265,0.2492074966430664,3.497061252593994,-1.3327410221099854,-0.18458998203277588,0.7054277658462524
25.15,-0.41017767786979675,0.3555774688720703,1.3560727834701538,-0.29900622367858887,0.08051243424415588,-0.021696994081139565
25.2,-0.6701647043228149,0.03476142883300781,0.022979184985160828,0.23515628278255463,-0.03565850481390953,-0.18512430787086487
25.25,0.009331390261650085,0.15794086456298828,0.6493197679519653,0.19777268171310425,0.24798990786075592,-0.3478459119796753
25.3,-0.47901979088783264,0.2456827163696289,0.4344279170036316,0.3972216844558716,0.3799428641796112,-0.6975053548812866
25.35,-0.7903785705566406,0.23214435577392578,0.2066819965839386,0.566512405872345,0.5734037756919861,-0.8033405542373657
25.4,-0.9275302886962891,0.7117738723754883,0.6996581554412842,0.7073729038238525,1.0500705242156982,-0.7765399813652039
25.45,0.13775372505187988,0.12357711791992188,1.156409740447998,0.9623731970787048,1.5593452453613281,-0.9171654582023621
25.5,0.2606463134288788,0.5547380447387695,0.5026761889457703,1.065207839012146,1.763295292854309,-1.2180542945861816
25.55,-0.6327073574066162,0.1591176986694336,1.230521321296692,0.9532599449157715,1.5877093076705933,-1.2484190464019775
25.6,-0.7944202423095703,-0.38692188262939453,0.8067905902862549,0.9427717328071594,1.4833993911743164,-1.370546817779541
25.65,0.16033296287059784,-1.0895404815673828,0.6920397281646729,0.8950356841087341,1.4832816123962402,-1.0357131958007812
25.7,-1.3543014526367188,-0.5337705612182617,-1.2726517915725708,0.7260271310806274,0.798865795135498,-0.37337493896484375
25.75,-5.26071310043335,-0.25811100006103516,-1.2587592601776123,-0.062159132212400436,-0.8584011793136597,1.4148194789886475
25.8,-0.02193138748407364,-0.44942378997802734,-0.5454712510108948,-0.48638230562210083,-1.8234667778015137,3.2844932079315186
25.85,0.28077808022499084,-0.9410781860351562,-0.6473835110664368,-1.0763987302780151,-3.430568218231201,2.0652284622192383
25.9,5.547338962554932,-0.6541814804077148,1.7183809280395508,-0.9830853343009949,-4.364593982696533,0.2379070222377777
25.95,-1.018479824066162,-1.408890724182129,3.5850882530212402,-1.7576162815093994,-1.5934908390045166,0.7474560737609863
26.0,-0.9407857060432434,-0.03582477569580078,1.14199697971344,-1.2561852931976318,0.3784373104572296,-0.07413464039564133
26.05,-0.5880330204963684,0.9261636734008789,2.452524423599243,-0.8768542408943176,1.3386207818984985,-0.5055225491523743
26.1,1.4647480249404907,0.8011684417724609,2.70884370803833,0.02089674212038517,1.0974323749542236,-0.6101474165916443
26.15,0.6394127607345581,0.4910240173339844,-0.07551360875368118,0.7662510871887207,0.6845006942749023,-0.8911043405532837
26.2,-0.8465240597724915,0.020834922790527344,0.6239072680473328,0.9652703404426575,0.5479941368103027,-1.1203477382659912
26.25,-0.16150182485580444,0.16808605194091797,0.04409094154834747,1.1512596607208252,0.8657371997833252,-1.120302438735962
26.3,-0.288321316242218,0.7261228561401367,0.13606277108192444,1.122394323348999,0.9417099952697754,-0.8762581944465637
26.35,0.1944984793663025,-0.018280982971191406,-0.02427932247519493,1.3301812410354614,1.0999082326889038,-1.0562832355499268
26.4,-0.8591881394386292,0.10949230194091797,-0.2374434471130371,1.2408443689346313,0.9942595362663269,-1.0753810405731201
26.45,-0.10055524110794067,-0.7239198684692383,0.35329243540763855,1.0164731740951538,1.477087140083313,-0.7953400611877441
26.5,1.1512856483459473,-2.0039167404174805,0.22034341096878052,0.14665359258651733,0.46917858719825745,-0.3343522846698761
26.55,-3.807187795639038,1.6075773239135742,2.0686891078948975,-1.296369194984436,-2.1230363845825195,0.6255751848220825
26.6,-1.0199944972991943,1.718897819519043,0.2725835144519806,-0.930909276008606,-2.3642678260803223,2.4537696838378906
26.65,-1.5766838788986206,-0.39383411407470703,1.4276525974273682,-0.794985294342041,-2.2103190422058105,2.622516393661499
26.7,-0.16601590812206268,-0.04961872100830078,-1.2161729335784912,-0.6192096471786499,-1.6662856340408325,2.5082249641418457
26.75,0.4303092360496521,-1.4828004837036133,-0.1843218207359314,-0.7118313312530518,-1.185571312904358,2.160029411315918
26.8,2.5466387271881104,-1.8696389198303223,0.44971951842308044,-0.5867996215820312,-0.11725601553916931,1.0680055618286133
26.85,1.1883294582366943,-2.412721633911133,-1.3850226402282715,-0.7905668020248413,0.8248090744018555,-0.3001415729522705
26.9,0.3975161612033844,-2.0975704193115234,-1.3019070625305176,-0.9465205669403076,0.865787148475647,-0.8953080177307129
26.95,0.051380619406700134,0.9818181991577148,-0.2453201413154602,-1.294726848602295,0.1316187083721161,-0.9031195044517517
27.0,-0.21007125079631805,1.2427568435668945,4.569121360778809,-0.8631583452224731,0.3988149166107178,-1.7157292366027832
27.05,-2.1972713470458984,0.8083372116088867,1.2614097595214844,0.33311551809310913,-0.2389734387397766,-1.7217081785202026
27.1,-1.6941604614257812,0.4229612350463867,-0.24399641156196594,0.7430186867713928,0.029530078172683716,-1.1496104001998901
27.15,-0.8815589547157288,-0.04394054412841797,0.09155264496803284,0.9531184434890747,0.8341772556304932,-0.8457616567611694
27.2,0.5185388326644897,-0.4582815170288086,0.5631489157676697,0.9891431331634521,0.9520554542541504,-1.0081331729888916
27.25,-0.031115688383579254,-0.34116458892822266,0.14544138312339783,0.7853713035583496,0.7991397976875305,-1.1188952922821045
27.3,-0.16312064230442047,-0.4522266387939453,-0.4358265697956085,0.4085250496864319,0.5350640416145325,-1.2259174585342407
27.35,-0.5462799668312073,0.5498075485229492,-0.026604706421494484,0.15225820243358612,0.5107231140136719,-1.313926100730896
27.4,-2.385800361633301,0.5738887786865234,0.6858274936676025,0.20322826504707336,0.551978349685669,-0.925563633441925
27.45,0.8158184289932251,-0.04270172119140625,2.890937089920044,0.9231428503990173,0.461947500705719,0.041092582046985626
27.5,0.9018765091896057,-1.5922365188598633,1.1504837274551392,0.6669986248016357,-1.0409374237060547,0.7095001339912415
27.55,-4.958022117614746,1.2018976211547852,-1.0429377555847168,-0.3028091490268707,-2.6385412216186523,1.2961342334747314
27.6,-2.6608142852783203,-0.5329189300537109,-1.7232533693313599,-0.2931223511695862,-1.8429571390151978,2.3780570030212402
27.65,-0.08075301349163055,-2.1400351524353027,-0.38121819496154785,-0.3531738221645355,-1.2171666622161865,2.418339490890503
27.7,1.2139581441879272,-1.4696969985961914,-1.9217244386672974,-0.7708268761634827,-1.246795892715454,2.3089373111724854
27.75,0.8372263312339783,-1.7625961303710938,-1.7471387386322021,-1.0390570163726807,-1.4166690111160278,1.8130282163619995
27.8,2.5362422466278076,-1.5988550186157227,0.8023288249969482,-1.1603208780288696,-0.9050888419151306,0.9917203187942505
27.85,2.067584276199341,1.339127540588379,3.9838759899139404,-0.6853898763656616,0.39471063017845154,-0.11806860566139221
27.9,0.6394451260566711,0.008104324340820312,1.118438720703125,0.10087734460830688,0.28671106696128845,-1.3591182231903076
27.95,-3.258631706237793,1.4457387924194336,1.4898521900177002,-0.013918459415435791,-0.1885947287082672,-1.245082974433899
28.0,-1.195966362953186,1.5726099014282227,0.21099111437797546,0.6652011871337891,0.9709499478340149,-1.1507264375686646
28.05,-0.3403173089027405,0.25005245208740234,0.3737024664878845,0.5134050846099854,1.0220847129821777,-0.984483540058136
28.1,0.07347825914621353,-0.6853046417236328,-1.0738433599472046,0.6121710538864136,1.4573475122451782,-1.3307316303253174
28.15,-1.0760787725448608,-1.468367576599121,-2.423360586166382,0.3648562431335449,1.3101072311401367,-1.3725422620773315
28.2,-2.6189467906951904,2.1824913024902344,0.5297377705574036,0.5157870054244995,0.15916211903095245,-0.21817612648010254
28.25,-2.59434175491333,2.0848350524902344,0.10018748044967651,0.9086078405380249,-0.3470012843608856,1.351352572441101
28.3,0.8685300946235657,-0.6207771301269531,1.2808400392532349,0.7025554180145264,-0.6879565715789795,2.0594499111175537
28.35,2.007230758666992,-1.2843828201293945,-3.4510347843170166,-0.3948768973350525,-2.0720434188842773,1.6729893684387207
28.4,0.9583916664123535,-1.634481430053711,-4.43951416015625,-1.4690284729003906,-2.711740493774414,0.9051726460456848
28.45,0.008684724569320679,1.3765583038330078,2.275239944458008,-1.9149571657180786,-2.0925025939941406,0.6697904467582703
28.5,0.5801337957382202,0.5776968002319336,3.1243276596069336,-1.636630892753601,-1.7014836072921753,0.617519736289978
28.55,-2.2369277477264404,0.5485286712646484,0.0719342976808548,-1.1620930433273315,-1.3819760084152222,0.3577055335044861
28.6,-6.409145832061768,-0.550816535949707,-2.6517887115478516,-0.9785778522491455,-0.19256947934627533,0.034402996301651
28.65,2.2421858310699463,1.8310203552246094,5.907698154449463,-0.6367195248603821,0.8794288039207458,-0.08448293805122375
28.7,-1.6130719184875488,3.676687240600586,1.8108612298965454,-0.203500434756279,0.49292388558387756,0.1341894268989563
28.75,-4.055631160736084,4.1349077224731445,-0.32104986906051636,0.12895475327968597,-0.2753937244415283,0.5287629961967468
28.8,3.3089470863342285,1.7825508117675781,-4.135448455810547,0.7192323803901672,-0.18844527006149292,0.02401503175497055
28.85,4.180276393890381,1.5576343536376953,-1.1228185892105103,0.9848501682281494,0.2717851996421814,-0.31784310936927795
28.9,3.2246251106262207,0.04617595672607422,-0.1689804196357727,0.48987314105033875,0.06790771335363388,0.15559209883213043
28.95,0.7439203858375549,-0.7488203048706055,-0.2725440561771393,-0.1950591802597046,-0.20647534728050232,0.5913978815078735
29.0,-1.5035008192062378,-0.7373933792114258,-0.25283539295196533,-0.5534155368804932,-0.6528207659721375,0.5784975290298462
29.05,-2.346526861190796,-0.3404836654663086,-0.6719289422035217,-0.5233652591705322,-0.7063432931900024,0.35775527358055115
29.1,-2.2240073680877686,-0.2881011962890625,-0.10219825804233551,-0.33768823742866516,-0.6664224863052368,-0.023982271552085876
29.15,-2.1273956298828125,0.12491416931152344,0.3600180149078369,-0.25606682896614075,-0.6191660761833191,-0.33579522371292114
29.2,-0.898542046546936,-0.4559011459350586,0.5576350688934326,-0.1360481083393097,-0.5843177437782288,-0.5939835906028748
29.25,0.47914403676986694,-0.43840599060058594,0.11057105660438538,-0.17340266704559326,-0.5902308821678162,-0.7137867212295532
29.3,0.77232825756073,-0.5992002487182617,0.808788537979126,-0.07847386598587036,-0.5839951038360596,-0.7311514616012573
29.35,0.5348941683769226,-0.6889877319335938,-0.18522235751152039,0.018774304538965225,-0.23036444187164307,-0.7388075590133667
29.4,-0.5084078907966614,-0.2136678695678711,-0.03938443958759308,0.04178626090288162,-0.4018012285232544,-0.6667821407318115
29.45,-0.2650357484817505,-0.15948200225830078,-0.9120954871177673,0.10539524257183075,-0.3007711172103882,-0.8224846124649048
29.5,-0.24849902093410492,0.8542490005493164,-0.14354753494262695,-0.001344338059425354,-0.46484678983688354,-0.8938212990760803
29.55,0.4860457181930542,0.8116750717163086,0.2580014765262604,-0.04163537174463272,-0.36017537117004395,-0.9761145114898682
29.6,0.1722884327173233,1.2346525192260742,0.5563135147094727,-0.12131210416555405,-0.31925058364868164,-0.9289325475692749
29.65,-0.4945913255214691,1.5708675384521484,-0.023579247295856476,-0.17721402645111084,-0.19438230991363525,-1.0029680728912354
29.7,-0.870976448059082,1.8791570663452148,-0.05241766944527626,-0.4073675572872162,-0.38032275438308716,-1.1169863939285278
29.75,-0.9721906781196594,2.1891164779663086,-0.9316929578781128,-0.17750707268714905,-0.0721321702003479,-1.4625598192214966
29.8,-1.2583760023117065,2.34979248046875,-2.242933750152588,0.2572938799858093,0.13598352670669556,-1.8924592733383179
29.85,0.08438214659690857,2.7660703659057617,-0.25921630859375,-0.05871041119098663,-0.40435391664505005,-2.1208951473236084
29.9,0.9699766039848328,1.2375612258911133,-2.013432502746582,0.19391903281211853,-0.24023163318634033,-2.4249203205108643
29.95,1.4486935138702393,0.20846271514892578,-1.7760041952133179,-0.17617309093475342,-0.5858198404312134,-2.4603445529937744
30.0,2.1120567321777344,-0.629481315612793,-1.3831456899642944,-0.3491833508014679,-0.6924020648002625,-2.4875221252441406
30.05,2.6172475814819336,-0.5361185073852539,-0.5509487390518188,-0.36551398038864136,-0.7265642285346985,-2.4516868591308594
30.1,1.989611029624939,-0.36711692810058594,-0.4902786612510681,-0.3533722758293152,-0.7383884787559509,-2.3936266899108887
30.15,2.2095947265625,-0.11799907684326172,-0.0358877032995224,-0.38622379302978516,-0.7302671670913696,-2.3713479042053223
30.2,2.2808096408843994,-1.6298084259033203,0.45957309007644653,-0.43197333812713623,-0.7473281621932983,-2.3718149662017822
30.25,1.582412600517273,-2.055379867553711,-0.17609953880310059,-0.5820425748825073,-0.5593445301055908,-2.2227680683135986
30.3,0.3824426233768463,-2.6816835403442383,0.05514303222298622,-0.6307346820831299,-0.47736525535583496,-2.080937147140503
30.35,0.16780197620391846,-2.3014888763427734,-0.6019801497459412,-0.6923346519470215,-0.28438884019851685,-1.836899995803833
30.4,-0.5970017910003662,-2.349270820617676,1.0498274564743042,-0.6650922298431396,-0.3087970018386841,-1.67087984085083
30.45,-1.059753179550171,-2.507594585418701,0.2538214921951294,-0.7672034502029419,0.09620293974876404,-1.405587911605835
30.5,-1.36940336227417,-1.5802679061889648,0.5321667194366455,-0.703528106212616,0.18650782108306885,-1.0646618604660034
30.55,-1.9117178916931152,-1.7711057662963867,-0.030004985630512238,-0.528366208076477,0.26235252618789673,-0.7320823669433594
30.6,-0.78379225730896,-0.9577560424804688,-0.9527860283851624,-0.27360832691192627,0.17051397264003754,-0.34799113869667053
30.65,-0.46047869324684143,-0.7383842468261719,-0.7545768618583679,-0.23607712984085083,0.08164943009614944,-0.317779004573822
30.7,-0.6287412047386169,-0.7365932464599609,-0.568792462348938,-0.245498925447464,0.08325506001710892,-0.2665872871875763
30.75,-0.9486424326896667,-1.1015262603759766,-0.2535388767719269,-0.2747345268726349,0.08136850595474243,-0.2024475485086441
30.8,-0.9715940952301025,-1.5255851745605469,-0.6300028562545776,-0.28048279881477356,0.1533978134393692,-0.11091811954975128
30.85,-1.3346353769302368,-1.777761459350586,-0.5714845657348633,-0.4198318421840668,0.22131237387657166,-0.006166053935885429
30.9,-2.530177116394043,-2.945089340209961,-0.4551542401313782,-0.5037919878959656,0.23684416711330414,0.1027175635099411
30.95,-5.582688808441162,-5.677133560180664,-0.4964734613895416,-0.544841468334198,0.30805808305740356,0.2843196988105774
31.0,-6.846959590911865,-9.28089714050293,1.7993707656860352,-0.5973991751670837,0.2985779643058777,0.7963281273841858
31.05,-3.399761199951172,-10.409868240356445,1.8891899585723877,-0.006856203079223633,-0.03326968103647232,1.8052856922149658
31.1,-0.575931191444397,-11.103901863098145,2.2859671115875244,0.6839914917945862,-0.37348672747612,2.685703992843628
31.15,4.860142707824707,-11.258522033691406,2.8632311820983887,1.6078242063522339,-0.2436334490776062,3.690248489379883
31.2,13.685246467590332,-11.64533519744873,2.2166759967803955,2.4565529823303223,0.21841752529144287,4.848470211029053
31.25,20.065792083740234,-0.3850717544555664,-3.3801488876342773,2.642670154571533,2.0495877265930176,6.495521068572998
31.3,14.309017181396484,14.575505256652832,-6.494016647338867,1.0459043979644775,2.3668060302734375,6.9770307540893555
31.35,6.728359222412109,18.708477020263672,-3.791400194168091,0.5782358050346375,1.4217039346694946,5.5408244132995605
31.4,-4.2620954513549805,17.665084838867188,0.08343881368637085,0.46207770705223083,0.8664405345916748,4.59476375579834
31.45,-6.91301155090332,12.243220329284668,0.31601184606552124,0.014257311820983887,1.1401112079620361,4.148130416870117
31.5,-10.51327896118164,5.408205986022949,2.0322301387786865,-0.18456050753593445,0.6725168228149414,3.334146499633789
31.55,-9.79935359954834,1.0510969161987305,0.4343234896659851,0.05255560576915741,0.5782466530799866,2.608144760131836
31.6,3.9010066986083984,0.1696453094482422,-2.0459089279174805,1.0161257982254028,0.07387024909257889,0.9063889980316162
31.65,1.4851267337799072,-0.25177860260009766,0.4115457534790039,0.7091801166534424,0.12471263110637665,0.47351840138435364
31.7,0.21002697944641113,-1.4890336990356445,-1.5645803213119507,0.6074813008308411,-0.517305314540863,0.02555008977651596
31.75,0.6790519952774048,-1.2674856185913086,-2.3930773735046387,0.22830398380756378,-0.0292909387499094,-0.038039952516555786
31.8,0.9792227745056152,-0.6580371856689453,-0.7587729096412659,-0.42869406938552856,-0.47562456130981445,-0.002760831266641617
31.85,0.058572616428136826,-0.7824172973632812,-0.6640366315841675,-0.6329104900360107,-0.6979413032531738,-0.02936915121972561
31.9,-0.25409579277038574,-0.015628814697265625,-0.17876006662845612,-0.8007845282554626,-0.7166578769683838,-0.01620800420641899
31.95,0.18235230445861816,0.8814668655395508,1.6456451416015625,-0.7317023873329163,-0.6819108128547668,-0.011115409433841705
32.0,-1.0795201063156128,0.9626197814941406,0.06991591304540634,-0.26567885279655457,-0.5008866786956787,-0.058425985276699066
32.05,-1.263786792755127,0.6187162399291992,-2.8042399883270264,0.09738574922084808,-0.15754899382591248,-0.06038236618041992
32.1,0.0818282961845398,0.09478282928466797,-0.6568543910980225,0.30244186520576477,0.10928161442279816,-0.040153130888938904
32.15,0.0544615164399147,-0.29233455657958984,-0.7773886919021606,0.3731003701686859,0.24892795085906982,-0.03575001657009125
32.2,0.8655600547790527,-1.3885469436645508,-0.34795844554901123,0.23950153589248657,0.19266459345817566,-0.0499720573425293
32.25,0.8195072412490845,0.05097770690917969,0.18703433871269226,0.21939606964588165,0.19975560903549194,-0.2371382713317871
32.3,0.11119052022695541,-0.12808799743652344,-0.5775085687637329,0.32673001289367676,-0.0724174752831459,-0.39863747358322144
32.35,-0.9810984134674072,0.9516773223876953,-0.26725876331329346,0.24230597913265228,-0.4299279749393463,-0.19970017671585083
32.4,-0.8951115608215332,-0.3723621368408203,-0.9190324544906616,0.10092468559741974,-0.380740225315094,-0.04496590048074722
32.45,0.13065914809703827,0.014368057250976562,-1.3244075775146484,-0.2641391456127167,-0.3361673355102539,0.10687222331762314
32.5,0.42522817850112915,-0.8961458206176758,0.23920339345932007,-0.4334372580051422,-0.11870462447404861,-0.01129099540412426
32.55,0.2925328016281128,0.16474533081054688,0.031884439289569855,-0.4969591796398163,-0.030815254896879196,-0.18835927546024323
32.6,1.4669278860092163,-1.1510610580444336,-0.4804595112800598,-0.38121455907821655,-0.20142154395580292,-0.19095155596733093
32.65,0.9339993596076965,-1.9208183288574219,-0.29337865114212036,-0.42692530155181885,-0.34728729724884033,-0.25645095109939575
32.7,0.14022353291511536,1.0058603286743164,-0.3262152373790741,-0.601050078868866,-0.2907812297344208,-0.18871824443340302
32.75,0.07188153266906738,-0.26381397247314453,-1.9055612087249756,-0.9862289428710938,-0.9238002300262451,-0.006469331681728363
32.8,0.40336328744888306,0.2440042495727539,-0.8634743690490723,-1.3560729026794434,-1.0818341970443726,0.10685094445943832
32.85,0.263921856880188,1.4499244689941406,-0.5635613203048706,-1.2912338972091675,-1.481895923614502,0.2421146035194397
32.9,0.43415582180023193,2.440694808959961,-3.256136655807495,-0.3832605481147766,-1.1958452463150024,0.1761600375175476
32.95,-0.45822495222091675,0.011691093444824219,-3.624134063720703,0.5389962792396545,-0.3829188644886017,-0.19915571808815002
33.0,0.4366294741630554,-1.8079910278320312,0.7538984417915344,0.5371388792991638,0.07720117270946503,-0.7903235554695129
33.05,-3.0563063621520996,-1.3597774505615234,2.7643933296203613,0.42192524671554565,0.4623793363571167,0.6799536943435669
33.1,1.4104502201080322,-3.064903736114502,1.7616832256317139,0.025586850941181183,0.34805890917778015,0.2176578938961029
33.15,1.231334924697876,0.4550647735595703,1.5513639450073242,-0.6300640106201172,-0.15892437100410461,-0.09360496699810028
33.2,-1.5263171195983887,3.3228206634521484,2.0293424129486084,-0.561532735824585,-0.20866313576698303,-0.04452865943312645
33.25,-0.38614118099212646,1.7356176376342773,1.0276294946670532,0.11997241526842117,0.6349198818206787,0.002227503340691328
33.3,3.355886459350586,-0.5785884857177734,-1.4167369604110718,0.3859849274158478,0.5068559646606445,-0.09022004902362823
33.35,0.7400166988372803,-1.217097282409668,-1.3186051845550537,0.07665058225393295,-0.42075464129447937,-0.023244600743055344
33.4,0.5077865123748779,-0.780853271484375,-2.28877329826355,-0.1895654946565628,-0.6001798510551453,-0.08913625776767731
33.45,-0.25777941942214966,0.6426610946655273,0.09717489033937454,-0.2740539312362671,-0.4742414653301239,-0.011991129256784916
33.5,0.04262465238571167,0.20014286041259766,-0.4456786811351776,-0.16076432168483734,-0.4533676207065582,0.04667283594608307
33.55,-0.9232983589172363,0.052033424377441406,-0.5046608448028564,0.0072940802201628685,-0.26444458961486816,0.1421348601579666
33.6,-0.07188444584608078,-0.07262611389160156,-1.0287748575210571,0.14157827198505402,0.08977297693490982,0.10236222296953201
33.65,-1.1918185949325562,0.7295446395874023,0.18417146801948547,0.30295708775520325,0.3059375584125519,0.09599495679140091
33.7,-1.0405447483062744,0.8276882171630859,0.732611894607544,0.4917202293872833,0.8734585642814636,-0.19319982826709747
33.75,-4.813017845153809,1.0971441268920898,1.9648966789245605,0.3349068760871887,0.21433699131011963,-0.5071903467178345
33.8,-8.002460479736328,1.5943994522094727,0.9808869361877441,-0.0017680376768112183,0.12099679559469223,-1.4070781469345093
33.85,-6.210917949676514,4.713413238525391,-2.4841315746307373,0.09784869104623795,0.3743380010128021,-2.2854695320129395
33.9,-0.28749150037765503,5.972413063049316,-3.7790615558624268,-0.13428378105163574,-0.58968186378479,-3.3953607082366943
33.95,12.165543556213379,-2.0762829780578613,-3.784404754638672,-0.36277908086776733,-2.1246891021728516,-4.0024309158325195
34.0,15.33358383178711,-8.150086402893066,1.575681209564209,-0.0578962117433548,-2.5572245121002197,-2.6633636951446533
34.05,17.528213500976562,-6.870344638824463,0.12452363967895508,1.8560675382614136,-1.0293622016906738,-0.9461836814880371
34.1,9.717174530029297,-10.439580917358398,-3.170520782470703,2.5125064849853516,-1.3969733715057373,-0.6962243914604187
34.15,5.078786849975586,-1.773259162902832,-4.748769760131836,1.93263840675354,-0.7700270414352417,1.6038923263549805
34.2,-5.254454612731934,1.8142786026000977,-3.7648768424987793,2.0860135555267334,-0.8006508350372314,2.578145980834961
34.25,-7.944101333618164,2.233067512512207,-1.7705875635147095,1.0534199476242065,0.4004249572753906,2.7376511096954346
34.3,-25.846694946289062,5.956474304199219,6.420068264007568,-0.30219557881355286,2.2913575172424316,-1.4860976934432983
34.35,-4.475700855255127,-1.6630325317382812,-1.071276307106018,-0.8236278891563416,0.6852154731750488,-1.5250369310379028
34.4,-0.8308261036872864,0.4526710510253906,2.1560378074645996,0.769389808177948,-1.5418646335601807,-0.17199158668518066
34.45,-0.002722792327404022,0.3275327682495117,0.17661969363689423,0.3955098092556,-0.10259480029344559,0.0007431004196405411
34.5,-0.24729089438915253,0.22861480712890625,-0.6519710421562195,0.8506630063056946,0.05767896771430969,0.3050247132778168
34.55,0.3560153841972351,1.0217971801757812,-0.8158618211746216,0.928719162940979,-0.0160791277885437,0.29824817180633545
34.6,0.6221218109130859,0.2314920425415039,-1.0912120342254639,0.4033321142196655,0.10751598328351974,-0.07065396010875702
34.65,0.4162924587726593,0.25518321990966797,-0.6611347794532776,0.18951433897018433,0.04672910273075104,-0.027869775891304016
34.7,-0.08913697302341461,-0.5144929885864258,-0.7686470746994019,0.1478932499885559,-0.02897690236568451,0.15589354932308197
34.75,-0.21934658288955688,-0.25766658782958984,1.5382936000823975,0.16356223821640015,-0.10483410209417343,0.2526182532310486
34.8,0.42188721895217896,-0.3512086868286133,0.3562709093093872,0.4580543637275696,-0.27380990982055664,0.34962061047554016
34.85,-0.277152419090271,0.9904909133911133,-0.04840821772813797,0.5868706107139587,-0.47317707538604736,0.5158621668815613
34.9,0.035982124507427216,-0.0632009506225586,-0.594857931137085,0.7609230875968933,-0.028555840253829956,0.3791130781173706
34.95,-0.7259159684181213,0.536585807800293,-0.29682350158691406,0.8161754608154297,0.40450549125671387,0.2201269567012787
35.0,-3.3822686672210693,4.6482133865356445,-2.5700535774230957,1.0785038471221924,1.006513237953186,0.9598700404167175
35.05,-13.209859848022461,3.386868476867676,3.3759870529174805,1.0169435739517212,2.095890522003174,4.0387187004089355
35.1,-0.7238571643829346,-1.0638236999511719,11.102394104003906,2.65175461769104,3.571603298187256,8.547700881958008
35.15,-2.3491063117980957,-10.21599006652832,46.28880310058594,2.6930782794952393,5.545586109161377,6.474161624908447
35.2,12.712099075317383,-11.673736572265625,25.1900577545166,-1.923784852027893,6.831124305725098,-0.32637715339660645
35.25,26.887147903442383,-13.67364501953125,6.5421061515808105,-6.234376907348633,8.657097816467285,-1.7229161262512207
35.3,39.07088851928711,0.2057628631591797,-15.857076644897461,-6.638236999511719,9.7731294631958,2.8989508152008057
35.35,17.70374870300293,8.8543119430542,-51.007381439208984,-3.5415492057800293,13.077136993408203,5.386637210845947
35.4,-54.43701934814453,-7.804289817810059,-43.492156982421875,1.4405702352523804,17.331941604614258,2.4626359939575195
35.45,-2.3241047859191895,15.164973258972168,8.909854888916016,-0.4886896014213562,9.724529266357422,-2.154205322265625
35.5,4.898458957672119,-1.521066665649414,-6.760669231414795,-0.7655913233757019,0.22789056599140167,0.8652222156524658
35.55,3.6854071617126465,-0.5331497192382812,0.3861609399318695,0.2793736755847931,1.959697961807251,-0.19345402717590332
35.6,1.584257960319519,-0.32615184783935547,1.0167908668518066,0.7259693145751953,4.681005954742432,-0.4226093590259552
35.65,-5.439868927001953,1.771101951599121,-0.04034090042114258,0.6094937324523926,5.354283332824707,0.057216133922338486
35.7,0.2954898774623871,-1.488936424255371,1.0458292961120605,0.2346910983324051,5.648560523986816,0.9770310521125793
35.75,2.611398458480835,-0.1598043441772461,1.7217814922332764,0.39375531673431396,6.324645042419434,0.18350961804389954
35.8,3.3953840732574463,-1.0244388580322266,0.8771002292633057,0.5062873959541321,6.047008514404297,0.06900161504745483
35.85,1.4364123344421387,0.6320514678955078,0.28209754824638367,0.6066237092018127,4.215335845947266,0.4103117883205414
35.9,0.9527987837791443,0.4088582992553711,0.19790485501289368,0.4717274010181427,3.7084155082702637,0.0758935958147049
35.95,1.2969756126403809,0.21807384490966797,0.040813229978084564,0.5619296431541443,4.590029716491699,-0.018190596252679825
36.0,-0.3870108723640442,0.325347900390625,-4.05939245223999,0.594089686870575,3.9655845165252686,-0.11402224749326706
36.05,0.08273787051439285,0.2948160171508789,-1.3158445358276367,0.6969926357269287,3.0152008533477783,-0.047347426414489746
36.1,-1.6098296642303467,0.3658866882324219,-1.0718128681182861,0.7726495265960693,3.0975558757781982,0.009167753159999847
36.15,-0.31722140312194824,2.5053768157958984,2.5948739051818848,0.8974337577819824,3.1578099727630615,0.5242865681648254
36.2,-5.851490497589111,4.202383995056152,11.319067001342773,1.0584574937820435,2.7228314876556396,2.3173460960388184
36.25,-8.763389587402344,2.8684701919555664,15.469861030578613,3.630091667175293,0.9200745820999146,3.8698694705963135
36.3,-4.939507484436035,-13.749921798706055,21.84193229675293,-0.6473631858825684,1.0997662544250488,-2.0373880863189697
36.35,10.850887298583984,-8.619754791259766,-1.3252100944519043,-6.109129905700684,3.816009044647217,-0.3571859300136566
36.4,16.02360725402832,-1.8201994895935059,-40.8160514831543,-2.3694264888763428,1.4146943092346191,1.2282993793487549
36.45,-34.8720817565918,-17.256759643554688,-4.985203742980957,1.6815214157104492,-3.826401948928833,-3.9349758625030518
36.5,5.167576789855957,2.2875986099243164,4.91628885269165,-0.5955126285552979,0.7803159356117249,0.3658507168292999
36.55,0.3743647038936615,3.233944892883301,2.9597489833831787,0.7374457716941833,-0.011957436800003052,-0.9006486535072327
36.6,-1.1465033292770386,-0.8588724136352539,-2.9887428283691406,0.7336611151695251,-0.021791815757751465,-0.6529719233512878
36.65,0.8404822945594788,-1.9641189575195312,0.5987027883529663,0.24089929461479187,-0.13456405699253082,-0.12951651215553284
36.7,0.3609129786491394,0.01563739776611328,-0.3729094862937927,0.11534209549427032,-0.08439435064792633,-0.20642493665218353
36.75,0.061208002269268036,0.5575084686279297,-1.503639817237854,0.10187061131000519,-0.3084610402584076,-0.13846279680728912
36.8,0.874101459980011,-0.35074901580810547,0.23823557794094086,0.0700395330786705,-0.5443379878997803,-0.0035739485174417496
36.85,1.1385096311569214,0.8610677719116211,-1.9934439659118652,0.5274382829666138,-0.15196992456912994,-0.10902354121208191
36.9,1.7684650421142578,-0.34058666229248047,-2.724902868270874,0.06945908069610596,0.038236863911151886,-0.2533826529979706
36.95,-2.736731767654419,-0.5920286178588867,-3.0793864727020264,-0.37695908546447754,-0.09813331812620163,-0.3903462886810303
37.0,1.9693717956542969,1.3968286514282227,-0.2089109569787979,-1.1201750040054321,-0.10010907053947449,0.36884090304374695
37.05,1.8976248502731323,0.5690813064575195,1.7268095016479492,-0.4592145085334778,0.12863832712173462,0.11187034845352173
37.1,1.710581660270691,1.151444435119629,1.274515151977539,0.969902515411377,0.2912958264350891,-0.479266881942749
37.15,2.9929935932159424,-1.186753273010254,0.7091487646102905,1.2100131511688232,0.5974488258361816,-0.42350560426712036
37.2,-1.5309796333312988,0.0956888198852539,-1.5675100088119507,0.5091084241867065,0.9601870775222778,-0.25491347908973694
37.25,-0.2666974663734436,-0.47437191009521484,-2.480506658554077,0.7573362588882446,-0.10060515999794006,-0.8141618371009827
37.3,-0.8366036415100098,-0.38051605224609375,-1.0798429250717163,0.08911916613578796,-0.02373533509671688,-0.3025321066379547
37.35,0.7064648866653442,1.0820274353027344,-0.3190736770629883,-0.2796839475631714,-0.030782215297222137,0.31134235858917236
37.4,0.09736022353172302,0.13794422149658203,-0.49259069561958313,-0.41046375036239624,-0.027620717883110046,0.5218333005905151
37.45,1.9477556943893433,0.7279806137084961,0.43278807401657104,-0.650672435760498,0.0726153701543808,0.7133980989456177
37.5,0.622660756111145,0.09351634979248047,-1.0383232831954956,-0.11662252247333527,0.04912279546260834,0.16493433713912964
37.55,0.14418458938598633,0.31746578216552734,-1.3833962678909302,0.034615546464920044,0.012997904792428017,0.026910072192549706
37.6,0.8409143686294556,0.11361980438232422,0.24034227430820465,-0.10775737464427948,0.022585026919841766,0.25361356139183044
37.65,-0.05786699056625366,-0.0038728713989257812,-0.782246470451355,-0.054983045905828476,-0.015267305076122284,0.17721813917160034
37.7,0.3868243396282196,-0.11010074615478516,-0.2069733887910843,-0.18163281679153442,0.04515238106250763,0.25287970900535583
37.75,0.17023929953575134,0.09510612487792969,-0.32253167033195496,-0.07743830978870392,0.08503860235214233,0.08599573373794556
37.8,0.44536226987838745,0.1761159896850586,-0.5011115670204163,0.01272992230951786,0.1197810173034668,-0.013957776129245758
37.85,0.4262596368789673,0.10272884368896484,-0.30722707509994507,0.09594885259866714,0.0901903510093689,-0.08875002712011337
37.9,0.30197224020957947,-0.005222320556640625,-0.5857620239257812,0.15508967638015747,0.05601334571838379,-0.13176880776882172
37.95,0.012454129755496979,0.06409358978271484,-0.24588024616241455,0.14474143087863922,0.08660273253917694,-0.10173562169075012
38.0,0.10168953984975815,0.05265045166015625,-1.094849705696106,0.11245668679475784,0.04580797255039215,-0.08911386132240295
38.05,0.13929840922355652,-0.0858306884765625,-1.0005898475646973,0.054760437458753586,-0.044440221041440964,0.01016933098435402
38.1,0.4116579294204712,-0.07307910919189453,-0.3016911447048187,0.042983025312423706,-0.1204519048333168,0.036507245153188705
38.15,0.4268133044242859,0.42365550994873047,-0.6917461156845093,0.05067673325538635,-0.1868377923965454,0.009851546958088875
38.2,0.5835877656936646,-0.10216045379638672,-1.001676082611084,-0.013484375551342964,-0.18210718035697937,0.057386625558137894
38.25,0.5105165243148804,-0.09961509704589844,0.39718881249427795,-0.1396746039390564,-0.06334339827299118,-0.07037628442049026
38.3,0.6652548313140869,0.8273153305053711,-1.0186794996261597,-0.07579902559518814,-0.03964163362979889,-0.14713037014007568
38.35,0.6307063698768616,0.03205299377441406,-0.26734259724617004,0.013539105653762817,-0.013973560184240341,-0.24669308960437775
38.4,1.077621340751648,0.3202695846557617,1.8172805309295654,0.32347625494003296,-0.004506014287471771,-0.4117824137210846
38.45,4.520167827606201,1.9168367385864258,1.578589677810669,1.2605547904968262,-0.2524651288986206,-0.5671532154083252
38.5,5.847596168518066,3.0173940658569336,9.14205551147461,2.1894328594207764,-2.9928839206695557,-0.33472347259521484
38.55,6.1137285232543945,2.599005699157715,12.145303726196289,1.9631097316741943,-6.085177421569824,0.8564116954803467
38.6,2.0815253257751465,2.4183883666992188,7.642410755157471,-1.4069329500198364,-1.3875324726104736,0.6576557755470276
38.65,-1.0439386367797852,0.9434823989868164,5.2985734939575195,-3.226816177368164,1.076423168182373,0.34850266575813293
38.7,-8.307089805603027,1.8426799774169922,-0.8041340112686157,-3.7279765605926514,0.9396485090255737,0.7037683725357056
38.75,-3.967027425765991,2.506545066833496,-4.695714473724365,-3.2637112140655518,0.786427915096283,1.4831655025482178
38.8,0.8494431972503662,2.210686683654785,-5.101894855499268,-3.429349899291992,2.402920961380005,2.3663251399993896
38.85,1.7049193382263184,-3.5973029136657715,-13.941224098205566,-2.4714322090148926,6.173732757568359,1.3323583602905273
38.9,-1.0066040754318237,-5.1951069831848145,-15.361041069030762,-0.41461890935897827,4.61848258972168,1.042877197265625
38.95,-1.2353003025054932,-4.041748523712158,-10.347875595092773,1.3507630825042725,2.12557315826416,-0.5148377418518066
39.0,-2.063873767852783,1.7458124160766602,-8.4495210647583,1.3912643194198608,1.2614717483520508,-1.2133033275604248
39.05,-4.79359769821167,-4.217868804931641,-3.5792531967163086,-0.15546956658363342,-1.0719385147094727,-2.4863779544830322
39.1,-3.234006881713867,3.6623239517211914,-1.4766470193862915,0.2910439968109131,-2.277932643890381,-1.5344618558883667
39.15,-5.6922407150268555,-0.07366371154785156,0.12021264433860779,0.855415403842926,-2.347100257873535,-2.7677502632141113
39.2,0.3583971858024597,-3.650887966156006,2.1533164978027344,1.068589210510254,-4.4396514892578125,-3.092449188232422
39.25,1.0131171941757202,-1.0200815200805664,-0.6004536747932434,1.5386494398117065,-3.173680067062378,-1.4685319662094116
39.3,21.656448364257812,20.718421936035156,-3.1568241119384766,1.4343986511230469,-0.6810017824172974,0.22217519581317902
39.35,10.794600486755371,10.019455909729004,-18.482685089111328,-0.7104378342628479,0.2058338224887848,0.322058767080307
39.4,-0.7931674122810364,2.1574535369873047,0.13358600437641144,-0.3795982003211975,-0.04774902015924454,0.4758226275444031
39.45,-2.267132520675659,0.7125310897827148,-2.2753872871398926,-0.23958024382591248,0.9145293235778809,0.5981351137161255
39.5,0.884536862373352,0.9717226028442383,1.1650302410125732,-0.006418433040380478,2.508417844772339,0.3202320337295532
39.55,4.98135232925415,0.3143043518066406,1.1449062824249268,0.012021441012620926,1.4829788208007812,0.039627641439437866
39.6,-0.37841686606407166,0.7203922271728516,-0.1533823311328888,0.221749410033226,-0.42268943786621094,-0.3295671045780182
39.65,0.06323367357254028,0.8409872055053711,-0.03216294199228287,-0.0225982703268528,-0.44768622517585754,0.04151645675301552
39.7,0.6177084445953369,0.020460128784179688,-0.18152585625648499,-0.1204407662153244,-0.3255496621131897,0.06801160424947739
39.75,-0.8385649919509888,-0.6393957138061523,-0.3530614376068115,0.013190788216888905,-0.20173829793930054,-0.2095099538564682
39.8,-1.9690619707107544,-0.3773002624511719,-2.904569149017334,0.1177784875035286,0.21414399147033691,-0.19017542898654938
39.85,-0.34944581985473633,0.37172794342041016,-0.18004843592643738,-0.20973487198352814,0.2824500799179077,-0.10820073634386063
39.9,0.5579665303230286,0.13871288299560547,-0.1536562144756317,-0.0006032027304172516,0.08594997227191925,-0.14579209685325623
39.95,0.10461071878671646,-0.0076045989990234375,0.14254769682884216,0.28239086270332336,-0.007679842412471771,-0.3600398302078247
40.0,0.3466724455356598,0.8598661422729492,-0.5346237421035767,0.635664701461792,-0.5524077415466309,-0.1635899543762207
40.05,2.554866313934326,0.47759532928466797,-0.194174125790596,0.3547917306423187,-2.139333963394165,0.4273257553577423
40.1,-1.7532480955123901,0.5571193695068359,0.5906014442443848,0.30144762992858887,-3.928957223892212,0.308610200881958
40.15,-0.9644565582275391,0.1140298843383789,-3.548977851867676,0.36317792534828186,-4.681926727294922,0.45936110615730286
40.2,-0.4678393602371216,-0.7190446853637695,-6.497848033905029,0.32259389758110046,-2.985809326171875,0.26708585023880005
40.25,0.19558249413967133,-0.6122598648071289,-0.23213855922222137,-0.5972378253936768,-0.5084362626075745,0.13651706278324127
40.3,1.6125558614730835,-0.8457326889038086,0.46936145424842834,-0.5268682241439819,-0.34206974506378174,0.0551830492913723
40.35,-0.43563470244407654,-0.27527523040771484,-2.1657822132110596,-0.5398677587509155,-0.2526830732822418,0.39911797642707825
40.4,-0.9971296787261963,1.3940973281860352,-0.7160933017730713,-0.4889374077320099,-0.0422942116856575,0.6165989637374878
40.45,-2.36208176612854,1.8985910415649414,-1.429214358329773,-0.17780175805091858,0.014642983675003052,0.7703283429145813
40.5,-1.0515331029891968,1.032181739807129,-0.5725523233413696,-0.34225013852119446,0.07435758411884308,1.2306568622589111
40.55,0.23058824241161346,-0.6006879806518555,-1.3874338865280151,-0.10639119893312454,0.08779078722000122,1.6441022157669067
40.6,-0.6127941608428955,1.0156965255737305,0.03390201926231384,0.5083818435668945,0.6756935715675354,1.266762375831604
40.65,-3.493600368499756,2.030367851257324,-0.09457828104496002,1.019102931022644,1.3512550592422485,1.403841495513916
40.7,-5.377450466156006,1.0242681503295898,-0.21762235462665558,1.1152476072311401,2.4292891025543213,2.4102942943573
40.75,-9.244616508483887,-6.169708251953125,4.855942726135254,0.8334639072418213,2.8837504386901855,3.8632891178131104
40.8,-8.55246353149414,-13.558221817016602,10.513062477111816,0.14042657613754272,2.1362192630767822,0.9391858577728271
40.85,-0.0423855185508728,-8.738667488098145,8.343022346496582,-1.4649863243103027,0.6538695693016052,-5.142571926116943
40.9,14.587395668029785,0.25174808502197266,-17.674938201904297,-1.8523015975952148,0.20503705739974976,-4.973522663116455
40.95,0.1743144690990448,-1.0829706192016602,-5.767876625061035,-0.16196969151496887,-0.05049356073141098,-0.6816969513893127
41.0,6.381882190704346,0.6944255828857422,-3.2175416946411133,-0.4748525023460388,0.03522416949272156,-0.3823598623275757
41.05,0.6558058857917786,-0.7537355422973633,1.1378355026245117,0.024327237159013748,-0.8881515264511108,0.38328319787979126
41.1,1.3494051694869995,0.030913352966308594,0.5641320943832397,0.0066010127775371075,-1.9168795347213745,-0.16254635155200958
41.15,-0.311900794506073,-0.6504487991333008,-3.8973703384399414,-0.08965448290109634,-2.1559391021728516,-0.2192654013633728
41.2,-0.809853196144104,0.10255146026611328,-4.347964286804199,-0.8911697864532471,-1.9284050464630127,-0.022245272994041443
41.25,-1.5848523378372192,1.8347883224487305,0.5055323839187622,-1.613838791847229,-0.7782639861106873,0.3973343074321747
41.3,0.6288478970527649,-0.40352630615234375,-0.33930620551109314,-1.2554936408996582,-0.6091123223304749,1.1437606811523438
41.35,1.4341086149215698,0.8856229782104492,1.3660190105438232,-0.6833863258361816,-0.7970092296600342,0.7561406493186951
41.4,-0.9760265350341797,-0.1343240737915039,-1.604957938194275,-0.00027786940336227417,-0.7800696492195129,0.4818113446235657
41.45,0.06957271695137024,0.05822563171386719,-0.30016499757766724,0.08076556026935577,0.04859668016433716,0.36162590980529785
41.5,-0.2636381983757019,-0.1891460418701172,-1.3841973543167114,0.23530787229537964,0.2902514338493347,0.29751357436180115
41.55,-0.2805192172527313,0.3028554916381836,-0.40366971492767334,0.16682282090187073,0.5602235198020935,0.3696936368942261
41.6,-0.015740156173706055,0.09646129608154297,-0.6089475750923157,0.21630504727363586,0.19760389626026154,0.6898311376571655
41.65,-0.14501327276229858,-0.10265159606933594,-1.692955493927002,0.22121712565422058,0.11214399337768555,0.9026438593864441
41.7,-0.3119884133338928,0.41656017303466797,-0.3240926265716553,0.25954827666282654,0.3873952031135559,1.0016775131225586
41.75,-1.1781712770462036,-0.2405529022216797,-1.9360780715942383,0.46770352125167847,0.7500334978103638,1.259369969367981
41.8,-1.3503868579864502,-0.2269449234008789,0.07906594127416611,0.25471776723861694,1.3935819864273071,1.6840661764144897
41.85,0.8398244380950928,0.4390392303466797,1.340043306350708,0.6801340579986572,1.6022558212280273,2.017061233520508
41.9,0.28475505113601685,-0.13956356048583984,-0.723550021648407,1.865182876586914,1.381295919418335,1.6453516483306885
41.95,-1.316141963005066,-2.016167640686035,-3.786680221557617,2.1937036514282227,1.65695059299469,1.3390583992004395
42.0,-1.3296856880187988,-2.677980422973633,-2.7987756729125977,0.9331903457641602,1.8679277896881104,1.8604023456573486
42.05,-0.6429632902145386,0.10379219055175781,0.03411761298775673,-0.026083484292030334,1.588592529296875,2.77154278755188
42.1,0.2579757869243622,0.16430950164794922,0.2491123080253601,0.08695842325687408,1.262467861175537,3.0151383876800537
42.15,2.6240477561950684,-2.144473075866699,0.06127329170703888,0.869956374168396,1.1237235069274902,1.8701341152191162
42.2,2.9248037338256836,-3.2935733795166016,-2.954026222229004,0.9817206859588623,-0.723051905632019,0.5982342958450317
42.25,0.5289516448974609,2.867525100708008,-4.49799919128418,0.704041600227356,-1.3651087284088135,0.26882773637771606
42.3,-0.5476307272911072,-0.5297727584838867,-3.0717451572418213,1.5794165134429932,-0.9386763572692871,-0.9532906413078308
42.35,-1.9746342897415161,-2.679694652557373,0.2930085062980652,2.7068657875061035,-0.4886709451675415,-1.9422212839126587
42.4,0.5116738677024841,-1.1499948501586914,1.4039286375045776,1.7184197902679443,-0.5647504329681396,-1.478435754776001
42.45,-0.27465754747390747,0.3443717956542969,-0.5631774067878723,0.6826664805412292,-0.1970439851284027,-0.6405249834060669
42.5,1.2257399559020996,-0.9868326187133789,1.0116631984710693,2.2874503135681152,0.8028354048728943,-1.014513611793518
42.55,2.5998332500457764,2.5852432250976562,1.2699555158615112,2.355182647705078,1.2840346097946167,-0.5502073168754578
42.6,1.793344497680664,-0.27105712890625,2.6347382068634033,1.3996100425720215,0.7778959274291992,-0.2146182358264923
42.65,4.684675216674805,0.5988121032714844,3.389004945755005,0.4226464331150055,0.07731413841247559,1.1983155012130737
42.7,3.6565568447113037,0.7197732925415039,0.64326411485672,-1.4635475873947144,-1.123445749282837,2.008654832839966
42.75,0.620868980884552,-0.9129142761230469,-1.6127798557281494,-1.275542974472046,-1.6110050678253174,2.4370977878570557
42.8,0.04088236391544342,-2.4060707092285156,-2.2855825424194336,-0.9601148366928101,-1.415696382522583,1.9657191038131714
42.85,0.3428536653518677,-0.8990182876586914,-2.1285409927368164,-0.874355137348175,-0.35662513971328735,1.9719780683517456
42.9,0.270213782787323,1.9687175750732422,-1.6203539371490479,-0.9835094213485718,0.0751790702342987,2.1320714950561523
42.95,1.4039089679718018,0.303802490234375,-1.8928413391113281,-0.6624351739883423,0.5707002878189087,1.7502235174179077
43.0,1.1471281051635742,-4.0818891525268555,1.2829113006591797,0.22261536121368408,0.01332053542137146,1.1784871816635132
43.05,-2.660839796066284,-5.8057050704956055,2.612064838409424,0.1640322059392929,-0.668442964553833,0.17284350097179413
43.1,-7.89567232131958,-1.3371915817260742,-5.120514392852783,-0.4742300808429718,-2.534113883972168,-0.1671862155199051
43.15,-18.71892547607422,17.92788314819336,-14.24423599243164,-0.13647402822971344,-2.4072234630584717,2.3898184299468994
43.2,3.459704637527466,-9.775633811950684,1.6354591846466064,0.34344586730003357,-0.8137101531028748,0.03534968942403793
43.25,1.662366509437561,2.611048698425293,0.42327117919921875,-1.9045495986938477,-0.23733492195606232,4.43120002746582
43.3,1.1610995531082153,2.0882177352905273,-0.32696714997291565,-1.5102673768997192,-0.23799270391464233,2.787724733352661
43.35,-0.41010063886642456,0.0892181396484375,-0.8253360390663147,-0.8019754886627197,-0.14284676313400269,1.4184085130691528
43.4,-1.686613917350769,1.711705207824707,-0.7080426216125488,-0.28356796503067017,-0.07460778206586838,0.5660240650177002
43.45,-6.9480061531066895,7.926651954650879,-0.46773290634155273,0.8455752730369568,-0.1573902815580368,-0.9229758977890015
43.5,1.470110535621643,-3.013726234436035,0.5108944773674011,1.5263642072677612,-0.3453959822654724,-1.9402633905410767
43.55,0.38333606719970703,-0.8036432266235352,-0.48769330978393555,0.9702591896057129,-0.365421324968338,-1.1142568588256836
43.6,-0.579638659954071,-0.6701679229736328,-1.4879947900772095,0.742120623588562,-0.37485265731811523,-0.7010992169380188
43.65,-1.2268102169036865,0.809718132019043,-1.9324285984039307,0.5215272307395935,-0.29187652468681335,-0.31740498542785645
43.7,-0.27762922644615173,0.07073402404785156,-0.9093947410583496,0.8759247660636902,0.2494906485080719,-0.23162883520126343
43.75,-0.003192402422428131,-0.3542604446411133,-0.9974948763847351,0.4006716012954712,0.17764824628829956,-0.18039177358150482
43.8,0.10815291106700897,-0.14339923858642578,-0.9527764320373535,-0.528175413608551,-0.025345683097839355,0.34740549325942993
43.85,-0.4132716655731201,0.2201395034790039,-0.5655404329299927,-0.5305291414260864,-0.21320529282093048,0.3920649290084839
43.9,-0.594978392124176,-0.43667125701904297,-0.9748932719230652,-0.14776286482810974,0.026972342282533646,0.23207193613052368
43.95,-0.4779547452926636,-0.21565723419189453,-0.799237072467804,-0.37492242455482483,0.1025114506483078,0.3787626028060913
44.0,-0.5522831678390503,-0.4420585632324219,-0.9286538362503052,-0.13416871428489685,0.2516160011291504,0.26424503326416016
44.05,-0.6080798506736755,-0.43988990783691406,-0.9013720750808716,0.024551231414079666,0.20284117758274078,0.1401238590478897
44.1,-0.5393178462982178,-0.5202245712280273,-0.9071847200393677,0.10167676210403442,0.09701267629861832,0.03205377608537674
44.15,-0.2581839859485626,0.0594482421875,-0.6171460151672363,-0.34950974583625793,0.019678687676787376,0.23027923703193665
44.2,-0.3492298722267151,-0.3328685760498047,-0.7991628050804138,-0.24465611577033997,0.015134656801819801,0.21330496668815613
44.25,-0.21572120487689972,0.10645675659179688,-0.6271767616271973,-0.2608555555343628,0.005037371069192886,0.21962720155715942
44.3,-0.29834625124931335,-0.1465740203857422,-0.7411295771598816,-0.0652618333697319,0.016082946211099625,0.08979783207178116
44.35,-0.29713523387908936,-0.2133026123046875,-0.7373338937759399,-0.13544289767742157,0.007352798245847225,0.1454375982284546
44.4,-0.4048307538032532,-0.4622173309326172,-0.832594096660614,-0.21235191822052002,-0.0005693139974027872,0.2068144679069519
44.45,-0.3976840376853943,-0.3516206741333008,-0.7512921094894409,-0.33664727210998535,-0.011878849938511848,0.30383819341659546
44.5,-0.35132235288619995,-0.03185844421386719,-0.6442369222640991,-0.34730255603790283,-0.006402656901627779,0.3092653453350067
44.55,-0.4861446022987366,-0.37879180908203125,-0.6814702749252319,-0.1685199737548828,-0.004311774857342243,0.16463115811347961
44.6,-0.3760967254638672,-0.2656517028808594,-0.6797314882278442,-0.10870376974344254,0.001780401449650526,0.08335405588150024
44.65,-0.3204118609428406,-0.2377767562866211,-0.6526588201522827,-0.06834078580141068,0.007545572705566883,0.05836814269423485
44.7,-0.27526625990867615,-0.22475910186767578,-0.6437944173812866,-0.033577773720026016,0.012790268287062645,0.03171106055378914
44.75,-0.25592806935310364,-0.26398754119873047,-0.6616527438163757,0.05896764248609543,0.038096021860837936,-0.04180801659822464
44.8,-0.28445905447006226,-0.3120918273925781,-0.659989058971405,0.030038490891456604,0.031465083360672,-0.05188705027103424
44.85,-0.28067702054977417,-0.24567794799804688,-0.6282066106796265,-0.020179038867354393,0.002870763186365366,-0.004082551226019859
44.9,-0.24373894929885864,-0.13410282135009766,-0.6027546525001526,-0.08483726531267166,-0.01885504648089409,0.047362521290779114
44.95,-0.2360997200012207,-0.19528675079345703,-0.6038260459899902,-0.09627975523471832,-0.02060752362012863,0.061765290796756744
45.0,-0.2877868115901947,-0.14754295349121094,-0.5546008944511414,-0.08635023981332779,-0.017352299764752388,0.06631903350353241
45.05,-0.28302258253097534,-0.13431072235107422,-0.6138196587562561,-0.06897234171628952,-0.019925085827708244,0.061561379581689835
45.1,-0.28291261196136475,-0.2734384536743164,-0.6405048966407776,-0.08787010610103607,-0.02210119180381298,0.05900097265839577
45.15,-0.23023621737957,-0.052051544189453125,-0.5619738698005676,-0.168556809425354,-0.032618679106235504,0.13531894981861115
45.2,-0.19145618379116058,-0.13380908966064453,-0.5822005867958069,-0.10891516506671906,-0.024884402751922607,0.06199488788843155
45.25,0.011249188333749771,0.02814006805419922,-0.7555392384529114,-0.04930919036269188,-0.07522275298833847,0.011678067967295647
45.3,0.6432878971099854,0.8838891983032227,-1.0930472612380981,0.19874870777130127,-0.2650791108608246,-0.2775583863258362
45.35,0.43841710686683655,-0.2464914321899414,-0.3002851903438568,0.018258312717080116,-0.21379360556602478,-0.09446500986814499
45.4,2.205080509185791,-2.1634445190429688,2.2481484413146973,0.5432804226875305,-0.21747314929962158,-0.506230354309082
45.45,-0.5848569869995117,-2.9570412635803223,5.98112678527832,0.2779996395111084,-0.2733418345451355,-0.5243071913719177
45.5,-0.41554105281829834,1.850480079650879,-0.1898200660943985,0.12195607274770737,-0.07386136054992676,-0.25577810406684875
45.55,3.0257749557495117,-2.2437925338745117,1.571455955505371,1.149781584739685,0.13757415115833282,-0.7291008234024048
45.6,9.384570121765137,-7.612714767456055,1.0876843929290771,2.404486894607544,0.1880502551794052,-1.9872395992279053
45.65,6.069882869720459,-0.7330646514892578,4.0537800788879395,0.8178594708442688,0.3722173273563385,-1.7703957557678223
45.7,0.2088329792022705,4.046723365783691,5.193237781524658,-0.6938918232917786,1.5893958806991577,-1.0662131309509277
45.75,3.295212507247925,6.105563163757324,2.355853796005249,-0.36511141061782837,3.228569269180298,-2.3060598373413086
45.8,8.514455795288086,-1.3258247375488281,0.8055281639099121,0.035146474838256836,3.809202194213867,-4.049500942230225
45.85,5.9523725509643555,-8.481888771057129,-6.41632080078125,-0.2163100689649582,0.7447401881217957,-1.0774952173233032
45.9,-8.360151290893555,-3.0650129318237305,-3.3653476238250732,0.9441536068916321,-1.0768296718597412,1.3621219396591187
45.95,-1.8889371156692505,-8.12735366821289,-3.308412551879883,0.9241349697113037,-0.8071540594100952,-0.9684770107269287
46.0,-0.900989294052124,0.6219406127929688,-2.1109962463378906,1.6331921815872192,-2.0463709831237793,-1.0818637609481812
46.05,2.9569666385650635,-0.233642578125,-4.103349685668945,1.5085809230804443,-2.47739839553833,-1.8266751766204834
46.1,-2.40386700630188,2.224379539489746,-2.0936100482940674,1.803735613822937,-3.2448337078094482,-2.2249948978424072
46.15,-3.4345169067382812,-0.7914180755615234,1.2420501708984375,0.16920803487300873,-2.246176242828369,-1.484588623046875
46.2,-1.9038664102554321,-2.160724639892578,0.1551189422607422,-0.9332054853439331,-1.182560920715332,-0.9028576612472534
46.25,-3.8404381275177,-0.2531423568725586,-3.354780435562134,-1.7745285034179688,-1.230647087097168,0.3422984480857849
46.3,2.242398738861084,0.4476814270019531,4.648201942443848,-3.6722779273986816,-0.9888649582862854,1.663832426071167
46.35,5.346541404724121,0.6964921951293945,6.874295234680176,-3.17695689201355,-0.9889171719551086,0.9712705612182617
46.4,2.4666619300842285,-2.0877537727355957,-0.7856831550598145,-0.5159399509429932,-0.7803364992141724,-0.2230328619480133
46.45,-3.5156726837158203,1.2188339233398438,-5.155344486236572,0.22468438744544983,0.21673862636089325,-0.44342654943466187
46.5,-0.2080296277999878,-0.3984870910644531,1.3666785955429077,-0.36227574944496155,1.2486417293548584,-0.5902262926101685
46.55,0.9222108125686646,-0.4778289794921875,2.718235731124878,-0.20604850351810455,1.4194483757019043,-0.7317100763320923
46.6,0.12828539311885834,-0.3344259262084961,-0.3908463418483734,0.3497849106788635,2.2624263763427734,-1.069474458694458
46.65,1.7014715671539307,-2.355118751525879,-3.9190011024475098,0.062425192445516586,1.7441693544387817,-0.8720694184303284
46.7,-1.5087182521820068,-1.3235673904418945,-2.8886680603027344,-0.9908861517906189,0.6830524206161499,0.000331193208694458
46.75,-0.3051954507827759,-0.15355587005615234,-1.3492391109466553,-1.6169297695159912,0.9678853750228882,0.7780117392539978
46.8,-1.8588480949401855,0.3082571029663086,-0.3250867426395416,-1.8883777856826782,0.06768769025802612,1.1167981624603271
46.85,-0.929384708404541,1.0121450424194336,0.87104731798172,-1.4119964838027954,0.47032421827316284,1.3351267576217651
46.9,1.266444444656372,0.614405632019043,1.7522789239883423,-0.539948046207428,0.6890347003936768,0.8959672451019287
46.95,2.1571295261383057,-0.3937234878540039,0.1822313666343689,0.23959830403327942,0.4686415493488312,0.36252734065055847
47.0,0.6162539720535278,-0.2544736862182617,-0.5012322068214417,0.23133309185504913,-0.15797695517539978,0.2752187252044678
47.05,-0.3205624222755432,-0.05792999267578125,-0.48457688093185425,-0.02018114924430847,-0.3467198610305786,0.05369197577238083
47.1,0.07603704929351807,0.27208614349365234,0.6298850178718567,-0.0759342759847641,-0.36074990034103394,0.14611612260341644
47.15,0.1708492785692215,0.14083576202392578,0.30444732308387756,0.19328711926937103,-0.2478829324245453,0.0827130600810051
47.2,0.2811058759689331,-0.6996068954467773,-0.7795174717903137,0.3575887978076935,-0.1995457112789154,-0.09102612733840942
47.25,-0.6098529696464539,-0.4023733139038086,-0.42710426449775696,0.19494543969631195,-0.2287037968635559,-0.04922689497470856
47.3,-0.3305908143520355,-0.10114192962646484,-0.13382817804813385,0.05507015809416771,-0.2028176337480545,0.11049100756645203
47.35,-0.14172831177711487,-0.05478191375732422,-0.4415472745895386,-0.01447727158665657,-0.17141222953796387,0.21421359479427338
47.4,0.03339298442006111,0.11788082122802734,0.017905889078974724,-0.06846092641353607,-0.22980976104736328,0.17751598358154297
47.45,-0.22394949197769165,0.21710586547851562,0.46655210852622986,-0.007332555018365383,-0.2999269664287567,0.12782034277915955
47.5,-0.04908766597509384,0.5803308486938477,0.8277931809425354,0.16592659056186676,-0.22219213843345642,0.04911261051893234
47.55,0.5495257377624512,-0.34224605560302734,0.5257869958877563,0.46324172616004944,-0.1384078860282898,-0.12864039838314056
47.6,0.7685813903808594,0.14637374877929688,-0.3211493492126465,0.3946990370750427,-0.05118478089570999,-0.3214680552482605
47.65,-0.9068994522094727,-0.5254974365234375,-0.09586769342422485,0.37477195262908936,0.014569997787475586,-0.5277394652366638
47.7,-0.0644487664103508,0.24599075317382812,-0.9278033971786499,0.264670193195343,0.7466926574707031,-0.6102402806282043
47.75,1.238394856452942,-0.36786746978759766,-1.8064717054367065,-0.1835433840751648,0.48643583059310913,-0.6139465570449829
47.8,1.712823748588562,0.3494577407836914,-1.556396484375,-0.6631358861923218,-0.24932226538658142,-0.7646782398223877
47.85,0.5282164216041565,0.8456945419311523,0.3323616683483124,-0.5790266990661621,-0.8977241516113281,-1.1717169284820557
47.9,1.0743170976638794,-0.47557640075683594,2.981417417526245,0.027943748980760574,-1.4851932525634766,-1.0914971828460693
47.95,-1.1968495845794678,-1.9151077270507812,4.70792818069458,-0.546535074710846,-2.012539863586426,0.36375439167022705
48.0,-5.631621837615967,0.7587442398071289,1.6825716495513916,-1.7076833248138428,-2.1949710845947266,0.9884175062179565
