Time [s],Acc_x [m/s^2],Acc_y [m/s^2],Acc_z [m/s^2],Gyro_x [1/s],Gyro_y [1/s],Gyro_z [1/s]
0.0,-0.07345211505889893,-0.039725303649902344,0.16768093407154083,0.3321191072463989,-0.4514240622520447,0.14156918227672577
0.05,-0.111366868019104,-0.05299949645996094,0.2076348215341568,0.35156017541885376,-0.4663066267967224,0.13300788402557373
0.1,-0.12102192640304565,0.07210540771484375,-0.0010536573827266693,0.3728391230106354,-0.49849793314933777,0.10965601354837418
0.15,-0.3643409311771393,0.41239261627197266,-0.4183410406112671,0.37450170516967773,-0.518605649471283,0.10769303143024445
0.2,-0.5333085060119629,0.4900188446044922,-1.3725714683532715,0.36709651350975037,-0.5313019752502441,0.17230075597763062
0.25,-0.33165276050567627,0.031821250915527344,-2.5320887565612793,0.32727646827697754,-0.48467355966567993,0.21517449617385864
0.3,-0.2435791790485382,-0.42852115631103516,-3.2035019397735596,0.22122010588645935,-0.2182019203901291,0.17880725860595703
0.35,-0.3838076889514923,-0.3694610595703125,-3.3076565265655518,-0.020772192627191544,0.38829976320266724,0.07991233468055725
0.4,-1.029694676399231,-0.1021108627319336,-2.4039931297302246,-0.29003795981407166,1.186536192893982,-0.10247185826301575
0.45,-1.7280648946762085,-0.1367788314819336,-1.2488964796066284,-0.4337591230869293,1.7118271589279175,-0.17363357543945312
0.5,-1.9415291547775269,-0.1764993667602539,-0.05507730692625046,-0.32909220457077026,1.7186269760131836,-0.09977127611637115
0.55,-1.0986897945404053,0.32289981842041016,0.8594139218330383,-0.1271270215511322,1.4820364713668823,-0.05463770776987076
0.6,0.09927038848400116,0.7508983612060547,1.5007271766662598,0.06903114914894104,1.3221089839935303,-0.05571098253130913
0.65,0.6833370923995972,0.9497861862182617,1.9164936542510986,0.2932489216327667,1.1190283298492432,0.017208082601428032
0.7,0.6586937308311462,1.3533811569213867,2.2230381965637207,0.535454273223877,0.7284623384475708,0.12106689810752869
0.75,0.7808548212051392,1.152937889099121,1.8099135160446167,0.6900357604026794,0.2141985148191452,0.13152647018432617
0.8,0.6693621873855591,-0.009386062622070312,0.7299128174781799,0.5847046375274658,-0.18930812180042267,0.20107072591781616
0.85,0.5077799558639526,-0.15975379943847656,0.24277563393115997,0.2215072363615036,-0.13011594116687775,0.2512724697589874
0.9,0.5328263640403748,0.10840892791748047,0.4650993049144745,-0.16635528206825256,0.25155481696128845,0.17144206166267395
0.95,0.5443923473358154,-0.08207893371582031,0.5020413398742676,-0.3723844289779663,0.3729783892631531,0.1413610726594925
1.0,0.706605076789856,-0.004970550537109375,0.47849133610725403,-0.4401879608631134,0.3605550527572632,0.21033050119876862
1.05,0.7292284965515137,0.03369712829589844,1.0091779232025146,-0.4809240698814392,0.48492631316185,0.21691428124904633
1.1,0.9107095003128052,-0.19998741149902344,1.2285168170928955,-0.4506414234638214,0.41716790199279785,0.13461673259735107
1.15,1.0735576152801514,-0.3260812759399414,0.7442653179168701,-0.33116602897644043,0.0431654155254364,0.10570904612541199
1.2,1.1658357381820679,-0.35381412506103516,-0.05275198817253113,-0.27537551522254944,-0.27675098180770874,0.1223759800195694
1.25,1.2697449922561646,-0.3774700164794922,-0.6885303258895874,-0.34169018268585205,-0.28430962562561035,0.0811055451631546
1.3,1.4556001424789429,-0.4873781204223633,-0.9326701760292053,-0.4213853180408478,-0.05919106304645538,-0.02906816266477108
1.35,1.441779375076294,-0.49208736419677734,-0.7872778177261353,-0.3915806710720062,0.17905907332897186,-0.10178598016500473
1.4,1.1063978672027588,-0.037296295166015625,-0.2322503924369812,-0.26121923327445984,0.32185056805610657,-0.16526713967323303
1.45,0.599961519241333,0.29418468475341797,0.574889600276947,-0.10238045454025269,0.3523096442222595,-0.26331835985183716
1.5,0.06786954402923584,0.3589601516723633,1.224381685256958,0.10852305591106415,0.24284309148788452,-0.3544081151485443
1.55,-0.3531721234321594,0.4980154037475586,1.3270810842514038,0.3417319059371948,-0.02838190644979477,-0.3592722415924072
1.6,-0.9606848955154419,0.9728965759277344,1.2044165134429932,0.5365577936172485,-0.32239916920661926,-0.3123576045036316
1.65,-1.3038012981414795,1.2064714431762695,0.5758423209190369,0.6198909878730774,-0.6043583154678345,-0.24013261497020721
1.7,-1.1295825242996216,0.6773319244384766,-0.0950399860739708,0.5413262844085693,-0.7157649993896484,-0.20606175065040588
1.75,-1.1920520067214966,-0.10902023315429688,0.05020845681428909,0.40649688243865967,-0.5738581418991089,-0.22035309672355652
1.8,-1.5700575113296509,-0.4830608367919922,0.4441855549812317,0.33662739396095276,-0.5424774885177612,-0.22377249598503113
1.85,-1.5837948322296143,-0.20123004913330078,0.20965850353240967,0.2715381681919098,-0.7865625023841858,-0.2255946397781372
1.9,-1.443067193031311,0.04150199890136719,-0.13737930357456207,0.10148181766271591,-0.9157811999320984,-0.17584733664989471
1.95,-1.2532321214675903,0.12382030487060547,-0.27154552936553955,-0.1376839578151703,-0.6802108287811279,-0.12102045118808746
2.0,-0.9860652089118958,0.24832916259765625,-0.1598072052001953,-0.3373926877975464,-0.32214444875717163,-0.14431312680244446
2.05,-1.0835180282592773,0.3246335983276367,0.2636623978614807,-0.4399917423725128,-0.21164686977863312,-0.1815214455127716
2.1,-1.0351148843765259,0.5119895935058594,0.31529849767684937,-0.4124760627746582,-0.5210415124893188,-0.1882956326007843
2.15,-0.9581083059310913,0.6363286972045898,-0.04077986627817154,-0.325844407081604,-1.0132509469985962,-0.1142662763595581
2.2,-0.785396933555603,0.6699981689453125,-0.7769613265991211,-0.28357359766960144,-1.4110325574874878,0.032979246228933334
2.25,-0.3773767352104187,0.4351787567138672,-1.505232810974121,-0.263753205537796,-1.5930964946746826,0.1770017147064209
2.3,-0.08133666217327118,-0.13793087005615234,-1.9197843074798584,-0.21707035601139069,-1.5175106525421143,0.29240670800209045
2.35,0.4335317015647888,-0.38362789154052734,-1.941784143447876,-0.09831428527832031,-1.3097447156906128,0.420973002910614
2.4,0.8453109264373779,0.10400772094726562,-1.2203853130340576,0.1109621673822403,-0.9530298709869385,0.5064977407455444
2.45,0.8512799143791199,0.859980583190918,-0.17137742042541504,0.340383380651474,-0.48967793583869934,0.5638430714607239
2.5,0.761530339717865,1.8088569641113281,0.7707077264785767,0.41697099804878235,-0.20107562839984894,0.625948965549469
2.55,0.728219747543335,1.3768110275268555,1.3439677953720093,0.28553831577301025,-0.01413753628730774,0.5629356503486633
2.6,0.31300681829452515,-0.19182205200195312,1.34171724319458,0.21081706881523132,0.11587890982627869,0.4362071454524994
2.65,-0.135928213596344,-0.957829475402832,0.9011972546577454,0.21105197072029114,-0.05723603069782257,0.4760921001434326
2.7,0.4991855323314667,-0.6388120651245117,0.3732970952987671,0.1896085888147354,-0.2717607021331787,0.5267797112464905
2.75,1.2528523206710815,0.188140869140625,0.32517150044441223,0.0666743591427803,0.07208925485610962,0.3660491108894348
2.8,0.9601889848709106,0.11223983764648438,0.696437418460846,-0.20452113449573517,0.7740099430084229,0.15197871625423431
2.85,0.1366061270236969,-0.5919904708862305,1.2920061349868774,-0.281072735786438,1.0522534847259521,0.1302596479654312
2.9,-0.12063412368297577,-1.042830467224121,1.3501678705215454,-0.13142907619476318,0.7747983336448669,0.19935102760791779
2.95,0.1721714437007904,-0.9579153060913086,0.8735747933387756,-0.00808396004140377,0.5045686364173889,0.10194385796785355
3.0,0.3890520930290222,-0.6243610382080078,0.6845418214797974,-0.07941921800374985,0.6641660332679749,-0.10790295153856277
3.05,0.25381922721862793,-0.5214719772338867,1.0447221994400024,-0.25158417224884033,1.0755864381790161,-0.29477638006210327
3.1,0.050306081771850586,-0.44751548767089844,1.5475058555603027,-0.2984270453453064,1.2571910619735718,-0.42397674918174744
3.15,-0.05650561675429344,0.1039438247680664,1.4078940153121948,-0.23644837737083435,1.0965415239334106,-0.4834989011287689
3.2,0.006109297275543213,0.7532434463500977,0.854351282119751,-0.21788910031318665,0.9214965105056763,-0.5477690100669861
3.25,-0.053615741431713104,1.1365089416503906,0.40692541003227234,-0.2482469081878662,0.8883984684944153,-0.5677719712257385
3.3,0.028969304636120796,1.4347991943359375,0.09295832365751266,-0.21615271270275116,0.8068971633911133,-0.4507511258125305
3.35,0.3176887631416321,1.2342557907104492,0.09273774921894073,-0.16258886456489563,0.682091236114502,-0.31697267293930054
3.4,-0.2947416603565216,0.33103370666503906,0.33127787709236145,-0.07533621788024902,0.4507550597190857,-0.15766189992427826
3.45,-1.0135904550552368,-0.3286933898925781,-0.09785190969705582,0.08049653470516205,-0.09138546884059906,0.06334654986858368
3.5,-1.127671480178833,-0.15120601654052734,-0.9334365129470825,0.11842028796672821,-0.44713354110717773,0.17127195000648499
3.55,-1.124648094177246,0.23099994659423828,-1.1169120073318481,-0.057524655014276505,-0.15534913539886475,0.08644162118434906
3.6,-1.1825122833251953,0.021137237548828125,-0.6749194860458374,-0.2828780710697174,0.3916683495044708,-0.015781160444021225
3.65,-1.3367657661437988,-0.3485746383666992,-0.07490965723991394,-0.3653055429458618,0.696389377117157,-0.007448164746165276
3.7,-1.5200998783111572,-0.32230377197265625,0.27439558506011963,-0.28176018595695496,0.6693341135978699,0.025402018800377846
3.75,-1.5848296880722046,-0.23024749755859375,0.30469343066215515,-0.11808154731988907,0.49231868982315063,0.03353681042790413
3.8,-1.3729033470153809,0.03232765197753906,0.17161333560943604,0.06134605035185814,0.40783530473709106,0.033230461180210114
3.85,-1.3046596050262451,0.5000686645507812,0.16949565708637238,0.16357889771461487,0.5887444019317627,0.04609604924917221
3.9,-0.961533784866333,1.163473129272461,0.12899212539196014,0.134505957365036,0.8221964836120605,0.07363352924585342
3.95,-0.30747920274734497,1.4407854080200195,0.10851819068193436,-0.026441220194101334,1.117768406867981,-0.017000557854771614
4.0,0.11224983632564545,1.030900001525879,0.33452630043029785,-0.10636373609304428,1.26369047164917,-0.11923662573099136
4.05,0.509412407875061,0.23283100128173828,0.22927936911582947,-0.008127142675220966,0.922733724117279,-0.1439921110868454
4.1,0.6691275835037231,-0.43701839447021484,-0.33107542991638184,0.16953806579113007,0.4860641360282898,-0.1426282674074173
4.15,0.8488386273384094,-0.5095930099487305,-1.2009426355361938,0.3347390294075012,0.20224151015281677,-0.08990203589200974
4.2,1.4539108276367188,0.03074359893798828,-1.9123640060424805,0.3522208333015442,0.2424854189157486,-0.06477819383144379
4.25,1.850189447402954,0.5305032730102539,-1.501772165298462,0.20607276260852814,0.6508713960647583,-0.04316046088933945
4.3,1.9230953454971313,0.24263954162597656,-0.6219704747200012,0.01863570511341095,0.9338927268981934,0.06929092109203339
4.35,1.6951910257339478,-0.29682064056396484,-0.22114300727844238,-0.10335518419742584,0.7012072801589966,0.21150848269462585
4.4,1.4092621803283691,-0.2296590805053711,-0.26961246132850647,-0.19023387134075165,0.3257717490196228,0.2633671462535858
4.45,1.2606637477874756,-0.06902790069580078,-0.6133350133895874,-0.23263658583164215,0.1107487678527832,0.2340562492609024
4.5,1.3158470392227173,-0.33612537384033203,-1.2800569534301758,-0.1959936022758484,-0.05271828547120094,0.18279415369033813
4.55,1.6035535335540771,-0.36986446380615234,-1.46601402759552,-0.155267134308815,-0.03158818930387497,0.1375599354505539
4.6,1.9776105880737305,0.2805929183959961,-0.7376620173454285,-0.21531179547309875,0.22670108079910278,0.07040047645568848
4.65,2.3077549934387207,0.2615823745727539,0.21090027689933777,-0.272175133228302,0.21990317106246948,0.01896819844841957
4.7,2.097511053085327,-0.21188926696777344,0.5641196966171265,-0.16874703764915466,-0.3218976855278015,-0.007058016490191221
4.75,1.3206185102462769,-0.3343391418457031,0.09276425838470459,-0.02269328199326992,-0.9188084602355957,-0.0007349716033786535
4.8,0.5606853365898132,-0.1453227996826172,-0.43885213136672974,0.0016980498330667615,-1.1371707916259766,0.01328212209045887
4.85,0.21411776542663574,0.4002361297607422,-0.8099367022514343,-0.09550593048334122,-1.047599196434021,0.04780974239110947
4.9,-0.14521226286888123,0.4644451141357422,-0.5776479244232178,-0.21315765380859375,-0.9236002564430237,0.10985055565834045
4.95,-0.8735970258712769,0.7577610015869141,-0.249000683426857,-0.2807973325252533,-0.9471540451049805,0.18963336944580078
5.0,-1.1847814321517944,1.278289794921875,0.0833086296916008,-0.2904846668243408,-0.9890503883361816,0.15328021347522736
5.05,-0.8827661871910095,1.1295995712280273,0.6891031861305237,-0.2757553458213806,-0.6718383431434631,0.05335298925638199
5.1,-0.2958695888519287,0.44582080841064453,1.2763774394989014,-0.2980692386627197,-0.27293744683265686,-0.04509603977203369
5.15,-0.2215515524148941,0.033095359802246094,2.176018476486206,-0.33898159861564636,-0.18662679195404053,-0.09417074173688889
5.2,-0.8016278743743896,-0.045622825622558594,2.8930835723876953,-0.27457380294799805,-0.5583594441413879,-0.015606427565217018
5.25,-1.14170241355896,0.28395748138427734,2.333789825439453,-0.16445128619670868,-1.1563681364059448,0.15748843550682068
5.3,-1.0900269746780396,0.5057229995727539,1.368683934211731,-0.26150885224342346,-1.4886226654052734,0.3306763172149658
5.35,-0.9080824255943298,0.37314891815185547,0.9646859169006348,-0.4654684364795685,-1.4201345443725586,0.3005315065383911
5.4,-0.7237598896026611,0.46312999725341797,0.8479492664337158,-0.5694614052772522,-1.1210163831710815,0.21593515574932098
5.45,-0.42941412329673767,0.260406494140625,0.8817002773284912,-0.5703924894332886,-0.921807587146759,0.20166921615600586
5.5,-0.6521747708320618,-0.04027080535888672,1.2759592533111572,-0.456392377614975,-0.8129615783691406,0.1928982138633728
5.55,-0.2615675926208496,-0.0001926422119140625,1.102933645248413,-0.2530539631843567,-0.7881460189819336,0.29807788133621216
5.6,-0.028814025223255157,0.20801448822021484,1.1106882095336914,-0.19073842465877533,-0.5278769731521606,0.33529534935951233
5.65,-0.14437322318553925,0.3204822540283203,0.8223007321357727,-0.21553543210029602,-0.14105692505836487,0.3189502954483032
5.7,-0.5867037773132324,0.1421651840209961,1.192777395248413,-0.22229573130607605,0.08070772886276245,0.24641741812229156
5.75,-0.5783028602600098,-0.2921638488769531,0.6348975300788879,-0.10860056430101395,-0.3653275966644287,0.1770332157611847
5.8,0.1061706468462944,-0.21099090576171875,-1.1042206287384033,-0.01095661148428917,-0.8795262575149536,0.34332719445228577
5.85,0.4770883321762085,0.01596832275390625,-2.351862668991089,-0.10794275254011154,-0.8485928177833557,0.38977837562561035
5.9,0.5676448345184326,0.28778743743896484,-2.8470733165740967,-0.288714200258255,-0.49974140524864197,0.1398744285106659
5.95,0.5035795569419861,0.4511680603027344,-2.702430009841919,-0.3927512764930725,-0.2823469936847687,-0.0702873021364212
6.0,0.9123113751411438,0.5349092483520508,-2.770763874053955,-0.3939207196235657,-0.34465059638023376,-0.18402250111103058
6.05,1.1026633977890015,0.28220081329345703,-3.0007786750793457,-0.44261109828948975,-0.3440588116645813,-0.15804553031921387
6.1,1.4436535835266113,0.14743709564208984,-2.8197453022003174,-0.45430412888526917,-0.36098870635032654,-0.08066099882125854
6.15,1.9382903575897217,-0.07198238372802734,-2.4150989055633545,-0.4452829957008362,-0.29060977697372437,-0.16705608367919922
6.2,1.6373845338821411,0.26053810119628906,-1.834579586982727,-0.45517051219940186,-0.1189214289188385,-0.3880920112133026
6.25,0.8484687805175781,0.45615673065185547,-1.3791935443878174,-0.5710625648498535,-0.057475775480270386,-0.47527414560317993
6.3,1.5763839483261108,-0.20398426055908203,-1.819127082824707,-0.7203367948532104,-0.40003329515457153,-0.30959653854370117
6.35,2.498863458633423,-1.1155815124511719,-2.191925048828125,-0.7812382578849792,-0.5231691002845764,-0.30734801292419434
6.4,2.660477638244629,-0.5279512405395508,-2.3365249633789062,-0.6342484951019287,-0.105918288230896,-0.6191747784614563
6.45,2.238166332244873,-0.8485212326049805,-1.2253817319869995,-0.28588593006134033,0.03758452832698822,-0.499235063791275
6.5,-1.1597353219985962,0.17986679077148438,0.2268545776605606,0.16318219900131226,-0.08907826244831085,-0.05111624300479889
6.55,-0.2522451877593994,-0.042212486267089844,0.057757534086704254,0.22642463445663452,-0.9224832653999329,0.5500200390815735
6.6,0.42557618021965027,-1.3230276107788086,-0.08546963334083557,0.7481377124786377,-1.1535940170288086,0.9046920537948608
6.65,-1.9362294673919678,0.02136516571044922,0.6109205484390259,1.6348694562911987,-0.26960599422454834,1.0128587484359741
6.7,-2.4051005840301514,1.4274072647094727,1.2924425601959229,1.9433062076568604,-0.35603994131088257,1.2622923851013184
6.75,-0.9702696204185486,1.0224924087524414,0.3545009195804596,2.0637149810791016,-0.7379447817802429,1.265178918838501
6.8,-0.6350686550140381,1.1348934173583984,0.6276329159736633,1.8836604356765747,-0.630748987197876,0.9923058152198792
6.85,-1.7151004076004028,0.5563058853149414,1.0357831716537476,1.4942337274551392,-0.7951633930206299,1.0187641382217407
6.9,-1.5410733222961426,0.16828250885009766,0.938022792339325,1.281498908996582,-1.056959629058838,1.138948678970337
6.95,-1.381449818611145,-1.0556344985961914,0.35310912132263184,1.3722994327545166,-1.3039036989212036,1.194456934928894
7.0,-0.9983398914337158,-0.5362930297851562,0.1384219378232956,1.4174174070358276,-1.3747222423553467,1.0341366529464722
7.05,-1.8002285957336426,0.4753284454345703,0.35472753643989563,0.9767468571662903,-0.9776918292045593,0.5531217455863953
7.1,-2.7978405952453613,-1.320143699645996,-0.35115304589271545,0.5490465760231018,-1.1429723501205444,0.24808230996131897
7.15,-0.04066157341003418,-1.029327392578125,-1.0420223474502563,0.9123409390449524,-1.9746479988098145,0.040973324328660965
7.2,1.963889479637146,0.6553707122802734,-0.6214028596878052,0.9221436977386475,-1.7179737091064453,-0.10364925116300583
7.25,1.22077214717865,0.8607158660888672,-0.8326507806777954,0.5584095120429993,-0.7005698680877686,-0.18586143851280212
7.3,0.008224345743656158,1.2672014236450195,-0.9989728331565857,0.4110345244407654,-0.2245340198278427,-0.131221204996109
7.35,0.001385509967803955,1.0630273818969727,-0.9382737874984741,0.2564029395580292,-0.43217623233795166,0.031750284135341644
7.4,-0.1424834132194519,0.3807373046875,-1.0715868473052979,0.04522118344902992,-0.41003450751304626,0.21180160343647003
7.45,-0.43637770414352417,-0.2507333755493164,-1.5784633159637451,-0.1565510779619217,-0.2608909010887146,0.2641865015029907
7.5,-0.09173561632633209,-0.4961357116699219,-2.043125629425049,-0.1611015498638153,-0.44222643971443176,0.26121824979782104
7.55,0.7739709615707397,0.45974254608154297,-1.773922324180603,-0.10695210844278336,-0.7209324836730957,0.2687107026576996
7.6,0.5458102822303772,1.0528736114501953,-0.963009774684906,-0.22528724372386932,-0.5431402921676636,0.23558025062084198
7.65,-0.5167496204376221,0.8635835647583008,0.7404084205627441,-0.37769943475723267,-0.2564590871334076,0.1329547017812729
7.7,-1.9399962425231934,0.9759244918823242,1.300632119178772,-0.48229750990867615,-0.05429568141698837,0.21062849462032318
7.75,-3.225606918334961,1.2271356582641602,1.2277727127075195,-0.4770424962043762,-0.2921619713306427,0.27740558981895447
7.8,-2.5666284561157227,0.2284688949584961,0.521744966506958,-0.46999621391296387,-0.7482852935791016,0.15770871937274933
7.85,-1.104360580444336,-0.9643659591674805,0.4169164001941681,-0.3801593780517578,-1.1634851694107056,0.05795605480670929
7.9,-1.0000455379486084,-0.9799432754516602,0.42854219675064087,-0.39430317282676697,-1.090180516242981,-0.019016176462173462
7.95,-2.3194689750671387,-0.8993902206420898,-0.4361073076725006,-0.41964226961135864,-0.7363843321800232,-0.22953903675079346
8.0,-2.294666290283203,-0.29156494140625,-1.9163349866867065,-0.2634856402873993,-1.0346555709838867,-0.1899702250957489
8.05,0.32928675413131714,0.8424148559570312,-2.1781606674194336,-0.03848822042346001,-1.9020761251449585,0.04291124269366264
8.1,1.9045244455337524,0.9543437957763672,-0.060070112347602844,0.08806053549051285,-2.4584333896636963,0.17874117195606232
8.15,1.314333200454712,0.2614898681640625,-0.45755690336227417,-0.10401005297899246,-1.9410560131072998,-0.011300061829388142
8.2,0.9118301868438721,-0.2845878601074219,-1.119766354560852,-0.13826586306095123,-1.5713081359863281,-0.30507075786590576
8.25,1.0398029088974,-1.0240163803100586,-1.0406080484390259,0.009304951876401901,-1.6621814966201782,-0.3888992965221405
8.3,1.665178656578064,0.5105142593383789,-1.3503661155700684,0.04850580915808678,-1.7698184251785278,-0.2455681711435318
8.35,2.2242112159729004,0.8461265563964844,0.2669875919818878,0.1044502705335617,-1.6083735227584839,-0.3971051573753357
8.4,2.1913609504699707,0.3881072998046875,0.6791480779647827,0.2002977430820465,-0.8597452640533447,-0.5417529344558716
8.45,1.622740387916565,0.045624732971191406,-0.1593438684940338,0.07396766543388367,-0.17404261231422424,-0.44879037141799927
8.5,0.44126492738723755,-0.4037437438964844,0.3262217044830322,-0.01630805991590023,0.008993773721158504,-0.24479550123214722
8.55,0.35137268900871277,-0.7902488708496094,-0.06608733534812927,-0.05061439052224159,0.19303220510482788,0.014685682952404022
8.6,0.24310626089572906,-0.875213623046875,1.4455947875976562,-0.052773185074329376,0.01867608167231083,0.14684940874576569
8.65,-1.0145596265792847,0.14050006866455078,1.240921974182129,-0.054687127470970154,0.286807119846344,0.1575857698917389
8.7,-1.6823698282241821,1.4506597518920898,-0.17420527338981628,-0.07125686854124069,0.5584923028945923,0.11516524106264114
8.75,-1.5503231287002563,1.809086799621582,-0.29473626613616943,-0.120281882584095,0.19922977685928345,0.14870485663414001
8.8,-1.9460147619247437,1.5265588760375977,0.0029117316007614136,-0.18087522685527802,0.05430493876338005,0.1301981508731842
8.85,-3.0636978149414062,-1.3471498489379883,-2.8407187461853027,-0.1855839490890503,0.3239007294178009,-0.18890944123268127
8.9,-2.9544100761413574,-3.14255952835083,-3.6930480003356934,0.15896667540073395,-0.32989028096199036,-0.16044598817825317
8.95,-0.5158743858337402,-2.1262660026550293,-4.536587238311768,0.5053634643554688,-1.43375825881958,-0.01941899210214615
9.0,2.3315353393554688,1.2170066833496094,-2.2800374031066895,0.7367899417877197,-2.4454450607299805,-0.3272721469402313
9.05,3.0985193252563477,2.5327749252319336,0.735710084438324,1.0667632818222046,-2.6479299068450928,-0.5206251740455627
9.1,2.752261161804199,2.1416873931884766,2.7996039390563965,0.8951469659805298,-2.2995309829711914,-0.645416259765625
9.15,2.16048526763916,0.5321769714355469,2.897610664367676,0.6722869277000427,-1.3625738620758057,-0.5362650752067566
9.2,1.8967339992523193,-1.087367057800293,1.8355695009231567,0.5884062647819519,-0.530875027179718,-0.23244136571884155
9.25,1.0890427827835083,-0.8934478759765625,2.1255905628204346,0.36062854528427124,-0.3434560298919678,-0.122636578977108
9.3,-0.17514552175998688,-1.1442480087280273,2.043790340423584,0.2495168298482895,0.718302845954895,0.3730166554450989
9.35,-1.281925082206726,-0.07996177673339844,1.435240626335144,-0.42369920015335083,1.1487321853637695,0.32056042551994324
9.4,-0.8176286220550537,0.8226432800292969,-0.032787300646305084,-0.8747456073760986,1.2020680904388428,0.0653754472732544
9.45,-1.2066951990127563,-0.6530990600585938,-1.9439327716827393,-1.0289928913116455,1.1864962577819824,0.23743346333503723
9.5,-1.6982076168060303,-1.036799430847168,-1.5439242124557495,-1.0330711603164673,0.590440034866333,0.48163777589797974
9.55,-0.9447726011276245,-0.18896102905273438,-2.2614142894744873,-1.0442670583724976,0.008284926414489746,0.27998635172843933
9.6,-0.03090573102235794,0.3048553466796875,-1.0201194286346436,-0.8791900277137756,-0.4106682538986206,0.401176393032074
9.65,1.150195598602295,0.27089595794677734,1.847775936126709,-1.1384429931640625,-1.158409595489502,0.5306897759437561
9.7,0.6470381021499634,1.652714729309082,3.815300703048706,-1.0640480518341064,-1.0163789987564087,0.47919848561286926
9.75,0.9181737899780273,0.9549169540405273,2.3922371864318848,-0.5627461671829224,0.1383785605430603,0.09612928330898285
9.8,1.3482677936553955,-0.07622814178466797,1.3278981447219849,-0.31823503971099854,0.4460732638835907,-0.08405628800392151
9.85,0.8838026523590088,-0.08611488342285156,0.6045625805854797,-0.15739867091178894,0.35904526710510254,0.1344815194606781
9.9,1.1935577392578125,0.12599658966064453,-0.1466253399848938,0.24808524549007416,0.4544622302055359,0.118554025888443
9.95,1.745295524597168,0.6317348480224609,0.4736224412918091,0.6074974536895752,0.17483949661254883,0.007392227649688721
10.0,2.1050333976745605,1.893808364868164,1.4346697330474854,0.7814133763313293,0.3618013560771942,0.09242317825555801
10.05,3.6439836025238037,1.4534883499145508,2.4809892177581787,0.651655912399292,0.8536749482154846,-0.2159855216741562
10.1,4.379053115844727,0.6752910614013672,1.4189553260803223,0.36721694469451904,1.5960001945495605,-0.3665565252304077
10.15,2.6178274154663086,0.5936908721923828,-0.1282043308019638,0.2345036417245865,2.378753185272217,-0.31480029225349426
10.2,1.3637876510620117,-0.6587486267089844,-0.8303169012069702,-0.07393911480903625,2.849083423614502,-0.29970958828926086
10.25,-2.044560670852661,1.293731689453125,0.39593368768692017,-0.12649832665920258,2.9435372352600098,0.028810635209083557
10.3,-3.7974026203155518,0.5220308303833008,-0.8794208765029907,-0.29063063859939575,3.1473488807678223,-0.2552020251750946
10.35,-3.2843096256256104,-0.37250232696533203,-0.8986639976501465,-0.39974603056907654,2.7771224975585938,-0.5094473361968994
10.4,-2.644521951675415,-0.7315702438354492,-1.2462799549102783,-0.4418439269065857,2.326526165008545,-0.5603002309799194
10.45,-2.0067954063415527,-0.8885698318481445,-1.3354768753051758,-0.44524940848350525,2.108184576034546,-0.41830089688301086
10.5,-1.5175001621246338,-1.0346927642822266,-2.03725266456604,-0.5649188756942749,1.9897626638412476,-0.19150803983211517
10.55,-2.010294198989868,0.7327499389648438,-0.9130309820175171,-0.35037368535995483,2.0306806564331055,-0.15287669003009796
10.6,-1.4851276874542236,0.4213552474975586,-0.6454991698265076,-0.636612594127655,1.8892388343811035,-0.18409475684165955
10.65,-2.1388940811157227,1.1510896682739258,-0.5404393076896667,-0.732840359210968,2.004479169845581,-0.11749288439750671
10.7,-3.2828478813171387,1.1379776000976562,-0.9245983362197876,-0.9382564425468445,1.9636409282684326,-0.030231665819883347
10.75,-4.142399311065674,0.9227571487426758,-1.3132781982421875,-1.2777152061462402,1.8048255443572998,-0.1665269434452057
10.8,-3.0247738361358643,-0.2566518783569336,-1.3994190692901611,-1.7276819944381714,1.2718921899795532,-0.41349005699157715
10.85,-2.3224740028381348,-0.7296247482299805,-1.49851393699646,-2.300461769104004,0.7999559640884399,-0.6502028703689575
10.9,-4.6930341720581055,-2.090601921081543,-0.6183053851127625,-2.5445141792297363,0.6317143440246582,-0.7022371292114258
10.95,-3.8189921379089355,-0.1893453598022461,-0.2662568688392639,-1.9069057703018188,-0.5520895719528198,-0.4298502802848816
11.0,-4.619678974151611,0.036388397216796875,1.860640525817871,-1.7276711463928223,-1.1283025741577148,-0.592299222946167
11.05,-4.525744915008545,-1.7144622802734375,1.6185343265533447,-1.617730736732483,-2.1209652423858643,-1.136583685874939
11.1,-5.022158145904541,-3.319812297821045,-1.0504884719848633,-1.311959147453308,-3.082733392715454,-2.06569766998291
11.15,-0.9766707420349121,-4.844450950622559,-2.991415500640869,0.028858259320259094,-4.342837333679199,-2.088427782058716
11.2,-2.7464258670806885,-0.15026569366455078,-4.1023430824279785,2.041841983795166,-4.619944095611572,-2.063352108001709
11.25,1.5368359088897705,-0.20779132843017578,-2.2306089401245117,2.0338330268859863,-4.748958587646484,-0.0719452053308487
11.3,7.339657306671143,2.1442432403564453,-1.192657470703125,0.21450501680374146,-5.1620378494262695,2.6501357555389404
11.35,7.429450511932373,5.883187294006348,2.6545538902282715,-0.8936560750007629,-3.8610050678253174,2.299664258956909
11.4,-1.529137372970581,3.5326099395751953,-2.6832194328308105,1.8426448106765747,-0.7609446048736572,-0.43137088418006897
11.45,-7.439827919006348,-1.5923891067504883,-9.856851577758789,0.6595802903175354,-2.917187213897705,-0.5501234531402588
11.5,-3.592895030975342,-4.963273048400879,14.667596817016602,-2.84773325920105,-6.182323455810547,-1.0824086666107178
11.55,0.6133949756622314,-2.3625807762145996,0.7191357016563416,-0.1873054802417755,-2.3577849864959717,-0.2887894809246063
11.6,2.5974185466766357,-2.772773265838623,2.0130457878112793,-0.3380966782569885,-2.340141773223877,-0.4137340784072876
11.65,-0.550653874874115,-0.5440883636474609,3.8853633403778076,-0.9090138077735901,-1.7250206470489502,-0.17356175184249878
11.7,-0.5341437458992004,0.3541440963745117,0.012484490871429443,0.23504045605659485,-0.5092576742172241,0.1257939636707306
11.75,0.2950892448425293,1.3062429428100586,-1.9430630207061768,0.12845809757709503,-0.25778383016586304,0.19003158807754517
11.8,0.5126927495002747,1.3442649841308594,-0.2371378242969513,-0.5297650098800659,-0.913144588470459,0.01681596040725708
11.85,0.2790854573249817,-0.0015659332275390625,1.3121693134307861,-0.9118185639381409,-1.0143436193466187,-0.27072811126708984
11.9,0.27477124333381653,-0.8028497695922852,0.6027544140815735,-0.5627120733261108,-0.5353811383247375,-0.24206151068210602
11.95,0.11254788190126419,-0.8380060195922852,-0.21569757163524628,-0.16293549537658691,-0.10509195923805237,-0.11543404310941696
12.0,-0.37399667501449585,-0.41988372802734375,-0.6264718770980835,-0.19189894199371338,-0.3161100149154663,-0.21370676159858704
12.05,-0.5125985145568848,0.37649059295654297,0.8269889950752258,-0.13357330858707428,-0.23099154233932495,-0.1996089667081833
12.1,0.1547618955373764,0.6477727890014648,0.14009496569633484,0.3074510991573334,0.12549564242362976,-0.27257242798805237
12.15,0.031523361802101135,-0.22164630889892578,0.0662568211555481,0.8013284206390381,0.5109166502952576,-0.16090792417526245
12.2,1.0806524753570557,-1.5302953720092773,-1.4355155229568481,1.0849825143814087,0.6740680932998657,-0.06865794956684113
12.25,0.6473290324211121,-2.4318161010742188,1.3022279739379883,0.5015789866447449,0.07882897555828094,-0.5008428692817688
12.3,-0.08096987009048462,-8.180960655212402,6.429555416107178,0.9898992776870728,0.6278656721115112,-0.8440496325492859
12.35,-6.938938140869141,-10.328193664550781,8.654512405395508,1.2964539527893066,2.76291561126709,-0.0015341565012931824
12.4,3.926062822341919,9.469050407409668,-32.618106842041016,5.127054214477539,8.21222972869873,3.2283782958984375
12.45,6.701203346252441,14.612568855285645,-1.8418809175491333,-0.0398186594247818,-0.5815740823745728,1.1995854377746582
12.5,5.011247634887695,9.468377113342285,-0.18482562899589539,-1.8277933597564697,-0.9011162519454956,0.00237998366355896
12.55,1.792364478111267,0.9225530624389648,-0.8017390966415405,0.10047516971826553,-0.5058765411376953,-0.5170183777809143
12.6,-0.6919374465942383,-1.2417755126953125,-0.26189038157463074,0.08201507478952408,-0.4899934232234955,-0.4543396830558777
12.65,-1.199378490447998,-0.03820323944091797,-0.6900320053100586,0.17192016541957855,-0.3284662961959839,-0.21178992092609406
12.7,-0.7646368145942688,-1.243149757385254,-0.28940677642822266,-0.19901162385940552,-0.4299800395965576,-0.4595595896244049
12.75,0.3689577579498291,-0.4577512741088867,0.48444339632987976,-0.06720419228076935,-0.32851022481918335,-0.2914142608642578
12.8,0.17965811491012573,0.6619901657104492,-1.3166195154190063,0.0029351406265050173,-0.031047338619828224,-0.08427757769823074
12.85,-0.03858506679534912,0.6248807907104492,0.10348066687583923,0.03694316744804382,-0.17889373004436493,-0.1037164032459259
12.9,-0.6227527856826782,0.5605020523071289,-0.6781952381134033,-0.1708976924419403,-0.10060638934373856,-0.1137036606669426
12.95,-0.2775319218635559,0.22606182098388672,0.19716882705688477,-0.11846589297056198,-0.11750788986682892,-0.1458347886800766
13.0,-0.5127842426300049,-0.21904850006103516,-0.5000107288360596,-0.025174789130687714,0.07615099847316742,-0.05871117487549782
13.05,-0.7061285376548767,-0.0809774398803711,-0.4857896566390991,0.02533102035522461,0.07688266783952713,0.05169085040688515
13.1,-0.4015315771102905,0.9022636413574219,-1.7772998809814453,0.09971541166305542,0.12211894243955612,0.19297751784324646
13.15,-0.8511712551116943,0.16431045532226562,-0.6174922585487366,-0.10985139012336731,-0.16534806787967682,-0.014826495200395584
13.2,-0.6643433570861816,0.22441577911376953,-0.5156975984573364,-0.29492485523223877,-0.2592087984085083,0.09726966917514801
13.25,-0.7077609300613403,0.2837371826171875,-0.8066968321800232,-0.13414980471134186,-0.16279500722885132,0.04471965134143829
13.3,-0.7138045430183411,0.9724760055541992,-1.31917405128479,-0.01236170344054699,-0.20208615064620972,0.08578810095787048
13.35,-1.1718206405639648,0.8552350997924805,-1.8942393064498901,-0.2361915111541748,-0.3726024627685547,0.01143587939441204
13.4,-1.5874723196029663,0.8507814407348633,-1.1977994441986084,-0.40229183435440063,-0.7454688549041748,-0.013387497514486313
13.45,-1.8021025657653809,1.0334949493408203,-1.2999157905578613,-0.3317020833492279,-1.0248855352401733,0.08554086089134216
13.5,-1.158987045288086,0.856389045715332,-1.6842981576919556,0.04414734989404678,-1.08534836769104,0.14342445135116577
13.55,-0.6427723169326782,-0.09133338928222656,-0.18277481198310852,0.5638542771339417,-0.8768227696418762,-0.04007142409682274
13.6,0.8864980340003967,-2.263392448425293,0.7092718482017517,0.8318586349487305,-0.3439202308654785,-0.07130361348390579
13.65,1.3200249671936035,-0.4792213439941406,-1.8482496738433838,0.5944333672523499,-0.2432868480682373,0.23896411061286926
13.7,2.140730857849121,-0.01593303680419922,-2.0150253772735596,0.14208495616912842,-1.0022623538970947,-0.2560858726501465
13.75,3.8423306941986084,-1.1257247924804688,0.7314760684967041,-0.1636429876089096,-1.8229522705078125,-0.6384471654891968
13.8,3.637230634689331,1.1898765563964844,4.199410915374756,0.0019952640868723392,-1.8686223030090332,-0.10630378127098083
13.85,0.9073654413223267,2.2054195404052734,3.5498485565185547,-0.12441523373126984,-1.1057102680206299,-0.025953829288482666
13.9,4.000259876251221,3.562832832336426,-2.5630879402160645,-1.7741385698318481,-0.47496694326400757,0.2055143117904663
13.95,2.8299477100372314,0.8206329345703125,0.3487749695777893,-3.754819393157959,-2.010019063949585,-1.028978705406189
14.0,-3.6828088760375977,0.40964603424072266,9.97324275970459,-4.856955051422119,-2.7240636348724365,-1.3719470500946045
14.05,-9.631219863891602,4.280867576599121,6.554854869842529,-3.5493903160095215,-0.46459734439849854,0.014213413000106812
14.1,-3.3728015422821045,-2.4241724014282227,4.247542858123779,0.15437926352024078,3.0367355346679688,-0.9941049218177795
14.15,0.9065272212028503,-4.448248386383057,0.5032116174697876,0.6104437708854675,4.1727094650268555,-1.5194591283798218
14.2,4.862398624420166,-5.633186340332031,-2.8054988384246826,0.3613848090171814,4.444791316986084,-0.8881117105484009
14.25,4.084473609924316,-3.6727871894836426,-3.509136438369751,0.9088650941848755,3.6448631286621094,0.4434605538845062
14.3,0.49923139810562134,-2.796422004699707,-11.088271141052246,2.596770763397217,4.631264686584473,0.4987336993217468
14.35,-6.4593048095703125,4.325757026672363,-7.991764545440674,3.677856206893921,3.6493444442749023,1.559765100479126
14.4,-4.232660293579102,8.41125202178955,0.9689618349075317,2.2266621589660645,0.6937597990036011,1.3997244834899902
14.45,-0.36548739671707153,3.2883968353271484,0.44481444358825684,-0.5193539261817932,-0.38955187797546387,0.17268717288970947
14.5,-1.6320273876190186,2.629018783569336,0.5541537404060364,-0.8250236511230469,0.3377991318702698,0.3614497184753418
14.55,-0.41218316555023193,1.8940544128417969,-1.8582395315170288,-0.8140577673912048,1.0356546640396118,-0.06019803509116173
14.6,-0.5531924366950989,0.6284255981445312,-2.4533872604370117,-1.0415971279144287,0.87654709815979,-0.2862998843193054
14.65,0.7422112226486206,-1.2434110641479492,0.30195915699005127,-1.007032871246338,0.18006819486618042,0.021494291722774506
14.7,1.671816110610962,-2.181027412414551,0.9103742241859436,-0.7369808554649353,0.5448619723320007,0.3034151792526245
14.75,0.6338536143302917,-3.5678653717041016,-1.710010051727295,-0.7008081674575806,0.9876636266708374,0.7812607884407043
14.8,0.37427467107772827,-1.710611343383789,-1.1633555889129639,-0.15541628003120422,0.5435903072357178,1.190584659576416
14.85,-1.3079707622528076,0.8487987518310547,1.7784841060638428,0.757743239402771,0.7734830975532532,0.9209901690483093
14.9,-3.2885847091674805,1.2018976211547852,0.1493874490261078,0.7147401571273804,1.2118860483169556,0.237379252910614
14.95,-1.5244417190551758,-1.7709131240844727,0.3801339268684387,0.024304842576384544,0.7293785810470581,-0.5721879005432129
15.0,0.06929852068424225,-0.6292133331298828,0.8853340744972229,-0.2605920732021332,0.8298630118370056,-0.8415282964706421
15.05,-2.5966620445251465,3.048672676086426,-1.1163569688796997,-0.4137256443500519,1.6276981830596924,-1.557349681854248
15.1,-0.7886883020401001,3.6858949661254883,-1.7718932628631592,-0.5383140444755554,0.9130957126617432,-1.8807713985443115
15.15,-1.6128541231155396,1.080550193786621,-0.421173632144928,-0.9138290286064148,0.3732704520225525,-2.260850667953491
15.2,-3.887955665588379,-0.08901691436767578,-0.6897114515304565,-0.8661078214645386,0.5868510007858276,-2.625441551208496
15.25,-6.726045608520508,1.3460750579833984,-2.1639201641082764,-0.9400988817214966,0.5794580578804016,-2.8552448749542236
15.3,-5.37032413482666,0.49231433868408203,-2.591726779937744,-1.573439598083496,-0.646992027759552,-2.4398932456970215
15.35,-3.510589599609375,1.077230453491211,-3.4610671997070312,-1.5684199333190918,-1.5652668476104736,-2.120098352432251
15.4,-3.2422242164611816,0.4579963684082031,-3.150071620941162,-0.9457765221595764,-2.1813125610351562,-2.3133559226989746
15.45,-3.09149169921875,0.7919168472290039,-3.0255870819091797,-0.34886306524276733,-2.922253131866455,-2.3973324298858643
15.5,-3.7609453201293945,-0.5832405090332031,-3.8148465156555176,-0.5524977445602417,-3.5747454166412354,-2.000075101852417
15.55,-1.0393377542495728,-2.3680410385131836,-3.4957334995269775,-1.0243732929229736,-3.987131357192993,-1.3471426963806152
15.6,1.8862602710723877,-3.3145532608032227,-2.2505674362182617,-1.2456659078598022,-4.259175777435303,-1.2760225534439087
15.65,3.8607122898101807,-5.94206428527832,0.330038845539093,-0.9719865918159485,-4.643992900848389,-1.034060001373291
15.7,8.19428539276123,-6.024941444396973,2.4629251956939697,-0.5064818263053894,-4.854867935180664,0.26302462816238403
15.75,6.479714870452881,-3.7863006591796875,3.604094982147217,-0.789010763168335,-5.055971145629883,1.1625539064407349
15.8,5.742931365966797,-3.738269329071045,5.814289569854736,-1.5370928049087524,-4.949549674987793,2.265620470046997
15.85,3.557636022567749,1.4199285507202148,7.006097793579102,-3.1124212741851807,-4.322214126586914,2.1010944843292236
15.9,-1.4739181995391846,2.8579111099243164,3.744544744491577,-3.217942953109741,-3.9744434356689453,1.5372236967086792
15.95,0.2260928750038147,9.90592098236084,1.2714861631393433,-3.412428617477417,-2.331826686859131,0.6171578168869019
16.0,-3.3760359287261963,3.9857254028320312,0.38441383838653564,-1.8149471282958984,-1.5719751119613647,-1.152341604232788
16.05,-1.7081769704818726,3.018061637878418,2.0440995693206787,-1.239120602607727,0.36090850830078125,0.8344348073005676
16.1,-0.5491881370544434,4.068238258361816,2.3919262886047363,0.2111276537179947,1.0389666557312012,0.616180419921875
16.15,7.997756004333496,-0.30497074127197266,0.6148518323898315,1.243513584136963,0.9168779850006104,0.15096929669380188
16.2,-0.7635859251022339,-1.3366327285766602,-0.7344197034835815,0.9965570569038391,-0.37692680954933167,0.37858402729034424
16.25,-1.1545263528823853,1.4320945739746094,-2.5169296264648438,0.534994900226593,0.018766939640045166,0.9049191474914551
16.3,1.5514650344848633,0.5235528945922852,-1.3712204694747925,0.7708793878555298,0.02025604248046875,0.8920573592185974
16.35,1.2637070417404175,1.494919776916504,-0.8975595235824585,0.5757788419723511,-0.28011950850486755,0.7972586750984192
16.4,1.786937952041626,0.8524007797241211,-0.409281462430954,0.889767050743103,-0.5886088609695435,0.05163325369358063
16.45,-0.7269276976585388,-2.371983528137207,0.06089963763952255,1.0701372623443604,-0.8207167983055115,-0.7102055549621582
16.5,-0.8897280097007751,-1.420100212097168,0.5010837912559509,0.5484737753868103,-0.08813279122114182,-0.38847512006759644
16.55,0.7281755208969116,1.0377044677734375,0.7025905847549438,0.31147605180740356,0.5778349041938782,0.05151230841875076
16.6,2.1224160194396973,1.1348447799682617,-1.1213648319244385,0.15706123411655426,0.8453645706176758,-0.6550062298774719
16.65,2.2911059856414795,0.9865379333496094,-1.2149980068206787,0.26427170634269714,0.32800644636154175,-1.1317834854125977
16.7,2.9994900226593018,1.8810625076293945,-0.53774094581604,-0.11312969028949738,-0.23024684190750122,-1.7841503620147705
16.75,1.357772707939148,1.757491111755371,-0.8686943054199219,-0.3938480615615845,-0.7054441571235657,-2.5187509059906006
16.8,0.7189682722091675,0.8755340576171875,-1.2186673879623413,-0.7855358123779297,-0.8307833671569824,-3.1703460216522217
16.85,-3.3079092502593994,-1.6428709030151367,-0.13297989964485168,-1.2478357553482056,-1.3694039583206177,-3.844895601272583
16.9,-10.03841495513916,-1.6829099655151367,1.7196922302246094,-0.9394606947898865,-1.1817421913146973,-4.0366950035095215
16.95,-14.781150817871094,2.647383689880371,1.678857445716858,-0.2058800905942917,-0.22968977689743042,-1.9331978559494019
17.0,-3.2132363319396973,-3.8721866607666016,3.0204715728759766,1.3408163785934448,2.906522274017334,1.398697853088379
17.05,3.196882963180542,-4.198319435119629,-0.48599398136138916,1.5556604862213135,3.13746976852417,2.2687180042266846
17.1,-2.4330179691314697,-0.569340705871582,-2.3084235191345215,0.682754397392273,0.8880816698074341,1.5546241998672485
17.15,-0.7389855980873108,-1.5418872833251953,-1.243664264678955,0.2747144103050232,0.8564897775650024,2.896547794342041
17.2,0.013644896447658539,-4.111152172088623,-1.2001210451126099,0.3741789758205414,0.9254010319709778,2.5404791831970215
17.25,2.1320791244506836,-2.9208197593688965,-1.7389812469482422,-0.23504024744033813,0.7771639227867126,2.800854444503784
17.3,2.53459095954895,-0.03622150421142578,0.01207028329372406,-0.7040342092514038,0.7236037254333496,3.3601763248443604
17.35,2.424922227859497,0.908848762512207,-1.0608175992965698,-1.0020087957382202,0.5641571283340454,2.7377383708953857
17.4,2.3414254188537598,2.835362434387207,-0.6365461945533752,-1.140364646911621,0.5976526141166687,2.412914276123047
17.45,1.0025670528411865,1.1901559829711914,0.07443618774414062,-0.8697965145111084,0.016867728903889656,1.8461097478866577
17.5,1.0544997453689575,0.34317779541015625,0.9412918090820312,-1.004824161529541,0.25745323300361633,1.478354811668396
17.55,1.0726646184921265,0.7456130981445312,0.6947349309921265,-1.3800127506256104,0.4697950780391693,1.3614883422851562
17.6,0.45410722494125366,2.786587715148926,-0.0453433021903038,-1.5076539516448975,0.5190273523330688,1.2474344968795776
17.65,-0.46018847823143005,2.664775848388672,-0.5729117393493652,-1.2252529859542847,0.2861791253089905,0.6694532036781311
17.7,-0.3875255584716797,3.4568004608154297,0.5761151313781738,-0.9561302661895752,0.02649616077542305,-0.22360429167747498
17.75,-2.657550573348999,4.562337875366211,0.5781902074813843,-0.7878193855285645,-0.1622254103422165,-0.6330958604812622
17.8,-1.601714015007019,5.9850616455078125,-0.40360987186431885,-0.9358069896697998,-0.2234588861465454,-1.6731793880462646
17.85,-4.246743202209473,1.7676753997802734,0.6367930173873901,-0.7410235404968262,-0.8578652143478394,-1.7747339010238647
17.9,-1.5611001253128052,3.9497337341308594,0.32812604308128357,-0.6517428755760193,-0.15725085139274597,-1.9380037784576416
17.95,1.949144959449768,1.7931432723999023,-1.4088830947875977,0.2609018385410309,0.46958085894584656,-1.2344386577606201
18.0,-0.6183767318725586,-2.1284990310668945,-1.5782527923583984,0.16912011802196503,-0.5779051780700684,-0.8534687161445618
18.05,-1.223410725593567,-1.985219955444336,-0.6431636810302734,0.06969548761844635,-0.6789133548736572,-0.20818838477134705
18.1,-0.4880005121231079,-0.06261062622070312,-1.7514246702194214,0.2154470831155777,-0.4000507593154907,0.13028475642204285
18.15,2.158827066421509,-1.7815179824829102,-1.4196420907974243,0.4644547700881958,-0.44427669048309326,-0.23839625716209412
18.2,-1.2913898229599,-1.5958900451660156,1.4163565635681152,0.24275605380535126,-2.104994297027588,0.4206857979297638
18.25,-5.156395435333252,-2.6584768295288086,0.9105959534645081,0.4614068269729614,-1.4663565158843994,0.3186936378479004
18.3,-1.131394386291504,-1.0006074905395508,-0.7884635329246521,0.35914790630340576,0.26877546310424805,0.5480930209159851
18.35,-0.2495340257883072,0.8719415664672852,-1.5937849283218384,0.42118045687675476,-0.07014088332653046,0.43169698119163513
18.4,-0.19024373590946198,-0.1662158966064453,-1.9333150386810303,0.5709910988807678,-0.6103593111038208,0.10741294920444489
18.45,0.6144276261329651,0.9187345504760742,-0.9820338487625122,0.614847719669342,-0.9136756658554077,-0.1584090292453766
18.5,0.722627580165863,-1.0496349334716797,0.24365970492362976,1.0252653360366821,-1.7546563148498535,-0.7617377638816833
18.55,0.6049293875694275,-1.3138179779052734,2.1169979572296143,1.0059999227523804,-2.182351589202881,-0.9712474346160889
18.6,-3.2453744411468506,-0.5042428970336914,1.2032088041305542,0.6066942811012268,-2.1404361724853516,-0.6090240478515625
18.65,-1.1832551956176758,-0.8257856369018555,0.17803308367729187,0.4768393039703369,-1.1456007957458496,-1.0186361074447632
18.7,-2.1819145679473877,-1.5345535278320312,0.2010752558708191,0.8387941718101501,-0.8699408769607544,-0.871293306350708
18.75,-0.8222018480300903,-1.05780029296875,-0.35699400305747986,0.3230782747268677,-0.13554590940475464,-0.23701566457748413
18.8,-3.9677088260650635,-3.9049477577209473,-2.601365327835083,0.08081701397895813,-0.3487588167190552,-0.010281463153660297
18.85,-7.862335681915283,-4.671629905700684,-3.213301420211792,-0.0011031143367290497,-0.3487198054790497,0.604745090007782
18.9,4.220871925354004,1.2285337448120117,1.177335500717163,-1.5690726041793823,1.633552074432373,1.256725788116455
18.95,4.657573223114014,2.476649284362793,2.6294779777526855,-2.0059125423431396,1.5839282274246216,-0.32027703523635864
19.0,2.3005316257476807,2.5638208389282227,-1.1763763427734375,-1.2668654918670654,-0.20643866062164307,-1.5239888429641724
19.05,1.8568388223648071,-2.147228717803955,1.5087751150131226,0.569546103477478,-0.2796167731285095,-1.6036187410354614
19.1,-1.99625563621521,-1.1151056289672852,0.3168400526046753,-0.07404473423957825,-1.0839922428131104,-1.4369242191314697
19.15,-1.0229958295822144,-0.553593635559082,-0.3711536228656769,-0.2315707802772522,-0.38531985878944397,-0.385819673538208
19.2,-0.08440784364938736,1.5936622619628906,-0.6796644330024719,0.15238413214683533,0.3142431676387787,0.689741849899292
19.25,-0.6469839811325073,2.093194007873535,-1.1746903657913208,0.6494300961494446,-0.3577249050140381,0.467526376247406
19.3,-2.0557613372802734,-0.034012794494628906,0.23576951026916504,0.982668936252594,-0.5569907426834106,0.3361729085445404
19.35,-1.2425795793533325,0.3632545471191406,0.6230459809303284,0.7032074928283691,-0.24437057971954346,-0.12110187113285065
19.4,-0.6406756639480591,0.03914642333984375,0.7438490390777588,0.46969377994537354,0.024102503433823586,-0.10755239427089691
19.45,0.5122833251953125,0.6652660369873047,0.8313300013542175,0.2291882187128067,0.04105517268180847,-0.2562641203403473
19.5,0.331648588180542,0.16079425811767578,0.4756454825401306,0.09115758538246155,-0.21409983932971954,-0.4387131929397583
19.55,-0.46719756722450256,0.8965702056884766,0.6777517795562744,-0.035892553627491,-0.43277662992477417,-0.2067989557981491
19.6,-0.26599153876304626,1.7992668151855469,0.5205984115600586,0.044178787618875504,-0.08497388660907745,0.25651121139526367
19.65,-0.07118376344442368,2.1127452850341797,-0.12409640848636627,0.16319958865642548,0.15064018964767456,0.35609373450279236
19.7,1.1761693954467773,4.553255081176758,0.32145118713378906,-0.3278443217277527,0.03287191689014435,0.2234524041414261
19.75,3.4119882583618164,6.150961875915527,0.908097505569458,-0.5824474096298218,-0.05242089182138443,0.12635333836078644
19.8,0.7750948667526245,3.457688331604004,2.540116548538208,-0.1766737699508667,-1.324581503868103,-0.3449302315711975
19.85,-1.3446625471115112,-0.4902467727661133,1.7326970100402832,-0.26733601093292236,-2.2380905151367188,-0.32103776931762695
19.9,-1.2958154678344727,-4.325533866882324,-0.013284370303153992,-0.2086670696735382,-1.727128267288208,-0.4405534267425537
19.95,-2.5565569400787354,-1.9490199089050293,-1.5060985088348389,-1.40512216091156,-1.2180731296539307,0.538079559803009
20.0,-3.130587339401245,-3.5570383071899414,-2.0948164463043213,-0.6234554648399353,-0.1728721261024475,0.4566579759120941
20.05,0.2790568768978119,-2.2522506713867188,-0.3229824900627136,-0.8428294062614441,1.3960899114608765,0.8723025321960449
20.1,-0.017102204263210297,-0.8556909561157227,-1.4731645584106445,-0.4033122956752777,1.56744384765625,1.211159348487854
20.15,0.9982873201370239,1.280609130859375,0.183513343334198,0.08969882875680923,1.0059502124786377,0.8274727463722229
20.2,0.7859231233596802,0.5123968124389648,-1.554755449295044,0.1182628720998764,0.3381924331188202,0.3033245801925659
20.25,0.3791695237159729,1.1022310256958008,-1.452274203300476,0.06437630951404572,-0.25489142537117004,0.16535823047161102
20.3,-0.779897928237915,-0.959507942199707,-0.9166069030761719,0.5340472459793091,-0.8266371488571167,-0.3452903628349304
20.35,-0.981102705001831,-0.0927724838256836,-0.20378327369689941,0.3569319248199463,-0.45416581630706787,-0.4237087368965149
20.4,0.3696422874927521,-0.10083580017089844,-0.3488295376300812,-0.10798588395118713,0.20837558805942535,-0.33429405093193054
20.45,-0.6297025680541992,0.1689014434814453,0.09527051448822021,-0.1455705165863037,-0.06373922526836395,-0.22187897562980652
20.5,-1.1282057762145996,0.02303028106689453,0.3221757113933563,0.12535029649734497,-0.2715277075767517,-0.390425443649292
20.55,-1.7112895250320435,-0.592442512512207,0.30408260226249695,0.014213577844202518,-0.16629856824874878,-0.27730220556259155
20.6,-1.7155534029006958,-0.7437639236450195,0.1615275740623474,-0.0004522893577814102,-0.08376118540763855,-0.3488544821739197
20.65,-1.3698744773864746,0.3852701187133789,0.2436927855014801,-0.03870721906423569,0.10909301787614822,-0.24964846670627594
20.7,-3.0237789154052734,-1.3774299621582031,0.6716416478157043,0.3029477894306183,0.12573474645614624,-0.08045250922441483
20.75,-3.333439826965332,-2.179530620574951,1.3635270595550537,0.2627641558647156,0.947016179561615,-0.32849740982055664
20.8,-2.6006922721862793,-0.8720884323120117,2.1539900302886963,0.16849493980407715,2.3545703887939453,-0.344107061624527
20.85,-0.08621268719434738,0.6130580902099609,2.399271011352539,0.06502851843833923,2.5421996116638184,-0.5621119737625122
20.9,-0.12276747822761536,0.8610677719116211,-0.44539162516593933,0.23671436309814453,2.3603591918945312,-0.5086491703987122
20.95,0.7187118530273438,-1.1987733840942383,-1.5659828186035156,0.1182258203625679,1.7215466499328613,-0.28184860944747925
21.0,0.4293779730796814,-2.09881591796875,-0.9251930117607117,0.0843556672334671,1.2195411920547485,0.5573672652244568
21.05,2.695978879928589,-1.0049238204956055,1.0367529392242432,0.0733567476272583,1.0766661167144775,1.366007685661316
21.1,2.702671527862549,-1.0678434371948242,1.2620068788528442,0.09630623459815979,1.1251462697982788,1.7938066720962524
21.15,2.104818344116211,0.8502264022827148,0.9802650213241577,-0.1584593504667282,1.7600849866867065,2.4163599014282227
21.2,4.117469787597656,2.7514543533325195,-2.140312433242798,-0.5355007648468018,2.1744072437286377,2.053973436355591
21.25,3.5858330726623535,4.0754804611206055,-4.154914855957031,-0.8585011959075928,1.7890160083770752,1.6239771842956543
21.3,4.288536548614502,4.927424430847168,-3.6187379360198975,-0.846772313117981,0.5559426546096802,0.44503095746040344
21.35,2.898582935333252,4.075493812561035,-0.8630549311637878,-0.8113161325454712,-0.6915117502212524,-0.9550386667251587
21.4,1.9686689376831055,5.764865875244141,0.2004818171262741,-0.7493575811386108,-0.21744871139526367,-2.3883285522460938
21.45,2.5266189575195312,5.47608757019043,2.4903483390808105,-0.8200594186782837,0.043712615966796875,-3.6772868633270264
21.5,2.8458025455474854,4.109042167663574,8.483620643615723,-0.828152060508728,0.3251851797103882,-3.8623077869415283
21.55,3.8579659461975098,0.29584503173828125,15.53378677368164,-2.25807785987854,1.8534343242645264,-3.6288723945617676
21.6,12.611159324645996,-4.453379154205322,4.523634433746338,-3.8542821407318115,4.342512607574463,-3.919419050216675
21.65,-1.4962772130966187,-5.820295333862305,-8.676126480102539,-1.871108889579773,5.97810173034668,-1.1517269611358643
21.7,-6.868874549865723,-6.605982780456543,-5.787274360656738,0.7765203714370728,4.516669273376465,-1.8254998922348022
21.75,-7.939971923828125,-3.4066267013549805,-6.641597270965576,1.8222311735153198,3.2547521591186523,-1.1365642547607422
21.8,-5.912317276000977,-1.1048049926757812,-3.4686503410339355,1.1556642055511475,1.571915626525879,-0.08769961446523666
21.85,-3.639488935470581,0.30895137786865234,-2.5499613285064697,0.6415039300918579,0.7905654311180115,0.22713656723499298
21.9,-2.301248788833618,0.8325700759887695,-1.5162920951843262,0.45402392745018005,0.4557451903820038,0.16228878498077393
21.95,-1.1923668384552002,0.5136594772338867,0.37817588448524475,0.2015770822763443,0.2505071461200714,-0.015398215502500534
22.0,0.07724077999591827,0.5487251281738281,0.6194508671760559,0.33868327736854553,0.5434719920158386,-0.40670013427734375
22.05,-0.6788668632507324,1.254298210144043,-0.8310897350311279,0.7395015954971313,1.236092448234558,-0.8985587954521179
22.1,-1.1638975143432617,0.681269645690918,-1.4054301977157593,0.6751396656036377,1.4016820192337036,-1.1764094829559326
22.15,-0.9728972911834717,-0.009795188903808594,-0.0058950260281562805,0.290545254945755,1.0319961309432983,-0.8420161604881287
22.2,-1.1746327877044678,-1.3314847946166992,-1.251694917678833,0.060120098292827606,0.6729578375816345,-0.7411544322967529
22.25,-1.1828408241271973,-2.2267909049987793,-0.07610190659761429,-0.08231081068515778,0.23395797610282898,-0.7921850085258484
22.3,-0.9772660732269287,-2.466831684112549,0.9628151655197144,-0.24880750477313995,-0.24906229972839355,-0.9879471659660339
22.35,1.6039294004440308,1.4746122360229492,-0.3196127116680145,-0.10866150259971619,0.11300517618656158,-1.1347639560699463
22.4,-0.5059298872947693,0.8920164108276367,0.05994817987084389,0.1774246096611023,0.40750792622566223,-1.207195520401001
22.45,-0.9149388670921326,1.225229263305664,0.8525357842445374,0.6653320789337158,0.6296146512031555,-0.3958072066307068
22.5,-1.0859556198120117,-0.06240081787109375,1.2906956672668457,0.0034680194221436977,0.7579690217971802,0.03817552328109741
22.55,0.6972442865371704,0.7439298629760742,0.24000543355941772,0.0019387360662221909,1.2523890733718872,-0.1665935069322586
22.6,0.5790961980819702,0.13723182678222656,0.10044841468334198,0.06890488415956497,1.637990117073059,-0.4805779755115509
22.65,0.8643996119499207,0.16677570343017578,-0.05272902548313141,0.2378731220960617,1.9793981313705444,-0.6906251907348633
22.7,0.9173844456672668,-0.19092273712158203,-0.4298707842826843,0.07678191363811493,1.9805289506912231,-0.3005824089050293
22.75,1.2957954406738281,-0.4236783981323242,-0.5699206590652466,0.08268590271472931,2.127035140991211,-0.0859772190451622
22.8,1.1436232328414917,-0.13637351989746094,-1.0623530149459839,0.13409137725830078,2.3246755599975586,-0.12765464186668396
22.85,1.3174247741699219,0.02527332305908203,-1.344925045967102,0.12239000201225281,2.546717882156372,-0.29376229643821716
22.9,0.10497397184371948,0.45894432067871094,-2.3992412090301514,0.15144681930541992,2.7586679458618164,-0.3948265016078949
22.95,-0.3581100106239319,-0.1000356674194336,-1.8991729021072388,0.37715423107147217,2.5446243286132812,-0.034884341061115265
23.0,-0.7936775088310242,-0.7892494201660156,-0.7911031246185303,0.761266827583313,2.529456853866577,0.16688640415668488
23.05,-0.9840794801712036,-0.7431087493896484,-1.7560909986495972,1.0834325551986694,2.2430918216705322,0.45130833983421326
23.1,-1.0738966464996338,0.10421371459960938,-0.5558022856712341,1.2558631896972656,2.5271575450897217,0.40909844636917114
23.15,-4.083865642547607,1.293290138244629,-0.6822994947433472,1.2596832513809204,2.596564292907715,0.49326711893081665
23.2,-2.796617031097412,1.048579216003418,-1.9569610357284546,1.2460134029388428,1.4913614988327026,0.2683875560760498
23.25,-2.5379648208618164,-0.34360218048095703,4.967353343963623,0.6069562435150146,2.3948774337768555,-0.42761096358299255
23.3,-3.46992826461792,-0.28056812286376953,6.6374311447143555,0.9961700439453125,0.6213798522949219,-0.14771351218223572
23.35,-2.102008819580078,-0.1418905258178711,4.716332912445068,0.9338100552558899,-0.6768531799316406,-0.18538953363895416
23.4,-1.3083871603012085,0.02674388885498047,1.7621716260910034,0.12428471446037292,-1.0139691829681396,-0.3606181740760803
23.45,1.2285785675048828,0.9381895065307617,-2.160839319229126,-0.1191994771361351,-1.3128451108932495,-0.28701016306877136
23.5,2.2545626163482666,-0.8427038192749023,-2.5314266681671143,-0.6756727695465088,-0.6323459148406982,-0.02787311188876629
23.55,1.1219265460968018,-1.0820541381835938,-2.049456834793091,-0.9518212676048279,0.619601845741272,-0.11864915490150452
23.6,-0.7280430793762207,1.1377973556518555,-2.678907871246338,-1.1564815044403076,1.693306803703308,-0.029987379908561707
23.65,-1.7582430839538574,0.8708209991455078,-1.4310494661331177,-1.209883213043213,2.3029088973999023,0.11644085496664047
23.7,-4.006521701812744,0.652277946472168,-0.4967842102050781,-1.1688734292984009,2.703052043914795,0.47319817543029785
23.75,-4.074175834655762,-2.2787365913391113,1.2103995084762573,-1.572537899017334,2.418879508972168,0.7221415638923645
23.8,-4.692541599273682,-1.7289047241210938,5.412466526031494,-1.8981086015701294,2.1368355751037598,0.2563343942165375
23.85,-3.2628273963928223,-0.7564535140991211,4.192573547363281,-1.9419887065887451,1.1765398979187012,-0.23885929584503174
23.9,-1.1709750890731812,0.02719593048095703,1.542860507965088,-2.413080930709839,1.219813585281372,-0.7454409599304199
23.95,1.271560549736023,1.4359712600708008,1.9233797788619995,-3.088820695877075,2.0492470264434814,-1.1321427822113037
24.0,3.7567853927612305,4.151619911193848,4.232183933258057,-2.371779441833496,1.1622695922851562,-1.1188840866088867
24.05,3.1874077320098877,2.351263999938965,1.7895359992980957,-0.3782404661178589,-0.7828813791275024,-0.25416532158851624
24.1,2.9421701431274414,-0.36068058013916016,-0.9129142761230469,0.4266512095928192,-1.9085692167282104,0.26252368092536926
24.15,2.5419387817382812,-0.6890487670898438,-0.28822213411331177,-0.19772721827030182,-1.7914185523986816,-0.17953342199325562
24.2,1.7487602233886719,-0.4849081039428711,1.9805147647857666,-0.2309979796409607,-1.962975025177002,-0.4541166424751282
24.25,-0.5542353391647339,-2.1722121238708496,-0.4137403964996338,1.0568482875823975,-3.4633138179779053,0.4594505727291107
24.3,-1.6736668348312378,-2.7063331604003906,-5.101512432098389,2.314932346343994,-3.9813272953033447,0.9684250950813293
24.35,0.3120315670967102,-2.76711368560791,-3.995244264602661,3.0227131843566895,-2.536621570587158,0.14758530259132385
24.4,-1.5162373781204224,-3.866082191467285,-2.7167420387268066,2.703434705734253,-1.1603927612304688,-1.1348603963851929
24.45,3.2410073280334473,4.577859878540039,-3.675675630569458,2.9814600944519043,-0.9573708772659302,-2.2710893154144287
24.5,-0.5745512843132019,0.6237010955810547,0.7443383932113647,2.3480188846588135,0.11274167895317078,-0.7077263593673706
24.55,1.4921863079071045,1.8609552383422852,-0.41591447591781616,1.8420252799987793,-0.8005298972129822,-0.13086174428462982
24.6,1.9834078550338745,3.4838247299194336,-1.5176515579223633,1.0604501962661743,-0.5019329786300659,0.31843626499176025
24.65,5.271167278289795,6.180813789367676,-0.31302836537361145,0.653859555721283,0.04866831749677658,0.5364972352981567
24.7,0.10101291537284851,1.8827104568481445,-1.7135791778564453,0.1919788122177124,0.43672630190849304,1.1508560180664062
24.75,0.3680756688117981,0.8900594711303711,-1.9730675220489502,0.07912765443325043,0.461530864238739,0.9810896515846252
24.8,-0.0702616348862648,-0.08466339111328125,-1.2937990427017212,-0.17229846119880676,0.9219849705696106,0.9046906232833862
24.85,-0.5820648074150085,-0.5359020233154297,0.25515303015708923,-0.3297865390777588,1.0716667175292969,0.8402875065803528
24.9,-0.2705462872982025,0.22947311401367188,0.44050267338752747,-0.5320777297019958,0.9716513156890869,0.44603899121284485
24.95,0.3062942326068878,0.781285285949707,0.9094823002815247,-0.7354258298873901,0.9143692851066589,0.022964049130678177
25.0,0.7821738719940186,0.8229761123657227,0.3849204182624817,-0.8141427636146545,0.5038066506385803,-0.010533012449741364
25.05,1.0136003494262695,-0.17830371856689453,-0.19150042533874512,-0.8735520839691162,0.2522296607494354,0.12418419867753983
25.1,0.38318467140197754,-0.5589170455932617,-0.1738671362400055,-1.1820499897003174,0.5009242296218872,0.3971439003944397
25.15,0.6651102304458618,-0.3423938751220703,0.4187735617160797,-1.5183899402618408,0.504385769367218,0.4135909080505371
25.2,1.297393560409546,-0.18638229370117188,1.9804258346557617,-1.721225619316101,0.49700117111206055,0.29266121983528137
25.25,1.521254539489746,1.2453727722167969,2.8713347911834717,-2.0639452934265137,0.31074655055999756,-0.10258344560861588
25.3,1.2999122142791748,1.0591869354248047,1.401216983795166,-2.397642135620117,-0.04745078086853027,0.10849086940288544
25.35,0.6148406863212585,0.7622556686401367,2.325786590576172,-2.648162364959717,-0.02922689914703369,0.0845649391412735
25.4,-0.884906530380249,1.957533836364746,3.0162291526794434,-2.2458724975585938,-0.38155871629714966,-0.013822570443153381
25.45,-1.1095426082611084,2.4355878829956055,1.3741087913513184,-1.493969440460205,-1.5183755159378052,0.40519165992736816
25.5,-0.6343944668769836,2.6706008911132812,-0.28305870294570923,-1.42204749584198,-2.2771618366241455,0.6868675351142883
25.55,-0.16190865635871887,1.3695087432861328,-1.2952510118484497,-1.6955074071884155,-2.636742353439331,0.5068243145942688
25.6,0.17980319261550903,2.0690479278564453,-1.395025610923767,-1.703944444656372,-2.330314874649048,0.2042188048362732
25.65,0.8570401072502136,2.615140914916992,-2.186103105545044,-1.9260512590408325,-2.323827028274536,0.4847249984741211
25.7,0.43415504693984985,1.3479089736938477,-1.4895645380020142,-2.306658983230591,-1.9490792751312256,0.7066253423690796
25.75,0.214930921792984,-0.6236333847045898,-0.729729175567627,-2.2810215950012207,-1.8498423099517822,1.430527925491333
25.8,1.4903336763381958,-2.5820670127868652,-0.5158585906028748,-2.188274621963501,-1.6434745788574219,2.027766704559326
25.85,1.732886791229248,-3.6769866943359375,-0.45859217643737793,-1.6712994575500488,-1.0842803716659546,1.8476450443267822
25.9,1.1785393953323364,-2.031684398651123,-1.4938205480575562,-0.855461835861206,-0.3045303523540497,1.4766018390655518
25.95,1.2564164400100708,-2.712268352508545,-0.9869142770767212,-0.4942094683647156,0.21600964665412903,1.338134765625
26.0,1.7947020530700684,-2.9831485748291016,0.601326048374176,0.36441493034362793,0.6540846228599548,1.151504635810852
26.05,2.4161338806152344,-1.2974767684936523,-0.9151415228843689,1.44829261302948,1.596143126487732,0.8046187162399292
26.1,-0.7236925363540649,0.32899951934814453,-1.9795258045196533,1.8395174741744995,2.4531829357147217,1.235102891921997
26.15,-2.828289747238159,0.6243572235107422,-1.2600420713424683,1.8385562896728516,1.8646363019943237,3.6188395023345947
26.2,-1.3555700778961182,1.1813344955444336,-1.226588487625122,1.6859556436538696,1.090907096862793,5.55076265335083
26.25,-1.9495441913604736,3.542512893676758,-1.4223495721817017,1.374665379524231,0.5316287279129028,4.645742416381836
26.3,-4.9160332679748535,2.3900442123413086,0.3334464132785797,0.08512566983699799,-0.06965798139572144,1.529411792755127
26.35,-5.031403064727783,-0.31145286560058594,1.2978911399841309,-1.2103480100631714,-1.7912731170654297,0.050473786890506744
26.4,1.871049404144287,2.1897640228271484,-0.08423033356666565,-1.0751888751983643,-3.1535544395446777,0.24285069108009338
26.45,6.785233974456787,6.774533271789551,-2.493966579437256,-1.5272578001022339,-2.628376007080078,-1.9881569147109985
26.5,-1.5648752450942993,0.13966846466064453,-3.6664016246795654,-2.3083791732788086,-1.9197551012039185,-5.390767574310303
26.55,-2.604919195175171,-3.6078944206237793,-3.2074778079986572,-3.3671584129333496,-1.3737030029296875,-1.7569648027420044
26.6,1.830413579940796,-5.161783218383789,-0.8799426555633545,-4.578625679016113,0.6045851111412048,2.2309317588806152
26.65,3.043177604675293,-2.5479278564453125,-0.40338844060897827,-4.523212432861328,1.783426284790039,1.658103585243225
26.7,0.845023512840271,-0.5575056076049805,0.39214012026786804,-3.5195696353912354,0.9493844509124756,0.005636394023895264
26.75,-0.21815863251686096,0.22988605499267578,0.979472279548645,-2.9290502071380615,0.35530945658683777,-0.26619720458984375
26.8,0.269625186920166,-0.7479457855224609,2.1485273838043213,-2.6799657344818115,0.5975594520568848,-0.19776253402233124
26.85,-0.3517897129058838,-0.46370697021484375,2.25209379196167,-2.389230489730835,0.6505115032196045,-0.32639768719673157
26.9,0.24467457830905914,-1.7212038040161133,0.6861449480056763,-1.6490795612335205,0.21549969911575317,-0.1081407368183136
26.95,-0.3447764217853546,-3.0850253105163574,0.37359189987182617,-1.0926709175109863,-0.2205105423927307,0.08009421080350876
27.0,-0.0541139654815197,-2.8340530395507812,0.15643657743930817,-0.668202817440033,0.12680622935295105,0.24428687989711761
27.05,0.03928583860397339,-1.6339750289916992,0.6999639272689819,-0.3746775984764099,0.6593632698059082,0.3822886645793915
27.1,0.36543649435043335,1.798201560974121,1.8514100313186646,-0.24654333293437958,1.0750218629837036,0.3144262433052063
27.15,0.7125676870346069,4.162263870239258,1.5740280151367188,0.057281844317913055,0.9567437767982483,0.2577991187572479
27.2,-0.7111726999282837,4.046100616455078,0.8833258152008057,0.6346752047538757,-0.06654705852270126,0.311815083026886
27.25,-2.423187255859375,2.658827781677246,0.6052905321121216,1.2112388610839844,-0.8960267901420593,0.5490319728851318
27.3,-1.724617838859558,-0.38484668731689453,-0.2752400040626526,1.6390211582183838,-0.8801735639572144,0.854094922542572
27.35,-0.06853631883859634,-1.7329530715942383,-1.4674245119094849,1.789304494857788,-0.6060802936553955,0.862625002861023
27.4,0.09968093782663345,-1.1913671493530273,-0.4604109525680542,1.331781268119812,0.08031874895095825,0.5616472959518433
27.45,2.223994493484497,-0.6423177719116211,-0.008624792098999023,0.8158057332038879,0.9747136831283569,0.2277945578098297
27.5,2.705254077911377,0.12118911743164062,-0.2141331285238266,0.4768993854522705,1.1938602924346924,-0.2978835701942444
27.55,1.7263258695602417,-0.6473855972290039,-0.43707340955734253,0.3961581587791443,1.168155550956726,-1.0277575254440308
27.6,1.9217591285705566,-1.2337026596069336,-1.5366921424865723,0.2710946202278137,1.0959665775299072,-1.7001991271972656
27.65,-0.7792171239852905,-1.8063459396362305,-1.5199507474899292,0.10589006543159485,0.6534332036972046,-2.159281015396118
27.7,-2.7705090045928955,-0.34650135040283203,-1.9545588493347168,-0.06804624199867249,-0.16056710481643677,-2.1267359256744385
27.75,-2.594088554382324,1.4643030166625977,-1.26343834400177,-0.3417149782180786,-0.8664819002151489,-1.6155129671096802
27.8,-3.013439655303955,0.9906511306762695,-0.512411892414093,-0.7744008302688599,-0.6915646195411682,-0.8969977498054504
27.85,-2.1842901706695557,-0.5693902969360352,-1.3277642726898193,-0.7470148801803589,-0.1888696700334549,-0.10796937346458435
27.9,-2.0936005115509033,-1.4078893661499023,-0.202173113822937,-0.9979855418205261,-0.10193358361721039,0.41058993339538574
27.95,-2.0003416538238525,-2.4586081504821777,-0.29731619358062744,-0.6094196438789368,0.16919919848442078,0.8839123249053955
28.0,-0.050710923969745636,-1.3990697860717773,0.0037238136865198612,-0.33615347743034363,0.3893541693687439,1.4061418771743774
28.05,0.8049336671829224,1.3691253662109375,0.8023557066917419,-0.09503573924303055,0.24161094427108765,1.4457110166549683
28.1,0.7603484988212585,3.0020952224731445,1.4107121229171753,0.20985394716262817,-0.3784504532814026,1.416251540184021
28.15,1.2888634204864502,1.1445293426513672,1.9822160005569458,0.6742928624153137,-1.1213785409927368,1.3886919021606445
28.2,1.2193831205368042,-2.507981777191162,2.960540771484375,1.235465168952942,-1.5812466144561768,1.49043869972229
28.25,-2.7545740604400635,-1.7936716079711914,5.997889041900635,2.2373902797698975,-2.0950005054473877,1.8915220499038696
28.3,-2.5503509044647217,-5.7194108963012695,7.133936882019043,3.8912343978881836,-2.7273693084716797,2.099480152130127
28.35,-4.059859752655029,-11.492908477783203,2.8027455806732178,5.7844929695129395,-2.681417465209961,2.2328684329986572
28.4,0.028579533100128174,-9.231234550476074,-4.842630386352539,7.1930060386657715,-2.094841480255127,3.2199411392211914
28.45,3.530949831008911,-1.0819473266601562,-7.8070478439331055,7.04239559173584,-1.3693675994873047,3.126302480697632
28.5,2.3327479362487793,3.812061309814453,-7.139007091522217,6.03895378112793,0.6361426115036011,2.2232933044433594
28.55,-0.28530794382095337,5.546858787536621,-6.240077018737793,3.7005081176757812,0.9770256876945496,2.439744472503662
28.6,-0.29875755310058594,3.5863265991210938,-2.437922477722168,1.2942492961883545,-0.7045770883560181,1.6309136152267456
28.65,3.7778213024139404,3.311526298522949,-2.170046091079712,0.6473178267478943,-1.2785351276397705,0.24863696098327637
28.7,4.761775970458984,6.544402122497559,-1.8032596111297607,1.072176456451416,-0.8239694237709045,-0.6825366616249084
28.75,2.6471974849700928,3.247227668762207,-0.16577138006687164,1.6586731672286987,0.5077335834503174,-1.0616999864578247
28.8,-0.34130963683128357,2.2479467391967773,-0.12152917683124542,1.1971867084503174,0.6648897528648376,-0.7049922347068787
28.85,2.0532617568969727,-0.29227733612060547,1.1521018743515015,-0.5333067774772644,0.16609354317188263,-0.9683937430381775
28.9,4.900754451751709,-1.2837581634521484,2.8815391063690186,-1.0806199312210083,0.9866218566894531,-0.7964199781417847
28.95,2.8914191722869873,-0.4858589172363281,-0.44982463121414185,-0.11643467843532562,2.8077826499938965,-0.2642557919025421
29.0,-0.38849467039108276,-0.5176200866699219,-2.5843539237976074,-0.27849337458610535,2.8477699756622314,0.5466843843460083
29.05,0.11288183927536011,-1.3913917541503906,-0.2751692533493042,-1.4083865880966187,1.1180739402770996,2.2129452228546143
29.1,0.27819550037384033,-0.4371347427368164,0.25651639699935913,-1.416186809539795,0.4582129716873169,3.3954691886901855
29.15,-0.8443827033042908,-0.13779163360595703,0.10124292224645615,-0.7689089775085449,0.7608965635299683,3.2407822608947754
29.2,-1.6244373321533203,0.5919637680053711,-0.6476094126701355,0.04308384656906128,1.188483715057373,2.652421236038208
29.25,-2.7083613872528076,1.0250024795532227,-0.25763317942619324,0.3777330219745636,1.5563993453979492,1.8927322626113892
29.3,-3.9201653003692627,-0.29869651794433594,-0.9716130495071411,0.23278634250164032,1.7543094158172607,1.0525621175765991
29.35,-4.042087554931641,0.21955585479736328,-0.8461284041404724,0.41991370916366577,1.1216078996658325,0.7994253039360046
29.4,-2.7110860347747803,0.622859001159668,-0.11645873636007309,0.4425370693206787,0.11763446033000946,0.5835720896720886
29.45,-2.209984064102173,0.12983417510986328,0.0743115097284317,0.26343834400177,-0.09768008440732956,0.14101864397525787
29.5,-2.288971185684204,-1.1844501495361328,-0.3930906355381012,0.21177609264850616,-0.45508188009262085,-0.24453389644622803
29.55,-0.9426774382591248,-0.41956138610839844,-0.4510464072227478,0.4541979134082794,-0.9895735383033752,-0.31272581219673157
29.6,0.28372159600257874,1.4286432266235352,-0.32037606835365295,0.4491696059703827,-1.1932376623153687,-0.2978516221046448
29.65,1.379883050918579,1.44976806640625,0.5321521162986755,0.3631507158279419,-0.800469696521759,-0.6403934955596924
29.7,1.0978832244873047,0.9014549255371094,0.8205813765525818,0.25738900899887085,-0.11276143789291382,-0.984896183013916
29.75,0.2527310848236084,1.0761728286743164,0.9430261254310608,0.025438539683818817,-0.108141228556633,-0.6535392999649048
29.8,-0.4172254800796509,0.13311100006103516,-0.04485524445772171,-0.2912254333496094,-0.2873663902282715,-0.389669805765152
29.85,-0.022614017128944397,-0.19138717651367188,0.18690386414527893,-0.2264130860567093,-0.1076253354549408,-0.5010306239128113
29.9,-0.07361204922199249,-0.3079404830932617,0.07144317775964737,-0.11196224391460419,0.11348946392536163,-0.5532702803611755
29.95,-0.40291768312454224,0.14403152465820312,-0.38441574573516846,-0.14189979434013367,-0.05080350488424301,-0.39997151494026184
30.0,0.266164094209671,0.05390739440917969,-0.22545607388019562,-0.2993551194667816,-0.22798651456832886,-0.40297675132751465
30.05,0.14458875358104706,-0.1734638214111328,-0.4955800771713257,-0.3082318902015686,-0.08064678311347961,-0.5671663284301758
30.1,0.0032102763652801514,-0.1088724136352539,-0.4873347580432892,-0.2989221513271332,0.027501508593559265,-0.659896731376648
30.15,-0.38208112120628357,0.5297880172729492,-0.5892277359962463,-0.2739427983760834,0.09676864743232727,-0.6742779612541199
30.2,-0.41583821177482605,0.6815223693847656,-0.3104172945022583,-0.2888018488883972,0.03520606458187103,-0.6741201877593994
30.25,-0.284548819065094,0.41672611236572266,0.1370544731616974,-0.32168304920196533,-0.0664387047290802,-0.6725844144821167
30.3,-0.19601064920425415,0.0634012222290039,-0.23703116178512573,-0.3057212233543396,-0.06542588770389557,-0.6287202835083008
30.35,-0.20586229860782623,-0.33548450469970703,-0.07412990182638168,-0.1911807358264923,0.06028851866722107,-0.5503810048103333
30.4,-0.4615265727043152,0.043717384338378906,0.09064434468746185,0.0456707589328289,0.26118728518486023,-0.44930821657180786
30.45,-0.7730395793914795,0.7302846908569336,-0.31606996059417725,0.22389556467533112,0.393423467874527,-0.34724530577659607
30.5,-0.762456476688385,0.5248537063598633,-0.07578348368406296,0.15128684043884277,0.28667551279067993,-0.20872879028320312
30.55,-0.4458346962928772,0.5185098648071289,-0.1368693709373474,0.09419108182191849,0.16311541199684143,-0.01261876616626978
30.6,0.11181345582008362,0.11821269989013672,0.03188834339380264,0.04274049401283264,0.06670166552066803,0.03779779374599457
30.65,0.056267160922288895,-0.12212085723876953,-0.1794852763414383,0.08234918862581253,0.1452822983264923,0.018829427659511566
30.7,0.031072894111275673,0.0033178329467773438,-0.3676706552505493,0.11798232793807983,0.2244536280632019,-0.028751742094755173
30.75,-0.15364894270896912,0.18028545379638672,-0.1388995200395584,0.1991758495569229,0.3451981842517853,-0.08620642125606537
30.8,-0.11020046472549438,0.31883907318115234,0.08458920568227768,0.24261559545993805,0.3955347537994385,-0.10634146630764008
30.85,-0.153991237282753,0.34729862213134766,-0.1547141969203949,0.23545750975608826,0.40087777376174927,-0.05242336168885231
30.9,-0.13009952008724213,0.2288351058959961,-0.16303503513336182,0.25800713896751404,0.41001248359680176,-0.0016668997704982758
30.95,0.18298251926898956,-0.025925636291503906,0.010418353602290154,0.3611743748188019,0.4457129240036011,-0.012059027329087257
31.0,0.21594460308551788,-0.19197845458984375,0.07451875507831573,0.4489859938621521,0.41121038794517517,-0.02796679362654686
31.05,0.4649803340435028,-0.29532814025878906,0.08721999824047089,0.48576125502586365,0.3274485468864441,0.016269786283373833
31.1,0.24899907410144806,-0.8400297164916992,0.003253323957324028,0.5718763470649719,0.45426028966903687,0.0004972442984580994
31.15,-0.5282389521598816,-1.0387935638427734,-0.3241676092147827,0.7488340735435486,0.5528715252876282,0.1270589828491211
31.2,-0.6533156633377075,-1.1796722412109375,-0.7937076687812805,0.9999737739562988,0.567840576171875,0.36350616812705994
31.25,-0.2521066665649414,-0.5783300399780273,-1.759660243988037,1.4461133480072021,0.7554524540901184,0.5123374462127686
31.3,-0.7112626433372498,0.9655694961547852,-2.607022285461426,1.9923847913742065,1.232269048690796,0.5791151523590088
31.35,-2.088466167449951,2.648592948913574,-2.686400890350342,2.43861985206604,2.0212109088897705,0.34811705350875854
31.4,-2.6480979919433594,4.005288124084473,-1.2362569570541382,2.490410566329956,2.496610641479492,0.14142891764640808
31.45,-1.9472720623016357,4.250542640686035,-0.13350677490234375,2.1732966899871826,2.7051305770874023,0.028565987944602966
31.5,-2.456472396850586,3.2870779037475586,0.9398389458656311,1.5610212087631226,2.936985969543457,-0.08914422243833542
31.55,-1.9467498064041138,2.807602882385254,4.069952487945557,0.7448674440383911,2.967257022857666,-0.08585524559020996
31.6,1.9931397438049316,2.8626527786254883,5.397434234619141,0.07924188673496246,2.382298231124878,0.2911025881767273
31.65,3.3020243644714355,1.6453008651733398,4.764858245849609,-0.5219548940658569,1.2042725086212158,1.2811777591705322
31.7,0.09882950782775879,-0.40793704986572266,4.460958957672119,-1.260441780090332,0.3165077269077301,2.2850141525268555
31.75,-1.0457549095153809,-0.785064697265625,3.312162399291992,-2.252380132675171,0.009343753568828106,2.2474942207336426
31.8,-0.39628300070762634,0.40080738067626953,1.5206893682479858,-3.811764717102051,0.3134710192680359,1.362705945968628
31.85,-2.0823230743408203,-0.17677974700927734,0.4955226182937622,-5.503572463989258,0.6198554039001465,-0.08533445000648499
31.9,-2.4671266078948975,-0.03978252410888672,-1.4051860570907593,-5.7971673011779785,-0.1558208465576172,-1.424001693725586
31.95,-2.133124351501465,0.15716266632080078,-2.426966428756714,-4.890079021453857,-1.5078845024108887,-2.0335235595703125
32.0,-1.9324498176574707,0.7128915786743164,-4.151880741119385,-3.9717001914978027,-3.3201520442962646,-1.7158958911895752
32.05,0.41163161396980286,-1.7245235443115234,-4.149664402008057,-3.3639471530914307,-4.254184246063232,-0.7509016990661621
32.1,1.3245599269866943,-3.171632766723633,-2.5383589267730713,-2.2811431884765625,-4.311989784240723,-0.3395422697067261
32.15,0.6474080085754395,-2.055068016052246,-3.3628053665161133,-0.9920860528945923,-4.493915557861328,0.09433767944574356
32.2,1.3785662651062012,-2.6438522338867188,-4.023885726928711,-0.7428224682807922,-4.567047119140625,1.4740456342697144
32.25,3.4518074989318848,-4.591935157775879,-2.839479923248291,-1.4709503650665283,-4.806792259216309,2.5718185901641846
32.3,6.596716403961182,-5.816205024719238,-0.6961513757705688,-1.643548607826233,-5.165265083312988,2.727271795272827
32.35,7.452810764312744,-3.944927215576172,3.298748731613159,-1.2118475437164307,-5.195136547088623,3.0349156856536865
32.4,3.539963722229004,2.455306053161621,7.920111179351807,-0.7050500512123108,-4.421774387359619,4.378272533416748
32.45,0.5463875532150269,3.9669761657714844,3.6780359745025635,-1.0484585762023926,-2.5095725059509277,4.06390380859375
32.5,1.6031379699707031,-1.397390365600586,-0.8921494483947754,-2.1562278270721436,-1.9903011322021484,2.0687217712402344
32.55,0.3767644464969635,2.060934066772461,3.762610912322998,-2.3801727294921875,-2.0460684299468994,1.7028993368148804
32.6,0.8495880961418152,4.332550048828125,1.7402052879333496,-1.4490586519241333,-0.4028172194957733,0.5300586819648743
32.65,1.9346380233764648,1.8958015441894531,-1.2550419569015503,-1.1630386114120483,-0.1130976676940918,-0.9790089130401611
32.7,1.5641099214553833,2.240004539489746,-0.450124591588974,-1.439046859741211,-0.9570657014846802,-1.294552206993103
32.75,2.6996731758117676,2.201460838317871,0.6736998558044434,-1.4095348119735718,-1.6029667854309082,-1.8122998476028442
32.8,2.1306633949279785,0.4685811996459961,2.5964369773864746,-1.2661960124969482,-1.978534460067749,-2.520078659057617
32.85,-1.135420560836792,-0.801875114440918,3.335897922515869,-1.1298820972442627,-1.2038671970367432,-2.7087044715881348
32.9,-0.37935054302215576,0.4427938461303711,3.265878677368164,-0.5307134389877319,0.8447160720825195,-2.4042165279388428
32.95,3.7927846908569336,-0.14923095703125,0.3544864058494568,0.3645733594894409,3.203218936920166,-2.449547052383423
33.0,4.646049976348877,-1.5670557022094727,-3.1645357608795166,0.13183356821537018,4.987348556518555,-2.7060694694519043
33.05,5.212669372558594,-1.8618569374084473,-4.532591819763184,-1.0575145483016968,6.395406723022461,-2.459953546524048
33.1,3.566901206970215,-3.1581411361694336,-6.257685661315918,-1.3173834085464478,7.787574768066406,-2.226778268814087
33.15,-3.7275657653808594,-3.206584930419922,-8.595462799072266,-0.3012218475341797,8.90376091003418,-2.3606090545654297
33.2,-24.524372100830078,-0.10459041595458984,-1.0501536130905151,0.5950061082839966,7.355924606323242,-2.9840283393859863
33.25,-13.867167472839355,8.72522258758545,1.6113094091415405,-0.09273795783519745,1.1424345970153809,-3.0997965335845947
33.3,-6.066120624542236,3.60062313079834,-7.948421955108643,-2.6539154052734375,-1.4099488258361816,-4.79878044128418
33.35,-17.04062271118164,0.8408689498901367,-4.986590385437012,-1.2966517210006714,0.10914555191993713,-2.8131306171417236
33.4,1.1874749660491943,-2.4095077514648438,0.00030212104320526123,0.5136148929595947,-0.8066064119338989,3.8884687423706055
33.45,7.564266681671143,-0.7717151641845703,0.27473849058151245,-0.26516300439834595,-1.1274166107177734,2.4344353675842285
33.5,-0.8132399916648865,-0.8398056030273438,-0.4447851777076721,-0.3275870084762573,-0.6199740171432495,-2.981140375137329
33.55,-3.4903910160064697,1.179612159729004,-1.1913996934890747,0.13550831377506256,-0.5260469317436218,-3.1198134422302246
33.6,-1.5698535442352295,1.014723777770996,-0.7725191116333008,-0.007683485746383667,-0.4237750470638275,-0.34180787205696106
33.65,0.33258917927742004,0.03311920166015625,-0.6074883341789246,-0.41031429171562195,-0.3202921748161316,1.105494737625122
33.7,0.7162818908691406,-0.1817331314086914,-0.09263132512569427,-0.37166690826416016,-0.16394223272800446,0.3500276207923889
33.75,-0.8785731196403503,-0.05985736846923828,0.1701667606830597,-0.15314233303070068,-0.17892365157604218,-1.1368314027786255
33.8,-2.30708646774292,0.26655101776123047,-0.07652639597654343,-0.14736822247505188,-0.13345566391944885,-1.4119765758514404
33.85,-1.821230411529541,-0.12940692901611328,0.19360317289829254,-0.17634551227092743,-0.05852791666984558,-0.6424537897109985
33.9,-1.2381644248962402,-1.273818016052246,0.7188775539398193,0.06967271119356155,0.07342979311943054,-0.027095355093479156
33.95,-1.5447168350219727,-2.2086663246154785,1.0878781080245972,0.5957052111625671,0.2854918837547302,0.25242549180984497
34.0,-2.579535961151123,-2.879619598388672,0.9464554786682129,1.2263213396072388,0.38086798787117004,0.4350893497467041
34.05,-2.627436876296997,-3.056245803833008,0.06480178236961365,1.9353350400924683,0.16210150718688965,0.7255518436431885
34.1,-1.9559662342071533,-0.38898181915283203,-1.2549641132354736,2.6720473766326904,-0.2082802653312683,0.7981247901916504
34.15,-2.0106236934661865,2.008082389831543,-0.47153329849243164,2.5732290744781494,-0.4963917136192322,0.5056361556053162
34.2,-3.027719020843506,1.4800443649291992,0.6152900457382202,2.0059664249420166,-0.8504992127418518,0.3756391406059265
34.25,-3.5572924613952637,1.3410634994506836,0.12343475222587585,1.8563690185546875,-1.4647424221038818,0.6249858140945435
34.3,-2.7720351219177246,1.6608819961547852,-0.6566240787506104,1.8376874923706055,-2.157142400741577,0.7314792275428772
34.35,-1.7451847791671753,2.841747283935547,-1.5051002502441406,1.6632208824157715,-2.5845754146575928,0.5136582255363464
34.4,-0.37422510981559753,5.5413923263549805,-1.6596919298171997,1.3338232040405273,-2.868865728378296,0.15173323452472687
34.45,1.1288025379180908,7.620591163635254,-0.9358273148536682,0.6504409313201904,-3.1089322566986084,-0.11574578285217285
34.5,2.3814077377319336,7.24283504486084,-0.19414296746253967,-0.6354337334632874,-3.104900360107422,-0.18518264591693878
34.55,3.9746196269989014,4.231969833374023,0.6067158579826355,-1.9423975944519043,-2.5488033294677734,-0.17482668161392212
34.6,6.349542617797852,0.042616844177246094,2.365830898284912,-2.707674026489258,-1.4107356071472168,-0.15866069495677948
34.65,8.558881759643555,-1.0989923477172852,3.7968225479125977,-2.5945301055908203,0.7491613626480103,0.020051300525665283
34.7,6.579435348510742,-1.0219621658325195,-0.8242700099945068,-1.9196369647979736,3.625854730606079,-0.11033664643764496
34.75,0.9797093868255615,-4.821222305297852,-4.828444004058838,-2.048517942428589,4.959192752838135,0.634731113910675
34.8,3.1100316047668457,-5.716162204742432,-4.492216110229492,-1.3359345197677612,4.196017265319824,4.373405933380127
34.85,3.7206313610076904,-0.7197198867797852,-6.440413475036621,1.5283176898956299,4.443624496459961,6.307819843292236
34.9,-0.7817394137382507,0.13957691192626953,-6.039281845092773,2.7333922386169434,5.716402053833008,3.9593186378479004
34.95,-2.79579496383667,0.5916376113891602,-5.179279327392578,1.9349671602249146,6.216147422790527,1.1261993646621704
35.0,-3.9111199378967285,3.901320457458496,-5.030253887176514,0.9345805048942566,6.348815441131592,-0.3387451171875
35.05,-7.503573417663574,0.6857748031616211,-4.445685386657715,-1.0581345558166504,6.5973944664001465,-0.6111192107200623
35.1,-10.51317310333252,-5.061911582946777,0.4437313675880432,-2.3229310512542725,6.567526340484619,0.043109551072120667
35.15,-9.519111633300781,-4.940753936767578,4.356749534606934,-1.9506040811538696,5.886131763458252,0.02364364266395569
35.2,-8.751424789428711,-4.151106834411621,5.533483028411865,-1.8782705068588257,5.135169982910156,0.039534762501716614
35.25,-7.134821891784668,-2.899962902069092,7.7273850440979,-2.109142780303955,5.167705535888672,0.2674199938774109
35.3,-2.9957549571990967,0.37232398986816406,10.468092918395996,-2.559978723526001,5.8057451248168945,0.16515415906906128
35.35,1.609032392501831,4.5868330001831055,8.812667846679688,-2.6083998680114746,6.0852789878845215,-0.10816331952810287
35.4,3.0512197017669678,3.8800086975097656,6.51340389251709,-1.8107495307922363,5.809260845184326,-0.06069239228963852
35.45,2.729414463043213,1.100600242614746,6.896167755126953,-0.8226476907730103,5.106983661651611,0.025349818170070648
35.5,3.3286399841308594,1.8473234176635742,8.10078239440918,-0.2249944657087326,5.0571980476379395,0.2775747776031494
35.55,7.336082458496094,3.6151018142700195,6.514575004577637,0.6235841512680054,6.581215858459473,0.5177299976348877
35.6,10.902959823608398,2.6911497116088867,1.3132719993591309,1.6003977060317993,8.326533317565918,-0.11196568608283997
35.65,11.02742862701416,-0.2521190643310547,-5.54897403717041,1.798326849937439,9.35554027557373,-1.8399358987808228
35.7,6.645759582519531,-1.7908306121826172,-10.72530746459961,0.6485059857368469,9.034417152404785,-2.959442615509033
35.75,1.7320971488952637,-1.2051706314086914,-9.405223846435547,-1.264481544494629,7.863092422485352,-2.3398263454437256
35.8,-0.4088149070739746,-0.3945589065551758,-9.14181900024414,-1.9445488452911377,7.786257743835449,-1.1349140405654907
35.85,-5.701930046081543,-0.013375282287597656,-8.676785469055176,-1.6129597425460815,7.147908687591553,-0.5548326373100281
35.9,-6.966979026794434,-0.15477848052978516,-4.1096086502075195,-1.269046425819397,5.013119697570801,0.21181972324848175
35.95,-2.4262194633483887,-0.7960071563720703,-3.3314623832702637,-1.3581970930099487,3.888061285018921,0.35932961106300354
36.0,-1.8431432247161865,0.2133169174194336,-2.8725686073303223,-1.635404348373413,3.807187080383301,0.34770503640174866
36.05,-2.0148539543151855,-1.8012189865112305,-3.637653112411499,-1.8726743459701538,3.9896492958068848,0.44690823554992676
36.1,-3.55192232131958,-2.7851505279541016,-4.089705467224121,-1.4460865259170532,4.485152721405029,0.22328439354896545
36.15,-5.078545570373535,-1.0113964080810547,-0.14599233865737915,0.11219194531440735,4.893497943878174,0.10247547924518585
36.2,-4.688462257385254,-0.1294088363647461,3.4301693439483643,1.7298316955566406,4.548158645629883,-0.362130731344223
36.25,-2.700335741043091,-0.952916145324707,6.669216156005859,1.6944551467895508,3.731210231781006,-1.1637518405914307
36.3,-0.9576382040977478,-1.7360353469848633,5.774728775024414,1.0988942384719849,2.5718493461608887,-1.4822887182235718
36.35,-0.4771984815597534,0.43463897705078125,4.124549388885498,-0.023818351328372955,1.3592755794525146,-1.2140461206436157
36.4,0.18345215916633606,1.326167106628418,2.6754837036132812,-1.2887489795684814,0.3546278178691864,-0.3581197261810303
36.45,0.04262825846672058,-1.0339479446411133,1.850299596786499,-2.436850070953369,-0.8409981727600098,0.7004727125167847
36.5,-5.244886875152588,0.32038402557373047,6.873682022094727,-3.5196049213409424,-2.1430811882019043,0.7447044253349304
36.55,-11.204588890075684,5.052175521850586,6.060076713562012,-2.477029323577881,-4.956355571746826,0.012134939432144165
36.6,-8.083166122436523,4.924359321594238,-1.6743009090423584,-0.7193825244903564,-7.312680721282959,0.03970503807067871
36.65,-0.32847514748573303,1.2267961502075195,-6.005991458892822,0.21543583273887634,-7.6830902099609375,0.9406406283378601
36.7,8.316192626953125,1.4735908508300781,-4.110528945922852,0.3681356906890869,-5.799509048461914,2.265261173248291
36.75,10.67345142364502,7.228549003601074,-6.031728267669678,-0.6943910121917725,-2.5282294750213623,2.4486212730407715
36.8,1.8334856033325195,4.289009094238281,-7.491090774536133,-3.3461029529571533,1.02870774269104,1.252048373222351
36.85,-4.648360252380371,-2.4451608657836914,-7.117681503295898,-4.412235736846924,1.9816703796386719,2.508314847946167
36.9,-4.525273323059082,-4.644658088684082,-7.215633869171143,-3.9470858573913574,2.9539265632629395,3.527869701385498
36.95,-5.219051837921143,-6.107285499572754,-2.383892297744751,-3.833540916442871,3.1791305541992188,1.5216835737228394
37.0,-3.903564214706421,-4.4054999351501465,1.564157485961914,-2.5269291400909424,2.9695982933044434,0.8028978109359741
37.05,-2.1827545166015625,-2.364908218383789,0.6405825018882751,-1.416422724723816,2.678290843963623,0.8265926241874695
37.1,-2.5865261554718018,-1.8107671737670898,2.3095788955688477,-1.498036503791809,2.2649521827697754,0.7106308937072754
37.15,-2.0131821632385254,-1.8960638046264648,2.159890651702881,-1.3557701110839844,1.6037596464157104,0.5380191802978516
37.2,0.8160679936408997,-2.1227102279663086,3.9437475204467773,-2.1958367824554443,-0.6247702836990356,0.6500353813171387
37.25,0.49424490332603455,1.5538606643676758,5.052498817443848,-2.126206636428833,-2.6513004302978516,0.4646708071231842
37.3,-0.7275530695915222,3.07132625579834,3.0248730182647705,-0.7772360444068909,-2.606706380844116,0.24174192547798157
37.35,-0.8954770565032959,2.1545114517211914,-1.4899535179138184,-0.3743554353713989,-3.0865039825439453,-0.019842281937599182
37.4,-1.813152551651001,1.4797754287719727,1.230007290840149,-0.8307421207427979,-3.060375928878784,-0.6710808277130127
37.45,-3.7029969692230225,0.33867645263671875,1.051796793937683,0.6330366134643555,-1.5219913721084595,-1.023106336593628
37.5,-2.4751458168029785,-0.4291505813598633,-0.8122403621673584,1.9463965892791748,-0.07716433703899384,-0.16211912035942078
37.55,0.248335599899292,-1.1120996475219727,-0.5160844326019287,1.7299315929412842,0.008679181337356567,0.2622727155685425
37.6,-0.12508174777030945,-0.5568943023681641,0.03306344151496887,0.9504863023757935,-0.6498928666114807,-0.21990463137626648
37.65,-1.240119457244873,-0.419647216796875,0.34650206565856934,0.7414523959159851,-0.9791011810302734,-0.5400423407554626
37.7,-0.6655309796333313,-0.4895963668823242,0.5973016619682312,0.9713267683982849,-1.220729947090149,-0.36990612745285034
37.75,-0.6157813668251038,-0.28075122833251953,1.332607626914978,1.469780683517456,-1.388474702835083,-0.10716499388217926
37.8,-0.7921884059906006,-1.4567508697509766,0.6758548021316528,1.789961338043213,-1.6493291854858398,0.006914049386978149
37.85,-1.3200122117996216,-2.4574522972106934,-0.2262541651725769,1.7479122877120972,-2.0726962089538574,-0.44011256098747253
37.9,-0.851338267326355,-1.8581113815307617,0.4506700932979584,1.8922134637832642,-2.3067312240600586,-0.8085606098175049
37.95,-0.5446593165397644,-0.6292619705200195,-0.787477970123291,2.4573683738708496,-2.058096408843994,-0.5574967861175537
38.0,2.4192233085632324,1.715972900390625,-3.0069897174835205,2.7598297595977783,-1.544044852256775,-0.5837736129760742
38.05,3.1100594997406006,3.8299074172973633,-3.5102128982543945,2.224303960800171,-0.8022719621658325,-0.9277408719062805
38.1,1.20156991481781,3.123978614807129,-2.282594919204712,1.4750852584838867,0.2158641517162323,-0.35884156823158264
38.15,0.773858904838562,1.0193538665771484,-0.16234169900417328,1.0285882949829102,0.6171952486038208,0.35517990589141846
38.2,1.496235728263855,0.8679332733154297,0.5282081961631775,0.8293487429618835,0.5198473334312439,0.7288668751716614
38.25,1.5419645309448242,-0.6821908950805664,-0.03650371730327606,0.9728010296821594,0.6071098446846008,0.8065428137779236
38.3,1.573759913444519,-1.5665760040283203,-0.357564240694046,1.6275129318237305,1.0388884544372559,1.1475677490234375
38.35,1.1158791780471802,-0.5312461853027344,-0.9712840914726257,2.5428152084350586,1.5564981698989868,1.5924603939056396
38.4,1.3413691520690918,1.390096664428711,-1.7797895669937134,3.240119218826294,1.6319477558135986,1.4434388875961304
38.45,0.03380947560071945,4.2129106521606445,-1.6200032234191895,2.9131927490234375,1.6325843334197998,0.7089356184005737
38.5,-0.8565764427185059,3.611811637878418,-1.1016865968704224,1.758100152015686,1.5121049880981445,0.5465447306632996
38.55,-1.7838807106018066,0.9870462417602539,-0.8429317474365234,1.2504363059997559,1.239062786102295,0.835808277130127
38.6,-1.8602871894836426,-0.4458656311035156,0.25509804487228394,1.3197028636932373,1.11416757106781,0.8338742256164551
38.65,-1.319750189781189,-0.26163768768310547,0.7428721785545349,1.244268536567688,1.013731837272644,0.5732607841491699
38.7,-1.6435543298721313,0.10883331298828125,1.7507272958755493,0.8924009799957275,0.882915735244751,0.40047621726989746
38.75,-0.9020431041717529,0.5522451400756836,1.5537177324295044,0.638944685459137,0.5688291192054749,0.46058401465415955
38.8,-0.681664764881134,-0.3642396926879883,0.9422492384910583,0.6283406615257263,0.2936651408672333,0.7046666145324707
38.85,-0.7934417128562927,0.37160682678222656,-0.15980315208435059,0.7060951590538025,0.12335747480392456,0.8850619196891785
38.9,-0.19031822681427002,0.6520662307739258,-0.8734107613563538,0.5985642075538635,0.27406275272369385,1.0107176303863525
38.95,-0.6564350724220276,0.20775890350341797,-0.6372418403625488,0.14072969555854797,0.5806245803833008,1.3350998163223267
39.0,-1.6146953105926514,-0.06922149658203125,-0.7519946098327637,-0.2991933226585388,0.7426749467849731,1.6929259300231934
39.05,-1.8379453420639038,-0.6847190856933594,-0.5407716631889343,-0.886732816696167,0.7394866943359375,1.9073718786239624
39.1,-1.6463948488235474,-0.8796834945678711,-0.11835188418626785,-1.6950585842132568,0.6920406818389893,2.0219337940216064
39.15,-0.9919149279594421,-1.8418536186218262,-0.3173317611217499,-2.3584585189819336,0.7822762727737427,1.8834751844406128
39.2,-0.36013859510421753,-3.3103103637695312,-0.5151175260543823,-2.8356332778930664,0.9206766486167908,1.3853048086166382
39.25,-0.6567695140838623,-4.505671501159668,0.3728805482387543,-3.2592639923095703,1.0494349002838135,0.7545958161354065
39.3,-0.8925246596336365,-4.378785610198975,1.1026394367218018,-3.5445234775543213,1.0770074129104614,-0.09529702365398407
39.35,-1.386738896369934,-2.683438301086426,2.0298914909362793,-3.638507604598999,1.1717774868011475,-0.9485188722610474
39.4,-1.5686872005462646,0.5687789916992188,3.8493809700012207,-3.3107075691223145,1.4442517757415771,-1.9601198434829712
39.45,-1.7714643478393555,3.7722291946411133,2.5702457427978516,-2.5164806842803955,1.172928810119629,-3.3553168773651123
39.5,-0.3867500126361847,4.491388320922852,2.7089273929595947,-1.6341174840927124,0.43930768966674805,-3.9390318393707275
39.55,1.518137812614441,5.417349815368652,-1.401534080505371,-0.2574441134929657,-1.1034032106399536,-3.825087547302246
39.6,3.4921464920043945,3.0557451248168945,-2.5930020809173584,0.5193356275558472,-1.698688268661499,-2.3693900108337402
39.65,2.057612895965576,1.2638397216796875,-0.16976983845233917,0.963277280330658,-1.4098381996154785,-0.9020696878433228
39.7,0.6556006669998169,0.16779232025146484,1.4072813987731934,0.5712484121322632,-1.390561580657959,-0.1495278775691986
39.75,1.1752365827560425,0.7350034713745117,1.0155476331710815,0.19950240850448608,-1.786199688911438,-0.09768537431955338
39.8,1.0924328565597534,1.999664306640625,2.6833114624023438,0.1613301932811737,-2.017636775970459,0.001981419511139393
39.85,-0.6610819101333618,0.037238121032714844,2.5199782848358154,0.4455074369907379,-2.6823647022247314,0.32414668798446655
39.9,-0.908380925655365,-0.7819070816040039,1.049741268157959,0.7048795819282532,-3.023624897003174,0.454865425825119
39.95,-0.17438989877700806,-0.8283357620239258,-0.4488414227962494,0.9871876239776611,-2.926926612854004,0.36737239360809326
40.0,0.18168701231479645,-1.2739629745483398,1.1481258869171143,1.7475128173828125,-2.384268045425415,0.32857921719551086
40.05,-0.8803979754447937,-2.536858558654785,2.748034954071045,2.4019381999969482,-2.087902069091797,0.48598620295524597
40.1,-1.9061858654022217,-3.615537166595459,3.462042808532715,2.8034117221832275,-2.0457003116607666,0.4452185034751892
40.15,-2.502959966659546,-5.181552886962891,3.065432548522949,2.9694106578826904,-2.4940669536590576,0.1878509521484375
40.2,-1.6503798961639404,-6.318029403686523,1.4400864839553833,2.8864989280700684,-3.0488009452819824,-0.2947465181350708
40.25,0.13911223411560059,-2.852241039276123,-2.6168131828308105,2.5285184383392334,-3.099088191986084,-0.6325019598007202
40.3,2.1415963172912598,2.821505546569824,-3.8013827800750732,1.424154281616211,-2.5363330841064453,-0.6868505477905273
40.35,3.3944687843322754,3.580717086791992,-5.612013816833496,-0.20122244954109192,-1.0439989566802979,-0.6114807724952698
40.4,3.1311826705932617,1.5094423294067383,-4.600593566894531,-0.386249303817749,0.6088812351226807,-0.25294229388237
40.45,-1.0152746438980103,2.541192054748535,-0.6291784048080444,-0.169716939330101,1.3004404306411743,-0.017009709030389786
40.5,-2.8634121417999268,2.981011390686035,0.3804571032524109,-0.7901687026023865,1.1674563884735107,-0.6416067481040955
40.55,0.40093541145324707,0.8411149978637695,-1.7380309104919434,-1.443051815032959,0.5528392195701599,-1.3066023588180542
40.6,2.536710023880005,1.7058048248291016,-2.8062679767608643,-1.0254520177841187,0.3120315670967102,-1.3408328294754028
40.65,0.3909410238265991,2.6612586975097656,0.06958264112472534,-0.9747535586357117,0.7906333208084106,-0.8419309854507446
40.7,-3.892491579055786,0.9134359359741211,2.2150309085845947,-1.2866686582565308,0.6070897579193115,-0.6206475496292114
40.75,-4.7685747146606445,0.7169818878173828,2.5176126956939697,-0.9060953259468079,-0.7310309410095215,-0.7486209869384766
40.8,-4.870074272155762,-0.6702594757080078,0.5338631272315979,-0.4981011152267456,-3.2670843601226807,-0.4589836895465851
40.85,-4.48242712020874,-1.4615411758422852,-0.4293779730796814,0.15472595393657684,-5.018409729003906,0.033141717314720154
40.9,-2.2523441314697266,-2.4911890029907227,-1.3332191705703735,0.32164904475212097,-6.008927345275879,0.364833801984787
40.95,2.2864835262298584,-4.089335918426514,1.0972142219543457,-0.6744173169136047,-4.465394496917725,0.017662204802036285
41.0,2.439364194869995,-5.431235313415527,-0.9343146085739136,-1.6954327821731567,-0.7562589049339294,-0.8445380926132202
41.05,3.664250612258911,-5.461763858795166,1.1262502670288086,-1.4455848932266235,0.6277679800987244,-1.469172716140747
41.1,0.14003504812717438,-6.382749557495117,1.9378660917282104,-1.03760826587677,1.7880759239196777,-2.1895742416381836
41.15,-1.5058954954147339,-5.120350360870361,-0.6006867289543152,-0.7825431823730469,1.4711763858795166,-1.6771727800369263
41.2,2.272315740585327,-0.5363731384277344,-4.328714847564697,-0.9145431518554688,0.5286203026771545,-1.6635855436325073
41.25,2.5771660804748535,0.4450397491455078,-2.2071480751037598,-0.43155282735824585,0.9440363049507141,-1.8132182359695435
41.3,1.5608282089233398,4.352555274963379,-2.1872525215148926,0.6758250594139099,2.409292459487915,-2.0761094093322754
41.35,-0.8817328214645386,4.251504898071289,-0.9324663877487183,1.0743029117584229,2.113567352294922,-1.3466262817382812
41.4,0.31664884090423584,3.0843286514282227,-1.1090786457061768,0.665231466293335,0.5319147109985352,0.06283973157405853
41.45,3.3876752853393555,2.6379594802856445,-1.3342335224151611,0.4447020888328552,-0.39613205194473267,0.7570815086364746
41.5,2.5641987323760986,1.3673639297485352,-0.2955118417739868,0.8760285973548889,0.46827828884124756,0.14131540060043335
41.55,1.7903718948364258,2.6211023330688477,-3.1837310791015625,1.1055183410644531,1.4523346424102783,-0.36271029710769653
41.6,0.319897323846817,0.10186767578125,-3.484098434448242,1.671177625656128,1.9803916215896606,-0.4666944742202759
41.65,4.689689636230469,6.6970014572143555,4.211430072784424,1.159971833229065,0.9051180481910706,-0.12271585315465927
41.7,-7.454627990722656,1.389932632446289,-0.0033379793167114258,0.5464915633201599,1.3322008848190308,-0.7434748411178589
41.75,-1.5652533769607544,2.280384063720703,3.8831584453582764,0.17771907150745392,-0.17992660403251648,-0.08706577122211456
41.8,1.2515455484390259,3.0430727005004883,5.417552947998047,0.6692505478858948,0.8850967884063721,-0.1513727605342865
41.85,-6.157411098480225,0.23413658142089844,3.1252996921539307,0.4499672055244446,0.9128628969192505,0.39947277307510376
41.9,1.0775885581970215,0.7974328994750977,1.1677378416061401,0.6923818588256836,-0.8257025480270386,1.5437958240509033
41.95,1.1854047775268555,0.17007827758789062,1.07264244556427,1.116856336593628,0.8381679654121399,0.9575128555297852
42.0,-4.700799465179443,0.23222827911376953,3.8371777534484863,1.281640887260437,2.19767427444458,0.503584623336792
42.05,-2.105842351913452,1.639704704284668,1.9072293043136597,1.4309405088424683,-0.12093821167945862,0.4488579332828522
42.1,1.6278741359710693,3.1898393630981445,0.8690388202667236,1.0284335613250732,-1.508402705192566,0.7206272482872009
42.15,-3.6004858016967773,1.3037538528442383,2.913888454437256,0.271504670381546,-0.9718647003173828,1.2332428693771362
42.2,-3.552191734313965,0.49857521057128906,2.659099817276001,-1.7380423545837402,-1.2002027034759521,0.5549799799919128
42.25,0.8133277297019958,2.4379262924194336,1.5189588069915771,-3.369892120361328,-1.796043872833252,-0.3425755202770233
42.3,-1.1268773078918457,2.405877113342285,-1.5031976699829102,-4.046717643737793,-1.151809811592102,-0.8889304399490356
42.35,-1.5502402782440186,1.9191818237304688,-5.145007133483887,-4.355633735656738,-1.3109148740768433,-0.6350337266921997
42.4,-0.3812723159790039,-0.08721256256103516,-6.524919509887695,-4.279848098754883,-2.047940731048584,-0.0678274929523468
42.45,1.830863356590271,-1.7246198654174805,-5.477716445922852,-3.8335587978363037,-2.1115663051605225,0.5356029868125916
42.5,2.2744932174682617,-2.178711414337158,-3.233792781829834,-3.2482314109802246,-1.665389895439148,0.5252186059951782
42.55,0.47940725088119507,-1.6993770599365234,-1.1068618297576904,-2.4150781631469727,-1.2015843391418457,0.027958303689956665
42.6,-1.3755667209625244,-2.6379990577697754,0.5276286602020264,-1.7832317352294922,-0.9055994749069214,0.14160673320293427
42.65,-1.2462846040725708,-3.688532829284668,0.36902663111686707,-1.5537843704223633,-0.998181939125061,1.0279955863952637
42.7,0.3667011559009552,-7.059244155883789,1.0990923643112183,-1.264438509941101,-1.4988659620285034,1.5255910158157349
42.75,3.207878589630127,-9.145759582519531,1.669510841369629,-0.04061520844697952,-1.678162693977356,1.954982042312622
42.8,5.652603626251221,-8.711956024169922,0.12233763933181763,2.289670944213867,-1.2758647203445435,1.060021162033081
42.85,6.855306625366211,-5.34191370010376,-3.2901082038879395,4.365893363952637,-0.06675636768341064,-0.1157623827457428
42.9,5.85118293762207,-3.5571117401123047,-7.213275909423828,5.590269565582275,1.417381763458252,-0.40481123328208923
42.95,2.7033698558807373,4.006801605224609,-10.128853797912598,5.832160949707031,2.598940849304199,0.165219247341156
43.0,4.040249824523926,6.8649187088012695,-6.241511344909668,5.613216876983643,2.437828540802002,0.36029869318008423
43.05,10.8305025100708,7.5136308670043945,-3.5453124046325684,5.700521469116211,2.087364435195923,1.2004778385162354
43.1,9.028570175170898,16.2664794921875,3.6910393238067627,5.492432594299316,3.2999329566955566,4.53694486618042
43.15,-2.9323949813842773,13.311812400817871,7.368485927581787,3.243886947631836,0.42348623275756836,7.056161880493164
43.2,-13.344138145446777,-0.5554227828979492,-6.880875587463379,1.646092176437378,-0.671295166015625,6.3925909996032715
43.25,3.4026570320129395,5.431562423706055,-5.366330146789551,2.969237804412842,-1.5895612239837646,3.1262354850769043
43.3,-5.402693271636963,5.151974678039551,-3.2522549629211426,-0.6176047325134277,3.25748872756958,3.8773868083953857
43.35,-5.851933479309082,-9.612104415893555,5.677067756652832,-3.9641213417053223,4.4496169090271,3.8846852779388428
43.4,0.18128693103790283,0.38405799865722656,6.361900806427002,-1.7031939029693604,1.8893283605575562,0.2062179297208786
43.45,-1.0259159803390503,-0.4386329650878906,0.43022704124450684,-1.720898985862732,0.7014052867889404,0.3897789716720581
43.5,-2.1449239253997803,-4.766432762145996,0.7180111408233643,-1.881058931350708,1.2885913848876953,0.8655931949615479
43.55,-1.5286648273468018,-3.4921936988830566,0.22358936071395874,-1.2563705444335938,1.0747534036636353,0.034635648131370544
43.6,-1.7350953817367554,-3.366771697998047,0.7973265051841736,-1.476582646369934,1.2408347129821777,-0.14351196587085724
43.65,-1.5067853927612305,-1.4173917770385742,1.302449107170105,-1.4963072538375854,1.2417137622833252,-0.47177115082740784
43.7,-1.4301979541778564,-0.7188987731933594,1.601391077041626,-1.3836548328399658,1.1960318088531494,-0.4197114109992981
43.75,-1.197726845741272,-0.20288562774658203,1.3067604303359985,-1.2603983879089355,0.9982130527496338,-0.32321643829345703
43.8,-0.6356856822967529,0.2470560073852539,1.4195597171783447,-1.1947308778762817,0.91494220495224,-0.15756520628929138
43.85,-0.36380869150161743,-0.311431884765625,1.407095193862915,-1.1132358312606812,0.9845309257507324,0.08353762328624725
43.9,-0.004577890038490295,-0.19223403930664062,2.0072057247161865,-0.9330804347991943,1.2112635374069214,0.21618816256523132
43.95,0.7113795876502991,0.2707986831665039,2.9319908618927,-0.7607574462890625,1.1707812547683716,0.12634669244289398
44.0,0.9889899492263794,0.19255352020263672,2.870450019836426,-0.5578939914703369,0.6189635992050171,-0.08936484158039093
44.05,0.9665563106536865,0.09496116638183594,2.340280055999756,-0.4739193022251129,-0.00010946393013000488,-0.172579824924469
44.1,1.0349925756454468,-0.007538795471191406,2.123656988143921,-0.5195377469062805,-0.3213636577129364,-0.07034122943878174
44.15,0.9486616849899292,0.3896636962890625,2.9505326747894287,-0.6414610743522644,-0.5874484181404114,0.12761588394641876
44.2,0.8661003112792969,0.17442035675048828,2.7773258686065674,-0.827262282371521,-1.0930049419403076,0.32533156871795654
44.25,0.21073204278945923,0.875880241394043,2.804593801498413,-1.084434986114502,-1.5886412858963013,0.4793843626976013
44.3,-0.04515610635280609,1.119633674621582,2.8964688777923584,-1.2680437564849854,-2.0230846405029297,0.5334460139274597
44.35,-1.0317251682281494,1.3286476135253906,2.6014018058776855,-1.332677960395813,-2.6669301986694336,0.5649443864822388
44.4,-1.8402904272079468,1.824549674987793,1.0725703239440918,-1.2768568992614746,-3.442032814025879,0.7415528297424316
44.45,-1.5119487047195435,1.897944450378418,-0.25501561164855957,-1.1126303672790527,-3.9292969703674316,0.9455915689468384
44.5,-1.0440260171890259,1.0682859420776367,-0.7463082671165466,-0.9544805884361267,-3.885359764099121,1.1862716674804688
44.55,-1.0561001300811768,0.33122730255126953,-0.6811991333961487,-0.9081894159317017,-3.587130546569824,1.2511659860610962
44.6,-0.7314990758895874,-0.31711483001708984,-0.45479923486709595,-0.9682087898254395,-3.1316304206848145,1.0860270261764526
44.65,0.22094573080539703,-0.646000862121582,-0.757232129573822,-0.9877970218658447,-3.004835844039917,0.9987104535102844
44.7,2.1260712146759033,-0.33379554748535156,-0.6162726879119873,-1.0077006816864014,-2.7825613021850586,0.7857847809791565
44.75,1.278441071510315,-0.3596010208129883,-0.8854471445083618,-0.9805507659912109,-2.0464658737182617,0.19606466591358185
44.8,1.7938165664672852,-0.5020818710327148,-1.313125491142273,-0.9153063893318176,-1.679664134979248,-0.1568005383014679
44.85,1.8107151985168457,-1.2023448944091797,-1.8434697389602661,-0.7816600203514099,-1.4898837804794312,-0.23329555988311768
44.9,2.7432522773742676,-0.8094940185546875,-1.5365662574768066,-0.4193788468837738,-1.3889987468719482,0.08852791786193848
44.95,4.366302013397217,-1.2251672744750977,0.03666561841964722,-0.1498655378818512,-0.8438121676445007,0.13829787075519562
45.0,3.709554672241211,-0.581939697265625,0.3704267144203186,0.11121325939893723,0.389245867729187,-0.04304034635424614
45.05,1.3900983333587646,-0.9065437316894531,0.5062519311904907,0.08102034777402878,1.4572389125823975,-0.26531702280044556
45.1,0.3088882565498352,-0.2786521911621094,-0.1955619901418686,0.321343332529068,1.812537670135498,-0.16005919873714447
45.15,-0.4007599949836731,0.02342700958251953,0.5657925605773926,0.5106843709945679,1.7466082572937012,-0.202092245221138
45.2,-0.9821239709854126,-0.27265071868896484,0.6466785669326782,0.5225560665130615,1.4687880277633667,-0.017758827656507492
45.25,0.9998630285263062,0.21001148223876953,0.6047572493553162,0.6973140239715576,1.3864667415618896,0.11640538275241852
45.3,0.15230189263820648,1.135817527770996,-0.288671612739563,0.8076722025871277,1.965177059173584,-0.13069108128547668
45.35,-0.47682082653045654,1.4801149368286133,0.9274389147758484,0.7986748218536377,2.5934300422668457,-0.5612414479255676
45.4,-0.8396511077880859,1.0230722427368164,1.4714545011520386,0.7757740020751953,2.64028263092041,-0.5816636085510254
45.45,-0.1018511950969696,1.372258186340332,2.021212577819824,0.47178876399993896,2.347278118133545,-0.2735176980495453
45.5,0.9639564156532288,2.360858917236328,2.681894540786743,-0.43881702423095703,2.051917791366577,-0.1254216730594635
45.55,0.8798138499259949,2.8612680435180664,3.547152519226074,-1.9941997528076172,2.047269582748413,-0.2554686665534973
45.6,-1.6811754703521729,4.312860488891602,4.379443168640137,-3.2703120708465576,1.3994760513305664,-0.15043121576309204
45.65,-2.5904603004455566,4.3694868087768555,2.1630821228027344,-3.398649215698242,-0.17992079257965088,0.6557582020759583
45.7,-3.3214221000671387,2.6900148391723633,-0.40644949674606323,-2.792959213256836,-1.1669378280639648,1.580025553703308
45.75,-4.578797340393066,1.1524267196655273,-1.263731598854065,-2.194056749343872,-1.550177812576294,1.6097773313522339
45.8,-5.457545280456543,0.15927410125732422,0.49020397663116455,-1.766079068183899,-1.9267438650131226,1.6292535066604614
45.85,-5.716851711273193,-1.3547334671020508,-0.6743595600128174,-1.135045051574707,-2.9004080295562744,1.4498860836029053
45.9,-5.635196208953857,-4.061610221862793,-2.0838630199432373,-0.9521245360374451,-3.998260498046875,1.7932491302490234
45.95,-1.7852799892425537,-5.632407188415527,-4.108668804168701,-0.29694798588752747,-5.182454586029053,2.378626823425293
46.0,3.0125434398651123,-3.713815212249756,-1.8015639781951904,0.2051355093717575,-5.392735958099365,2.1021265983581543
46.05,1.4358758926391602,-0.8925743103027344,-4.688079357147217,0.9127817749977112,-4.387394905090332,0.9210160970687866
46.1,6.533318519592285,0.8140687942504883,-0.07637453079223633,-0.24792209267616272,-2.891266107559204,0.3938504755496979
46.15,6.635691165924072,-2.590944766998291,3.7378430366516113,-1.001949429512024,-1.0725034475326538,-0.0140012726187706
46.2,4.273045539855957,-2.224268913269043,-1.3460211753845215,0.3436097502708435,1.0478304624557495,-1.5496859550476074
46.25,1.9435482025146484,-0.3719520568847656,-1.9806058406829834,-0.01244749128818512,1.949351191520691,-1.5388489961624146
46.3,0.8931868076324463,1.223978042602539,-2.5980923175811768,-0.7222257852554321,2.258517026901245,-0.9082536697387695
46.35,0.2731195092201233,2.331188201904297,-3.5383479595184326,-0.8559750914573669,2.6580586433410645,-0.4324378967285156
46.4,0.14233721792697906,2.629868507385254,-3.8165416717529297,-0.3777315616607666,3.119813919067383,-0.27283400297164917
46.45,0.515633225440979,2.2470998764038086,-2.0366148948669434,0.057331837713718414,3.502725839614868,0.07196354866027832
46.5,1.7147375345230103,1.4628238677978516,0.9979801774024963,0.3718080222606659,3.805814266204834,0.7662180662155151
46.55,1.1321524381637573,-1.074819564819336,1.4280073642730713,1.0236622095108032,4.152689456939697,1.3484798669815063
46.6,3.995859384536743,-0.04504966735839844,-1.308227777481079,1.9317011833190918,3.6910240650177,1.3895635604858398
46.65,2.2953288555145264,0.18114566802978516,-3.851815700531006,1.5981477499008179,3.0475618839263916,-0.4573659300804138
46.7,-1.6247031688690186,-2.3590030670166016,0.4786369800567627,0.4690340757369995,2.7973570823669434,-1.8724339008331299
46.75,-0.7729227542877197,-1.8597779273986816,-0.5770715475082397,0.6047487258911133,2.2876877784729004,-1.669884443283081
46.8,-0.5471823811531067,-1.0956354141235352,-1.045166015625,-0.12088267505168915,1.9468250274658203,-1.8450140953063965
46.85,-1.3628958463668823,-1.5838584899902344,-0.3357883393764496,-0.4759746193885803,2.115431547164917,-2.0647647380828857
46.9,-0.7809351682662964,-1.713423728942871,0.2924154996871948,-0.5394904613494873,2.085007667541504,-2.0150699615478516
46.95,-0.27116289734840393,-1.212906837463379,-1.4057724475860596,-0.6925228238105774,1.9474256038665771,-1.8536499738693237
47.0,-1.3708747625350952,1.1575546264648438,0.524897575378418,-0.6810765266418457,1.8932969570159912,-1.9049805402755737
47.05,-0.38678473234176636,0.9182100296020508,1.0413888692855835,-0.20861011743545532,1.4304144382476807,-1.6084494590759277
47.1,-0.17484179139137268,0.5506715774536133,1.1278724670410156,-0.12530966103076935,1.1026544570922852,-1.1917644739151
47.15,-0.14497815072536469,0.3571643829345703,2.2940421104431152,-0.36164286732673645,1.1598844528198242,-1.0851551294326782
47.2,0.48796433210372925,0.530029296875,2.0228488445281982,-0.6445492506027222,1.1378731727600098,-0.9947156310081482
47.25,0.6584967374801636,0.7613515853881836,2.031470775604248,-0.5219994783401489,0.8483424186706543,-0.8103777766227722
47.3,0.4210638105869293,0.07249069213867188,1.5476661920547485,-0.559802234172821,0.5450499057769775,-0.6830694675445557
47.35,-0.016048848628997803,0.23552608489990234,3.9093687534332275,-0.6048819422721863,0.1349620670080185,-0.7883579730987549
47.4,0.3572576642036438,0.8621959686279297,6.1760053634643555,-0.46028047800064087,-0.36279502511024475,-0.983198344707489
47.45,0.02518826723098755,1.7505130767822266,6.348648548126221,-0.1384773552417755,-1.7465333938598633,-1.5127975940704346
47.5,-1.0458431243896484,3.729905128479004,7.727975845336914,-0.14394500851631165,-3.408548593521118,-1.7321292161941528
47.55,-6.186249256134033,6.431653022766113,8.611908912658691,0.13145461678504944,-5.9473137855529785,-1.133482575416565
47.6,-8.956283569335938,7.265931129455566,-1.5238521099090576,0.035314615815877914,-9.324775695800781,0.6814212799072266
47.65,3.5541176795959473,4.554587364196777,-10.402973175048828,-0.5909057855606079,-10.971328735351562,2.682394027709961
47.7,9.029090881347656,1.143463134765625,-0.9219303131103516,-2.0047755241394043,-9.593304634094238,4.8643479347229
47.75,3.1882951259613037,3.504145622253418,0.048966050148010254,-2.8606927394866943,-1.9781718254089355,0.9547276496887207
47.8,1.3299657106399536,-2.0697546005249023,-5.017245769500732,-3.7173867225646973,1.0788514614105225,-3.257114887237549
47.85,-3.843912124633789,-1.615788459777832,-5.315101146697998,-3.1120760440826416,1.1019901037216187,-5.339248180389404
47.9,-1.4990568161010742,-1.377882957458496,-7.749312877655029,-3.551403045654297,-1.268139123916626,-2.4269766807556152
47.95,3.9572463035583496,-4.7956156730651855,-5.5906548500061035,-4.538629055023193,-1.867126226425171,0.821839451789856
48.0,6.400599479675293,-3.5594749450683594,0.18564507365226746,-4.051300525665283,-0.4614320993423462,0.9913560152053833
48.05,3.2718770503997803,-1.5980730056762695,-0.1923004388809204,-1.948873519897461,0.09702633321285248,-1.5378975868225098
48.1,-0.10148495435714722,-2.4028282165527344,0.5273742079734802,-0.8059901595115662,-0.99824059009552,-2.990121841430664
48.15,-0.1336318701505661,-1.728109359741211,0.6698775291442871,-0.573628842830658,-1.640115737915039,-2.7845537662506104
48.2,0.14139483869075775,-0.6846895217895508,1.3001627922058105,-0.4094158411026001,-1.6138559579849243,-1.9724347591400146
48.25,-0.45795661211013794,-0.04917430877685547,1.7846159934997559,-0.044432133436203,-1.558206558227539,-1.323210597038269
48.3,-0.2734428644180298,-0.4280099868774414,1.6023727655410767,0.4544762969017029,-1.6969221830368042,-0.8136551380157471
48.35,-0.1701882779598236,-1.2601957321166992,1.213309407234192,0.6292639374732971,-1.5223345756530762,0.10144690424203873
48.4,0.36918309330940247,-1.6995363235473633,0.9191539287567139,0.8589174151420593,-1.3846503496170044,0.8728471994400024
48.45,0.7273372411727905,-1.730586051940918,1.1731761693954468,0.9747571349143982,-1.157248854637146,1.6535011529922485
