Time [s],Acc_x [m/s^2],Acc_y [m/s^2],Acc_z [m/s^2],Gyro_x [1/s],Gyro_y [1/s],Gyro_z [1/s]
0.0,-0.004606769885867834,0.14565087854862213,-0.0040873391553759575,-0.007914339192211628,-0.026328159496188164,0.00894373469054699
0.05,-0.008671575225889683,0.1456451565027237,-0.007805197034031153,-0.007914748974144459,-0.026328062638640404,0.008943651802837849
0.1,-0.014200540259480476,0.14493657648563385,-0.010577569715678692,-0.007915480062365532,-0.026327941566705704,0.008943373337388039
0.15,-0.05155730992555618,0.1295471340417862,0.015207160264253616,-0.0012947004288434982,-0.024987906217575073,0.013985302299261093
0.2,-0.04774118587374687,0.13812924921512604,0.11112456023693085,-0.003673013998195529,-0.012515069916844368,0.008575347252190113
0.25,-0.07583620399236679,0.052291881293058395,0.03952784836292267,-0.018359635025262833,0.003338684793561697,-0.002378298668190837
0.3,0.02342165820300579,0.131441131234169,0.07717232406139374,-0.008047870360314846,-0.0012853346997871995,-0.0015376844676211476
0.35,-0.012805541977286339,0.1200876384973526,0.049259986728429794,0.0015835701487958431,0.0011002353858202696,0.006549440324306488
0.4,-0.05603266507387161,0.09920598566532135,0.0011020120000466704,0.0016950201243162155,0.0038520502857863903,0.003095286665484309
0.45,-0.01465240865945816,0.11609842628240585,0.07452838867902756,0.012088650837540627,-0.001981370849534869,-0.0007425114745274186
0.5,-0.0014383159577846527,0.1640796810388565,0.08075287938117981,0.015485094860196114,-0.004368126392364502,-0.002602315740659833
0.55,-0.02178032323718071,0.13741017878055573,0.07236017286777496,-0.002911242423579097,0.012304294854402542,-0.002127803862094879
0.6,-0.029450898990035057,0.08241654187440872,0.05677296221256256,-0.013627390377223492,0.023101482540369034,-0.003293827176094055
0.65,-0.04945163428783417,0.12760354578495026,0.03826979175209999,-0.004239724483340979,0.016557835042476654,0.00257246196269989
0.7,-0.0567450113594532,0.12504960596561432,0.05880265310406685,0.009490870870649815,0.0011913543567061424,0.005948334001004696
0.75,-0.04924842342734337,0.1335916668176651,0.060224320739507675,0.002507288008928299,0.011557384394109249,-0.0006712804897688329
0.8,-0.0857534408569336,0.12353327125310898,0.05153805762529373,-0.008929284289479256,0.018867479637265205,0.0002740041527431458
0.85,0.030004624277353287,0.11321546137332916,0.08708777278661728,0.010913393460214138,0.0020064404234290123,-0.0073304492980241776
0.9,0.0108272023499012,0.1866903454065323,0.05227527394890785,0.009176500141620636,-0.00010073104203911498,0.015425950288772583
0.95,-0.06426029652357101,0.18470479547977448,0.0582846961915493,0.007952069863677025,-0.0075989230535924435,0.008451772853732109
1.0,-0.06132107600569725,0.15908433496952057,0.08537629246711731,0.0012480393052101135,0.003989255987107754,-0.00817324873059988
1.05,-0.057073451578617096,0.08879376202821732,0.017156269401311874,0.0010055996244773269,-0.00892191007733345,0.002853796351701021
1.1,-0.029179301112890244,0.13030816614627838,-0.009698659181594849,0.00981637742370367,-0.004331338685005903,-0.012454796582460403
1.15,-0.03299452364444733,0.031051641330122948,0.00037831254303455353,-0.010593816637992859,0.008551675826311111,-5.5038792197592556e-05
1.2,0.016298498958349228,0.11590863764286041,0.03306324779987335,0.012760340236127377,-0.0072638122364878654,-0.008089503273367882
1.25,-0.024109195917844772,0.10233594477176666,0.005594554822891951,0.008352911099791527,0.0027313856407999992,0.0004926854162476957
1.3,0.05489780008792877,0.13516904413700104,0.03808538615703583,0.012700689025223255,0.0012633540900424123,0.0003449121431913227
1.35,0.1196606308221817,0.155670166015625,-0.14617620408535004,-0.02865823544561863,0.04095816612243652,0.023080602288246155
1.4,0.1110677719116211,-0.10059455037117004,-0.2055669128894806,-0.2144194096326828,0.14380353689193726,0.13159577548503876
1.45,0.04101032018661499,-0.24451547861099243,-0.4579216241836548,-0.131271094083786,0.2635534107685089,0.17188449203968048
1.5,-0.10019084066152573,-0.06325626373291016,0.1358211636543274,0.020709887146949768,0.2673860490322113,0.21087118983268738
1.55,-0.12084035575389862,0.4862547814846039,0.35289180278778076,-0.0059597790241241455,-0.026098990812897682,0.36021050810813904
1.6,-0.2095664143562317,0.27776628732681274,0.34898442029953003,-0.1175292432308197,0.037778619676828384,0.40148597955703735
1.65,-0.21651211380958557,0.44590768218040466,0.43945375084877014,-0.31574171781539917,0.28960224986076355,0.22493116557598114
1.7,-0.5052759647369385,-0.10689066350460052,0.2553778290748596,-0.35764622688293457,0.23331905901432037,0.15009666979312897
1.75,-0.17219099402427673,0.16843321919441223,0.2365715354681015,-0.1902332901954651,-0.03129034489393234,-0.021654749289155006
1.8,-0.2900802195072174,0.02585887350142002,-0.4567396640777588,-0.02184133417904377,-0.10692080855369568,-0.07648066431283951
1.85,0.18478386104106903,4.386129148770124e-05,-0.014556393027305603,-0.010079007595777512,-0.1399853527545929,-0.042199961841106415
1.9,0.13824200630187988,-0.3780575692653656,-0.34398284554481506,0.09215449541807175,-0.13101008534431458,-0.02392423152923584
1.95,0.17184580862522125,0.0032653887756168842,0.3054501414299011,0.3125583231449127,-0.2538728415966034,-0.15487772226333618
2.0,0.30615049600601196,0.15938282012939453,-0.09949839860200882,0.4261547029018402,-0.2957676649093628,-0.28393206000328064
2.05,-0.2750529646873474,0.4220963716506958,0.876478374004364,0.38882920145988464,-0.041136130690574646,-0.528717041015625
2.1,-0.21388103067874908,0.2680826783180237,0.22216376662254333,0.5119480490684509,-0.024929985404014587,-0.612629234790802
2.15,1.011025309562683,0.5104370713233948,0.9733796119689941,0.47712093591690063,-0.6217427253723145,-0.4733506739139557
2.2,1.5798792839050293,0.3135652542114258,0.3562529981136322,0.23192545771598816,-0.8916013240814209,-0.20704732835292816
2.25,1.1572643518447876,0.0709056481719017,-0.019775208085775375,0.1611005961894989,-0.8258707523345947,-0.009974067099392414
2.3,0.9468326568603516,-0.19340617954730988,-0.1824074238538742,0.20043517649173737,-0.958197295665741,0.26526206731796265
2.35,0.28608301281929016,0.4140339493751526,-0.046934086829423904,0.3659258484840393,-0.9784131050109863,0.5142421722412109
2.4,-0.07740049809217453,0.372191458940506,0.24913819134235382,0.5160342454910278,-0.9555094838142395,0.7543706297874451
2.45,-1.2287931442260742,1.058595895767212,1.709303617477417,0.495769202709198,-0.5739577412605286,0.8610714077949524
2.5,-1.8470783233642578,1.301173448562622,0.9549068808555603,-0.18548622727394104,-0.10627725720405579,0.8064017295837402
2.55,-2.4274604320526123,1.8280137777328491,0.0022903578355908394,-1.095127820968628,0.8389960527420044,0.2811333239078522
2.6,-1.8697651624679565,1.0748082399368286,-1.2680860757827759,-1.966345191001892,1.3635897636413574,-0.5131182074546814
2.65,-1.0724101066589355,0.785276472568512,-2.0562219619750977,-2.289656639099121,1.2655056715011597,-1.3231343030929565
2.7,-0.08450067043304443,-0.2707034945487976,-3.223390579223633,-2.3326799869537354,0.5258405208587646,-1.268135666847229
2.75,0.9906333684921265,-1.3715404272079468,-4.1278886795043945,-2.2883784770965576,-0.03529622033238411,-0.8990317583084106
2.8,1.3438684940338135,-2.8147807121276855,-4.3134541511535645,-1.8896764516830444,-0.030880765989422798,-0.5658189058303833
2.85,0.6629946231842041,-2.2191319465637207,-3.7425878047943115,-0.9592071175575256,0.11285756528377533,-0.09212218970060349
2.9,1.101650595664978,-1.082764983177185,-3.7073557376861572,-0.07432584464550018,0.10672163963317871,0.4397120475769043
2.95,0.770835280418396,-1.6366028785705566,-3.4334592819213867,0.30312520265579224,0.7637196779251099,0.5389097332954407
3.0,-0.20845544338226318,-1.397202730178833,-2.439398765563965,0.7429381012916565,1.6103718280792236,-0.08526089042425156
3.05,-0.3657136857509613,0.28014659881591797,-0.9914596080780029,1.7170121669769287,1.184472680091858,-0.17116300761699677
3.1,0.3593633472919464,1.7906973361968994,0.45168161392211914,2.8525233268737793,-0.36885273456573486,0.21446584165096283
3.15,1.328284740447998,2.863784074783325,2.3559927940368652,3.6744537353515625,-1.6957019567489624,0.16680432856082916
3.2,1.4819749593734741,2.598942279815674,4.909157752990723,3.7234630584716797,-1.5803241729736328,-0.04416677728295326
3.25,1.1982357501983643,1.7746062278747559,5.362892150878906,2.793457508087158,-0.15399345755577087,0.19275306165218353
3.3,0.38506531715393066,0.746624231338501,4.867254734039307,1.4450470209121704,1.4417001008987427,0.35588350892066956
3.35,0.22080373764038086,0.105268694460392,4.64732551574707,0.16144248843193054,2.095268964767456,0.2530004680156708
3.4,-0.10614585876464844,-0.874679446220398,4.677462577819824,-0.26569727063179016,1.6834626197814941,0.34270963072776794
3.45,-0.18780970573425293,-1.2546013593673706,4.939125061035156,0.08711807429790497,0.46173781156539917,0.3770591914653778
3.5,-0.4078867435455322,-0.7872284650802612,4.646126747131348,0.184706449508667,-0.4761149287223816,0.3096921741962433
3.55,-0.8791201114654541,-0.5201099514961243,4.119546413421631,-0.4163826107978821,-0.6474300622940063,0.2752329707145691
3.6,-1.5941734313964844,0.397629052400589,3.0931968688964844,-1.3904222249984741,-0.8179320096969604,0.010095488280057907
3.65,-1.850525140762329,1.0822985172271729,0.5769031047821045,-2.3228793144226074,-1.4331657886505127,-0.15150687098503113
3.7,-1.2089171409606934,1.6857634782791138,-2.6259045600891113,-2.994072437286377,-1.8037601709365845,-0.29944491386413574
3.75,0.3556535243988037,1.3624085187911987,-5.336464881896973,-3.165614366531372,-1.7019046545028687,-0.6929997205734253
3.8,1.8548916578292847,0.17410148680210114,-6.216103553771973,-2.5036518573760986,-1.1499735116958618,-1.0878933668136597
3.85,1.7483223676681519,-1.172736644744873,-5.530369758605957,-1.4129739999771118,-0.23651692271232605,-1.0436055660247803
3.9,1.4382017850875854,-3.170105218887329,-3.4936070442199707,-0.5228043794631958,0.24576817452907562,-0.74516361951828
3.95,1.6885676383972168,-3.798917531967163,-2.173901081085205,0.3069491982460022,0.11437097936868668,-0.5311645269393921
4.0,2.563278913497925,-2.672314167022705,-1.7015082836151123,1.0789461135864258,-0.2112577259540558,-0.1592203825712204
4.05,2.5714457035064697,-0.8237136006355286,-1.9833035469055176,1.6365869045257568,-0.14492395520210266,0.40676581859588623
4.1,2.104609727859497,2.6632089614868164,-1.1219795942306519,2.2525668144226074,0.13375221192836761,1.1370664834976196
4.15,-1.3197214603424072,3.7159132957458496,0.6063547134399414,2.281085968017578,1.0806299448013306,2.070629835128784
4.2,-3.4916625022888184,2.134549617767334,3.5429632663726807,2.208972454071045,1.6794787645339966,2.113454818725586
4.25,-3.567984104156494,0.8704056739807129,5.092010498046875,2.0374233722686768,1.7565884590148926,1.0686445236206055
4.3,-2.19476056098938,0.5607761144638062,5.127201557159424,0.9361358284950256,1.6960548162460327,-0.02348386123776436
4.35,-1.3935638666152954,0.7482331395149231,4.118935585021973,-0.43500030040740967,1.595772385597229,-0.12860271334648132
4.4,-1.8021388053894043,-0.27241307497024536,2.915593385696411,-0.7106958031654358,1.27450692653656,0.2665161192417145
4.45,-1.9953535795211792,-0.689172625541687,2.8845388889312744,-0.6405142545700073,0.9850696325302124,0.32310107350349426
4.5,-2.262580156326294,-0.3650978207588196,2.950502872467041,-0.46606695652008057,0.368207722902298,0.23516510426998138
4.55,-2.42608642578125,-0.31861191987991333,2.292501211166382,-0.5344781875610352,-0.5927181243896484,0.3701159656047821
4.6,-2.3453524112701416,-0.3816183805465698,1.7481476068496704,-0.8262848854064941,-1.038777232170105,0.40528151392936707
4.65,-2.6185853481292725,0.5618488192558289,0.8434285521507263,-1.090296983718872,-1.3038256168365479,0.24645550549030304
4.7,-3.1646504402160645,2.062535524368286,-0.42848634719848633,-1.2981408834457397,-1.6221814155578613,0.1419377624988556
4.75,-3.9983315467834473,0.8973380923271179,-2.403811454772949,-1.3934242725372314,-1.7567863464355469,-0.24563728272914886
4.8,-3.3796467781066895,1.3677254915237427,-2.2898287773132324,-0.916586697101593,-2.2395424842834473,-1.045356273651123
4.85,-0.6367588043212891,2.4947597980499268,-2.7339928150177,-0.4769923686981201,-3.881035089492798,-1.4210368394851685
4.9,2.3782365322113037,1.9723711013793945,-3.1377739906311035,-0.8610590696334839,-5.24745512008667,-1.1940312385559082
4.95,4.725229740142822,0.5812690258026123,-2.4269051551818848,-1.317756175994873,-5.066769123077393,-0.9725891947746277
5.0,5.745792388916016,-0.22779113054275513,-1.2183775901794434,-0.69720858335495,-3.9623918533325195,-0.9794235825538635
5.05,6.1389570236206055,-1.2867244482040405,-0.02473028190433979,0.14967814087867737,-2.7643988132476807,-1.0488622188568115
5.1,6.0980119705200195,-2.533536434173584,1.6081279516220093,0.6767109632492065,-1.9784296751022339,-1.0505976676940918
5.15,5.795412063598633,-3.8445119857788086,3.0472021102905273,0.6028912663459778,-1.104077935218811,-0.7663667798042297
5.2,6.2649383544921875,-4.009652137756348,4.2025146484375,0.728813886642456,-0.4343027174472809,0.456677109003067
5.25,6.632798194885254,-1.2987204790115356,5.169213771820068,0.8235147595405579,0.625487744808197,2.0111236572265625
5.3,6.882916450500488,0.9323883056640625,2.8282217979431152,0.5189279317855835,2.280906915664673,2.751633882522583
5.35,5.188042640686035,1.9038076400756836,-0.9148248434066772,-0.2570197582244873,3.691673517227173,2.669297933578491
5.4,1.6524834632873535,3.5272133350372314,-3.417985677719116,-0.3319697380065918,4.207964897155762,2.8374335765838623
5.45,-1.7939300537109375,2.827768564224243,-3.1447837352752686,-0.29418766498565674,4.108598709106445,2.941739320755005
5.5,-4.169953346252441,1.723828673362732,-1.590429425239563,-0.3591786026954651,4.3003621101379395,2.430495262145996
5.55,-4.8166117668151855,-0.9373874664306641,-0.778653085231781,-0.7048079967498779,4.2824530601501465,1.6740227937698364
5.6,-4.370145797729492,-1.7762861251831055,1.083204746246338,-1.0214674472808838,4.175394058227539,0.6273154616355896
5.65,-3.2434730529785156,-2.0733461380004883,2.292695999145508,-0.9381319880485535,3.5679378509521484,-0.17808517813682556
5.7,-1.0489662885665894,-0.6047838926315308,2.5733230113983154,-0.8923284411430359,2.3021440505981445,-0.6334303617477417
5.75,-0.6622152328491211,-0.15652745962142944,1.169424295425415,-0.951526403427124,0.9273697733879089,-0.2318969964981079
5.8,-0.34558287262916565,1.2727080583572388,0.04431718587875366,-0.5005402565002441,-0.005055482033640146,-0.29222315549850464
5.85,-0.7809405326843262,2.239516496658325,-0.6318826675415039,-0.35129794478416443,-0.35787340998649597,-0.27589699625968933
5.9,-0.8189643025398254,1.6745407581329346,-1.1212347745895386,-0.5628088116645813,-0.11562050133943558,-0.2757266163825989
5.95,-1.0552150011062622,-0.2952556908130646,-1.0133885145187378,-0.7122036218643188,0.8981914520263672,-0.24963344633579254
6.0,-1.0495234727859497,-0.8567343354225159,-0.20494376122951508,-0.14784091711044312,1.5820245742797852,-0.4125208556652069
6.05,-0.8591336607933044,-0.8934803605079651,0.7161124348640442,0.22927412390708923,1.7078766822814941,-0.30660244822502136
6.1,-1.2930622100830078,-0.5145444273948669,2.0289533138275146,0.5205799341201782,1.7692389488220215,-0.06057240068912506
6.15,-2.345931053161621,-0.38166120648384094,3.6609153747558594,0.6825478076934814,1.8346718549728394,0.40436822175979614
6.2,-2.362733840942383,-0.3921048939228058,4.038631916046143,0.3340645432472229,1.6556168794631958,0.6848331689834595
6.25,-2.5592968463897705,-0.5204026699066162,4.103067398071289,-0.7796807289123535,2.0711300373077393,0.5544270873069763
6.3,-1.6211187839508057,0.8276113271713257,4.447836875915527,-1.7694635391235352,1.6334658861160278,-0.12291797250509262
6.35,-1.7034153938293457,1.5159192085266113,3.72670841217041,-1.5765084028244019,-0.4706988036632538,-0.4520651400089264
6.4,-2.0991244316101074,2.0601792335510254,2.514951705932617,-0.8306314945220947,-3.252129077911377,-0.6564809679985046
6.45,-2.057694673538208,2.7370798587799072,-0.31616392731666565,-0.6733280420303345,-5.702759265899658,-0.631245493888855
6.5,0.3705906867980957,2.7947168350219727,-2.9663493633270264,-1.2638695240020752,-6.778923034667969,-0.6421529054641724
6.55,3.938642978668213,0.5016925930976868,-2.532135009765625,-1.7880215644836426,-6.250860214233398,-0.9394870400428772
6.6,6.258697986602783,-2.3384876251220703,-0.8731061220169067,-1.5034691095352173,-4.53349494934082,-1.1280033588409424
6.65,6.630826950073242,-3.842684507369995,1.850830078125,-0.7534492611885071,-2.203385829925537,-0.5104804039001465
6.7,6.245632171630859,-3.3499791622161865,1.9119410514831543,-0.23982471227645874,-1.1447709798812866,0.6656655073165894
6.75,6.206676006317139,-0.7297071218490601,-1.104814052581787,-0.014039278030395508,-0.43812882900238037,1.739371418952942
6.8,2.7389276027679443,2.7195186614990234,-1.7689710855484009,0.906658411026001,0.11740820854902267,2.876697540283203
6.85,0.9754608869552612,4.462711811065674,-0.7037267684936523,2.001279354095459,-0.22970539331436157,3.5798983573913574
6.9,0.3349651098251343,5.5607829093933105,-0.17897140979766846,2.178281307220459,-0.2636677622795105,3.5377049446105957
6.95,-0.5984806418418884,2.767202615737915,-1.7986739873886108,0.2989540100097656,1.3575936555862427,2.937229633331299
7.0,-2.0786972045898438,-0.914169430732727,-2.2187111377716064,-1.5186939239501953,3.069167375564575,1.4785420894622803
7.05,-0.7942460179328918,-0.7928945422172546,-1.4919583797454834,-1.6363486051559448,2.5200111865997314,0.1619432270526886
7.1,-1.6161967515945435,-1.023427128791809,-1.5019243955612183,-1.6281378269195557,2.2662572860717773,-0.19222401082515717
7.15,-3.3379833698272705,-2.1497890949249268,-0.643735408782959,-2.1214962005615234,2.3067896366119385,-0.42546358704566956
7.2,-2.126917839050293,-2.117398500442505,0.20258766412734985,-1.6577463150024414,1.3181556463241577,-0.24377988278865814
7.25,-2.0620005130767822,-1.8957902193069458,0.9237450361251831,-1.1631606817245483,0.9254150390625,-0.5195078253746033
7.3,-1.6991416215896606,-0.4322460889816284,2.1943817138671875,-0.9499062299728394,0.8957436680793762,-1.5029278993606567
7.35,-0.500606894493103,2.2104973793029785,3.3415133953094482,-0.5582254528999329,-0.4136171340942383,-1.621333122253418
7.4,-0.24854612350463867,2.4057199954986572,1.775337815284729,-1.717759132385254,-1.9716391563415527,-0.1951940655708313
7.45,-0.9705943465232849,1.8282750844955444,1.119431495666504,-2.9639344215393066,-1.9007760286331177,0.7216475009918213
7.5,0.8166288137435913,0.8522521257400513,0.5416831374168396,-3.2284369468688965,-1.943860411643982,0.39702725410461426
7.55,0.9237622022628784,-0.5266181230545044,-0.7285043597221375,-3.1993844509124756,-1.2537941932678223,-0.7929194569587708
7.6,-1.8890209197998047,-4.32792329788208,0.4128442704677582,-3.4573535919189453,0.5929815173149109,-2.8773226737976074
7.65,-3.5176923274993896,-3.86017107963562,-0.060846440494060516,-2.017270565032959,0.057334642857313156,-4.830348968505859
7.7,-4.130555152893066,-2.00311017036438,-4.4972615242004395,0.030353784561157227,-1.4099363088607788,-4.127208709716797
7.75,-2.384549140930176,3.6061737537384033,-8.591629981994629,1.828906774520874,-2.6190505027770996,-2.292149066925049
7.8,-0.6002225875854492,4.493029594421387,-9.881946563720703,1.192548155784607,-4.219205379486084,1.270300030708313
7.85,1.9126715660095215,1.0665823221206665,-7.937344551086426,-0.929842472076416,-5.428160667419434,1.7468091249465942
7.9,5.286587238311768,1.0119444131851196,-5.446935176849365,-0.6595793962478638,-6.185198783874512,0.13815857470035553
7.95,6.970254898071289,5.303214073181152,-0.49288812279701233,0.04815901070833206,-6.339040279388428,-0.27602216601371765
8.0,8.884349822998047,7.840570449829102,4.750916957855225,-1.2790610790252686,-5.428800106048584,-1.7434043884277344
8.05,8.88094425201416,5.470170497894287,5.243446350097656,-3.000767707824707,-2.4594085216522217,-4.854503154754639
8.1,6.122851848602295,0.06955334544181824,4.309261798858643,-3.7293179035186768,-0.14055103063583374,-6.576774597167969
8.15,3.065746307373047,-2.8634989261627197,2.832686424255371,-2.386458396911621,0.5018630623817444,-6.615698337554932
8.2,0.4440420866012573,-3.476376533508301,0.19104072451591492,-1.4025413990020752,0.5283483266830444,-5.728419303894043
8.25,0.1099274754524231,-3.3816962242126465,-1.6485962867736816,-0.949371337890625,0.06694943457841873,-4.762555122375488
8.3,1.3849300146102905,-2.8170723915100098,-2.6368167400360107,-1.2894822359085083,-0.33217403292655945,-3.8034396171569824
8.35,2.498452663421631,-3.8862898349761963,-2.666560411453247,-1.9479862451553345,-0.6174454689025879,-3.6262106895446777
8.4,1.5527760982513428,-4.296762943267822,-1.5777249336242676,-2.1720454692840576,-0.5440974831581116,-3.9484777450561523
8.45,0.2275068461894989,-2.6451966762542725,-0.2887219786643982,-1.7486515045166016,-0.6110557913780212,-3.878828763961792
8.5,-0.4391357898712158,-0.4459562599658966,0.17023374140262604,-1.1456047296524048,-1.1201189756393433,-3.142042398452759
8.55,-0.42941516637802124,0.5077239871025085,2.1564645767211914,-0.7085510492324829,-1.2167556285858154,-2.2368171215057373
8.6,0.04889416694641113,0.08731947839260101,2.0854122638702393,-0.1711355447769165,-1.8364366292953491,-1.8178871870040894
8.65,-0.3592722415924072,-0.2921113669872284,1.0104849338531494,0.11469680070877075,-2.3972175121307373,-1.893333911895752
8.7,-0.34325742721557617,-0.38373568654060364,0.2417525351047516,0.14868026971817017,-2.595130681991577,-1.8594011068344116
8.75,-0.6315065026283264,0.055070966482162476,1.2857208251953125,0.1809806227684021,-2.3142640590667725,-1.7750786542892456
8.8,-0.30194544792175293,0.3316527307033539,1.1622028350830078,-0.018345117568969727,-2.454461097717285,-1.538845419883728
8.85,-1.493781328201294,-1.7790414094924927,0.6058096885681152,-0.6296573877334595,-2.206002950668335,-1.1580711603164673
8.9,-0.8853099942207336,-0.5915451049804688,0.08142005652189255,-0.14247697591781616,-2.0552713871002197,-1.1879132986068726
8.95,-1.3003418445587158,-0.7451152801513672,-0.04646836221218109,-0.24588757753372192,-1.264297604560852,-0.8244355320930481
9.0,-1.7307689189910889,-0.654237687587738,1.0990475416183472,-0.07155820727348328,-1.2139408588409424,-0.6567272543907166
9.05,-0.3674018085002899,-0.9485808610916138,-0.060019563883543015,-0.007898472249507904,-1.674426794052124,-0.24180780351161957
9.1,-1.1288270950317383,-0.08940786868333817,0.3097876012325287,0.1825494021177292,-0.862482488155365,0.12594275176525116
9.15,-2.4140474796295166,-0.7420072555541992,-0.9436103105545044,0.2202286422252655,-0.37587517499923706,0.9215924739837646
9.2,-2.85237455368042,-1.0545293092727661,-1.512921690940857,-0.08276480436325073,-0.6648879051208496,1.732485055923462
9.25,-2.636613607406616,-1.442587971687317,-1.4687625169754028,-0.1545342206954956,-0.7645710110664368,2.578402519226074
9.3,-1.576481819152832,-3.115447521209717,-3.2022788524627686,-1.086158275604248,-1.704085350036621,3.882185935974121
9.35,0.1135934591293335,-4.043557643890381,-4.013364315032959,-1.903138518333435,-1.536838173866272,4.529092788696289
9.4,0.3921668529510498,-4.273882865905762,-3.822594404220581,-2.70365047454834,-0.5541428923606873,4.629042625427246
9.45,0.7800246477127075,-3.347996473312378,-2.3046936988830566,-4.354980945587158,0.25316599011421204,4.228417873382568
9.5,0.798235297203064,-4.432092666625977,1.9267797470092773,-6.351121425628662,0.899787187576294,3.1317238807678223
9.55,0.7453310489654541,-2.9204301834106445,6.241904258728027,-7.0955810546875,1.1684260368347168,2.809357166290283
9.6,2.0502729415893555,0.1970197707414627,5.252724647521973,-5.910345077514648,1.6748851537704468,3.3441214561462402
9.65,0.5788829326629639,0.3010285198688507,5.603046417236328,-5.361963748931885,1.9292899370193481,2.226787567138672
9.7,2.582124710083008,1.989834189414978,3.840028762817383,-3.838233470916748,1.337220311164856,2.6742947101593018
9.75,1.4132931232452393,3.8887553215026855,3.4316532611846924,-3.8453989028930664,1.1902111768722534,1.4804673194885254
9.8,0.7770727276802063,4.295168399810791,0.8668662905693054,-3.140514373779297,1.116119146347046,1.550228238105774
9.85,0.3302138149738312,2.4665729999542236,0.8273729085922241,-2.752030849456787,1.660857081413269,1.2383002042770386
9.9,0.05835455656051636,2.3605282306671143,0.8383369445800781,-2.480081796646118,1.9934086799621582,1.5663832426071167
9.95,0.8505854606628418,2.965533494949341,-0.4808790683746338,-2.0129125118255615,2.53108549118042,1.7440592050552368
10.0,0.47421780228614807,2.4316608905792236,-0.76667320728302,-1.5836783647537231,2.1607158184051514,1.1540731191635132
10.05,0.30635690689086914,1.502941370010376,0.12356451898813248,-1.319097876548767,1.5921707153320312,0.5789991617202759
10.1,0.5789281725883484,1.328909993171692,-0.605606198310852,-1.214426875114441,1.6142603158950806,0.5881936550140381
10.15,1.1102653741836548,0.9960412979125977,-1.2896192073822021,-1.150567889213562,1.572381854057312,0.45086216926574707
10.2,0.8569933176040649,0.6819028258323669,-1.8038439750671387,-0.9924700260162354,1.3722758293151855,0.4343307316303253
10.25,0.3875836133956909,1.2680978775024414,-1.5560415983200073,-1.0988072156906128,1.1553443670272827,0.4549137353897095
10.3,0.324074923992157,1.3674917221069336,-1.3495930433273315,-0.9207306504249573,1.2379213571548462,-0.03395138680934906
10.35,-0.02675926685333252,0.5317201018333435,-2.0732061862945557,-0.7702917456626892,1.143460988998413,-0.471194863319397
10.4,-0.23325908184051514,-0.12369261682033539,-2.1508963108062744,-0.9208927154541016,0.46326330304145813,-0.08312976360321045
10.45,-0.3982697129249573,-0.48614418506622314,-1.9302024841308594,-0.9115445613861084,-0.011016998440027237,0.47399792075157166
10.5,-0.5827810764312744,-0.7443372011184692,-2.3916168212890625,-0.6190904378890991,-0.04806296154856682,0.6983414888381958
10.55,-0.7855978012084961,-1.0790836811065674,-2.07612681388855,-0.5400984287261963,-0.3279806077480316,0.7810736298561096
10.6,-1.155786395072937,-1.4286013841629028,-0.8680564165115356,-0.4023365378379822,-0.3837581276893616,0.8076727986335754
10.65,-2.711186408996582,-1.8884084224700928,-1.2344039678573608,-0.16065683960914612,0.26675182580947876,0.4992503821849823
10.7,-2.2947256565093994,-2.099693536758423,-2.5293128490448,0.1821996569633484,0.792773425579071,0.23599591851234436
10.75,-0.30521154403686523,-0.6598989367485046,-2.8168725967407227,1.1261799335479736,0.9138511419296265,0.37114205956459045
10.8,1.1531528234481812,1.7645273208618164,-3.0630927085876465,1.8612174987792969,1.0258104801177979,0.23621010780334473
10.85,1.583999752998352,2.516818046569824,-2.3572542667388916,1.6187565326690674,0.6075536012649536,-0.4977833330631256
10.9,1.5791869163513184,0.6861180663108826,-1.4061843156814575,1.043752670288086,0.04679206386208534,-1.0502046346664429
10.95,1.9433465003967285,0.27069175243377686,-1.3230375051498413,1.0307998657226562,0.024233927950263023,-0.7120762467384338
11.0,2.31880784034729,0.4844140410423279,-0.9179813861846924,1.2794408798217773,0.04571586102247238,-0.4680277407169342
11.05,1.4664101600646973,-0.35351189970970154,-0.25805094838142395,1.5939836502075195,-0.15157531201839447,-0.5158133506774902
11.1,0.6127651333808899,-0.4750099778175354,0.6944377422332764,1.8602569103240967,-0.35548296570777893,-0.3773825466632843
11.15,0.9566301703453064,1.4150906801223755,1.152913212776184,2.1312384605407715,-0.11992782354354858,-0.45558667182922363
11.2,1.2182998657226562,2.826892137527466,1.2374743223190308,2.236766815185547,0.1561271697282791,-0.8038707375526428
11.25,-0.015394747257232666,3.351233959197998,1.15724515914917,2.2467851638793945,-0.12322135269641876,-0.7365121245384216
11.3,-1.648409366607666,4.178308963775635,2.2669289112091064,2.436720132827759,-0.7601524591445923,-0.41236966848373413
11.35,-2.836904525756836,5.814697265625,4.484536647796631,2.871124267578125,-1.2563183307647705,-0.19419188797473907
11.4,-1.8994140625,4.681064605712891,6.519115924835205,2.638535976409912,-1.7990745306015015,-0.9824054837226868
11.45,-1.026014804840088,1.6849933862686157,6.933538436889648,1.8777596950531006,-1.9164296388626099,-2.1051828861236572
11.5,-1.011631965637207,-0.7141807079315186,5.948164463043213,1.3510628938674927,-1.4055402278900146,-2.723468542098999
11.55,-1.2759329080581665,-2.575559616088867,4.309701442718506,1.1119577884674072,-0.3244995176792145,-2.3709557056427
11.6,-0.7923452258110046,-1.7586098909378052,2.817621946334839,1.2625662088394165,0.3243005573749542,-1.3799389600753784
11.65,-0.8421584963798523,-2.114058494567871,2.101177215576172,0.8660361170768738,0.6583854556083679,-1.438342571258545
11.7,-1.096617579460144,-2.196711778640747,1.5560686588287354,0.5932322144508362,0.9052619934082031,-1.4419034719467163
11.75,-1.0044203996658325,-2.27795147895813,0.8872209191322327,0.34780409932136536,1.2608815431594849,-1.2910182476043701
11.8,-0.9521709680557251,-2.6529009342193604,0.4518182575702667,0.10420364141464233,1.5904433727264404,-1.1705552339553833
11.85,-1.905219316482544,-3.9840707778930664,-0.2022266387939453,0.18621984124183655,1.8629190921783447,-1.0451830625534058
11.9,-1.9798922538757324,-4.145504474639893,-0.18304188549518585,0.1908186674118042,1.8586320877075195,-0.38504481315612793
11.95,-1.86467707157135,-4.352615833282471,1.025252103805542,-0.34346804022789,1.8901658058166504,0.2839728593826294
12.0,-1.8978832960128784,-5.204883098602295,2.560819149017334,-0.3298146724700928,2.1346232891082764,0.7369297742843628
12.05,0.4151797294616699,-5.282320976257324,4.9424147605896,-0.6768503189086914,2.7748568058013916,1.5063798427581787
12.1,5.633047103881836,-3.6259407997131348,5.949580669403076,-0.8193018436431885,3.5343782901763916,2.186117649078369
12.15,9.026556015014648,-2.5503344535827637,1.882362723350525,-0.9535553455352783,4.57377290725708,1.8204810619354248
12.2,13.259105682373047,2.076500415802002,-3.888505697250366,-1.6651878356933594,4.3079094886779785,2.7173478603363037
12.25,7.0647735595703125,7.462205410003662,-7.315824508666992,-0.5619003772735596,4.050266742706299,4.787907123565674
12.3,-0.5158288478851318,6.539888381958008,-4.637105464935303,0.03386545181274414,3.183140754699707,5.035675525665283
12.35,-2.2922322750091553,3.288905620574951,-3.090888023376465,-0.11727571487426758,2.1120686531066895,2.705993890762329
12.4,-0.8046517372131348,4.030496120452881,-2.371433973312378,0.60185706615448,0.8715782761573792,1.5593516826629639
12.45,-0.8486926555633545,3.409148693084717,-0.04328284040093422,0.385506808757782,0.5095986723899841,1.3793444633483887
12.5,-2.666940689086914,1.8398107290267944,0.7828876376152039,0.20205770432949066,1.4840894937515259,0.41149309277534485
12.55,-4.200734615325928,2.0100035667419434,1.7115850448608398,0.3971218466758728,2.1691043376922607,-0.10030361264944077
12.6,-4.762005805969238,2.3648858070373535,1.6877950429916382,0.1566360592842102,1.9134050607681274,-0.6090047359466553
12.65,-3.6982150077819824,1.5692124366760254,1.2944120168685913,-0.6163387894630432,1.1404094696044922,-0.6273626685142517
12.7,-2.3445308208465576,0.814713716506958,0.8644174933433533,-0.9112968444824219,0.7012451887130737,-0.69792640209198
12.75,-2.154763698577881,0.22454561293125153,0.34446805715560913,-1.0905027389526367,0.9068504571914673,-1.128355622291565
12.8,-2.2540059089660645,-0.16461080312728882,-0.15677644312381744,-1.2795614004135132,0.9161057472229004,-1.5889441967010498
12.85,-1.50895094871521,0.31332117319107056,-0.6598138213157654,-1.1051677465438843,0.4210692346096039,-1.7287931442260742
12.9,-0.4240095019340515,0.9404402375221252,-1.6980140209197998,-1.3111193180084229,-0.19903898239135742,-1.6617376804351807
12.95,0.9234292507171631,1.1270054578781128,-3.1469273567199707,-1.5179520845413208,-0.5733880996704102,-1.198642373085022
13.0,2.4985387325286865,0.7899998426437378,-3.369300603866577,-2.0429558753967285,-0.7501698732376099,-1.0766797065734863
13.05,2.8139641284942627,0.1349017471075058,-3.6657822132110596,-2.3153276443481445,-0.04743789881467819,-1.639777421951294
13.1,2.347515106201172,-1.80088472366333,-3.2800676822662354,-2.75314998626709,0.4910877048969269,-3.050043821334839
13.15,1.279435157775879,-1.7178300619125366,-1.302140235900879,-2.7206759452819824,0.4110449254512787,-3.939685821533203
13.2,0.9510759115219116,0.42523765563964844,-0.3463098406791687,-2.413336753845215,-0.1669805645942688,-4.459063529968262
13.25,0.8957709670066833,1.6749145984649658,1.7835525274276733,-2.0820655822753906,-0.38199615478515625,-4.624142169952393
13.3,0.4802702069282532,2.7809345722198486,2.1279308795928955,-1.9241292476654053,-0.466706782579422,-3.8070292472839355
13.35,1.1329659223556519,0.980911374092102,1.5185701847076416,-1.9431302547454834,-0.6175611615180969,-2.1237123012542725
13.4,2.585324764251709,1.3921117782592773,0.49143996834754944,-2.257084846496582,-0.7188795804977417,-1.4354891777038574
13.45,2.0693259239196777,-0.6967383623123169,1.0132853984832764,-2.2773070335388184,-0.06252478808164597,-0.1953287124633789
13.5,1.618088722229004,-1.4700995683670044,1.165385127067566,-1.872586727142334,0.1310892552137375,0.411495566368103
13.55,1.6997878551483154,-0.9750844240188599,0.8924677968025208,-1.846232533454895,0.0481596402823925,0.8277077674865723
13.6,1.2934038639068604,-1.9423391819000244,2.0108230113983154,-1.677423357963562,0.4372628927230835,1.4129390716552734
13.65,1.252377986907959,-2.365668535232544,2.8747103214263916,-1.171764850616455,0.7068694233894348,1.2862216234207153
13.7,1.1453471183776855,-2.399885892868042,3.4820573329925537,-0.2759859561920166,0.7935298085212708,0.7070561051368713
13.75,1.0752716064453125,-2.052011251449585,2.70031476020813,0.7339995503425598,0.8947310447692871,0.26976674795150757
13.8,1.1451680660247803,-2.3893954753875732,2.6027462482452393,1.1325756311416626,1.5007691383361816,0.4023900628089905
13.85,1.546605110168457,-3.16903018951416,3.1633527278900146,1.5315182209014893,1.3127518892288208,0.3071279227733612
13.9,1.8315531015396118,-3.85530424118042,2.0726470947265625,1.9819952249526978,0.874006450176239,0.022310905158519745
13.95,1.2170331478118896,-4.005796432495117,1.1385364532470703,2.4568753242492676,1.3217849731445312,-0.0024923491291701794
14.0,0.5769562125205994,-3.3643364906311035,-0.6078082919120789,3.0554275512695312,1.6216965913772583,-0.04490663856267929
14.05,0.7959933280944824,-3.0467052459716797,-0.7874755859375,3.1792750358581543,2.217759370803833,0.3973574638366699
14.1,1.3288555145263672,-1.7552493810653687,-1.9678616523742676,3.68243408203125,2.0174193382263184,0.15922439098358154
14.15,2.7695581912994385,-1.5301527976989746,-3.4104442596435547,3.5584731101989746,1.7397266626358032,0.20209871232509613
14.2,2.886535167694092,1.433171033859253,-6.309739589691162,3.7758922576904297,1.6894447803497314,-0.1253676563501358
14.25,2.355278968811035,2.2607314586639404,-9.777976989746094,4.029235363006592,1.7543286085128784,0.3164719343185425
14.3,0.34273695945739746,6.7528204917907715,-7.107247829437256,3.853243350982666,2.0816807746887207,-0.6663416624069214
14.35,0.9234296083450317,4.034459114074707,-4.882079601287842,3.6236939430236816,0.7856650352478027,0.8516231179237366
14.4,1.694200873374939,2.839859962463379,-4.426932334899902,3.5693745613098145,-0.3258317708969116,1.1631532907485962
14.45,0.8202228546142578,3.2484352588653564,-3.36918044090271,3.4692907333374023,0.31643250584602356,0.6085625886917114
14.5,-2.1654164791107178,3.918912410736084,-0.6673277020454407,2.261958599090576,2.471956729888916,0.09534147381782532
14.55,-3.88629412651062,2.5091195106506348,3.5959267616271973,1.090846300125122,4.230473518371582,0.21320129930973053
14.6,-2.171623468399048,0.9316630363464355,5.667191028594971,0.7298324108123779,4.1581645011901855,0.3361278772354126
14.65,-0.21930289268493652,0.6332467794418335,5.8887128829956055,-0.0519731342792511,3.3132152557373047,0.5358749032020569
14.7,0.9153900146484375,1.0019973516464233,6.047028064727783,-0.4942002594470978,2.917846441268921,0.9853940606117249
14.75,2.1233551502227783,1.7176642417907715,6.724469184875488,-0.8005372881889343,2.6089131832122803,1.3460386991500854
14.8,3.6396217346191406,1.6847718954086304,6.495377540588379,-1.080047369003296,2.062725067138672,1.673087239265442
14.85,4.527517318725586,1.250520944595337,7.093371868133545,-0.8607344627380371,1.3492026329040527,1.7324968576431274
14.9,5.326442718505859,0.7553266286849976,9.036346435546875,-0.3242349624633789,0.37950363755226135,1.5486676692962646
14.95,2.57560658454895,1.6781879663467407,9.624641418457031,-0.019187748432159424,-1.1840986013412476,0.9266254305839539
15.0,-2.488436222076416,2.1433980464935303,7.9516472816467285,-0.19920474290847778,-2.6233861446380615,1.044575572013855
15.05,-6.411489963531494,1.5636727809906006,5.2133708000183105,-0.5055854320526123,-3.484522581100464,1.1532955169677734
15.1,-9.03051471710205,1.353806972503662,1.262846827507019,-0.6534004211425781,-4.19426965713501,0.7699221968650818
15.15,-9.516632080078125,0.30420902371406555,-2.527167320251465,-0.963435173034668,-4.3632636070251465,0.7525097131729126
15.2,-9.472155570983887,-0.9655723571777344,-4.785161972045898,-1.5455247163772583,-3.835522413253784,0.8429110050201416
15.25,-8.736187934875488,-2.118955373764038,-8.072258949279785,-1.7392597198486328,-4.0084099769592285,0.6252769827842712
15.3,-6.432220935821533,-2.5365262031555176,-11.674660682678223,-1.5431032180786133,-4.450865745544434,0.3731316030025482
15.35,-3.3579940795898438,-3.070127487182617,-14.158926963806152,-1.3539868593215942,-4.604014873504639,0.13840416073799133
15.4,0.6908555030822754,-3.1689388751983643,-14.180148124694824,-1.4180946350097656,-4.668369770050049,-0.5464295148849487
15.45,4.068170547485352,-4.472999095916748,-12.407988548278809,-1.307995080947876,-4.590485095977783,-1.3529466390609741
15.5,4.297689437866211,-5.449336528778076,-11.436973571777344,-0.5958338975906372,-4.139617443084717,-2.6159989833831787
15.55,5.31104850769043,-4.647429943084717,-10.638930320739746,0.6227741241455078,-4.315072536468506,-3.0016770362854004
15.6,10.465641021728516,-0.9578627943992615,-8.345294952392578,0.7970833778381348,-4.866551876068115,-1.4182829856872559
15.65,12.323789596557617,2.6605193614959717,-1.3640950918197632,-1.551770567893982,-4.796374797821045,0.8527690768241882
15.7,10.572603225708008,1.3295764923095703,5.306089401245117,-4.923361301422119,-5.04150390625,1.4007445573806763
15.75,6.510761260986328,-1.7533512115478516,10.416677474975586,-5.702502250671387,-5.631180286407471,0.5490556955337524
15.8,2.2554516792297363,-0.344543993473053,11.796060562133789,-4.141422271728516,-5.435610771179199,1.429359793663025
15.85,0.5953369140625,1.3682525157928467,14.685050964355469,-4.0736985206604,-4.427109241485596,2.723039150238037
15.9,-1.860732078552246,3.9210052490234375,10.299333572387695,-2.620342969894409,-1.820630669593811,3.3870630264282227
15.95,-4.030348300933838,4.533108711242676,7.615053176879883,-2.8326005935668945,-0.024896157905459404,2.652329444885254
16.0,-2.046201705932617,2.490940570831299,4.838817119598389,-2.4561691284179688,2.089583396911621,2.0258255004882812
16.05,1.2612195014953613,3.605700969696045,0.4000897705554962,-2.4871387481689453,4.5867600440979,2.1511611938476562
16.1,0.405834436416626,3.8186066150665283,-3.7382142543792725,-2.5502729415893555,5.1925950050354,1.5872840881347656
16.15,-2.817157745361328,1.929770588874817,-5.68938684463501,-2.262932062149048,4.676834583282471,0.7764431238174438
16.2,-4.187013149261475,-0.3383246064186096,-3.9343528747558594,-1.6562116146087646,3.37819504737854,-0.035839714109897614
16.25,-3.9756414890289307,-0.0319184847176075,-2.315789222717285,-1.3154993057250977,2.6965043544769287,-0.2352275401353836
16.3,-3.903989315032959,0.03327663615345955,-1.616478681564331,-0.9249423146247864,2.4899837970733643,-0.3413982093334198
16.35,-4.285975456237793,-0.17359061539173126,-2.346048355102539,-0.5227901339530945,2.622307538986206,-0.31413838267326355
16.4,-4.188863754272461,0.46983060240745544,-2.780965805053711,0.0558028370141983,2.3352272510528564,-0.5445197820663452
16.45,-3.3793041706085205,-0.48966798186302185,-3.576420307159424,0.23185139894485474,1.7535415887832642,-1.3076943159103394
16.5,-3.920772075653076,-0.1073676347732544,-5.524430751800537,0.6674147844314575,1.7819314002990723,-1.6646455526351929
16.55,-3.711854934692383,1.9453812837600708,-6.421281337738037,1.085198998451233,0.9175664782524109,-2.1275200843811035
16.6,0.31633496284484863,3.0789616107940674,-5.194508075714111,0.7748212218284607,-0.752677857875824,-2.699769973754883
16.65,4.278554916381836,3.3944952487945557,-2.4793736934661865,0.7062528133392334,-1.3395442962646484,-3.2986934185028076
16.7,4.862799644470215,1.6519184112548828,-0.10718073695898056,1.0546168088912964,-1.2123106718063354,-3.5465357303619385
16.75,4.810802459716797,1.0033760070800781,0.8400527834892273,1.6650561094284058,-1.1277047395706177,-3.2080886363983154
16.8,5.4850945472717285,1.2478199005126953,1.9632545709609985,2.4165940284729004,-1.3522024154663086,-2.9421846866607666
16.85,5.81091833114624,1.8335487842559814,3.564362049102783,2.842927932739258,-1.662772536277771,-2.654338836669922
16.9,5.7070512771606445,1.4883891344070435,4.231789588928223,2.9163613319396973,-1.774776816368103,-2.601369619369507
16.95,4.674731731414795,0.7821866273880005,4.438608646392822,2.6628963947296143,-1.7819795608520508,-2.5107510089874268
17.0,4.098091125488281,-0.07973095029592514,4.42703104019165,2.380746841430664,-1.782849669456482,-2.519737958908081
17.05,3.084411859512329,-0.22085662186145782,4.251966953277588,2.3958098888397217,-1.749096155166626,-2.4179372787475586
17.1,2.420140266418457,-0.7695493698120117,4.219045162200928,2.3567793369293213,-1.8023145198822021,-2.4326486587524414
17.15,1.6794838905334473,-1.5245429277420044,3.3225302696228027,2.1318583488464355,-1.7284204959869385,-2.4175803661346436
17.2,0.9658701419830322,-2.130112409591675,2.89687180519104,1.9543280601501465,-1.8754277229309082,-2.461568593978882
17.25,0.19535386562347412,-1.1508054733276367,3.062303304672241,1.8992204666137695,-2.1146483421325684,-2.338270902633667
17.3,0.26750969886779785,-0.563926637172699,3.2157771587371826,2.008138418197632,-2.330355644226074,-2.1380882263183594
17.35,0.6789602041244507,-1.4377232789993286,1.7747373580932617,2.1307597160339355,-2.372398614883423,-1.97812020778656
17.4,1.0298237800598145,-2.229344129562378,1.31317937374115,2.1553282737731934,-2.669487476348877,-1.806147575378418
17.45,0.422221302986145,-3.078399181365967,2.9243547916412354,2.126466751098633,-3.377200126647949,-1.6929430961608887
17.5,-1.949042558670044,-5.382605075836182,1.4839295148849487,1.8410110473632812,-3.0374934673309326,-1.9087657928466797
17.55,-3.2111189365386963,-5.436609745025635,-1.5556472539901733,1.5726187229156494,-1.6597745418548584,-1.451239824295044
17.6,-2.244985580444336,-1.4760522842407227,-0.28256383538246155,1.0793781280517578,-1.0269238948822021,-0.12782645225524902
17.65,-1.8281669616699219,0.3815051019191742,-1.101758360862732,0.8825103044509888,0.3292454481124878,0.2730145752429962
17.7,-1.1370899677276611,0.8265734910964966,-1.426696538925171,0.7749660015106201,0.8907257914543152,0.8721956610679626
17.75,-0.4259518086910248,0.5071488618850708,0.6603984832763672,0.8471541404724121,0.1274651288986206,1.006732702255249
17.8,-0.7298108339309692,-0.8082390427589417,0.4224811792373657,0.856024980545044,0.09545149654150009,0.629858136177063
17.85,-0.24822166562080383,-0.44468408823013306,-0.1326141655445099,0.6606184244155884,0.3771706819534302,1.0378711223602295
17.9,0.27764061093330383,-0.7170639634132385,0.40764185786247253,0.596472978591919,0.19893816113471985,1.1931703090667725
17.95,0.5526092648506165,-0.2907448709011078,-0.9867841005325317,0.5713520050048828,0.3646661341190338,1.1222448348999023
18.0,-0.4759889841079712,-0.44544708728790283,-1.8154137134552002,0.2452540546655655,0.027199311181902885,0.4171268939971924
18.05,-0.09519395977258682,-0.8465291261672974,0.20077180862426758,-0.2611193060874939,-0.6863064169883728,-0.13228698074817657
18.1,0.07412075996398926,-1.8668153285980225,-0.7593637108802795,0.014157027006149292,-0.7109007835388184,-0.7580015659332275
18.15,-0.8504250049591064,-0.00015734779299236834,-0.5255950093269348,0.503879725933075,-0.8168811202049255,-1.07003653049469
18.2,-1.8078992366790771,1.9720613956451416,-1.2880815267562866,0.8140419125556946,-0.4754663109779358,-1.2662173509597778
18.25,-0.92607182264328,1.6935808658599854,-0.6466596126556396,1.3751158714294434,0.21681559085845947,-1.1642839908599854
18.3,-0.4169275462627411,-0.2603492736816406,0.5665941834449768,1.6288995742797852,0.8622301816940308,-1.3021280765533447
18.35,-1.4366596937179565,-2.442500352859497,-0.7770084142684937,1.1641823053359985,1.1950182914733887,-1.9377964735031128
18.4,-2.2731707096099854,-2.3364498615264893,-1.0293229818344116,0.1668749451637268,1.5110081434249878,-2.198725938796997
18.45,-3.401536703109741,-1.6307936906814575,0.049160026013851166,-0.7071566581726074,1.944253921508789,-2.4328508377075195
18.5,-3.9342217445373535,0.15366002917289734,0.8258199691772461,-1.1767657995224,2.398672580718994,-2.4809510707855225
18.55,-1.8071304559707642,2.2544493675231934,2.1205027103424072,-1.1453208923339844,2.6131374835968018,-2.412060022354126
18.6,-2.460129737854004,0.48223617672920227,2.3406050205230713,-0.6050209403038025,2.543658971786499,-2.4782521724700928
18.65,-3.4276018142700195,1.348780870437622,0.14450593292713165,0.26493000984191895,2.227773666381836,-2.951206922531128
18.7,-1.0598855018615723,1.8047555685043335,0.7892087697982788,0.03714132308959961,2.211162567138672,-2.893048048019409
18.75,-0.17021876573562622,1.2587090730667114,0.8280957341194153,-0.05209970474243164,2.558173656463623,-2.67790150642395
18.8,-0.01748603582382202,1.524348497390747,0.7873075008392334,0.011147499084472656,2.6323535442352295,-2.5721795558929443
18.85,0.4403391480445862,2.1838724613189697,1.4596970081329346,-0.0244290828704834,2.751248836517334,-2.4832537174224854
18.9,1.0417375564575195,2.3469536304473877,1.36891770362854,0.007838845252990723,2.7518951892852783,-2.358855724334717
18.95,1.6731289625167847,2.2880947589874268,1.1981397867202759,0.14667105674743652,2.7069356441497803,-2.1914899349212646
19.0,2.419264078140259,2.0901806354522705,1.2549339532852173,0.4090959429740906,2.7144367694854736,-1.8142127990722656
19.05,2.6920900344848633,1.5122730731964111,1.5502629280090332,0.7104848027229309,2.671945810317993,-1.4191663265228271
19.1,2.3404924869537354,0.33518218994140625,1.15046226978302,1.045852541923523,2.451430082321167,-1.08713698387146
19.15,1.6088207960128784,0.454863578081131,1.0172115564346313,1.1328368186950684,2.3553154468536377,-0.8974767923355103
19.2,0.9988309144973755,0.36065009236335754,1.056656002998352,1.38673996925354,2.443441152572632,-0.6844852566719055
19.25,1.30921471118927,0.07285597920417786,1.6162898540496826,1.6521580219268799,2.623914957046509,-0.5546103119850159
19.3,1.1877758502960205,-0.15945525467395782,2.456735134124756,2.052456855773926,2.6832144260406494,-0.42862173914909363
19.35,0.6320505142211914,-0.8199023604393005,4.02333402633667,2.878748655319214,2.8184473514556885,-0.16243262588977814
19.4,0.7862873077392578,-1.5823849439620972,8.053886413574219,4.35126256942749,3.129119634628296,0.2849631905555725
19.45,3.3463640213012695,-6.544985294342041,10.137615203857422,7.007467269897461,3.726499319076538,0.5747559070587158
19.5,7.3275299072265625,-11.334966659545898,2.160104990005493,8.916342735290527,4.583423137664795,0.5505784153938293
19.55,8.96045207977295,-6.857868671417236,-7.848315238952637,7.233823776245117,5.221394062042236,0.7450633645057678
19.6,6.516841888427734,-1.0781573057174683,-9.17025089263916,3.4052088260650635,5.030284881591797,1.8131269216537476
19.65,3.670072078704834,0.14344073832035065,-7.286245346069336,1.7180683612823486,4.090720176696777,2.762547492980957
19.7,0.8758153915405273,0.9955832958221436,-7.276466369628906,1.9686535596847534,3.301206111907959,2.553750991821289
19.75,0.9638708829879761,0.4905078709125519,-5.194180011749268,1.857168436050415,2.5280935764312744,2.0402350425720215
19.8,3.1626431941986084,-1.0190024375915527,-4.672854900360107,2.558152675628662,2.3154654502868652,1.4969171285629272
19.85,1.1280267238616943,0.8482387661933899,-5.026232719421387,3.7618966102600098,3.1613283157348633,0.293326199054718
19.9,-1.0994302034378052,3.707717180252075,-3.808603048324585,3.7421364784240723,3.9973268508911133,-0.6369057893753052
19.95,-2.3892030715942383,2.386589288711548,-2.3240268230438232,3.1462090015411377,4.9954352378845215,-2.395658493041992
20.0,-3.9080705642700195,4.088311672210693,-0.6568132638931274,3.4115865230560303,5.437121868133545,-3.7564854621887207
20.05,-4.352009296417236,6.070706844329834,3.570643186569214,3.111861228942871,4.649657249450684,-3.5126585960388184
20.1,-0.8519189357757568,7.570242404937744,6.335389614105225,0.42517805099487305,4.45647668838501,-1.601291537284851
20.15,-2.52527117729187,4.1851911544799805,4.455755233764648,-2.8777883052825928,4.074514865875244,2.5013582706451416
20.2,-2.949291706085205,-0.3461082875728607,1.5763566493988037,-3.1932027339935303,1.5224171876907349,3.328422784805298
20.25,-2.305342197418213,-0.1799267679452896,0.5885714292526245,-2.006096124649048,-0.5910392999649048,0.6995440721511841
20.3,-8.922216415405273,3.2778031826019287,-0.2597863972187042,-2.3331682682037354,-0.7333816289901733,-2.0010859966278076
20.35,-19.203365325927734,2.0076534748077393,4.182200908660889,-4.120475769042969,2.0002591609954834,-2.1397218704223633
20.4,-21.503398895263672,1.564144492149353,5.339428901672363,-3.9297280311584473,1.8927572965621948,-1.27961003780365
20.45,-8.775538444519043,1.8147486448287964,-14.036722183227539,-2.598576307296753,-3.6401076316833496,-0.7513597011566162
20.5,10.152968406677246,-1.3947585821151733,-16.961694717407227,-2.409329891204834,-4.906079292297363,-1.4272080659866333
20.55,14.963397979736328,-4.839956760406494,-10.170868873596191,-1.9098016023635864,-4.585399150848389,-1.211175560951233
20.6,10.978401184082031,-5.089625358581543,-3.972853899002075,-1.3761619329452515,-3.790102243423462,-0.6720229387283325
20.65,8.642412185668945,-3.8910605907440186,-0.04829620569944382,-0.8497726321220398,-3.409014940261841,-0.611004650592804
20.7,6.638528823852539,-3.6903960704803467,0.6497697830200195,-0.5458753705024719,-3.1055972576141357,-0.3630005121231079
20.75,5.235304355621338,-3.9615843296051025,1.0921509265899658,-0.5545302629470825,-2.9169256687164307,0.08121522516012192
20.8,4.88106107711792,-4.17825984954834,1.4335479736328125,-0.5745863914489746,-2.657284736633301,0.24506129324436188
20.85,5.274237632751465,-3.3026394844055176,2.1734988689422607,-0.1347407102584839,-2.494877338409424,0.36552369594573975
20.9,4.774881839752197,-2.1028082370758057,1.6735472679138184,0.37503582239151,-2.215724468231201,0.554619550704956
20.95,4.139673233032227,-0.7519515156745911,-0.4228988289833069,0.4889693558216095,-2.090485095977783,0.5992273688316345
21.0,4.263245105743408,1.0606735944747925,-2.1347508430480957,0.3052036762237549,-2.4555814266204834,0.258493572473526
21.05,8.103367805480957,-1.690351128578186,-2.1399636268615723,-1.0661649703979492,-3.6158711910247803,-0.6442548036575317
21.1,9.257132530212402,-4.688076496124268,5.127584457397461,-2.1328837871551514,-4.969569683074951,-1.2180728912353516
21.15,2.308145761489868,0.5668463110923767,9.892534255981445,-1.7397657632827759,-5.248558521270752,-0.028073683381080627
21.2,-1.771782636642456,3.2993085384368896,6.171535491943359,-1.7177739143371582,-4.5594048500061035,1.0924752950668335
21.25,-4.1070942878723145,5.814831733703613,1.937975525856018,-1.5860679149627686,-3.7612385749816895,1.3397783041000366
21.3,-6.1191253662109375,7.228538513183594,-0.9242354035377502,-1.2333564758300781,-3.5019547939300537,1.1388390064239502
21.35,-4.383141994476318,2.711455821990967,-0.7968782782554626,-1.0555044412612915,-3.5986928939819336,-0.03417540341615677
21.4,-2.7974166870117188,0.6368228793144226,-0.0049341535195708275,-0.4823075234889984,-2.914379835128784,0.07843022793531418
21.45,-0.9502847194671631,-0.5732355713844299,-0.5748476386070251,-0.3677232265472412,-2.023912191390991,0.4733717739582062
21.5,-0.6870734095573425,-0.49557122588157654,-0.956579327583313,-0.3429342210292816,-1.4866886138916016,0.23865437507629395
21.55,-0.7251487374305725,1.5191051959991455,-0.44203951954841614,0.09688563644886017,-0.6931911706924438,0.2979748547077179
21.6,-0.9733690619468689,-1.0778380632400513,0.2739293575286865,0.4622010588645935,-0.43770718574523926,-0.10122795403003693
21.65,-0.7706142067909241,-2.7499544620513916,-0.11944465339183807,0.35922709107398987,-0.1724424511194229,-0.2778264582157135
21.7,-0.932134211063385,-0.7982941269874573,0.1651393324136734,0.10150545835494995,0.20265518128871918,-0.48626238107681274
21.75,0.5657244920730591,-0.0997495949268341,0.06611023098230362,0.06606762111186981,0.5393607020378113,-0.39927366375923157
21.8,1.9004662036895752,-1.1699268817901611,-0.4876594543457031,0.23068484663963318,0.7651803493499756,-0.3374500870704651
21.85,1.1214085817337036,-0.6946698427200317,-0.035960953682661057,0.4317186772823334,1.0371787548065186,-0.1641646921634674
21.9,1.220618724822998,0.9089957475662231,0.4448409974575043,0.8773771524429321,1.545443058013916,-0.18596619367599487
21.95,-0.3548744320869446,0.36228859424591064,1.7303060293197632,1.9022083282470703,1.9239636659622192,-0.3127819895744324
22.0,-0.02445382997393608,-1.336447834968567,-0.11652915924787521,2.916029930114746,2.5041730403900146,-0.1118062436580658
22.05,-0.3833721876144409,3.0934605598449707,0.6230624318122864,2.5329251289367676,2.1312906742095947,-0.5074878931045532
22.1,0.9743711948394775,7.534336090087891,0.7843949794769287,1.581854224205017,2.1841630935668945,-2.0122721195220947
22.15,8.003173828125,7.227768898010254,-9.707784652709961,2.5288496017456055,2.757960081100464,-2.8028130531311035
22.2,10.127086639404297,-0.9627704620361328,-9.347424507141113,2.3904471397399902,-0.015489245764911175,-4.366483211517334
22.25,2.203885793685913,-9.179581642150879,-2.0101089477539062,0.3264198303222656,-1.5972390174865723,-6.219428062438965
22.3,-7.280547142028809,-8.313824653625488,0.565556526184082,-0.02173471450805664,-1.7499842643737793,-5.671908855438232
22.35,-7.842051029205322,-4.898460388183594,-1.0544757843017578,-0.10461628437042236,-1.8769694566726685,-2.688138484954834
22.4,2.0762786865234375,-2.746561288833618,1.5730808973312378,-1.152993083000183,-0.35083872079849243,1.0053575038909912
22.45,6.325112819671631,3.258077383041382,8.858474731445312,-3.616147518157959,1.1884374618530273,1.9835588932037354
22.5,2.8447489738464355,3.8202760219573975,5.259947776794434,-2.5850818157196045,1.261954426765442,1.3708995580673218
22.55,-0.9611763954162598,0.23080751299858093,3.242382526397705,-0.4775434732437134,1.2136598825454712,0.4510403573513031
22.6,-1.541073203086853,-0.6664876341819763,1.9101423025131226,0.41340357065200806,1.230143427848816,-0.07269220054149628
22.65,-0.47320103645324707,-1.663636565208435,-2.279789447784424,1.126814365386963,1.7022472620010376,-0.2623293101787567
22.7,-0.7260439395904541,-1.845801591873169,0.33871352672576904,1.071878433227539,1.8350802659988403,-0.032977890223264694
22.75,-1.3143579959869385,-1.3179473876953125,2.1446900367736816,1.6018801927566528,1.4548171758651733,0.36294862627983093
22.8,-0.740980327129364,-0.7919855713844299,0.41351479291915894,2.1239640712738037,1.4031695127487183,0.36016640067100525
22.85,-1.708592414855957,-1.546437382698059,0.8067603707313538,1.6796753406524658,1.199678897857666,0.2058209329843521
22.9,-0.9507540464401245,-1.3014813661575317,-0.4114851653575897,1.4054124355316162,0.9157469868659973,0.38637951016426086
22.95,-0.1575189232826233,-0.32336050271987915,-0.5803651809692383,1.7473118305206299,0.694646418094635,0.5806001424789429
23.0,-0.11283619701862335,-0.1468963772058487,0.002283776644617319,2.0228171348571777,0.5512850880622864,0.6719226241111755
23.05,0.05945318937301636,1.4380141496658325,-0.8081221580505371,2.1464109420776367,0.4988235533237457,0.6866847276687622
23.1,0.2916664183139801,1.8908369541168213,0.5628808736801147,1.6368539333343506,0.31257203221321106,0.55262291431427
23.15,0.29720014333724976,0.7506362199783325,0.41595757007598877,1.2221342325210571,0.30767005681991577,0.43086859583854675
23.2,0.5425775051116943,-0.08688068389892578,0.6529476642608643,0.9678810834884644,0.31947770714759827,0.3623993396759033
23.25,1.0482661724090576,0.08661937713623047,0.7572280168533325,0.8625586032867432,0.6683017015457153,0.39431869983673096
23.3,0.7538472414016724,-0.1836356669664383,1.7785634994506836,0.8321779370307922,0.9592702984809875,0.5030173063278198
23.35,0.7439013719558716,-0.4369458854198456,2.2869973182678223,0.7155909538269043,1.3981492519378662,0.6840012669563293
23.4,-0.4554728865623474,-0.8216943740844727,1.8471989631652832,0.7696967124938965,1.734864592552185,1.207006812095642
23.45,-1.1857658624649048,0.11617851257324219,-1.2524617910385132,0.28406912088394165,1.7359188795089722,2.219557285308838
23.5,0.16228199005126953,0.9038505554199219,-2.854588508605957,-1.2262282371520996,-0.2628161609172821,2.97812557220459
23.55,1.7179292440414429,1.2677193880081177,1.0443642139434814,-1.1197247505187988,-2.9589223861694336,3.3819990158081055
23.6,0.6313964128494263,2.0815460681915283,1.871320128440857,-0.4113675355911255,-2.6312639713287354,3.536240816116333
23.65,-0.16945572197437286,1.175655484199524,0.639001190662384,-0.5821595191955566,-1.7766088247299194,2.9283127784729004
23.7,-1.5693695545196533,1.0333120822906494,0.32607823610305786,-1.0613439083099365,-1.849735140800476,2.8187787532806396
23.75,-1.4296207427978516,-0.4186153709888458,-0.3520381450653076,-1.732375144958496,-2.5866198539733887,2.6758272647857666
23.8,-1.322164535522461,-0.7089881896972656,0.40497422218322754,-1.3043545484542847,-3.3175394535064697,2.91450834274292
23.85,-2.698009490966797,0.34753143787384033,-0.10398421436548233,-0.8889485001564026,-3.508713722229004,2.909796714782715
23.9,-1.5029773712158203,-0.03154178708791733,-0.36484432220458984,-0.7261881828308105,-3.8585922718048096,2.52107834815979
23.95,-2.1046652793884277,-0.0831679105758667,0.9610523581504822,-0.6851752400398254,-3.6710221767425537,2.7930970191955566
24.0,-1.2284884452819824,-0.8795328736305237,0.2173740267753601,-1.2943649291992188,-3.0361127853393555,1.9393411874771118
24.05,-0.18422818183898926,-0.6533137559890747,-1.4113857746124268,-1.5243241786956787,-2.3592464923858643,0.996745228767395
24.1,0.4204367399215698,-1.4225761890411377,-1.5003286600112915,-1.4682791233062744,-2.4817748069763184,0.5489453077316284
24.15,1.7997959852218628,-1.8052762746810913,-0.888799786567688,-1.3149287700653076,-2.3264811038970947,0.3172607719898224
24.2,1.6110866069793701,-0.8911392092704773,-0.11138486117124557,-0.973231315612793,-2.0752856731414795,0.5126882195472717
24.25,0.4541833996772766,-0.35848620533943176,0.06915811449289322,-0.5779324173927307,-2.0616910457611084,1.0271815061569214
24.3,0.3566508889198303,-0.48028284311294556,0.4422975778579712,-0.205204039812088,-2.078009843826294,1.2315458059310913
24.35,0.0917583554983139,-1.737281084060669,0.551731288433075,-0.04308515787124634,-2.0737040042877197,1.5155986547470093
24.4,-0.10924595594406128,-6.552888870239258,1.6030164957046509,0.28687775135040283,-2.367910146713257,2.1458046436309814
24.45,-5.817349433898926,-11.206951141357422,2.9696505069732666,0.711107611656189,-2.9098448753356934,4.548506736755371
24.5,-13.347930908203125,-7.209329128265381,-2.9731478691101074,-0.052097320556640625,-1.2763267755508423,4.670866012573242
24.55,9.078937530517578,9.872507095336914,-2.6363422870635986,1.34212327003479,-1.4063600301742554,-3.7780981063842773
24.6,17.66582679748535,7.621215343475342,3.666825771331787,0.10494852066040039,-1.4341113567352295,-6.652850151062012
24.65,2.0162644386291504,4.971724987030029,2.145927906036377,-1.2586976289749146,-0.9362888336181641,-4.163485527038574
24.7,1.0970935821533203,2.036987543106079,1.068863034248352,-0.7712234854698181,-0.6388714909553528,-2.439412832260132
24.75,-1.5666205883026123,1.6659948825836182,-0.6692525148391724,-1.1534868478775024,0.01645353063941002,-0.449969083070755
24.8,-4.0258965492248535,1.4049742221832275,-0.35016801953315735,-0.675277590751648,-0.4762895703315735,-0.0947122871875763
24.85,-2.808471202850342,0.7350208163261414,-0.37508973479270935,-0.3007732927799225,0.7211923599243164,-0.16854612529277802
24.9,-0.5273882746696472,2.245027780532837,-2.021714925765991,-0.15876495838165283,0.06792105734348297,-0.7413533926010132
24.95,0.10733842849731445,1.3368881940841675,-3.892317295074463,0.5155816078186035,-1.7299898862838745,-1.4778382778167725
25.0,-0.5892067551612854,-2.4764809608459473,2.664940595626831,1.0619947910308838,-2.9917004108428955,-1.8472663164138794
25.05,-0.9826089143753052,-1.9400911331176758,4.753217697143555,0.08127880096435547,-1.8648585081100464,-1.18914794921875
25.1,0.6002996563911438,-0.1745089739561081,2.5148589611053467,-0.3961142599582672,-0.1914382427930832,-0.5414703488349915
25.15,-0.1662794053554535,0.8078681826591492,0.9164963364601135,-0.6221928596496582,1.1695623397827148,0.17074139416217804
25.2,0.3453092575073242,1.1327115297317505,-0.6302456259727478,-0.5725456476211548,1.0583738088607788,0.1547393500804901
25.25,1.8783538341522217,0.4805782735347748,-3.222208261489868,0.21139955520629883,-0.215006485581398,-0.22017548978328705
25.3,1.705073356628418,-1.3294804096221924,-0.9359717965126038,1.69797945022583,-1.7122782468795776,-0.24180708825588226
25.35,-2.612941265106201,-3.2460601329803467,3.0676186084747314,1.958668828010559,-1.7411081790924072,0.4716247618198395
25.4,-2.37882399559021,-1.265786051750183,3.6539952754974365,0.9380567073822021,-0.028157152235507965,1.3905813694000244
25.45,0.49154162406921387,0.588297963142395,1.3747305870056152,-0.23603516817092896,1.4573758840560913,1.6289459466934204
25.5,1.3863227367401123,0.32903096079826355,-0.4418053925037384,-0.7115210890769958,1.4390227794647217,1.5929752588272095
25.55,0.5332098603248596,0.5043230056762695,-0.5932488441467285,-0.5323278307914734,0.6972861886024475,1.4416853189468384
25.6,-3.2659354209899902,1.671174168586731,-5.094170093536377,-0.5318015813827515,0.13900433480739594,1.064935326576233
25.65,-3.493175983428955,0.3469819724559784,-4.21474552154541,0.4465895891189575,0.11317779123783112,-0.28204646706581116
25.7,-1.0399246215820312,-1.1953202486038208,-0.03594396635890007,0.5829628705978394,0.4589773118495941,-0.8450942039489746
25.75,0.2416117936372757,-0.8822318315505981,0.6091217398643494,-0.1473294198513031,0.8075554370880127,-0.17359864711761475
25.8,-0.10660532116889954,-0.2817974090576172,0.7741432785987854,-0.7270472645759583,1.0783638954162598,0.41037803888320923
25.85,0.011459410190582275,0.12670807540416718,0.7627178430557251,-1.122637152671814,1.1817818880081177,0.5593934059143066
25.9,0.018297873437404633,0.6832275986671448,-0.17918406426906586,-1.2122799158096313,1.0011515617370605,0.67499178647995
25.95,0.7226181030273438,1.3108224868774414,-1.098028540611267,-0.9237855672836304,0.08960872888565063,0.6920591592788696
26.0,0.0966511070728302,1.5166304111480713,-0.8001877069473267,-0.4930475354194641,-0.7761163115501404,0.8625853061676025
26.05,-1.1762568950653076,1.737568974494934,-2.928095817565918,-0.2853640615940094,-0.6231635808944702,0.9653366804122925
26.1,-1.3796011209487915,1.1065864562988281,-3.2650952339172363,0.3964071571826935,-0.7186821699142456,0.7803478837013245
26.15,-1.1101573705673218,-0.115873321890831,-0.34952929615974426,1.2140434980392456,-1.8491679430007935,0.4947021007537842
26.2,-1.499334454536438,-0.9746628403663635,-0.16500645875930786,1.118905782699585,-1.9493056535720825,0.5740347504615784
26.25,-0.7863361835479736,-1.234538197517395,0.2747752070426941,0.6201834678649902,-1.5210317373275757,0.7396368980407715
26.3,-0.35449454188346863,-0.7285871505737305,0.9003608226776123,0.1061427891254425,-1.1405404806137085,0.9413124322891235
26.35,-0.17980629205703735,0.011254322715103626,0.09659363329410553,-0.3145846426486969,-0.6893688440322876,1.1203157901763916
26.4,-0.20486849546432495,0.443274587392807,0.4873296916484833,-0.5952292680740356,-0.3255940079689026,1.3155471086502075
26.45,-0.6795504689216614,0.6829385757446289,-2.32970929145813,-1.0835039615631104,-0.03857408091425896,1.5267187356948853
26.5,-0.4799158275127411,0.09959695488214493,-1.2825961112976074,-0.1801062822341919,-0.17866353690624237,1.294548511505127
26.55,-0.7825167179107666,0.2042418122291565,-0.05031966045498848,0.4696519374847412,-0.2227332592010498,1.0650014877319336
26.6,-1.1874326467514038,0.0716409981250763,-0.4873930811882019,0.2938019931316376,-0.015621698461472988,0.7965576648712158
26.65,-0.799317479133606,-0.17879770696163177,0.047359783202409744,-0.1137884110212326,0.5925024151802063,0.5577042698860168
26.7,-1.411755084991455,-0.20160768926143646,-0.28965264558792114,-0.4054064452648163,0.801974892616272,0.4132053256034851
26.75,-2.7212653160095215,-0.10050956159830093,-0.14471757411956787,-0.18653571605682373,0.8872265219688416,0.22362864017486572
26.8,-3.189300060272217,0.2684747576713562,0.5617722272872925,-0.2164856493473053,1.5703225135803223,0.011740644462406635
26.85,-2.8851993083953857,1.5220426321029663,-0.28284886479377747,-0.034897297620773315,2.572681427001953,-0.618565022945404
26.9,-0.9919605255126953,3.1946845054626465,0.10910557210445404,0.7507427334785461,3.66986346244812,-1.5559782981872559
26.95,-1.4807498455047607,2.654308795928955,1.7694929838180542,1.2299087047576904,4.171731472015381,-2.4126009941101074
27.0,1.1958820819854736,1.5860302448272705,2.056877374649048,1.3753843307495117,5.402729511260986,-3.2610018253326416
27.05,3.4265449047088623,0.9130974411964417,1.2674837112426758,1.7756483554840088,6.73542594909668,-3.65683913230896
27.1,4.408117771148682,0.4379977881908417,1.9434938430786133,2.236767292022705,7.429479122161865,-4.197063446044922
27.15,6.873444557189941,0.3223341107368469,1.043114423751831,1.8003431558609009,7.469550609588623,-5.393101215362549
27.2,5.412927627563477,-5.356111526489258,-3.3207290172576904,-1.0728304386138916,6.21904993057251,-6.83905553817749
27.25,-0.23059296607971191,-4.871582508087158,-2.543072462081909,-2.6098132133483887,3.2770252227783203,-4.5873003005981445
27.3,-1.174734115600586,0.05425737798213959,-1.4632041454315186,-2.4656918048858643,0.9339210987091064,-1.0029070377349854
27.35,-1.0150407552719116,1.4746867418289185,-1.5195757150650024,-2.1883702278137207,0.1649148315191269,0.7818710207939148
27.4,-2.0713748931884766,1.010442852973938,-1.5822441577911377,-1.7185604572296143,0.05691797286272049,1.1732151508331299
27.45,-0.8619208931922913,0.44779783487319946,-0.5927145481109619,-1.359570860862732,-0.17614181339740753,1.3267614841461182
27.5,-0.7424913048744202,-0.12058545649051666,-0.6520635485649109,-0.9680904150009155,-0.21639810502529144,1.4503742456436157
27.55,-0.8325003385543823,0.01017855480313301,-0.9576350450515747,-0.6595698595046997,-0.27787449955940247,1.7999756336212158
27.6,-0.013132050633430481,0.00196359446272254,-0.4750515818595886,-0.6149690747261047,-0.7168484926223755,2.17386794090271
27.65,-1.0386289358139038,0.5079872012138367,2.242931842803955,-0.40386533737182617,-0.6931318044662476,2.61103892326355
27.7,-2.2677159309387207,1.1706440448760986,0.03866536542773247,-0.1717585325241089,0.16175104677677155,2.5362319946289062
27.75,-1.27457857131958,0.345274955034256,-1.091559886932373,-0.16146528720855713,-0.19048361480236053,2.1499009132385254
27.8,0.14729347825050354,-0.6546956300735474,-1.0537217855453491,-0.05381131172180176,-0.7244208455085754,2.1340267658233643
27.85,-1.0926871299743652,-0.2134665995836258,0.5908432006835938,0.16012537479400635,-1.030535340309143,2.5701446533203125
27.9,-2.265166997909546,0.8810865879058838,0.9011696577072144,0.0490192174911499,-0.6222367882728577,2.9837698936462402
27.95,-2.417257070541382,0.8293582797050476,-0.6577624678611755,-0.19465243816375732,0.2286519855260849,2.9586896896362305
28.0,-3.917619466781616,1.3897583484649658,-1.3929507732391357,-0.34501421451568604,0.4864785075187683,2.867327928543091
28.05,-5.243055820465088,1.5778659582138062,-1.924200177192688,-0.16291892528533936,0.2934766709804535,2.3802428245544434
28.1,-2.754692554473877,1.157757043838501,-0.12220161408185959,0.5472642183303833,-0.7264338135719299,1.1358283758163452
28.15,-0.4952060580253601,0.6424866914749146,1.045781135559082,0.8790456056594849,-1.122430443763733,0.1992771327495575
28.2,0.32978907227516174,-0.0825929269194603,1.1896661520004272,1.005941390991211,-0.6929247379302979,-0.3619997501373291
28.25,0.6988691091537476,-1.2632638216018677,1.1989129781723022,0.729749321937561,-0.6410473585128784,-0.5141807198524475
28.3,0.43158912658691406,-1.6465027332305908,0.4771253168582916,0.4839581549167633,-1.0803366899490356,-0.38208016753196716
28.35,0.667877197265625,-2.2322990894317627,-0.6557590365409851,0.36787211894989014,-1.7909002304077148,-0.4128435552120209
28.4,-0.9414420127868652,-2.846444845199585,0.6361172795295715,0.3370484411716461,-2.763408899307251,0.1211237981915474
28.45,-0.5238596796989441,8.415658950805664,-0.23708058893680573,-0.42791905999183655,-1.7619521617889404,-1.13632071018219
28.5,16.48054313659668,6.340771675109863,-6.078208923339844,-1.5262508392333984,2.8211851119995117,-8.145771026611328
28.55,4.925091743469238,-2.877963066101074,-10.505514144897461,-2.0477020740509033,5.831209182739258,-5.680117130279541
28.6,-4.852874755859375,0.3026496469974518,-1.6544666290283203,-0.7661968469619751,1.6856204271316528,-0.2471035122871399
28.65,-5.66362190246582,2.013822078704834,-1.984039545059204,-0.2992781400680542,0.22919483482837677,0.8182480335235596
28.7,-4.463160037994385,1.6548789739608765,-2.0349490642547607,0.009851932525634766,0.9840476512908936,0.44353681802749634
28.75,-1.6453171968460083,0.13462933897972107,0.24173052608966827,-0.05962330102920532,-0.19026634097099304,0.6281554102897644
28.8,0.07991981506347656,-0.053843509405851364,-0.010016935877501965,-0.24608811736106873,-0.059183601289987564,0.8299309611320496
28.85,-1.0070816278457642,0.216829314827919,-1.235114574432373,-0.34397491812705994,0.28984349966049194,0.9563698172569275
28.9,-2.0365400314331055,0.42428117990493774,-1.3865132331848145,-0.2221195101737976,-0.05259266123175621,1.0414680242538452
28.95,-2.337334632873535,0.7924129962921143,0.12132363021373749,0.05555689334869385,-0.4865986108779907,0.9618780612945557
29.0,-2.197739601135254,0.49828922748565674,-0.5123097896575928,0.08102348446846008,-0.5460690855979919,0.8202213048934937
29.05,-0.4475405216217041,-0.2107010781764984,-1.5253865718841553,0.1968560665845871,-0.625559389591217,0.6095701456069946
29.1,0.46262919902801514,-0.39166179299354553,-1.7377986907958984,0.30356499552726746,-0.4992793798446655,0.6140735149383545
29.15,1.1946611404418945,0.05918499827384949,0.19693130254745483,0.36253809928894043,-0.5694132447242737,0.6546183228492737
29.2,-0.3600425720214844,0.012331956066191196,-0.49247315526008606,0.2952088713645935,0.048308901488780975,0.5764421820640564
29.25,-0.6307851076126099,-0.5657234787940979,-0.5270369052886963,0.4050321578979492,0.20826929807662964,0.4781915545463562
29.3,-1.266579031944275,-0.2202005684375763,-1.084329605102539,0.2664090394973755,0.43620145320892334,0.5881043076515198
29.35,-0.772420346736908,-0.2659483551979065,-1.0991466045379639,0.2428482323884964,0.17313404381275177,0.541275143623352
29.4,-0.11096075177192688,0.13687515258789062,-0.5018759965896606,0.2550748586654663,0.4256822168827057,0.6946125626564026
29.45,-0.015933632850646973,0.08541962504386902,-0.7821923494338989,0.1197463870048523,0.4847038686275482,0.6518216729164124
29.5,-0.38388195633888245,0.20516972243785858,-0.14876723289489746,0.16286109387874603,0.43966910243034363,0.6067931652069092
29.55,-0.7799358367919922,0.05129338800907135,-0.4605141878128052,0.03631940484046936,0.6826711297035217,0.5107754468917847
29.6,-0.6316977739334106,0.09502220153808594,-0.8626443147659302,0.047434866428375244,0.4730570912361145,0.31007394194602966
29.65,-0.023442119359970093,0.01056857779622078,-0.9320029616355896,0.1360558569431305,0.320802241563797,0.21774396300315857
29.7,-0.22374364733695984,0.2401275634765625,-0.8578680753707886,0.21863868832588196,0.5944165587425232,0.44008028507232666
29.75,-0.6413341760635376,-0.00706196716055274,-0.7060666680335999,0.23518353700637817,0.722543478012085,0.49552956223487854
29.8,-0.7851076126098633,0.15555672347545624,-0.14293409883975983,0.36530423164367676,0.37902697920799255,0.4066671133041382
29.85,-0.239352285861969,-0.17872047424316406,-0.0007763164467178285,0.36196812987327576,0.13242752850055695,0.08169034868478775
29.9,0.9559966325759888,0.07112883031368256,0.30497241020202637,0.4282715320587158,-0.2027050405740738,0.045217741280794144
29.95,-0.3029463291168213,0.04562857747077942,0.34348440170288086,0.2768535912036896,-0.1751922219991684,0.23658564686775208
30.0,-1.7033323049545288,0.38172265887260437,1.833541750907898,0.17678354680538177,-0.07052343338727951,0.1371363252401352
30.05,-1.5553944110870361,0.1361313760280609,0.4907313585281372,-0.0789683610200882,0.45674553513526917,0.1755855679512024
30.1,-0.3899226486682892,-0.3904286324977875,-1.1164826154708862,-0.12040209770202637,0.7743285298347473,0.2292172759771347
30.15,0.09324273467063904,0.1720399558544159,-1.05596125125885,0.12878374755382538,0.28758230805397034,0.3145909309387207
30.2,-0.5967855453491211,-0.12761405110359192,-0.9418619871139526,0.40405797958374023,-0.23064342141151428,0.08951345086097717
30.25,-1.1024104356765747,-0.3523407280445099,-0.6960158348083496,0.38266173005104065,-0.5430552363395691,-0.010274979285895824
30.3,-0.27502772212028503,-0.2583971321582794,-0.40325966477394104,0.1967662274837494,-0.40304118394851685,0.04466021806001663
30.35,-1.09706711769104,-0.13077352941036224,-0.14739079773426056,0.20966827869415283,-0.11740008741617203,0.13089364767074585
30.4,-0.8827618360519409,-0.2936106026172638,-0.5632771849632263,0.1407804787158966,0.27830517292022705,0.06831791996955872
30.45,0.29965436458587646,-0.11939246952533722,-1.1310272216796875,0.24446851015090942,0.2759718596935272,-0.015178194269537926
30.5,0.3706737160682678,0.04539106413722038,-0.18816116452217102,0.5397099256515503,0.08106092363595963,-0.0028764258604496717
30.55,-0.27115294337272644,-0.09419253468513489,-0.48406949639320374,0.46991145610809326,0.06671791523694992,0.012349579483270645
30.6,-0.6050094962120056,-0.16720104217529297,-0.1406364142894745,0.7002748847007751,-0.10092651844024658,-0.06084103137254715
30.65,-0.3897136449813843,0.10406401753425598,0.041981540620326996,0.8715503215789795,-0.18374359607696533,-0.10728288441896439
30.7,-0.2240961790084839,-0.06271453201770782,0.9159711003303528,0.9675308465957642,-0.6812371015548706,-0.2490411251783371
30.75,-0.5108931660652161,-0.061398476362228394,0.3980133831501007,0.9274371862411499,-0.3974376320838928,-0.262952595949173
30.8,-0.6324428915977478,0.2330484837293625,-0.17770764231681824,0.8528360724449158,0.028051959350705147,-0.29237470030784607
30.85,0.006676524877548218,0.22738367319107056,0.5509656667709351,1.0445579290390015,0.48939383029937744,-0.44212865829467773
30.9,-0.04293636977672577,0.43247994780540466,0.32651486992836,1.0263738632202148,0.7273616194725037,-0.33135414123535156
30.95,-0.11111180484294891,0.4942341446876526,-0.39535072445869446,0.9743790626525879,1.0770472288131714,-0.18890559673309326
31.0,-0.8730078935623169,0.11896421760320663,-0.571237325668335,0.845131516456604,1.2351545095443726,-0.08543823659420013
31.05,-0.9775059223175049,-0.3858194649219513,0.03267962485551834,0.7586413025856018,1.2524858713150024,-0.018145516514778137
31.1,-0.7039715051651001,0.12737566232681274,0.24141331017017365,0.7087656259536743,1.4787697792053223,0.041099876165390015
31.15,-1.511625051498413,1.093938946723938,-0.10729127377271652,0.5964183807373047,1.558492660522461,-0.1510574370622635
31.2,-0.5895535945892334,0.35793790221214294,0.8112584948539734,0.3021669387817383,1.2011845111846924,-0.7825562953948975
31.25,0.7401861548423767,-0.20446018874645233,0.42310839891433716,-0.03061378002166748,0.9815052151679993,-1.3562138080596924
31.3,1.17379891872406,0.0477580800652504,0.3035377562046051,-0.01367032527923584,1.1349762678146362,-1.491525411605835
31.35,0.2593156099319458,2.301250696182251,0.5138562917709351,0.09680771827697754,1.1816149950027466,-1.83103609085083
31.4,-1.9969812631607056,7.275604248046875,-5.137241363525391,0.10001301765441895,0.9682571291923523,-1.684973955154419
31.45,-2.651855945587158,9.112171173095703,-4.799572467803955,0.13762658834457397,0.26069024205207825,-1.8491617441177368
31.5,-1.9803051948547363,7.483125686645508,-4.28008508682251,0.3089293837547302,0.017615167424082756,-1.3769505023956299
31.55,0.13062649965286255,5.441695690155029,-2.155719518661499,0.3419921398162842,0.13265803456306458,-1.0552513599395752
31.6,0.7529403567314148,0.19704248011112213,0.2656461000442505,0.3883201777935028,-0.001997189363464713,-0.6231369972229004
31.65,0.4681130051612854,-0.6570196151733398,1.7508552074432373,0.6351879835128784,-0.02353714033961296,0.21740832924842834
31.7,-0.24239669740200043,1.9219763278961182,-0.5549875497817993,0.8419450521469116,0.24375736713409424,0.6308647394180298
31.75,-0.11884534358978271,-0.7686500549316406,2.3035824298858643,1.1982191801071167,-0.8250091671943665,-0.2976999580860138
31.8,-0.4148350954055786,-0.6911982893943787,2.252420663833618,1.1328072547912598,-0.7008200287818909,0.15307171642780304
31.85,-1.3707795143127441,1.6400541067123413,1.6689074039459229,0.9756765961647034,-0.7384485006332397,0.6628086566925049
31.9,1.3062798976898193,0.5451831817626953,-0.6692950129508972,0.0906887948513031,-2.2700541019439697,-0.0352482832968235
31.95,1.7951780557632446,1.2740306854248047,-1.882001280784607,-0.33516114950180054,-2.8520419597625732,0.05630766600370407
32.0,1.1512925624847412,1.4062252044677734,-1.1549965143203735,-0.7550973892211914,-3.4135756492614746,0.09028393775224686
32.05,0.8020838499069214,-2.1289427280426025,0.9134383797645569,-0.9527381658554077,-2.311413288116455,-1.1592174768447876
32.1,2.459744691848755,-0.426033079624176,1.8798946142196655,1.1126490831375122,2.5775539875030518,-2.4357471466064453
32.15,4.757306098937988,-6.362575054168701,-1.9167022705078125,2.252194881439209,5.663708686828613,-4.495068073272705
32.2,1.4873687028884888,-4.062004566192627,-2.9463768005371094,2.8308041095733643,5.327140808105469,-2.707980155944824
32.25,-1.5946462154388428,0.15885168313980103,-0.40400809049606323,2.856736660003662,3.7044739723205566,-2.222855806350708
32.3,-2.769709587097168,0.543389618396759,3.423201322555542,2.763065814971924,3.228414297103882,-2.200380563735962
32.35,0.048430025577545166,1.447468876838684,0.6535910964012146,3.0768439769744873,3.0676205158233643,-1.7215168476104736
32.4,1.0161821842193604,3.389556646347046,3.90417218208313,1.7231574058532715,2.0304722785949707,-2.018561363220215
32.45,0.45072081685066223,3.3516831398010254,-0.6358838677406311,0.4043760299682617,2.035763740539551,-2.5750937461853027
32.5,1.334825873374939,3.628269672393799,-0.7465718388557434,-0.6501202583312988,1.355454683303833,-3.3779492378234863
32.55,-0.37730592489242554,1.558600664138794,-0.9659672975540161,-1.6482585668563843,1.9603873491287231,-4.719020843505859
32.6,-0.3630903363227844,-0.5494624376296997,-1.3817753791809082,-1.1432442665100098,1.352221131324768,-5.094876289367676
32.65,0.8735718727111816,1.1558036804199219,-2.1626055240631104,-0.6652859449386597,0.9123273491859436,-4.11179256439209
32.7,6.119258880615234,1.3621224164962769,-1.190721869468689,-0.3172215223312378,-0.5566299557685852,-3.1896071434020996
32.75,4.694220542907715,-2.6969752311706543,0.4130285680294037,-0.13995158672332764,-0.7796788811683655,-2.9183554649353027
32.8,1.3881429433822632,-3.219104290008545,1.8350752592086792,0.14359426498413086,-0.10908888280391693,-2.4297475814819336
32.85,-0.04857456684112549,-2.910625696182251,2.117487668991089,0.09804010391235352,0.1674087643623352,-1.783820390701294
32.9,0.1613388955593109,-0.9541426301002502,1.0294272899627686,0.38840386271476746,0.5744441151618958,-1.0759615898132324
32.95,0.15680581331253052,0.27911192178726196,0.8892428874969482,0.2279137670993805,0.7559265494346619,-0.9831464886665344
33.0,0.23905342817306519,-0.2626056969165802,-0.05023159086704254,-0.05612310767173767,0.7258659601211548,-0.8083550333976746
33.05,0.12219277024269104,-0.5526896715164185,-1.0989128351211548,-0.0448298454284668,1.2183128595352173,-0.8248423337936401
33.1,-0.2957351505756378,-0.49316510558128357,-0.666752278804779,-0.3779712915420532,1.3485149145126343,-0.7905685305595398
33.15,-0.40301087498664856,-0.13051415979862213,-0.3623673915863037,-0.6578146815299988,1.3494065999984741,-0.641281008720398
33.2,0.23915453255176544,-0.9441405534744263,0.24671611189842224,-1.0320000648498535,1.2235419750213623,-0.32412296533584595
33.25,-0.663804829120636,-0.11755844205617905,0.5206456780433655,-0.820451021194458,1.2967852354049683,-0.32467442750930786
33.3,-0.4876713752746582,-0.2925262451171875,-0.0003875221300404519,-0.6741267442703247,1.122757911682129,-0.19553542137145996
33.35,-0.034559428691864014,-1.1598750352859497,0.16641005873680115,-0.3922584354877472,1.046612024307251,-0.3009723722934723
33.4,-0.30344706773757935,-0.5572414994239807,0.12157926708459854,0.11518601328134537,1.2653193473815918,-0.38203004002571106
33.45,0.8182467818260193,-1.524963617324829,0.24683460593223572,0.2291191667318344,1.2037657499313354,-0.04958106949925423
33.5,1.3800394535064697,-1.607265830039978,-0.20653071999549866,0.5432069897651672,1.1252689361572266,-0.3406105041503906
33.55,0.11183404922485352,0.15006160736083984,-0.3215089440345764,0.3688703179359436,1.4035890102386475,-0.6426625847816467
33.6,-0.06526094675064087,1.0105687379837036,-1.1512125730514526,0.26919156312942505,1.5334031581878662,-0.5964495539665222
33.65,0.742672324180603,-0.069434255361557,-1.196861743927002,-0.1875293254852295,1.9213095903396606,-0.09467742592096329
33.7,0.28628236055374146,0.19118019938468933,-0.9829245805740356,-0.2947326898574829,2.116267204284668,-0.026435501873493195
33.75,1.0353453159332275,-2.4020278453826904,0.9614389538764954,-0.891427755355835,1.8890806436538696,0.138584166765213
33.8,0.406737744808197,1.102462887763977,1.6161450147628784,-0.507577121257782,1.2544796466827393,-1.0288231372833252
33.85,-0.3131932020187378,2.1105825901031494,0.9441462755203247,-0.4954325556755066,0.5868711471557617,-0.5377482771873474
33.9,0.6630738377571106,1.116599202156067,1.1337071657180786,-0.42272835969924927,-0.01331767626106739,0.13676615059375763
33.95,1.8728411197662354,-0.32117748260498047,2.096102714538574,-0.7152524590492249,-0.05048089474439621,1.207000494003296
34.0,0.16501036286354065,-0.7051029205322266,0.8188759684562683,-0.691746711730957,-0.4517056941986084,0.9628955721855164
34.05,-0.14132335782051086,0.18366432189941406,-0.5436477661132812,-0.5037070512771606,-0.4556220471858978,0.4076903164386749
34.1,-0.049143463373184204,0.13801763951778412,-0.6200398206710815,0.07220771908760071,-0.1741650253534317,0.10904651135206223
34.15,0.2857356071472168,2.075819253921509,-1.135084629058838,1.9469082355499268,-0.27326974272727966,-1.1356890201568604
34.2,-0.030376911163330078,2.6471006870269775,-0.8848150372505188,2.8700129985809326,0.33309122920036316,-1.3401715755462646
34.25,1.5764415264129639,1.4724513292312622,2.6063058376312256,2.650136947631836,1.2756776809692383,-0.444522887468338
34.3,0.5398354530334473,0.15340809524059296,0.9467639923095703,2.8362274169921875,1.2235057353973389,-0.33938366174697876
34.35,-0.4702945053577423,1.6986621618270874,1.3335461616516113,2.564532518386841,1.0360703468322754,0.14956682920455933
34.4,-0.30115094780921936,0.3582373261451721,0.3234146237373352,1.6157830953598022,0.5944584012031555,1.5876178741455078
34.45,0.03096151351928711,0.09285715222358704,-4.762040615081787,1.2143770456314087,0.19451430439949036,1.7772648334503174
34.5,-0.8106940984725952,-0.24027740955352783,-2.473890781402588,1.465147852897644,-0.3306022882461548,0.6546683311462402
34.55,-0.7671480774879456,-0.15596383810043335,1.047567367553711,1.4395760297775269,0.2750162184238434,0.5411998629570007
34.6,-0.4323318600654602,-0.4415759742259979,1.3019994497299194,1.2044000625610352,0.4492087662220001,1.3209296464920044
34.65,-0.21606291830539703,-1.554328203201294,0.36497214436531067,1.480832576751709,0.3687872886657715,1.1466822624206543
34.7,-1.7891833782196045,-0.8387556672096252,0.3769119381904602,1.4301270246505737,0.25672781467437744,0.6741613149642944
34.75,-0.32299166917800903,0.15638649463653564,2.1677207946777344,0.8930720090866089,0.08578944206237793,0.804664671421051
34.8,-1.2177908420562744,-1.075514793395996,0.411587119102478,0.8706741333007812,-0.4811433255672455,1.0366140604019165
34.85,-1.0847439765930176,-0.4978656768798828,0.36697664856910706,0.8212490081787109,-0.7122101783752441,0.8625269532203674
34.9,0.11511337757110596,-1.6836798191070557,-0.2466953545808792,0.9515373110771179,-0.28708842396736145,0.651114284992218
34.95,-0.15698516368865967,0.6625062227249146,1.2708184719085693,0.5686010122299194,-0.44076767563819885,0.3269905745983124
35.0,2.239858627319336,-1.3998920917510986,-1.485267162322998,0.45064276456832886,-0.6810213327407837,0.5372913479804993
35.05,1.8081049919128418,-1.4647858142852783,-1.1099674701690674,0.14307408034801483,-0.29914602637290955,-0.25595930218696594
35.1,1.1685678958892822,-1.5104678869247437,-1.0297931432724,0.20857897400856018,0.18371523916721344,-0.47231271862983704
35.15,0.636340856552124,-0.37502577900886536,0.9108386039733887,0.1030069887638092,0.238824263215065,-0.23963859677314758
35.2,2.008307456970215,-0.8750221133232117,0.5758651494979858,-0.062136195600032806,-0.30094876885414124,0.27123627066612244
35.25,-1.242295265197754,0.3347550928592682,1.5489158630371094,-0.19908657670021057,-1.5137449502944946,0.9071612358093262
35.3,0.14214134216308594,-1.204378366470337,-2.410839080810547,-0.12692588567733765,-3.3621163368225098,1.9805431365966797
35.35,3.0183522701263428,-1.6006693840026855,-2.145817756652832,-0.7176079750061035,-2.8747434616088867,1.2958987951278687
35.4,1.939009428024292,-1.1309770345687866,-2.3503870964050293,-0.7966398000717163,-0.8256745338439941,0.247872456908226
35.45,1.3755362033843994,-1.6173423528671265,-1.7913414239883423,-1.173527717590332,0.33480170369148254,0.12458213418722153
35.5,2.2586116790771484,-0.6453428864479065,1.3754552602767944,-1.660130262374878,0.5933941006660461,0.01804325543344021
35.55,1.8630176782608032,-0.5028210282325745,1.5622833967208862,-1.6903090476989746,-0.3197242319583893,-0.10946419090032578
35.6,0.6389383673667908,-0.5680962204933167,0.9269914031028748,-1.882114291191101,-0.61513751745224,-0.12571176886558533
35.65,0.35228678584098816,-0.23604869842529297,0.8290681838989258,-2.180635929107666,-0.5016542673110962,-0.0952625572681427
35.7,3.7165534496307373,5.560550212860107,2.616589069366455,-2.362111806869507,-0.4705144166946411,-0.9202523231506348
35.75,-0.16767901182174683,1.3664675951004028,-0.11938003450632095,-2.214097499847412,-3.1859824657440186,-2.8919832706451416
35.8,-5.066715240478516,3.8453376293182373,-0.6091563701629639,-3.4461560249328613,-2.8365771770477295,-0.7237418293952942
35.85,-4.477921009063721,-2.1184804439544678,-1.1626704931259155,-3.7927815914154053,-2.1544601917266846,3.0230801105499268
35.9,2.351356267929077,-4.184537887573242,-0.45420825481414795,-1.788309097290039,-0.3546164631843567,2.0156755447387695
35.95,2.5816521644592285,-3.038755178451538,-0.5041876435279846,-0.7114943265914917,0.15855155885219574,-1.7667474746704102
36.0,2.128265857696533,-0.9709340333938599,1.1984522342681885,-1.3857696056365967,0.1658225953578949,-2.1547584533691406
36.05,-1.0567132234573364,2.738638162612915,0.7371595501899719,-1.057527780532837,-0.9175655841827393,-1.4530954360961914
36.1,-3.6859965324401855,3.9525821208953857,2.1827569007873535,-0.9741570949554443,-0.4856697916984558,-1.1149778366088867
36.15,-2.419494152069092,3.7971713542938232,1.4808919429779053,0.17373192310333252,-0.18923862278461456,-1.5054492950439453
36.2,1.4704821109771729,-0.9289074540138245,2.252279281616211,0.3554956316947937,0.29217156767845154,-0.6255089044570923
36.25,0.08391088247299194,-1.4526846408843994,-1.2648545503616333,0.532860279083252,-0.7641050219535828,-0.12170135974884033
36.3,-0.12098589539527893,-0.8569595217704773,-1.0251795053482056,0.5418205261230469,-0.5508023500442505,-0.5146364569664001
36.35,-0.8181283473968506,0.9489718675613403,-0.7431873083114624,0.43725621700286865,-0.2159327119588852,-0.8676488399505615
36.4,-0.2082393765449524,1.4845945835113525,1.7863885164260864,0.0004484672099351883,0.5738081336021423,-0.06032201275229454
36.45,2.1394317150115967,-3.7911477088928223,3.7051079273223877,-0.5351229310035706,0.27546510100364685,0.9060327410697937
36.5,20.07422637939453,-16.731271743774414,10.287405967712402,-2.4657938480377197,-0.8868532180786133,1.0558432340621948
36.55,12.093647003173828,-27.983078002929688,13.276725769042969,-1.9661052227020264,-4.445977687835693,0.03370443359017372
36.6,-18.549713134765625,4.345663547515869,2.889892339706421,-2.2324461936950684,-4.6356520652771,-5.87500524520874
36.65,-22.29723358154297,22.3950252532959,-12.48066234588623,-1.3404383659362793,-5.42460823059082,-3.517399787902832
36.7,3.462421417236328,54.612857818603516,-25.632568359375,-0.9456332921981812,-4.900810718536377,-1.9595880508422852
36.75,-29.668476104736328,45.026756286621094,-2.5763895511627197,5.508002281188965,1.3134632110595703,6.869067668914795
36.8,-30.6820011138916,-37.21696090698242,20.52153778076172,11.540912628173828,4.557167053222656,12.561610221862793
36.85,20.379980087280273,-46.27862548828125,-10.449545860290527,7.471363067626953,9.018115043640137,5.765666961669922
36.9,16.89916229248047,-1.6070561408996582,10.119284629821777,1.0383644104003906,9.89139175415039,2.751197576522827
36.95,12.205066680908203,-5.344451427459717,0.6393968462944031,1.0172793865203857,4.377081871032715,1.8350677490234375
37.0,25.64983367919922,-19.927175521850586,-12.955510139465332,-1.790203332901001,-0.1666165292263031,0.736572265625
37.05,10.06816577911377,-37.95217514038086,8.857726097106934,-8.05015754699707,-1.455441951751709,-5.007373809814453
37.1,-8.766032218933105,-11.01602554321289,39.121185302734375,-11.267101287841797,-4.970245361328125,-12.530783653259277
37.15,-17.338468551635742,20.38663673400879,-0.7110402584075928,-12.409753799438477,-9.337380409240723,-9.048419952392578
37.2,-4.25114631652832,34.118507385253906,-13.699844360351562,-3.371109962463379,-5.902132987976074,-5.616547107696533
37.25,7.106976509094238,6.518335342407227,1.2471040487289429,3.055251121520996,-7.091193675994873,-1.9524579048156738
37.3,4.701290607452393,-0.8502172231674194,-1.17274808883667,2.183316230773926,-3.017211675643921,0.21243751049041748
37.35,1.8820712566375732,1.2712781429290771,-6.614275932312012,0.7028449773788452,-2.4803850650787354,0.998947024345398
37.4,-0.14594566822052002,0.8552162647247314,2.5617733001708984,0.4880126416683197,-1.4458869695663452,0.97902911901474
37.45,-1.2970585823059082,2.506696939468384,-0.32315680384635925,-0.10281813144683838,-1.7493635416030884,2.098008155822754
37.5,0.5774092674255371,1.6385873556137085,2.936485767364502,0.2835038900375366,-1.2273662090301514,2.0884931087493896
37.55,0.7553597688674927,-0.29746824502944946,0.13575200736522675,0.6139844655990601,-1.2112370729446411,2.8944015502929688
37.6,-0.6427745819091797,2.6966354846954346,0.9984992742538452,0.4429659843444824,-0.6616198420524597,2.965803623199463
37.65,1.8151358366012573,2.075425386428833,-0.4062653183937073,0.5143685340881348,-0.6229912638664246,3.222719430923462
37.7,0.2318420708179474,1.4209777116775513,-0.6249081492424011,0.3971489667892456,-0.251544713973999,3.881747007369995
37.75,3.423553466796875,-0.736275851726532,0.7030367255210876,0.19758009910583496,0.24670955538749695,4.221546649932861
37.8,3.0470855236053467,0.06050579249858856,0.7943292856216431,-0.13347852230072021,1.6932963132858276,4.172891139984131
37.85,2.6185014247894287,-3.298499345779419,-0.47367116808891296,-0.7160934209823608,2.2930352687835693,4.030547142028809
37.9,2.4322519302368164,-2.200951337814331,0.5631996989250183,-0.6800159215927124,2.4666666984558105,3.526017427444458
37.95,0.6177111864089966,0.2658090889453888,0.7533395290374756,-0.2702920436859131,2.8934497833251953,2.9524753093719482
38.0,0.35280394554138184,-0.04288279265165329,3.1261231899261475,0.41784048080444336,3.125901699066162,3.2836391925811768
38.05,0.616102933883667,-0.8417484164237976,-1.0527191162109375,1.441160798072815,2.59415340423584,3.3727924823760986
38.1,-0.12250418215990067,-3.317697048187256,0.2750547230243683,1.604266881942749,2.6485683917999268,3.987762212753296
38.15,1.0732603073120117,-1.4702188968658447,-0.6975861191749573,1.013789415359497,1.857750654220581,3.9749035835266113
38.2,4.120335102081299,-0.9003936648368835,2.338676691055298,-0.31006622314453125,0.35759568214416504,2.872929573059082
38.25,1.3547600507736206,-1.1832972764968872,1.646807312965393,-0.7714255452156067,0.8551115393638611,1.8680830001831055
38.3,-1.2869065999984741,-0.3457314968109131,4.474060535430908,-0.3544144034385681,0.5439372658729553,1.7011933326721191
38.35,0.18406903743743896,0.2585699260234833,3.965210437774658,-0.3099561929702759,-0.27336838841438293,0.8269485235214233
38.4,4.309001922607422,0.015234864316880703,1.7393248081207275,-0.2581064701080322,-1.7361047267913818,0.6450653076171875
38.45,32.78688049316406,-12.876914978027344,0.3144933581352234,-0.7220792174339294,-3.3377845287323,0.5039326548576355
38.5,12.397527694702148,-14.307745933532715,27.56578254699707,-3.936800956726074,-7.945276737213135,-4.461073398590088
38.55,-7.219160079956055,-2.7969348430633545,27.773880004882812,-3.1371798515319824,-12.167513847351074,-1.0880928039550781
38.6,-26.197898864746094,8.869917869567871,4.935317516326904,-2.923548698425293,-10.43964958190918,-4.408510684967041
38.65,-20.232311248779297,-7.810644149780273,-11.46646499633789,-3.3630988597869873,-7.864107131958008,-2.846607208251953
38.7,-13.125861167907715,12.123885154724121,-11.477158546447754,-0.9457385540008545,-4.153393268585205,-6.998637676239014
38.75,-3.7071661949157715,12.690590858459473,-4.458948135375977,-1.51243257522583,-0.9596642255783081,-3.6253840923309326
38.8,0.4516533613204956,8.049053192138672,1.5430877208709717,-0.22243914008140564,-0.12420575320720673,-1.038889765739441
38.85,0.5572394132614136,-0.36735332012176514,3.5106165409088135,-0.16467517614364624,-0.7460346817970276,0.332983136177063
38.9,0.6596025824546814,0.8364382386207581,-0.6386908292770386,0.6496672630310059,-1.6425793170928955,-0.4298087954521179
38.95,0.3614737391471863,3.0233092308044434,0.9882063865661621,1.1535632610321045,-1.2328033447265625,-0.48520326614379883
39.0,1.3826571702957153,1.5739719867706299,0.8254000544548035,0.609339714050293,-1.1298047304153442,0.2664619982242584
39.05,0.10580599308013916,0.623482882976532,2.5280697345733643,0.3180466592311859,-1.0626708269119263,0.4813147187232971
39.1,-1.069128155708313,1.1812336444854736,0.9096474647521973,-0.11699378490447998,-1.7169829607009888,0.3881770372390747
39.15,0.05223293602466583,3.2789855003356934,-0.5405451655387878,-0.2112313210964203,-1.8412834405899048,0.39911091327667236
39.2,-0.3265444338321686,2.4592859745025635,0.219176784157753,-0.08612912893295288,-1.6762083768844604,0.8121236562728882
39.25,0.8322557210922241,3.1181607246398926,-0.25428706407546997,0.04594200849533081,-1.8391185998916626,1.0878273248672485
39.3,0.07964280247688293,2.7479002475738525,-0.46415790915489197,-0.15538305044174194,-1.6644011735916138,1.6828826665878296
39.35,0.707183837890625,2.183955192565918,-2.1330127716064453,-0.3381168246269226,-1.5085113048553467,2.347529649734497
39.4,2.246251106262207,0.9932060241699219,-1.3633592128753662,-0.4335993528366089,-0.981278121471405,2.5804295539855957
39.45,1.613417387008667,0.21266648173332214,0.15280701220035553,-0.4943118095397949,-0.0815468430519104,2.718841075897217
39.5,2.230154037475586,2.135507822036743,-0.4420870542526245,-0.9419367909431458,0.2849074900150299,2.666881561279297
39.55,2.5294389724731445,0.950286865234375,-0.7157655358314514,-1.29519784450531,0.7437204718589783,2.581798553466797
39.6,-0.7010887861251831,-2.014578104019165,0.0537409782409668,-1.3927030563354492,2.090730905532837,2.8989055156707764
39.65,1.0884209871292114,-1.9522936344146729,2.0590131282806396,-0.9675875902175903,2.786298990249634,2.6372640132904053
39.7,1.0719316005706787,-1.216553807258606,2.0988121032714844,-0.5433281064033508,2.4219958782196045,2.173689842224121
39.75,-0.360221266746521,-1.0667314529418945,1.7821171283721924,-0.4819093942642212,2.1481881141662598,2.481104612350464
39.8,1.684574007987976,-3.7199220657348633,2.037116765975952,-0.9382899403572083,1.8070664405822754,2.5745298862457275
39.85,0.2590409517288208,-0.8055649399757385,1.4547312259674072,-0.29692667722702026,2.492075204849243,1.783094048500061
39.9,1.8350733518600464,-1.8911139965057373,2.3820788860321045,-0.37083733081817627,2.732667922973633,2.261904001235962
39.95,-0.12719295918941498,-2.0111029148101807,0.6373839378356934,0.5462527871131897,3.7235217094421387,2.2044427394866943
40.0,-1.3152849674224854,-2.4252326488494873,0.15268614888191223,1.0802826881408691,4.244704246520996,2.7924134731292725
40.05,-2.528810739517212,-3.520883083343506,-0.28811416029930115,0.2170882225036621,4.349602222442627,3.775646924972534
40.1,-0.22591593861579895,-0.8959036469459534,1.0839428901672363,-0.05785226821899414,-0.47395452857017517,4.407167434692383
40.15,1.9789271354675293,0.2269955575466156,2.8454463481903076,-0.05852246284484863,-2.39791202545166,3.5993130207061768
40.2,0.47632741928100586,0.14041350781917572,5.067758560180664,0.5871071815490723,-2.840834140777588,1.6703873872756958
40.25,-0.4745854437351227,0.08273039013147354,1.5667836666107178,0.09881630539894104,-1.3753058910369873,0.8614369630813599
40.3,1.5482138395309448,1.218084454536438,1.8533746004104614,0.3200533390045166,-0.8513569235801697,0.4723384380340576
40.35,0.7202588319778442,-0.35317811369895935,-0.5962362885475159,0.9456384181976318,-0.6967693567276001,-0.5198062062263489
40.4,3.2368547916412354,-0.07286464422941208,0.4124321937561035,0.23326651751995087,-0.23735716938972473,-0.4010493755340576
40.45,2.195636749267578,-12.25572395324707,-2.6900765895843506,1.769544243812561,-1.3605246543884277,-4.818746089935303
40.5,-4.984715938568115,-22.45956039428711,18.742015838623047,3.238198757171631,-15.546445846557617,-11.432842254638672
40.55,-14.814542770385742,0.3049057424068451,4.340703964233398,-0.3678247928619385,-9.966662406921387,-3.5312232971191406
40.6,4.558788299560547,-0.6725258231163025,-3.4042532444000244,-3.979292392730713,-6.648178577423096,-2.403424024581909
40.65,-0.4008721113204956,-4.778775691986084,0.7670116424560547,-2.121105194091797,-2.899205446243286,-2.9172961711883545
40.7,-2.5621087551116943,-1.5284758806228638,0.008570937439799309,-1.0595097541809082,-1.8193951845169067,-2.7485342025756836
40.75,-2.404521942138672,-0.42903992533683777,-0.1469532549381256,-0.6114454865455627,-0.5558241605758667,-2.2329697608947754
40.8,-2.2063491344451904,0.054972704499959946,-0.8162919878959656,0.08493781089782715,0.17729705572128296,-2.1567227840423584
40.85,-1.9245023727416992,0.49681687355041504,2.3545703887939453,-0.36443454027175903,0.3125053942203522,-2.055936813354492
40.9,-2.804835796356201,2.153287410736084,2.184138774871826,0.4401383399963379,0.5399990081787109,-2.1608362197875977
40.95,-2.3509135246276855,1.1561014652252197,0.6388269662857056,0.6315613389015198,0.34846174716949463,-1.7761902809143066
41.0,-1.799804925918579,1.7059873342514038,0.5353056192398071,0.2740827202796936,0.15884220600128174,-1.6528562307357788
41.05,-1.2545595169067383,1.170155644416809,-1.1881566047668457,0.7561832666397095,0.011148412711918354,-1.0723679065704346
41.1,-0.8635275363922119,1.5911905765533447,0.37622833251953125,0.9631262421607971,0.2706456780433655,-0.9073377847671509
41.15,-0.21850833296775818,1.0575886964797974,1.0564011335372925,1.0357825756072998,0.10620086640119553,-0.5662533640861511
41.2,-0.18153882026672363,0.792603611946106,0.2521460950374603,1.4728591442108154,0.07846706360578537,-0.37838292121887207
41.25,-0.33536699414253235,0.9976569414138794,0.37066397070884705,1.5477087497711182,0.09608770161867142,-0.18680202960968018
41.3,-1.1185137033462524,0.6322576403617859,1.3630856275558472,1.5681973695755005,0.16117428243160248,-0.07211010903120041
41.35,-0.145452082157135,0.24485306441783905,0.3380548059940338,1.0817605257034302,-0.3028493821620941,0.039885263890028
41.4,-0.72853684425354,0.16777142882347107,1.0243664979934692,0.82803875207901,-0.08263959735631943,-0.07452426105737686
41.45,-0.6111583113670349,0.9006587862968445,0.5581802129745483,1.6166515350341797,-0.07309780269861221,-0.0085489796474576
41.5,-1.0044666528701782,1.2247259616851807,1.9959641695022583,0.8336764574050903,0.007150144781917334,0.051329225301742554
41.55,-0.5695230960845947,-0.4168463349342346,-0.3524163067340851,0.7867175340652466,-0.26537150144577026,0.2787380516529083
41.6,-0.9209702014923096,0.019126005470752716,0.658061146736145,0.3805641829967499,-0.44419947266578674,0.3992408215999603
41.65,-0.9732750654220581,0.7663518190383911,-0.5193412899971008,-0.2434602528810501,-1.0647246837615967,0.6893876194953918
41.7,-0.6504940986633301,-0.5677233338356018,-0.5609135031700134,-1.2495512962341309,-1.2305679321289062,1.0010749101638794
41.75,-0.9624366760253906,1.3256875276565552,-1.1468514204025269,-1.2900373935699463,-0.9696998000144958,0.8414739966392517
41.8,-1.1575477123260498,-0.054879166185855865,-0.3418724834918976,-1.3785508871078491,-0.9139967560768127,1.3270447254180908
41.85,-0.5633904933929443,-0.39228829741477966,-1.3989887237548828,-1.320369005203247,-0.5969685316085815,1.2312991619110107
41.9,-0.6450801491737366,-1.052642822265625,2.47578501701355,-1.4527722597122192,-0.04358845204114914,1.6730246543884277
41.95,-0.1950589418411255,-0.8230295777320862,0.9613416194915771,-1.001529335975647,0.33607810735702515,1.1605589389801025
42.0,-0.5730680227279663,-0.412932425737381,-0.08103681355714798,-0.9166489839553833,0.43726834654808044,0.7121161818504333
42.05,-1.943765640258789,0.658605694770813,-0.5515384674072266,-1.5338116884231567,0.1416393220424652,0.45227473974227905
42.1,-0.3466874957084656,-1.5427830219268799,-1.584826111793518,-1.7030835151672363,0.7330862879753113,0.5139932632446289
42.15,-1.3262667655944824,-0.7264671921730042,-0.5775300860404968,-2.386606454849243,0.9779475927352905,0.6503450870513916
42.2,-3.477613687515259,-2.0398917198181152,2.273669958114624,-3.4922049045562744,1.3759534358978271,0.3520112931728363
42.25,-4.486423969268799,-1.5457239151000977,1.493425965309143,-2.9023208618164062,2.3101611137390137,1.022078275680542
42.3,-3.9665753841400146,-1.3436973094940186,3.7776219844818115,-3.594466209411621,3.313260555267334,1.77631676197052
42.35,-3.177521228790283,-3.117543935775757,10.430730819702148,-2.271549701690674,2.518742322921753,2.5321896076202393
42.4,2.667813301086426,-4.441492557525635,9.967329025268555,-0.9311134815216064,4.117955207824707,5.5126051902771
42.45,11.365439414978027,2.792311906814575,6.939712047576904,2.3494884967803955,4.483545780181885,5.045985698699951
42.5,5.978917121887207,7.878129959106445,2.2195611000061035,4.5131378173828125,4.750864505767822,2.341325283050537
42.55,1.303008794784546,9.368598937988281,3.499579906463623,7.903088092803955,4.283821105957031,0.06254555284976959
42.6,2.5082409381866455,-7.323236465454102,-5.699881076812744,8.511856079101562,9.218932151794434,-5.3534836769104
42.65,0.35572242736816406,0.1405131071805954,-6.7691521644592285,5.573215484619141,7.776865005493164,-2.6760506629943848
42.7,-1.4636752605438232,-0.08003059029579163,-4.299630165100098,-0.17336946725845337,4.292073726654053,-1.3288612365722656
42.75,-0.714451014995575,-2.104478597640991,0.5208253860473633,-2.549776554107666,3.5427603721618652,0.06344994902610779
42.8,2.3234198093414307,-1.4218305349349976,-2.0268776416778564,-1.6073582172393799,1.0100537538528442,1.8595775365829468
42.85,-0.6642179489135742,0.9800292253494263,-0.5812051892280579,-1.8798339366912842,0.37298399209976196,1.652927041053772
42.9,-3.9177701473236084,2.4042372703552246,-0.10724649578332901,-1.4564875364303589,-0.9301761984825134,2.0293304920196533
42.95,-3.716013193130493,-1.9907267093658447,-1.8464738130569458,-1.304094672203064,-3.5380947589874268,4.499256134033203
43.0,0.7307165861129761,-2.0394186973571777,-3.4020090103149414,-1.2010023593902588,-6.188429832458496,6.9921650886535645
43.05,7.515491485595703,3.9406657218933105,4.59952974319458,-0.3419685363769531,-9.282869338989258,7.5192790031433105
43.1,0.1751497983932495,1.5412544012069702,4.041846752166748,-0.04055368900299072,-4.668923377990723,3.213332414627075
43.15,-0.042514413595199585,1.759563684463501,0.30488985776901245,0.0555722713470459,-2.474090099334717,1.905361294746399
43.2,0.9418619275093079,5.323241710662842,0.5612154006958008,0.8417441248893738,-0.6519560813903809,1.1379293203353882
43.25,-1.4188809394836426,0.32914552092552185,0.2702837884426117,1.4729576110839844,-0.6611482501029968,-0.6122145056724548
43.3,-5.389053821563721,-7.134329795837402,-2.6510348320007324,-1.5698145627975464,1.5163931846618652,-1.5850821733474731
43.35,-6.569201946258545,-8.084939002990723,4.356632232666016,-5.419849395751953,-1.3447468280792236,0.4349655210971832
43.4,-4.3435187339782715,-0.4349480867385864,15.782234191894531,-9.244543075561523,-1.4147014617919922,3.17236590385437
43.45,-6.357526779174805,16.74905776977539,20.455434799194336,-10.744954109191895,-0.620983898639679,5.592081069946289
43.5,8.521859169006348,15.238536834716797,-11.286443710327148,-11.605217933654785,5.374556541442871,-0.21402613818645477
43.55,5.114296913146973,-4.663918495178223,-25.617801666259766,-9.457950592041016,4.025750637054443,-2.6956429481506348
43.6,0.4954723119735718,-3.1355063915252686,-3.3874142169952393,-2.217989444732666,2.7560102939605713,-4.160037040710449
43.65,2.685840129852295,-2.8146350383758545,1.6300476789474487,-2.433032512664795,1.1767982244491577,-2.4778966903686523
43.7,0.7226601839065552,-0.8517171740531921,-1.0029253959655762,-1.2594773769378662,1.1853176355361938,-1.776852011680603
43.75,0.9738295674324036,-0.43815532326698303,-0.8157262206077576,-1.0730797052383423,1.2208560705184937,-0.7595999240875244
43.8,1.2869408130645752,0.36915868520736694,-0.7902740240097046,-0.3983308672904968,0.6574869751930237,-1.6477546691894531
43.85,-0.016435444355010986,1.7636300325393677,-1.552573561668396,-0.4033621847629547,0.5867970585823059,-1.2408998012542725
43.9,2.3455522060394287,1.288614273071289,-0.5009524822235107,-1.1109530925750732,-0.13639551401138306,-1.8043076992034912
43.95,1.450130581855774,-2.813445806503296,0.793075442314148,-0.8670793771743774,-0.6180550456047058,-3.3503780364990234
44.0,2.0234932899475098,-0.6948435306549072,-1.7631809711456299,0.5798947811126709,-1.7832036018371582,-3.708496570587158
44.05,0.4152054786682129,-4.819865703582764,0.6249045133590698,-0.48889756202697754,-1.791110634803772,-4.920097351074219
44.1,0.401802122592926,-4.78863525390625,0.322479784488678,-0.19588351249694824,-1.9785163402557373,-4.792816162109375
44.15,-1.923284649848938,-6.364846229553223,2.5044546127319336,-0.3695474863052368,-1.8836101293563843,-4.211539268493652
44.2,-2.6147103309631348,-1.9045778512954712,0.01293361745774746,0.7097382545471191,-3.441563129425049,-4.827162742614746
44.25,-3.0631115436553955,-2.2746243476867676,0.6442744731903076,0.21813678741455078,-2.8707196712493896,-3.473996877670288
44.3,-2.895916700363159,-0.04581340774893761,1.0371826887130737,0.4436991214752197,-3.032119035720825,-3.0445897579193115
44.35,-2.3734192848205566,4.52687406539917,-3.1395351886749268,2.116501808166504,-3.6576154232025146,-3.103468894958496
44.4,-3.098843812942505,2.099353075027466,-3.470778226852417,0.38999247550964355,-3.4035544395446777,-2.0302398204803467
44.45,0.5842585563659668,-1.5961946249008179,-3.333799362182617,-1.2594239711761475,-2.8594372272491455,-0.9470579624176025
44.5,3.349201202392578,2.6175155639648438,-4.540214538574219,-1.3050403594970703,-4.639412879943848,-2.0774145126342773
44.55,8.22007942199707,-0.6664349436759949,15.107006072998047,-2.8361270427703857,-5.705542087554932,-3.554133176803589
44.6,-9.282468795776367,2.748194932937622,14.526690483093262,-0.8497104644775391,2.0400354862213135,-5.423035144805908
44.65,-8.03574275970459,2.1818041801452637,-3.4437124729156494,1.5961010456085205,2.119370937347412,-3.2761805057525635
44.7,3.806624412536621,-0.0667009949684143,2.04923415184021,0.9713579416275024,1.7830843925476074,-1.7924062013626099
44.75,-1.777785062789917,1.430506944656372,1.9599957466125488,0.2831194996833801,2.20175838470459,-1.8671056032180786
44.8,2.8320846557617188,-1.766761302947998,-3.437838315963745,0.28168922662734985,0.869713306427002,0.2110975831747055
44.85,0.753404438495636,-0.33192917704582214,1.887408971786499,0.4320804476737976,2.0245285034179688,-0.03965045511722565
44.9,0.033484771847724915,-0.7374668717384338,0.46674373745918274,0.44594424962997437,1.8594603538513184,0.8464855551719666
44.95,-4.553508281707764,-0.222556933760643,-0.26489758491516113,-0.08330768346786499,1.7169578075408936,1.1727324724197388
45.0,0.8578252196311951,2.366344690322876,2.3836824893951416,-0.46197831630706787,1.937414526939392,1.3981561660766602
45.05,1.1089439392089844,1.8843435049057007,2.7869579792022705,-0.8973352313041687,1.6950006484985352,1.5062452554702759
45.1,2.007127285003662,-0.8819572329521179,0.24266517162322998,-0.9378328323364258,0.7692891955375671,1.917863368988037
45.15,0.41471827030181885,0.717120349407196,3.480985403060913,-1.0968031883239746,1.3429731130599976,0.7117959260940552
45.2,3.2767508029937744,0.860095202922821,4.474001407623291,-0.15524613857269287,1.1476771831512451,0.3899826109409332
45.25,1.1659512519836426,-0.2024649828672409,3.214703321456909,0.8145816326141357,1.3031021356582642,-0.18462608754634857
45.3,0.22456490993499756,-1.6538583040237427,3.773714542388916,1.4626463651657104,1.0705581903457642,0.11373306065797806
45.35,0.6942871809005737,-1.7272979021072388,2.44099760055542,2.2801408767700195,0.4912908971309662,0.5168035626411438
45.4,1.8986797332763672,-3.321211338043213,2.669840097427368,2.700338363647461,0.5628932118415833,0.30842843651771545
45.45,2.57957124710083,-5.585605621337891,2.4355387687683105,3.1799488067626953,1.0858269929885864,0.006514971610158682
45.5,1.9787023067474365,-5.989335060119629,0.7932054400444031,3.679739475250244,2.356494426727295,-0.09946975857019424
45.55,2.6372053623199463,-6.870355606079102,-1.5534192323684692,4.068328380584717,3.309474229812622,-0.06200520321726799
45.6,1.8865602016448975,4.869061470031738,-6.970418930053711,4.270822048187256,3.425023317337036,-0.36542072892189026
45.65,-1.338924765586853,0.14237122237682343,-0.4895636737346649,2.8766114711761475,4.5762410163879395,1.9186283349990845
45.7,-0.8723575472831726,0.7609950304031372,-0.4640464782714844,3.0282325744628906,2.9407947063446045,0.10471862554550171
45.75,0.5352806448936462,3.407214641571045,-1.2772374153137207,3.381999969482422,2.2267417907714844,-0.751246452331543
45.8,0.7620950937271118,-1.823973536491394,-1.790069580078125,3.4366049766540527,2.1949679851531982,1.0600732564926147
45.85,-0.010648071765899658,4.597331523895264,-0.6784253716468811,3.4822492599487305,2.231754779815674,0.10431875288486481
45.9,-1.0454764366149902,-3.1286442279815674,-6.547277927398682,4.012264728546143,1.5548944473266602,2.0683486461639404
45.95,-3.0706677436828613,4.457229137420654,0.4044084846973419,3.5686745643615723,2.178471565246582,0.2582610845565796
46.0,-0.4041621685028076,2.4683287143707275,-2.742488145828247,4.061262607574463,0.5713241696357727,1.7190191745758057
46.05,-1.6754624843597412,2.8719019889831543,1.5303921699523926,4.006692409515381,1.7678176164627075,0.9876608848571777
46.1,-3.5970685482025146,6.5571064949035645,10.001106262207031,4.86778450012207,1.9083797931671143,1.3117152452468872
46.15,-3.294743537902832,0.6538066864013672,16.539325714111328,4.317582130432129,3.176109790802002,1.2885397672653198
46.2,-5.986220836639404,4.781058311462402,21.906599044799805,0.8419409394264221,4.710628509521484,-0.6039344072341919
46.25,-8.547491073608398,6.979514122009277,12.290017127990723,-4.136084079742432,1.4799938201904297,-1.100488543510437
46.3,-10.57850170135498,8.476139068603516,-0.5017056465148926,-5.7532854080200195,-0.3360946476459503,-2.7520694732666016
46.35,-8.948469161987305,7.569662094116211,-7.596368312835693,-6.139318943023682,-1.3861873149871826,-3.653709888458252
46.4,-4.622782230377197,2.2095582485198975,-12.187419891357422,-5.8232102394104,-2.880143880844116,-3.8311564922332764
46.45,-7.250606536865234,3.856182336807251,-12.106829643249512,-5.175429344177246,-2.68605637550354,-4.920802593231201
46.5,6.647368431091309,31.106473922729492,-30.488754272460938,-6.332932472229004,-4.649458885192871,-11.268782615661621
46.55,44.84374237060547,-20.44731903076172,-24.3422908782959,-13.069319725036621,-7.877171516418457,-8.902535438537598
46.6,3.064159393310547,-44.85926818847656,22.714420318603516,-16.15179443359375,2.5166752338409424,-3.761643648147583
46.65,-8.84492301940918,-8.971820831298828,21.56113624572754,-5.2352399826049805,-1.3627941608428955,-4.367798805236816
46.7,-8.53671646118164,1.4112260341644287,5.758004188537598,-1.336524248123169,0.08359820395708084,-1.3182134628295898
46.75,-0.015569210052490234,1.9747653007507324,4.714788913726807,-0.9359458684921265,0.7322403192520142,0.1788318008184433
46.8,0.6836755275726318,-4.563255786895752,5.638705730438232,-0.9157196283340454,2.0347633361816406,-0.32575032114982605
46.85,2.071549654006958,-1.329819917678833,-1.2348333597183228,-0.40546563267707825,1.477057933807373,-0.3434205949306488
46.9,-0.1491122841835022,-1.5867294073104858,-1.540906310081482,-0.620087742805481,2.022955894470215,-0.3628079891204834
46.95,-0.7042074203491211,-2.6453425884246826,-0.14724589884281158,-1.0930845737457275,1.7610509395599365,-0.37792882323265076
47.0,-0.3016955852508545,-2.0671706199645996,2.860546112060547,-1.2739088535308838,2.001222610473633,-0.7383489608764648
47.05,0.916874885559082,-1.430174708366394,4.986380100250244,-0.6560574769973755,1.8283195495605469,-1.3368957042694092
47.1,-3.8292274475097656,1.90237295627594,4.8951826095581055,0.7597478032112122,1.0844827890396118,-2.020850658416748
47.15,-3.7607369422912598,4.98885440826416,2.166273832321167,1.5149366855621338,-0.33423060178756714,-1.695538878440857
47.2,-1.8898613452911377,5.2301554679870605,1.821013331413269,1.3043609857559204,0.4266085922718048,-1.8453822135925293
47.25,-1.3668828010559082,2.8624911308288574,1.665617823600769,0.3858549892902374,0.022142186760902405,-1.4224672317504883
47.3,-0.36512914299964905,3.1033225059509277,0.375590443611145,0.10956943035125732,-0.7208120822906494,-0.9534339904785156
47.35,1.1239303350448608,2.2302868366241455,0.1543935090303421,-0.6571255922317505,-0.31611838936805725,-0.42948994040489197
47.4,-0.40947169065475464,3.8701024055480957,0.430228054523468,-1.1041676998138428,0.3498086929321289,-0.20807994902133942
47.45,0.6631679534912109,2.301478624343872,0.12301413714885712,-1.1922727823257446,0.39337098598480225,0.25639045238494873
47.5,-0.320732980966568,0.4745026230812073,0.01857912354171276,-1.0952528715133667,0.31684547662734985,0.5114641785621643
47.55,-2.9113011360168457,-1.802679181098938,-1.0242363214492798,-0.9081294536590576,0.32026374340057373,1.2447319030761719
47.6,-3.5385289192199707,-6.614907264709473,0.07868536561727524,-1.5348436832427979,1.8839257955551147,2.4870564937591553
47.65,-3.7221474647521973,-10.002488136291504,2.693594217300415,-3.3703086376190186,4.132311820983887,2.734551191329956
47.7,-0.8504393100738525,-7.480174541473389,5.3490166664123535,-4.127834320068359,4.554811477661133,3.445596933364868
47.75,2.527311325073242,-2.3146629333496094,6.070791244506836,-3.271963596343994,3.204068660736084,5.543173789978027
47.8,4.010041236877441,2.55171799659729,3.1638903617858887,-1.2974039316177368,1.2763835191726685,4.983048915863037
47.85,2.878887176513672,5.216695308685303,4.949744701385498,-0.6117693185806274,-0.0770314484834671,1.68778657913208
47.9,2.897237777709961,-0.34658730030059814,0.5830261707305908,-0.8996158242225647,0.4060269892215729,-0.4449155032634735
47.95,2.409588575363159,-2.476364850997925,1.0832215547561646,-0.9390248656272888,0.13301604986190796,-1.0329762697219849
48.0,3.4093236923217773,-0.6662406325340271,5.047283172607422,-0.3022449016571045,-0.052782490849494934,-1.7239375114440918
48.05,2.4416849613189697,-3.3309996128082275,8.732823371887207,1.4438694715499878,-1.2382696866989136,-2.9866323471069336
48.1,-4.533958911895752,-5.516974925994873,16.432483673095703,3.5514938831329346,-3.8753466606140137,-4.328105926513672
48.15,-15.959761619567871,-14.7275390625,7.42003059387207,8.31314754486084,-8.856696128845215,-3.0852746963500977
48.2,-6.0390753746032715,-13.57062816619873,-10.935519218444824,11.38909912109375,-10.826683044433594,-3.2603538036346436
48.25,1.4432072639465332,14.680183410644531,-15.009013175964355,13.545136451721191,0.030094312503933907,-2.7446508407592773
48.3,3.337434768676758,13.727028846740723,-4.8297929763793945,5.5028252601623535,8.739230155944824,3.339217185974121
48.35,-7.515862941741943,-5.914846420288086,6.730433940887451,-2.513881206512451,14.363216400146484,6.177043914794922
48.4,-1.5685596466064453,-2.7187111377716064,19.839969635009766,-0.5970067977905273,9.461548805236816,5.208810329437256
48.45,-15.395220756530762,-10.217790603637695,-18.036121368408203,10.85818099975586,-0.3242478370666504,0.5774722099304199
48.5,-2.3040218353271484,-10.807735443115234,-24.99270248413086,11.937810897827148,3.9827373027801514,6.323342323303223
48.55,32.798824310302734,13.184021949768066,-8.849422454833984,5.95522928237915,-0.8081198930740356,7.898153781890869
48.6,6.187069892883301,8.826327323913574,-14.901243209838867,-0.4862769842147827,-2.1625876426696777,-2.3169424533843994
48.65,18.533370971679688,-7.078575611114502,0.9047074913978577,-8.835840225219727,-2.132870674133301,2.6537976264953613
48.7,8.366228103637695,-2.3025190830230713,8.122035026550293,-7.416149139404297,-1.5858746767044067,0.9557856321334839
48.75,2.699911117553711,0.5929538011550903,3.247673749923706,-2.889660596847534,-0.41195768117904663,0.36437687277793884
