Time [s],Acc_x [m/s^2],Acc_y [m/s^2],Acc_z [m/s^2],Gyro_x [1/s],Gyro_y [1/s],Gyro_z [1/s]
0.0,0.002610045950859785,0.08266068249940872,-0.010188240557909012,-0.0199048463255167,-0.004423784092068672,-0.0051027946174144745
0.05,0.004858147818595171,0.08264733105897903,-0.01910196617245674,-0.019904740154743195,-0.004423868842422962,-0.005103148519992828
0.1,0.0070204660296440125,0.08340645581483841,-0.027557717636227608,-0.01990482211112976,-0.0044237105175852776,-0.005102969706058502
0.15,0.006561035290360451,0.09842206537723541,-0.028900031000375748,-0.009012555703520775,0.01748417131602764,-0.008717169985175133
0.2,-0.019826017320156097,0.03870868682861328,-0.09920988976955414,-0.004652819596230984,0.00876597873866558,-0.010065719485282898
0.25,-0.04856114834547043,0.06833935528993607,-0.0016497314209118485,-0.011847741901874542,-0.011361045762896538,-0.0019834546837955713
0.3,-0.018473176285624504,0.06318188458681107,-0.06376729160547256,0.01010334212332964,0.016948547214269638,-0.01126017700880766
0.35,-0.04128318279981613,0.03329753875732422,-0.07787283509969711,0.020367594435811043,0.006985007785260677,-0.005298778880387545
0.4,-0.03552553802728653,0.06497479230165482,-0.015182573348283768,-0.0012518923031166196,-0.005109591409564018,-0.00340915541164577
0.45,-0.020087430253624916,-0.002344131702557206,-0.015541317872703075,-0.0033058368135243654,0.0030893960501998663,-0.00932594109326601
0.5,0.03050483949482441,0.09063339978456497,-0.008552375249564648,0.003104974515736103,0.0007650999468751252,-0.006796048954129219
0.55,-0.05939367413520813,-0.0020046227145940065,-0.028471458703279495,0.006169277708977461,0.013447152450680733,-0.007679210975766182
0.6,-0.007324257865548134,0.03623676672577858,-0.0137328514829278,0.002256446285173297,0.011647423729300499,-0.0034328086767345667
0.65,-0.022858751937747,0.07253742963075638,-0.01840229518711567,-0.0032553663477301598,0.006150305736809969,-0.002016226528212428
0.7,-0.042447056621313095,0.04037380591034889,-0.03926669806241989,-0.008231486193835735,0.002509514568373561,-0.00017655346891842782
0.75,-0.0173244159668684,0.06453324109315872,-0.07224810868501663,-0.004934580065310001,0.005245584063231945,0.0024342334363609552
0.8,-0.04498197138309479,0.03565216436982155,-0.05950862914323807,-0.005806253757327795,-0.005431461147964001,0.010419690981507301
0.85,-0.11820612847805023,0.0884266048669815,0.052540265023708344,-0.005866210907697678,-0.01450641080737114,0.010148287750780582
0.9,0.06442482024431229,0.018609045073390007,-0.010372796095907688,0.015027209185063839,-0.006107805762439966,0.0054277596063911915
0.95,0.023324694484472275,0.05312061682343483,-0.026199346408247948,0.010821571573615074,-0.003817461198195815,0.0021889430936425924
1.0,-0.02231845259666443,0.07434941083192825,0.0118489321321249,-0.0001787003129720688,-0.014797908253967762,0.004773205611854792
1.05,-0.012454801239073277,0.03460598364472389,0.00827152281999588,-0.0006282334215939045,-0.017498314380645752,0.006304958835244179
1.1,-0.05801573395729065,0.03353501111268997,0.023633919656276703,0.004876972176134586,-0.0030619127210229635,0.005447966046631336
1.15,0.041926153004169464,0.030462266877293587,-0.005457952618598938,0.0040468680672347546,-0.007454033941030502,0.006431187503039837
1.2,-0.018871521577239037,0.0666198804974556,0.029903743416070938,0.004039256367832422,-0.00749075785279274,0.006440164986997843
1.25,0.00682209525257349,0.04184246435761452,-0.003802671330049634,0.007293037138879299,0.00232540350407362,1.0100331564899534e-05
1.3,-0.025339454412460327,0.04791165143251419,-0.007683131843805313,0.009296128526329994,-0.0012923777103424072,0.003084993688389659
1.35,-0.0022541657090187073,-0.025147447362542152,-0.10789801925420761,0.01190989464521408,0.00018956205167341977,0.003195371013134718
1.4,0.06426823139190674,-0.08500958234071732,0.028167229145765305,0.020497359335422516,-0.018373876810073853,0.01216485071927309
1.45,-0.013936663046479225,-0.08671760559082031,0.07672832161188126,0.07981257140636444,0.023894133046269417,0.012469841167330742
1.5,0.0779159739613533,-0.08467007428407669,0.017453214153647423,0.17247886955738068,0.10546977072954178,0.00026281061582267284
1.55,0.07831842452287674,0.1931000053882599,-0.03515476733446121,0.22962597012519836,0.09596753865480423,0.007306134328246117
1.6,0.021294817328453064,0.2367706447839737,-0.29524439573287964,0.21915820240974426,0.07800427824258804,0.021466653794050217
1.65,0.034499965608119965,0.12065508216619492,0.19958417117595673,0.10797251015901566,-0.06744792312383652,0.04211343824863434
1.7,0.08434521406888962,0.24035361409187317,-0.015545898117125034,0.030912240967154503,-0.01632636785507202,-0.013025118038058281
1.75,-0.07931827008724213,0.2450561821460724,-0.1609005331993103,-0.024059386923909187,0.053972192108631134,-0.058951981365680695
1.8,0.039342716336250305,0.11226940900087357,-0.06215900927782059,-0.08801180124282837,-0.038871925324201584,-0.04386032000184059
1.85,0.12176761776208878,0.027388576418161392,0.09328286349773407,-0.06608811765909195,-0.0018188318936154246,-0.06855609267950058
1.9,0.08619296550750732,-0.1281900554895401,0.18010403215885162,0.050278861075639725,0.1093745306134224,-0.088384248316288
1.95,0.2148863673210144,-0.07052995264530182,0.09712526947259903,0.1826511174440384,0.15790922939777374,-0.11538413912057877
2.0,0.23884831368923187,-0.1865568459033966,-0.21650423109531403,0.23241767287254333,0.07741137593984604,-0.10215269029140472
2.05,0.3916682004928589,-0.11416152864694595,-0.14992281794548035,0.20223760604858398,0.007411002181470394,-0.11675754189491272
2.1,0.4760150909423828,0.10954950749874115,-0.253923237323761,0.1989334225654602,0.14488855004310608,-0.174913689494133
2.15,0.32863566279411316,0.18848705291748047,-0.5163030624389648,0.19052639603614807,0.09912829101085663,-0.22304165363311768
2.2,0.409374862909317,0.18465420603752136,-0.5732133984565735,0.040933795273303986,-0.20937271416187286,-0.2036462426185608
2.25,0.5720756649971008,0.012989947572350502,-0.6545208692550659,-0.12571114301681519,-0.4815932810306549,-0.18296100199222565
2.3,0.8461770415306091,0.21538634598255157,-0.8742489814758301,-0.2980993390083313,-0.6114354133605957,-0.13318374752998352
2.35,0.6269330978393555,0.49799442291259766,-0.8904927968978882,-0.34730637073516846,-0.49454960227012634,-0.13988590240478516
2.4,-0.10046716034412384,0.3668479919433594,-0.5455722808837891,-0.34339064359664917,-0.43757256865501404,-0.07256312668323517
2.45,-0.9370585083961487,-0.17306995391845703,-0.4316689372062683,-0.26299700140953064,-0.5158634781837463,0.025245485827326775
2.5,-1.2835793495178223,-0.4401998519897461,0.05695471540093422,-0.08634784072637558,-0.7408649325370789,0.10452035814523697
2.55,-1.4989120960235596,0.2626763582229614,0.6070106029510498,0.2932682931423187,-0.6802699565887451,0.08895263075828552
2.6,-2.0459887981414795,-0.043872714042663574,0.9727025032043457,0.7150721549987793,-0.5420637726783752,0.2385319024324417
2.65,-1.4547866582870483,-0.1486157476902008,1.2209186553955078,0.9698108434677124,-0.4753439128398895,0.32318100333213806
2.7,-0.9216129779815674,-0.7572432160377502,1.13884699344635,1.0795449018478394,-0.050779469311237335,0.23562100529670715
2.75,-0.47811055183410645,-0.2528381049633026,0.9469365477561951,0.8826109766960144,0.35332727432250977,0.14012177288532257
2.8,-0.4540834128856659,0.11738307029008865,0.7252331972122192,0.43564748764038086,0.6365893483161926,0.055434517562389374
2.85,-0.29524722695350647,0.6466332077980042,0.36445873975753784,-0.15176430344581604,0.8969950675964355,-0.016274644061923027
2.9,-0.03020523488521576,0.9144870042800903,0.3625372052192688,-0.6831737160682678,1.239925742149353,-0.05801136791706085
2.95,0.5587993264198303,1.245774269104004,-0.8482089042663574,-1.0188359022140503,1.7765369415283203,-0.19460023939609528
3.0,0.7851036787033081,0.4901590049266815,-1.5625438690185547,-1.3038233518600464,1.8755178451538086,-0.3892616629600525
3.05,1.189882755279541,0.178641214966774,-1.6909170150756836,-1.5094772577285767,1.5070792436599731,-0.4216386079788208
3.1,1.212072730064392,-0.3501559793949127,-1.4523073434829712,-1.4274184703826904,1.1083345413208008,-0.392584890127182
3.15,1.2098333835601807,-0.6024553179740906,-1.2292063236236572,-0.9960201382637024,0.6472547054290771,-0.21951226890087128
3.2,0.8750119209289551,-0.85199373960495,-0.36175230145454407,-0.34315264225006104,0.15126314759254456,0.1220318078994751
3.25,0.6745986342430115,-0.3823157548904419,-0.7961459159851074,0.4531000852584839,-0.10650567710399628,0.42909830808639526
3.3,0.5897536873817444,0.0037345122545957565,-1.1874316930770874,0.9014073610305786,-0.237338587641716,0.5960425734519958
3.35,0.45826151967048645,0.19930072128772736,-1.2574058771133423,0.8634108304977417,-0.12581951916217804,0.5252819657325745
3.4,0.30729585886001587,0.2815036475658417,-0.8407189846038818,0.6064128875732422,-0.2517840564250946,0.5004355907440186
3.45,0.32090070843696594,0.05879403278231621,0.3772222101688385,0.41613733768463135,-0.596660315990448,0.4618484675884247
3.5,0.2964588403701782,-0.6654129028320312,1.2870705127716064,0.43162164092063904,-0.8395472764968872,0.33757853507995605
3.55,0.406446248292923,-1.172566533088684,1.2966173887252808,0.5001338720321655,-0.9423048496246338,0.1350884884595871
3.6,0.8260383605957031,-0.9356241822242737,1.3467321395874023,0.5011434555053711,-1.0679492950439453,-0.11658865958452225
3.65,1.2469615936279297,0.005641954485327005,1.4102637767791748,0.5371962189674377,-1.094841718673706,-0.37498557567596436
3.7,1.021368145942688,1.157558560371399,1.7318086624145508,0.575903058052063,-1.1853935718536377,-0.5069422125816345
3.75,0.2809227705001831,1.965273141860962,1.5323697328567505,0.5510431528091431,-1.088288426399231,-0.42900222539901733
3.8,-0.6152676939964294,1.9747365713119507,1.2891637086868286,0.3440525233745575,-0.7072566151618958,-0.19008831679821014
3.85,-1.0047581195831299,2.111584186553955,1.9317017793655396,0.11174633353948593,0.09617806226015091,0.0209494698792696
3.9,-1.2269361019134521,0.3042565584182739,1.053855299949646,0.10017238557338715,1.3870093822479248,0.12590737640857697
3.95,-1.3167147636413574,-1.083216667175293,0.4274057149887085,-0.04698308929800987,1.9547454118728638,0.07515918463468552
4.0,-0.694652795791626,-0.47307971119880676,0.034844011068344116,-0.20235474407672882,1.5412092208862305,-0.1406289041042328
4.05,-1.0953575372695923,0.07180693745613098,-0.5076124668121338,-0.3031899333000183,0.6808375120162964,-0.2174447923898697
4.1,-1.3604530096054077,0.6143075227737427,0.8027328848838806,-0.42595815658569336,-0.21957913041114807,-0.0373048335313797
4.15,-1.5765020847320557,0.41137710213661194,0.908827543258667,-0.23685222864151,0.11953217536211014,-0.07112380117177963
4.2,-1.1518280506134033,0.10479836910963058,-0.07140486687421799,-0.05643884092569351,0.8502220511436462,-0.246156707406044
4.25,-0.797257661819458,-0.09203244000673294,-0.7027244567871094,-0.029598116874694824,1.065348505973816,-0.3168282210826874
4.3,-0.7441259622573853,-0.060422901064157486,-0.5372278094291687,-0.0618952214717865,1.0656406879425049,-0.25088489055633545
4.35,-0.356995165348053,-0.1530771255493164,0.015314092859625816,-0.08487957715988159,1.1578848361968994,-0.14851020276546478
4.4,-0.07766009867191315,-0.5568543076515198,0.24369677901268005,0.007516404613852501,1.2475911378860474,0.002882179105654359
4.45,0.295829713344574,-0.9985991716384888,-0.01360630989074707,0.04027128219604492,1.1035935878753662,0.12645207345485687
4.5,0.510255753993988,-1.3767577409744263,-0.7154426574707031,-0.0940520390868187,0.5988075733184814,0.11394402384757996
4.55,0.6132848858833313,-1.1071512699127197,-1.975460410118103,-0.4195190668106079,-0.34774404764175415,0.10619910806417465
4.6,0.7754186391830444,-1.6170018911361694,-1.5792391300201416,-1.0224181413650513,-1.5739954710006714,0.19850358366966248
4.65,0.9600542783737183,-1.13953697681427,-0.39053618907928467,-1.3547018766403198,-2.2595937252044678,0.5952469110488892
4.7,0.5961518287658691,0.7504273653030396,0.37324023246765137,-1.2626159191131592,-1.8079344034194946,0.9667335748672485
4.75,-0.01154164969921112,1.493430256843567,-0.23705285787582397,-0.8746923804283142,-0.8418177366256714,1.0278409719467163
4.8,-0.217276468873024,1.1672059297561646,0.647365152835846,-0.4693085253238678,-0.196710005402565,0.8246576189994812
4.85,-0.10057851672172546,0.6414605379104614,0.954796314239502,0.03760358691215515,0.2401866763830185,0.5931358337402344
4.9,-0.5205575823783875,-0.022636355832219124,0.8611360788345337,0.24980759620666504,0.014131576754152775,0.3996378779411316
4.95,-0.3762633204460144,0.036574479192495346,2.164973258972168,0.1919349730014801,-0.5844100117683411,0.580661952495575
5.0,-0.35518717765808105,-0.07737908512353897,2.919041156768799,0.19204972684383392,-0.6551390290260315,0.4230674207210541
5.05,-0.1683744192123413,0.022862562909722328,2.634827136993408,0.3833482563495636,-0.3847375512123108,0.2499672770500183
5.1,-0.09410756826400757,0.04713163152337074,1.7957804203033447,0.5131587982177734,-0.18150097131729126,0.0954519733786583
5.15,-0.04666072130203247,0.055560171604156494,1.0807600021362305,0.565682053565979,-0.07633335143327713,-0.034590307623147964
5.2,-0.05494266748428345,0.2707558274269104,0.3391108810901642,0.5796736478805542,-0.010033097118139267,-0.057628780603408813
5.25,0.08136539161205292,0.6686621308326721,0.3308456540107727,0.574500560760498,0.003196593839675188,-0.08788900077342987
5.3,0.334143728017807,1.1175395250320435,0.2775402367115021,0.5643510818481445,0.23098018765449524,-0.15154056251049042
5.35,0.41882485151290894,1.0015288591384888,-0.15475846827030182,0.4811728894710541,0.3945373296737671,-0.22818990051746368
5.4,0.4086093008518219,0.5282822251319885,0.3125225305557251,0.22203218936920166,0.22288168966770172,-0.28040722012519836
5.45,0.5940538048744202,0.21923545002937317,0.3767724633216858,0.050269246101379395,0.1652703434228897,-0.3381432294845581
5.5,0.6489001512527466,-0.44643884897232056,0.5252037048339844,-0.038115546107292175,0.11242421716451645,-0.46423885226249695
5.55,1.1681853532791138,-0.892701268196106,1.3418835401535034,-0.009259134531021118,-0.09318020939826965,-0.4731312394142151
5.6,1.5225024223327637,-1.286000370979309,1.5900084972381592,0.2841731309890747,-0.04392116889357567,-0.5588158369064331
5.65,1.7872581481933594,-0.8001538515090942,1.1262248754501343,0.6135196685791016,-0.04981977865099907,-0.545854926109314
5.7,2.024620532989502,0.1265840083360672,0.28196948766708374,0.6951881647109985,-0.29307153820991516,-0.4844445288181305
5.75,1.6779026985168457,0.22482584416866302,0.3839569091796875,0.4168797731399536,-0.6905813217163086,-0.40056106448173523
5.8,1.3193895816802979,0.28617098927497864,0.8180814981460571,0.0875801369547844,-0.8358759880065918,-0.2930396795272827
5.85,0.5620381832122803,0.8358432650566101,1.1942282915115356,-0.051216237246990204,-0.6936893463134766,-0.13209915161132812
5.9,-0.9456112384796143,0.45486751198768616,1.2541594505310059,-0.08329618722200394,-0.4198365807533264,0.2245904803276062
5.95,-1.6112878322601318,0.2828218340873718,1.6566082239151,-0.08279141783714294,0.16766095161437988,0.4832259714603424
6.0,-1.279273509979248,0.6349221467971802,0.11599824577569962,-0.11666671186685562,1.149111032485962,0.2886990010738373
6.05,-0.9791035652160645,0.9623986482620239,-1.1872940063476562,-0.4628450870513916,1.517756700515747,0.0611288845539093
6.1,-1.55060875415802,0.45498383045196533,-0.20871993899345398,-0.6391343474388123,1.491653323173523,-0.034029364585876465
6.15,-1.9139626026153564,0.5505877733230591,-0.335988312959671,-0.5166964530944824,1.6526840925216675,-0.20233988761901855
6.2,-1.514318823814392,0.18263155221939087,-0.3918372392654419,-0.48441028594970703,1.6101737022399902,-0.2776513993740082
6.25,-0.8362804651260376,-0.36879637837409973,-0.6897462606430054,-0.35531193017959595,1.4178646802902222,-0.34195825457572937
6.3,-0.5334414839744568,-0.9008466601371765,-1.2914916276931763,-0.2316046953201294,0.9715707898139954,-0.4628492295742035
6.35,0.08921250700950623,-0.939344584941864,-0.7039192914962769,-0.14358560740947723,0.20410895347595215,-0.34733790159225464
6.4,0.3418373167514801,-1.1085816621780396,-0.2967524230480194,0.1231464296579361,-0.302893728017807,-0.2055601179599762
6.45,0.42478471994400024,-1.4604436159133911,0.027299823239445686,0.38644006848335266,-0.6294541954994202,-0.04246889799833298
6.5,0.5893501043319702,-1.128780484199524,-0.34066927433013916,0.5614679455757141,-0.8361074924468994,0.06822393089532852
6.55,0.46625232696533203,-1.0096571445465088,-0.9179365038871765,0.5155357122421265,-1.093168020248413,0.1751868724822998
6.6,0.2816893756389618,-0.9043800234794617,-1.1487408876419067,0.21480438113212585,-1.3977382183074951,0.35064035654067993
6.65,0.6795216798782349,-0.11239822953939438,-0.8452560901641846,-0.17501200735569,-1.7246423959732056,0.4822256863117218
6.7,0.8695335388183594,0.9284182190895081,-0.32562029361724854,-0.372976154088974,-1.8860502243041992,0.43706879019737244
6.75,0.6178244352340698,2.0448954105377197,0.31256699562072754,-0.24111589789390564,-1.8650026321411133,0.28737032413482666
6.8,0.22372739017009735,2.8387224674224854,0.6115281581878662,0.2109653502702713,-1.8962268829345703,0.16808238625526428
6.85,-0.5730745792388916,1.53236985206604,0.5853580236434937,0.6173719763755798,-2.0245988368988037,0.13669124245643616
6.9,-0.6006425619125366,1.540173888206482,1.0825231075286865,0.8579025268554688,-2.1984336376190186,0.15688036382198334
6.95,-0.7990808486938477,1.1683247089385986,1.7020759582519531,0.9891631603240967,-2.072864055633545,0.17699146270751953
7.0,-1.5932220220565796,0.048010051250457764,2.4206881523132324,1.0859863758087158,-1.7619125843048096,0.1902603954076767
7.05,-1.4018454551696777,-0.09228599816560745,1.512430191040039,1.1216626167297363,-1.1401965618133545,0.24987958371639252
7.1,-0.7502936720848083,-0.4747591018676758,0.9565194249153137,0.6367088556289673,-0.9407761096954346,-0.00044104104745201766
7.15,-0.7020190358161926,-0.7873497009277344,1.7738053798675537,-0.055050626397132874,-0.6646421551704407,-0.46070197224617004
7.2,0.2928541898727417,-0.6334018707275391,1.5056445598602295,-0.35487961769104004,0.15250736474990845,-0.7044428586959839
7.25,1.1447504758834839,-0.002973556751385331,0.9635506272315979,-0.6401343941688538,0.6070287823677063,-0.8652334809303284
7.3,1.6904182434082031,-0.013598484918475151,0.5252367854118347,-0.9155380725860596,0.43038177490234375,-0.9941698312759399
7.35,1.717252254486084,-0.25472649931907654,0.3466937839984894,-1.0515403747558594,0.1653137356042862,-0.904747724533081
7.4,1.5835397243499756,-0.645548939704895,0.07435061782598495,-0.8317247033119202,0.31361404061317444,-0.6428080201148987
7.45,2.1103227138519287,-1.225271463394165,-0.9926029443740845,-0.48609963059425354,0.5592091679573059,-0.39789116382598877
7.5,2.900038480758667,-1.219779372215271,-1.542912483215332,-0.37868794798851013,0.40103545784950256,-0.2801468074321747
7.55,3.149775505065918,-1.2593072652816772,-1.621472954750061,-0.33840587735176086,-0.06441490352153778,-0.27362069487571716
7.6,2.8556556701660156,-0.9895642399787903,-1.5610910654067993,-0.31532567739486694,-0.7311677932739258,-0.25607842206954956
7.65,2.0980947017669678,-0.2840339243412018,-0.8320450782775879,-0.2780291438102722,-1.2936819791793823,-0.19560019671916962
7.7,1.0102880001068115,1.156551480293274,-0.30700886249542236,-0.19932867586612701,-1.3914977312088013,-0.024121785536408424
7.75,0.30311745405197144,2.844407320022583,-0.06724822521209717,-0.07523725926876068,-1.3679603338241577,0.28159892559051514
7.8,-1.0472348928451538,2.506728410720825,-0.29137492179870605,-0.07784399390220642,-1.7353662252426147,0.6588246822357178
7.85,-1.8144093751907349,0.5208655595779419,-0.6273649334907532,-0.19874262809753418,-1.9691028594970703,0.7849828004837036
7.9,-2.030282497406006,-0.8103905320167542,-0.41716277599334717,-0.04306602478027344,-1.7185418605804443,0.530903160572052
7.95,-1.2062292098999023,-0.5927420258522034,-0.6315217018127441,0.14576134085655212,-1.3679643869400024,0.2719406187534332
8.0,-1.0670075416564941,-0.0950775295495987,-0.8842328786849976,0.16612379252910614,-1.7439448833465576,-0.012964986264705658
8.05,-0.6533244252204895,0.32067394256591797,-0.9453015327453613,0.0629550889134407,-2.2125725746154785,-0.27301424741744995
8.1,-0.5664082765579224,0.5590372681617737,-0.19682608544826508,0.1940022110939026,-2.407165050506592,-0.6426899433135986
8.15,-0.31620094180107117,0.5728045105934143,0.31397637724876404,0.49021580815315247,-2.399693727493286,-1.09771728515625
8.2,-0.2187732309103012,0.30920130014419556,0.4798809289932251,0.8571507930755615,-2.5251197814941406,-1.6837975978851318
8.25,-1.1883485317230225,0.8891193270683289,-0.18669399619102478,1.3185367584228516,-2.546034574508667,-2.1037864685058594
8.3,-0.320006787776947,0.8460084199905396,0.21143342554569244,1.8110613822937012,-1.9306427240371704,-1.8899929523468018
8.35,-0.5611093044281006,1.2338286638259888,0.6453317403793335,2.079368829727173,-1.7324132919311523,-1.7782264947891235
8.4,0.19717739522457123,0.41607004404067993,0.05800915136933327,2.6357357501983643,-1.1957770586013794,-1.4967654943466187
8.45,0.8458324074745178,-0.3354502320289612,-0.006548156496137381,2.7618675231933594,-0.9059624075889587,-1.07793390750885
8.5,0.25547707080841064,-0.5858317017555237,0.6323713660240173,2.3523077964782715,-0.7835498452186584,-0.5740352272987366
8.55,-0.0992947518825531,-1.426651120185852,1.0957245826721191,1.5931168794631958,-0.7159485220909119,0.3693222105503082
8.6,-0.7591457962989807,-1.814163327217102,1.8325358629226685,0.5134786367416382,-0.9410820603370667,0.9556713104248047
8.65,-1.1129603385925293,-2.2631797790527344,2.0062599182128906,-0.41971462965011597,-1.175085425376892,0.9814419746398926
8.7,-1.8980467319488525,-1.9101287126541138,1.9123711585998535,-0.9060213565826416,-1.204925537109375,0.6383751034736633
8.75,-1.9250895977020264,-1.5899754762649536,1.1243315935134888,-1.1641072034835815,-1.1848082542419434,0.5045490860939026
8.8,-2.784942626953125,-0.7256154417991638,0.5366503596305847,-1.4395443201065063,-1.269208312034607,0.28871437907218933
8.85,-2.302492141723633,-0.7134665846824646,0.24509139358997345,-1.6422722339630127,-1.1354930400848389,0.10113894194364548
8.9,-1.8994841575622559,-0.08602232486009598,-0.3529149889945984,-1.6680700778961182,-1.1133856773376465,-0.11818850785493851
8.95,-1.4451624155044556,0.3754139542579651,-0.9700932502746582,-1.7647151947021484,-0.9469146728515625,-0.24763429164886475
9.0,-0.9049556255340576,0.3486766815185547,-1.3445369005203247,-1.985238790512085,-0.7649386525154114,-0.24593041837215424
9.05,-0.4772909879684448,0.41689878702163696,-0.6658415198326111,-2.147742986679077,-0.429436057806015,-0.18501117825508118
9.1,-0.30528587102890015,0.5522709488868713,-0.7725583910942078,-2.121678352355957,-0.3270855247974396,-0.18201781809329987
9.15,-0.3782058358192444,0.453917533159256,-0.8028977513313293,-2.1374311447143555,-0.2278028279542923,-0.08960647881031036
9.2,-0.19643497467041016,0.5328941941261292,-0.19745312631130219,-2.1686673164367676,-0.0024220095947384834,0.04689764976501465
9.25,0.23962494730949402,0.717964231967926,0.27635717391967773,-1.896942138671875,-0.18906156718730927,0.05202256515622139
9.3,0.5461591482162476,0.7708492875099182,-0.25071239471435547,-1.291101336479187,-0.7880381941795349,-0.1418616622686386
9.35,1.2167264223098755,1.1192684173583984,-1.479020357131958,-0.5687011480331421,-1.149742603302002,-0.37721216678619385
9.4,1.0078493356704712,1.252192497253418,-2.283639907836914,-0.1052960753440857,-0.745879054069519,-0.3842388093471527
9.45,0.273248553276062,1.2281885147094727,-1.8250011205673218,0.12511399388313293,0.4441928565502167,-0.09084147959947586
9.5,0.3142189085483551,0.5867262482643127,-0.3344704806804657,0.21638810634613037,1.2618383169174194,-0.011633804999291897
9.55,0.5889000296592712,-0.43299588561058044,-0.030715521425008774,0.2622501850128174,0.7777846455574036,-0.24307236075401306
9.6,0.12184654176235199,-0.5948897004127502,-0.14350654184818268,0.31748518347740173,0.2582426071166992,-0.34748736023902893
9.65,0.4422287046909332,-0.19899655878543854,0.535456120967865,0.3809952735900879,0.3903590738773346,-0.24414470791816711
9.7,0.6725616455078125,0.10133840888738632,0.6748647689819336,0.5022454857826233,0.17555730044841766,-0.23076756298542023
9.75,0.5259076356887817,0.23775389790534973,0.39106589555740356,0.5195656418800354,-0.13103316724300385,-0.2484942227602005
9.8,0.42975372076034546,0.36310866475105286,0.4475247263908386,0.39197537302970886,-0.13308845460414886,-0.12439978867769241
9.85,0.5503585338592529,0.09418775886297226,0.6333684325218201,0.20897406339645386,-0.14103682339191437,0.0346667617559433
9.9,0.4214605391025543,-0.03755569085478783,0.4939250946044922,-0.013131693005561829,-0.3536466658115387,0.0787501186132431
9.95,0.4280349612236023,-0.1781320720911026,0.2847733497619629,-0.24390250444412231,-0.39417916536331177,0.16939829289913177
10.0,0.4835296869277954,-0.28434184193611145,0.14333441853523254,-0.4163709878921509,-0.412848562002182,0.19991354644298553
10.05,0.43021583557128906,-0.26884275674819946,-0.013252750970423222,-0.4717939794063568,-0.5265309810638428,0.1735110580921173
10.1,0.2853749692440033,-0.06416132301092148,-0.12433924525976181,-0.4433475732803345,-0.5997812747955322,0.1526261866092682
10.15,0.0741083174943924,0.1560201644897461,-0.4192400574684143,-0.37617313861846924,-0.6272121667861938,0.11708476394414902
10.2,-0.24391651153564453,0.4903774559497833,-0.6178419589996338,-0.30759915709495544,-0.5301834940910339,0.12246686965227127
10.25,-0.4576641023159027,0.9430819749832153,-0.5681565999984741,-0.25803422927856445,-0.3404785990715027,0.14314812421798706
10.3,-0.46791425347328186,1.1133977174758911,-0.7169623970985413,-0.23252034187316895,-0.1971742957830429,0.12434244900941849
10.35,-0.5624027252197266,1.2226096391677856,-0.6660023927688599,-0.2306242734193802,-0.10956460982561111,0.07192619889974594
10.4,-0.5689314007759094,0.793462872505188,-0.6020427346229553,-0.20182672142982483,-0.01990235224366188,0.02844356559216976
10.45,-0.4184170365333557,0.26426413655281067,-0.29143986105918884,-0.1291874349117279,0.049466121941804886,-0.03692296892404556
10.5,-0.27327725291252136,-0.3350391685962677,-0.20916402339935303,0.04971924051642418,-0.11319287866353989,-0.13693639636039734
10.55,-0.07716019451618195,-0.9878274202346802,-0.3929970860481262,0.28413471579551697,-0.28953614830970764,-0.2539738118648529
10.6,0.05754789710044861,-1.6799108982086182,-1.0054452419281006,0.44383442401885986,-0.186218723654747,-0.30657875537872314
10.65,0.2193155288696289,-2.0834553241729736,-1.1858713626861572,0.44784367084503174,0.3230075240135193,-0.2268051952123642
10.7,0.7083505988121033,-2.010023355484009,-0.7443621158599854,0.43323883414268494,0.7687121629714966,-0.10600858926773071
10.75,1.1001547574996948,-0.8193466067314148,-0.30755415558815,0.5467992424964905,0.5805636048316956,-0.08758940547704697
10.8,0.6196037530899048,1.3072720766067505,-0.49169453978538513,0.7290306091308594,0.08484011143445969,-0.11684941500425339
10.85,0.3469729423522949,3.296247959136963,-0.16443906724452972,0.7290233969688416,0.11166168749332428,-0.09659939259290695
10.9,0.788311243057251,3.2047133445739746,0.004766625352203846,0.5364776253700256,0.4789420962333679,0.03609570860862732
10.95,1.6341363191604614,1.4222650527954102,-0.1101972833275795,0.2663452923297882,0.8999724984169006,0.12621550261974335
11.0,1.3607447147369385,0.5578632354736328,0.07218971848487854,0.04670850932598114,0.8188333511352539,0.05490032583475113
11.05,0.8745196461677551,-0.23927125334739685,-0.43038585782051086,-0.07851443439722061,0.13010179996490479,0.0958108901977539
11.1,0.6216679215431213,-1.7670938968658447,-0.45947057008743286,-0.2538028359413147,-0.09479872137308121,0.24196435511112213
11.15,0.09327423572540283,-2.2104899883270264,0.6423774361610413,-0.2999116778373718,-0.015937045216560364,0.43239474296569824
11.2,-0.9733102321624756,-1.116908073425293,1.8015068769454956,-0.13765616714954376,-0.38496240973472595,0.6103906631469727
11.25,-1.0071731805801392,-0.12328991293907166,2.7384397983551025,0.1347021907567978,-1.0211235284805298,0.474562406539917
11.3,-0.8771607875823975,-0.20247451961040497,1.4635391235351562,0.5381372570991516,-1.8295222520828247,0.012419949285686016
11.35,-1.0116839408874512,0.12125686556100845,-0.3806827664375305,0.5604471564292908,-1.8085740804672241,-0.14568017423152924
11.4,-1.0137839317321777,0.5577812790870667,-0.8537638187408447,0.043907128274440765,-1.0077778100967407,0.01932794600725174
11.45,-0.6614726781845093,0.7696152925491333,-0.7295541763305664,-0.48165780305862427,-0.3680567741394043,0.009476758539676666
11.5,-0.24399183690547943,0.673551619052887,-0.45658934116363525,-0.7039611339569092,-0.0018415063386783004,-0.06269344687461853
11.55,-0.14367735385894775,0.8860141038894653,-0.6428984999656677,-0.7208038568496704,0.2567957937717438,-0.06707404553890228
11.6,0.11008015275001526,0.4643211364746094,-0.9000685214996338,-0.7313610911369324,0.5967631936073303,-0.04979377239942551
11.65,0.08722439408302307,0.18631646037101746,-0.9423618912696838,-0.6899110674858093,0.9203677177429199,-0.005809579975903034
11.7,0.20215490460395813,-0.31356722116470337,-0.47914260625839233,-0.6214333772659302,1.1504133939743042,0.0774310901761055
11.75,0.17163148522377014,-0.7123919129371643,-0.04141965135931969,-0.42794474959373474,1.0424058437347412,0.09791342914104462
11.8,0.07361659407615662,-1.386384129524231,0.15070313215255737,-0.1468280553817749,0.6688705682754517,0.11985364556312561
11.85,0.06757283210754395,-1.8595106601715088,0.5448929071426392,0.17274115979671478,0.33559125661849976,0.15223875641822815
11.9,-0.10493592917919159,-2.163783311843872,0.511504054069519,0.5032041072845459,-0.0038436793256551027,0.118985116481781
11.95,-0.5757575631141663,-1.6982243061065674,0.4428875148296356,0.6541882157325745,-0.23706939816474915,0.04079855978488922
12.0,-0.9199262857437134,-0.6397590637207031,0.2278818041086197,0.5285314321517944,-0.4739598333835602,-0.049486830830574036
12.05,-0.9763706922531128,0.3886633813381195,-0.11768645793199539,0.18881571292877197,-0.7827781438827515,-0.1578788161277771
12.1,-0.6641845107078552,0.3090267777442932,-0.06392084062099457,-0.22479771077632904,-1.1502147912979126,-0.1534663587808609
12.15,-0.8740715980529785,0.6759988069534302,0.14348669350147247,-0.44524505734443665,-1.515979528427124,-0.09210456907749176
12.2,-1.5995324850082397,2.7963058948516846,-0.583903968334198,-0.44516855478286743,-1.7762024402618408,-0.13161087036132812
12.25,-0.6972333192825317,2.4695990085601807,-1.7438207864761353,-0.41022032499313354,-1.6068776845932007,-0.27307623624801636
12.3,0.7076529264450073,0.8622215986251831,-4.297826766967773,-0.5344091653823853,-1.2952338457107544,-0.45924168825149536
12.35,0.1043710708618164,2.1421308517456055,-5.273825645446777,-0.9119146466255188,0.11383053660392761,-0.3216303288936615
12.4,-0.728974461555481,2.4686481952667236,-2.992842674255371,-0.7402597665786743,2.512025833129883,-0.07416093349456787
12.45,-1.398564100265503,2.3681843280792236,-1.6170717477798462,0.13852034509181976,4.04982852935791,0.05334470793604851
12.5,-0.668668270111084,1.2331182956695557,0.9648586511611938,0.8021665811538696,4.5133280754089355,0.1253749430179596
12.55,-0.7138210535049438,0.7956125736236572,1.5669901371002197,1.581838607788086,3.4851999282836914,-0.0985666811466217
12.6,-0.7927157878875732,0.4517175853252411,2.4913318157196045,1.9620249271392822,2.984903573989868,-0.22296887636184692
12.65,-0.109954833984375,-0.05342182517051697,3.3313944339752197,1.9808814525604248,2.707345724105835,-0.17072172462940216
12.7,0.5164693593978882,-0.6824950575828552,3.559582233428955,1.8457839488983154,2.2155754566192627,-0.26165086030960083
12.75,0.5473009347915649,-1.6412183046340942,3.044875144958496,1.5492100715637207,1.825402021408081,-0.44711077213287354
12.8,0.6199691295623779,-2.3734209537506104,2.3623268604278564,1.175282597541809,1.651231050491333,-0.5694507956504822
12.85,-0.45028746128082275,-2.534891366958618,1.890496015548706,0.7975767850875854,1.3498005867004395,-0.8303956389427185
12.9,-0.9143221378326416,-2.246877670288086,1.9572508335113525,0.5659966468811035,1.1702466011047363,-0.9063212275505066
12.95,0.47031378746032715,-1.6292420625686646,2.128970146179199,0.4194868206977844,1.2388471364974976,-0.7014909386634827
13.0,2.1690917015075684,-0.43355756998062134,1.8192427158355713,0.12592248618602753,1.1578861474990845,-0.5594661235809326
13.05,2.725043535232544,0.7990122437477112,1.1604034900665283,-0.041208330541849136,1.0859910249710083,-0.14911538362503052
13.1,2.787334680557251,1.275796890258789,0.9199494123458862,0.25673526525497437,1.6128209829330444,1.0476975440979004
13.15,4.138919353485107,1.1856975555419922,-0.11756091564893723,0.5413942337036133,2.4867115020751953,2.1944897174835205
13.2,2.0147931575775146,1.9903422594070435,-1.4389309883117676,-0.01068258285522461,2.079315423965454,2.230341672897339
13.25,-0.9638233780860901,1.7522661685943604,-1.6742535829544067,-0.26503539085388184,1.208482265472412,2.011474370956421
13.3,-1.5739953517913818,0.9490376710891724,-1.556030035018921,0.1931104063987732,1.321109652519226,1.918847680091858
13.35,-2.482769727706909,0.051278188824653625,-0.6447507739067078,0.48446810245513916,1.5047435760498047,1.5828739404678345
13.4,-2.137502431869507,-0.8148660659790039,0.4323531985282898,0.7207432985305786,1.8090264797210693,1.2892098426818848
13.45,-0.651069700717926,-0.8320255279541016,1.4167659282684326,0.8208589553833008,2.045015573501587,0.8634561896324158
13.5,1.2813982963562012,-0.4861193299293518,1.2273128032684326,0.7416645288467407,2.0293948650360107,0.28128132224082947
13.55,2.190410614013672,-0.3676005005836487,1.1065847873687744,0.41610008478164673,1.8246264457702637,-0.2437445968389511
13.6,2.327617883682251,-0.16050727665424347,0.7467588782310486,0.1345539093017578,1.8540360927581787,-0.4491357207298279
13.65,2.689560890197754,0.3202170431613922,-0.07284031063318253,-0.05821056663990021,1.8870257139205933,-0.4866999387741089
13.7,3.078172206878662,0.07885535806417465,-1.037026286125183,-0.19719430804252625,1.5223432779312134,-0.4500490725040436
13.75,2.9895668029785156,-0.6345407962799072,-1.7077200412750244,-0.1599307507276535,0.9907461404800415,-0.20752258598804474
13.8,2.6453590393066406,-1.1189616918563843,-1.8893734216690063,0.12181665748357773,0.6247071623802185,0.10595863312482834
13.85,2.190422534942627,-1.142493486404419,-1.9121379852294922,0.42170265316963196,0.3788440227508545,0.38991236686706543
13.9,1.4972364902496338,-1.478236436843872,-1.2051057815551758,0.5181160569190979,-0.07326110452413559,0.5017353892326355
13.95,1.22737717628479,-1.5870344638824463,-0.20618268847465515,0.5227958559989929,-0.44549959897994995,0.5117541551589966
14.0,1.1130924224853516,-1.602900743484497,0.8164148330688477,0.4679615795612335,-0.6594008207321167,0.4765479266643524
14.05,0.9419886469841003,-1.1456413269042969,2.2034521102905273,0.28277716040611267,-0.8648257255554199,0.42660820484161377
14.1,0.6363599300384521,-0.13727177679538727,3.226922035217285,0.11032803356647491,-1.0156669616699219,0.37882471084594727
14.15,0.18882012367248535,1.1565020084381104,3.722130298614502,-0.05987374484539032,-0.9182668328285217,0.4227553606033325
14.2,-0.8491038084030151,1.6797107458114624,2.8653035163879395,-0.2985393702983856,-0.43747183680534363,0.631885826587677
14.25,-1.864136815071106,1.5083431005477905,1.5631394386291504,-0.5241653919219971,0.11391059309244156,0.7863320112228394
14.3,-2.0219666957855225,1.9291681051254272,0.5458086729049683,-0.6837229132652283,0.3664276897907257,0.5504454970359802
14.35,-2.555574655532837,1.4733326435089111,0.3076595962047577,-0.9284399747848511,0.33600640296936035,0.1407395750284195
14.4,-3.1121373176574707,0.9040492177009583,1.0819549560546875,-1.0644350051879883,0.6703697443008423,-0.09617768973112106
14.45,-2.2482552528381348,1.4552862644195557,0.3497072160243988,-1.2163771390914917,1.562416911125183,-0.31177371740341187
14.5,-0.539688229560852,1.677668809890747,0.19069333374500275,-1.5278353691101074,2.081063747406006,-0.6140127778053284
14.55,0.9896885752677917,1.7341071367263794,-0.9027693271636963,-1.6253249645233154,2.5055484771728516,-0.9896713495254517
14.6,1.623453140258789,1.2311630249023438,-2.4013519287109375,-1.6819120645523071,2.3238413333892822,-1.2706273794174194
14.65,1.8909215927124023,0.5313833951950073,-2.808556318283081,-1.8804900646209717,1.5928574800491333,-1.1988791227340698
14.7,1.8589684963226318,-0.23180891573429108,-3.3859381675720215,-2.0035746097564697,1.1036044359207153,-0.9400904774665833
14.75,1.7470331192016602,-0.9324783086776733,-3.8800370693206787,-1.9552335739135742,0.7198331356048584,-0.5562672019004822
14.8,1.5678701400756836,-1.1012042760849,-4.128432750701904,-1.733431339263916,0.36976155638694763,-0.1333353966474533
14.85,1.0182327032089233,-1.45077645778656,-4.355612754821777,-1.285485029220581,0.24467435479164124,0.11199869215488434
14.9,0.32874584197998047,-2.111123561859131,-4.287639617919922,-0.7035247683525085,0.26811593770980835,0.130543515086174
14.95,0.15390968322753906,-2.3594017028808594,-4.56056022644043,-0.12983763217926025,0.18132586777210236,0.03919736295938492
15.0,0.7465150356292725,-1.759885311126709,-5.034422397613525,0.2734909653663635,-0.30424049496650696,0.020838532596826553
15.05,1.8605409860610962,-0.37051618099212646,-5.414784908294678,0.5086943507194519,-1.1688244342803955,0.3381665349006653
15.1,2.488123893737793,1.0405328273773193,-4.510104179382324,0.5709436535835266,-2.390895128250122,1.0969170331954956
15.15,2.3199565410614014,2.142184257507324,-1.6783229112625122,0.4596410393714905,-3.7250356674194336,1.7861239910125732
15.2,1.1049925088882446,2.5480854511260986,1.583295226097107,0.6052330732345581,-3.941401958465576,1.5108356475830078
15.25,0.30710893869400024,1.63357675075531,1.6196175813674927,1.1254792213439941,-2.755749225616455,0.7603350877761841
15.3,0.18619725108146667,0.7085686922073364,0.8851024508476257,1.1879205703735352,-2.2377493381500244,0.4005877673625946
15.35,-0.41466060280799866,0.23033247888088226,1.3968026638031006,0.7859503626823425,-2.7519242763519287,0.19133590161800385
15.4,-0.6682342290878296,-0.16096679866313934,1.375165581703186,0.5940597653388977,-2.8789021968841553,-0.07355301827192307
15.45,-0.25023436546325684,0.2254239171743393,1.3712427616119385,0.5767252445220947,-2.920231342315674,-0.25393912196159363
15.5,0.17551147937774658,1.1839125156402588,1.908251166343689,0.5907906293869019,-3.118462085723877,-0.4012514054775238
15.55,0.9293339252471924,1.397318959236145,1.6927106380462646,0.6971917748451233,-2.9401659965515137,-0.4517155885696411
15.6,2.065061569213867,-0.19546228647232056,0.9279721975326538,0.7853730916976929,-2.676250696182251,-0.5009418725967407
15.65,0.9491603374481201,-1.7159416675567627,1.4225332736968994,0.8255411386489868,-2.8727879524230957,-0.705024003982544
15.7,-2.0675926208496094,-1.3459033966064453,2.0882391929626465,0.761688768863678,-3.0391974449157715,-0.46947181224823
15.75,-3.53829026222229,-1.0838536024093628,1.3996795415878296,0.4769989848136902,-3.055981159210205,0.39087510108947754
15.8,-4.402168273925781,-0.8561075925827026,1.317569375038147,0.03499889373779297,-3.3867461681365967,0.7707803845405579
15.85,-6.365361213684082,-0.5952975749969482,0.937227189540863,-0.20925135910511017,-3.388608455657959,0.6575232148170471
15.9,-5.489348411560059,-0.7786072492599487,0.4263734221458435,-0.4679621160030365,-2.512483835220337,0.8486567139625549
15.95,-3.9801411628723145,-0.817448616027832,-0.24464206397533417,-0.7490156888961792,-2.4130382537841797,0.5354466438293457
16.0,-3.8186001777648926,-0.6255226135253906,-2.1406688690185547,-0.8399864435195923,-2.76182222366333,0.1405748575925827
16.05,-3.5143580436706543,-4.481340147322044e-05,-2.734740734100342,-1.253737211227417,-2.3997151851654053,0.246408611536026
16.1,-3.165203094482422,0.6698523163795471,-2.8862850666046143,-1.6148805618286133,-1.9697176218032837,0.37178540229797363
16.15,-1.986130952835083,0.3364400863647461,-2.304595708847046,-1.555321216583252,-1.3185335397720337,0.3390832245349884
16.2,-0.9571442604064941,-0.13785845041275024,-1.8197041749954224,-0.8127538561820984,-0.7363367080688477,0.010610894300043583
16.25,-1.20233154296875,0.3566579520702362,-2.442842483520508,0.2910750210285187,-0.3915851414203644,-0.3793453872203827
16.3,-1.1823310852050781,0.6642265319824219,-2.153557777404785,0.8648988008499146,0.1606774479150772,-0.511239767074585
16.35,-0.5670955181121826,0.9874640703201294,-0.48379653692245483,0.8940056562423706,0.7004220485687256,-0.39230912923812866
16.4,-0.22165657579898834,0.9707357287406921,0.6570871472358704,0.8605079650878906,0.7435996532440186,-0.22108404338359833
16.45,0.3388859033584595,0.5530568361282349,1.2180107831954956,0.8431053161621094,0.5767586827278137,-0.1291084885597229
16.5,0.4519609808921814,0.4500504434108734,1.1307876110076904,0.7680040597915649,0.2582775950431824,-0.06437040865421295
16.55,0.17105624079704285,0.6610108613967896,0.89650958776474,0.49890029430389404,0.03317706659436226,0.09136608242988586
16.6,-0.14736026525497437,1.2962228059768677,1.1193050146102905,0.1277039796113968,-0.16875818371772766,0.28988194465637207
16.65,-0.36100515723228455,1.7675193548202515,1.0579947233200073,-0.058526165783405304,-0.5624439120292664,0.3177102506160736
16.7,-0.0848134458065033,0.7859421968460083,0.0772806704044342,-0.10059276223182678,-1.0315061807632446,0.17170104384422302
16.75,0.26489365100860596,-1.0731440782546997,-0.46767210960388184,-0.1257244497537613,-1.171566367149353,0.17998932301998138
16.8,-0.028089404106140137,-1.515056848526001,0.578056812286377,-0.00970064103603363,-0.9404441714286804,0.3473915159702301
16.85,-0.2934412956237793,-0.8517552018165588,1.5571258068084717,0.3232233226299286,-0.8670363426208496,0.34817659854888916
16.9,-0.1259295493364334,-0.48010924458503723,0.6520057916641235,0.6259579658508301,-0.9576111435890198,0.12353350222110748
16.95,0.21300140023231506,-0.4941750466823578,-0.1743345856666565,0.4828847646713257,-0.5941576957702637,-0.020729264244437218
17.0,0.2650929093360901,-0.6255074143409729,0.028413966298103333,0.08076668530702591,-0.10681598633527756,-0.043730005621910095
17.05,0.16841384768486023,-0.3607912063598633,0.4863952696323395,-0.15537157654762268,0.025164304301142693,-0.09800786525011063
17.1,0.3391062617301941,-0.1919717937707901,0.579707682132721,-0.15968522429466248,-0.12835082411766052,-0.17498770356178284
17.15,0.4899851679801941,-0.0334482416510582,0.035547565668821335,-0.06343540549278259,-0.3173445165157318,-0.24587412178516388
17.2,0.5654200315475464,0.11904618889093399,-0.2747287154197693,0.019619636237621307,-0.40222129225730896,-0.26045259833335876
17.25,0.6782044172286987,0.08129115402698517,-0.5308977365493774,0.09400749206542969,-0.5222263932228088,-0.23619438707828522
17.3,0.7999844551086426,0.21553893387317657,-0.9363413453102112,0.05009673535823822,-0.5501514077186584,-0.20483960211277008
17.35,0.9821042418479919,0.41846081614494324,-0.8956052660942078,-0.10529516637325287,-0.4226508140563965,-0.16731911897659302
17.4,1.146336555480957,0.3993549048900604,-0.6975260376930237,-0.21163640916347504,-0.33326780796051025,-0.13618552684783936
17.45,1.1951978206634521,0.2809419333934784,-0.40217843651771545,-0.25560063123703003,-0.17842841148376465,-0.07842976599931717
17.5,1.3140785694122314,-0.14370162785053253,-0.06273818761110306,-0.22046294808387756,0.018997998908162117,-0.008748567663133144
17.55,1.210634708404541,-0.4586668908596039,0.39120641350746155,-0.07061167061328888,0.06287886202335358,0.04102681577205658
17.6,0.6685292720794678,-0.061799999326467514,0.8086593151092529,0.15316976606845856,-0.09910401701927185,0.08103089034557343
17.65,0.1175025999546051,0.6614084839820862,0.6422415375709534,0.2962394952774048,-0.27259179949760437,0.11519885063171387
17.7,0.04147717356681824,0.6489229798316956,0.6295676231384277,0.24907809495925903,-0.2268049120903015,0.14616845548152924
17.75,-0.017320245504379272,0.2270718216896057,0.7132313251495361,0.18171069025993347,-0.14382313191890717,0.13377408683300018
17.8,-0.38759830594062805,-0.04524895176291466,0.5214943289756775,0.14047673344612122,-0.15241532027721405,0.0874815583229065
17.85,-0.684105396270752,-0.37855055928230286,0.23422925174236298,0.05711876600980759,-0.20860973000526428,0.05745257809758186
17.9,-0.9760658144950867,-0.42350009083747864,0.15032926201820374,-0.0517503023147583,-0.3258053958415985,0.04641398787498474
17.95,-1.1298118829727173,-0.29621219635009766,0.004840594716370106,-0.04547172784805298,-0.5637357831001282,0.014194002375006676
18.0,-1.0103739500045776,-0.2283783107995987,-0.672410786151886,0.09441910684108734,-0.8399431705474854,-0.048515573143959045
18.05,-0.7927311062812805,-0.21971040964126587,-1.2003381252288818,0.1261056363582611,-0.8577009439468384,-0.08618718385696411
18.1,-0.5647172927856445,-0.20474441349506378,-1.2907524108886719,0.05698125809431076,-0.6939020752906799,-0.10745755583047867
18.15,-0.3337635397911072,-0.17187601327896118,-1.3001525402069092,0.016444966197013855,-0.6392929553985596,-0.15805844962596893
18.2,-0.17494457960128784,-0.05108648166060448,-1.2199186086654663,-0.023444287478923798,-0.6468378305435181,-0.2370140254497528
18.25,0.04367953538894653,0.17729756236076355,-0.8699955940246582,-0.03839273750782013,-0.6809912919998169,-0.31951236724853516
18.3,0.5340124368667603,0.4887409210205078,-0.8006834983825684,0.04004180431365967,-0.8379707932472229,-0.413544625043869
18.35,0.8593186140060425,0.44756031036376953,-0.8451992869377136,0.051345229148864746,-0.730492889881134,-0.39177200198173523
18.4,0.7347092628479004,0.18914790451526642,-1.1361881494522095,-0.08261008560657501,-0.21585747599601746,-0.24386811256408691
18.45,0.40836775302886963,-0.09591872245073318,-0.851580023765564,-0.3039114773273468,0.5158356428146362,-0.11644836515188217
18.5,0.1816665232181549,-0.05495743453502655,-0.6933797001838684,-0.377882182598114,0.8517671823501587,-0.0952388271689415
18.55,0.1578947901725769,0.5800256729125977,-1.4214816093444824,-0.3879771828651428,0.7889432311058044,-0.22634130716323853
18.6,0.2905256748199463,1.339080810546875,-2.048569679260254,-0.6032983660697937,0.8373420834541321,-0.5120472311973572
18.65,0.8003546595573425,1.626334309577942,-2.3408305644989014,-0.9656391739845276,1.0948525667190552,-0.7763528227806091
18.7,0.953122079372406,0.9565677642822266,-2.1233322620391846,-1.2694041728973389,1.6032299995422363,-0.8205121755599976
18.75,0.4932675361633301,-0.06077776849269867,-1.6923587322235107,-1.2720870971679688,2.050391435623169,-0.56317138671875
18.8,-0.025052189826965332,-0.6173697710037231,-1.0134891271591187,-0.8988790512084961,2.281855821609497,-0.19138874113559723
18.85,-0.460557758808136,-0.3746385872364044,-0.5429511070251465,-0.3858680725097656,2.3307862281799316,0.04414298012852669
18.9,-0.6463985443115234,0.01948549412190914,-0.14550140500068665,-0.01469002291560173,2.23301100730896,0.13433365523815155
18.95,-0.8153546452522278,0.10987763851881027,0.1261385679244995,0.2203279733657837,1.873100996017456,0.17009559273719788
19.0,-1.0135834217071533,0.12975315749645233,-0.09508787840604782,0.3850162923336029,1.4451336860656738,0.13395453989505768
19.05,-0.6417832970619202,0.17289260029792786,-0.19496144354343414,0.41117310523986816,1.4432810544967651,0.01671111211180687
19.1,-0.43596532940864563,0.20293523371219635,-0.5345082879066467,0.41969338059425354,1.5276873111724854,-0.02802407555282116
19.15,-0.7625743746757507,0.1914396584033966,-0.6393941044807434,0.44795823097229004,1.703892469406128,0.018588392063975334
19.2,-0.25206491351127625,0.1164560541510582,-0.005612798500806093,0.49398040771484375,2.077889919281006,0.11592606455087662
19.25,-0.15989066660404205,0.17405416071414948,-0.11505161970853806,0.6875311136245728,1.962774634361267,0.11072084307670593
19.3,-0.3589819669723511,0.21131709218025208,-0.23759831488132477,0.9462418556213379,1.6568725109100342,-0.049299705773591995
19.35,-1.0599822998046875,0.38366422057151794,-0.5590893030166626,1.255963683128357,1.2300443649291992,-0.2663026452064514
19.4,-1.1915485858917236,0.5722370743751526,-0.539864718914032,1.5127633810043335,0.8649136424064636,-0.45368367433547974
19.45,-0.20792651176452637,0.575508177280426,-0.19967865943908691,1.6461093425750732,0.5037811994552612,-0.6598390340805054
19.5,0.4643442630767822,1.2499114274978638,0.4944543242454529,1.712289810180664,0.23248566687107086,-0.9818350672721863
19.55,1.004077672958374,2.3527119159698486,2.1092326641082764,1.7124768495559692,0.4326995313167572,-1.1259191036224365
19.6,2.294804811477661,1.8800128698349,3.4632816314697266,1.5302878618240356,0.7810192108154297,-0.6806009411811829
19.65,4.427311897277832,-0.7634707689285278,3.166667938232422,1.1483691930770874,0.8860390186309814,0.3830561637878418
19.7,6.448198318481445,-2.8419601917266846,2.862314224243164,0.513311505317688,0.22054782509803772,1.1912498474121094
19.75,5.692693710327148,-2.5510170459747314,3.712968587875366,-0.045199960470199585,-1.382010579109192,0.6686623692512512
19.8,3.5885655879974365,-1.8428795337677002,3.9415996074676514,-0.14668206870555878,-2.8532874584198,-0.28958916664123535
19.85,1.6228588819503784,-1.6262456178665161,3.533029794692993,0.058118343353271484,-3.6115589141845703,-0.67196124792099
19.9,-0.278647780418396,-0.8625954985618591,3.0964832305908203,0.3467258810997009,-3.7092604637145996,-0.618257999420166
19.95,-2.1980276107788086,1.2153981924057007,2.731558322906494,0.3613128662109375,-3.517536163330078,-0.36264848709106445
20.0,-3.405618667602539,2.8787598609924316,-0.05302722007036209,0.07897665351629257,-3.590311050415039,-0.12899628281593323
20.05,-1.7001715898513794,2.608612060546875,-4.576355934143066,-0.5489441156387329,-4.026131629943848,-0.029824020341038704
20.1,-0.5869672298431396,0.6795356869697571,-5.362040042877197,-0.8724134564399719,-4.406586647033691,-0.29636913537979126
20.15,-0.015160799026489258,0.2320220023393631,-6.944902420043945,-0.019934721291065216,-3.047574996948242,0.061554837971925735
20.2,-1.7037363052368164,0.6547898054122925,-5.26817512512207,0.7249431610107422,-1.1001231670379639,0.8386624455451965
20.25,-4.329707622528076,0.4097824990749359,-3.184636354446411,1.3909438848495483,-0.164446622133255,0.781453549861908
20.3,-7.752187728881836,0.053034014999866486,-2.5790905952453613,2.2750227451324463,0.21234579384326935,0.1523888260126114
20.35,-10.797607421875,0.9569713473320007,-7.797214984893799,3.8528237342834473,-0.30564138293266296,-0.5396232604980469
20.4,-13.529963493347168,0.06783416122198105,-5.827271461486816,3.3810901641845703,1.6738629341125488,-1.0551934242248535
20.45,-13.177599906921387,1.5587102174758911,6.553452491760254,3.312228202819824,4.718547821044922,-1.263668417930603
20.5,-4.616491794586182,3.4362406730651855,19.01543426513672,3.5626792907714844,6.494890213012695,-1.70464289188385
20.55,5.900702953338623,1.4509494304656982,19.054195404052734,3.165428638458252,7.086086750030518,-1.2384188175201416
20.6,11.308457374572754,-2.6691956520080566,13.1173095703125,3.162142753601074,6.784687519073486,0.030610011890530586
20.65,12.16397762298584,-3.538057565689087,7.083754539489746,3.237936019897461,6.006208896636963,-0.0706024169921875
20.7,10.778294563293457,-3.45939564704895,1.544708013534546,3.583134174346924,5.378598690032959,-0.35006287693977356
20.75,8.603106498718262,-5.787760257720947,-3.375225067138672,3.4591434001922607,4.66519832611084,-0.5753197073936462
20.8,4.451698303222656,-5.510529041290283,-4.671268939971924,2.0612857341766357,3.999390125274658,-0.9030821919441223
20.85,3.577845811843872,-2.428905487060547,-3.5026397705078125,1.4780739545822144,3.4202423095703125,-0.9275177717208862
20.9,3.3369626998901367,-0.6133006811141968,-3.401975154876709,1.4737062454223633,3.012127637863159,-1.0384353399276733
20.95,1.5582542419433594,-2.599308490753174,-3.9054524898529053,1.3313727378845215,2.711996555328369,-1.3689037561416626
21.0,1.8940808773040771,-1.9898076057434082,-2.733259916305542,0.5024255514144897,2.93522047996521,-1.5178042650222778
21.05,4.185995101928711,1.091638445854187,-2.732430934906006,-0.32735127210617065,3.5617427825927734,-1.3306479454040527
21.1,3.4058074951171875,2.6352710723876953,-3.099806308746338,-0.5313761830329895,3.949676513671875,-1.1273157596588135
21.15,-0.9628010988235474,2.404777765274048,-1.9288486242294312,0.29985666275024414,3.3840339183807373,-1.201438069343567
21.2,-2.0148024559020996,2.0008528232574463,-0.9955720901489258,0.7273474335670471,2.2662861347198486,-0.5633879899978638
21.25,-1.7818949222564697,0.9278022646903992,-0.5795915126800537,0.8456712961196899,1.1595910787582397,-0.134397491812706
21.3,-0.9969222545623779,1.5158170461654663,0.6397126317024231,0.9797147512435913,0.4235493838787079,-0.0619296170771122
21.35,-1.4478732347488403,0.5648118257522583,0.25932255387306213,1.1450738906860352,0.06751326471567154,-0.3276531398296356
21.4,-0.6840029954910278,0.5635824799537659,-1.095345377922058,0.9356034994125366,-0.27984410524368286,-0.15763156116008759
21.45,-0.4015973210334778,0.580668568611145,0.6964291930198669,0.26154640316963196,-0.5210968852043152,-0.00855791661888361
21.5,0.027790307998657227,1.3521091938018799,1.5561593770980835,-0.35878825187683105,-0.6842078566551208,-0.16247844696044922
21.55,0.014459013938903809,0.8597671389579773,1.2960124015808105,-0.529429018497467,-0.6343868970870972,-0.5025548934936523
21.6,-0.22248627245426178,-0.10239122062921524,0.6639706492424011,-0.4739341139793396,-0.6159434914588928,-0.7715339660644531
21.65,0.9913580417633057,-0.03291517123579979,-0.2906183898448944,-0.3517482280731201,-0.6389396786689758,-0.7543813586235046
21.7,0.8688164353370667,-0.52637779712677,-0.7994838953018188,-0.29356369376182556,-0.5465107560157776,-0.7982796430587769
21.75,0.4860610365867615,-1.4579840898513794,-0.16304422914981842,-0.3023015856742859,-0.5144525766372681,-0.803488552570343
21.8,0.38444533944129944,-1.1271592378616333,-0.47468578815460205,-0.348797082901001,-0.4983610212802887,-0.5457555651664734
21.85,0.2628418803215027,-0.3307409882545471,-0.5617420673370361,-0.391694039106369,-0.6687378287315369,-0.4391097128391266
21.9,0.038639530539512634,-0.33595186471939087,-0.3562034070491791,-0.3436620533466339,-0.8569722175598145,-0.4229150116443634
21.95,0.11848887801170349,-0.6830769777297974,-0.8226608037948608,-0.43681418895721436,-0.9989163875579834,-0.413956880569458
22.0,0.42653506994247437,-0.043078452348709106,-0.21644768118858337,-0.5087535977363586,-1.2291005849838257,-0.2511623203754425
22.05,-0.18501079082489014,0.20211516320705414,1.4671611785888672,-0.4995556175708771,-1.4279025793075562,-0.18818901479244232
22.1,-1.0172539949417114,-0.48698514699935913,1.9100842475891113,-0.40043187141418457,-1.1919410228729248,-0.24361857771873474
22.15,-0.9476181268692017,-1.3185529708862305,2.470674991607666,-0.6263138055801392,-0.9462699890136719,0.23703934252262115
22.2,-1.247681975364685,-1.7426490783691406,3.744371175765991,-1.1721019744873047,-0.5181318521499634,1.1742408275604248
22.25,-4.566153526306152,-4.301117897033691,3.8260982036590576,-1.474941611289978,0.2546636462211609,2.2344326972961426
22.3,-2.245326280593872,-4.561116695404053,0.6510339975357056,-1.6135456562042236,1.180575966835022,3.7381575107574463
22.35,5.422924041748047,-0.6115108728408813,-7.273285388946533,-1.1177668571472168,1.5946484804153442,4.13246488571167
22.4,10.620800971984863,-3.2141315937042236,-7.028504371643066,-1.0171432495117188,0.2408262938261032,2.0983457565307617
22.45,11.240949630737305,-3.0980281829833984,0.38594990968704224,-2.1082663536071777,-1.9031990766525269,0.18531662225723267
22.5,5.521420001983643,1.1294739246368408,6.7870259284973145,-2.724679946899414,-3.7196638584136963,-0.6683950424194336
22.55,-3.871431827545166,5.219145774841309,6.741391658782959,-2.0251288414001465,-4.526726722717285,-0.37418314814567566
22.6,-7.675970077514648,5.261745452880859,0.840874969959259,-0.7851637005805969,-2.9313182830810547,0.9463915228843689
22.65,-8.128175735473633,3.1139800548553467,-1.093599557876587,-0.30761289596557617,-1.5830425024032593,1.6933590173721313
22.7,-5.937869071960449,1.8145993947982788,-1.5616883039474487,-0.0896441638469696,-0.6366783380508423,0.9503321051597595
22.75,-1.4786489009857178,1.9760582447052002,-1.7319090366363525,0.3303648829460144,0.0033412142656743526,0.031166866421699524
22.8,0.7335906028747559,1.6271803379058838,-0.2396116405725479,1.00593101978302,0.28231149911880493,-0.23928292095661163
22.85,0.80308997631073,1.0353060960769653,0.8619667887687683,1.356144666671753,0.4253976047039032,0.12070008367300034
22.9,0.5353379845619202,0.1279754787683487,0.5110144019126892,1.3549396991729736,0.4568574130535126,0.3994711637496948
22.95,0.62193363904953,0.4021930992603302,-0.18490050733089447,1.2231409549713135,0.32058560848236084,0.44075194001197815
23.0,0.7147645354270935,0.3126640319824219,-0.013616006821393967,1.2228922843933105,0.22183376550674438,0.5919700860977173
23.05,0.7835286855697632,-0.24253755807876587,0.11878202855587006,1.3263967037200928,0.18428894877433777,0.7949638962745667
23.1,0.6138997077941895,-0.16538813710212708,0.2362641990184784,1.270300269126892,0.13940222561359406,0.909201443195343
23.15,0.43556714057922363,-0.019840262830257416,-0.07150401175022125,1.1560235023498535,0.12916697561740875,0.911960780620575
23.2,0.32174932956695557,0.06277750432491302,-0.14916156232357025,1.1296987533569336,0.05386713892221451,0.9119437336921692
23.25,0.078728586435318,-0.7815839052200317,0.01393711194396019,1.0192099809646606,0.08605790883302689,0.922653317451477
23.3,0.15032052993774414,-0.7974616289138794,-0.11367090046405792,0.7532458901405334,0.07408054918050766,0.985104501247406
23.35,-0.01583624631166458,-0.6656885743141174,0.146988183259964,0.45985838770866394,0.006063251290470362,0.9896410703659058
23.4,-0.04729965329170227,-0.9512473344802856,-0.28204765915870667,0.24185487627983093,-0.04074539989233017,1.1305458545684814
23.45,-0.21731123328208923,-0.9184771776199341,-0.09217830747365952,0.06203335523605347,0.04421069845557213,1.1589484214782715
23.5,0.2528485655784607,-0.3219967186450958,0.0898452028632164,-0.11743754148483276,0.18718202412128448,1.302546501159668
23.55,0.6209824681282043,-0.6073523163795471,0.5807531476020813,-0.08319199085235596,0.4309680163860321,1.2096349000930786
23.6,0.9221445322036743,-1.0573827028274536,0.4159332513809204,-0.0923934280872345,0.47220903635025024,1.0680783987045288
23.65,0.6913726329803467,-0.6579733490943909,0.797018826007843,-0.23822304606437683,0.5111314058303833,0.8066011071205139
23.7,0.7863147258758545,-0.044030189514160156,0.7391533255577087,-0.3731987178325653,0.3580515384674072,0.610476016998291
23.75,0.7250120639801025,-0.6995907425880432,0.18054910004138947,-0.40774109959602356,0.18927042186260223,0.37892019748687744
23.8,-0.7007194757461548,-0.24094294011592865,0.29101669788360596,-0.4142051935195923,0.07530076801776886,0.41924673318862915
23.85,-1.497178316116333,0.7012625932693481,-0.18926049768924713,-0.2979455888271332,0.27512308955192566,0.46255701780319214
23.9,-1.6220107078552246,1.2036887407302856,-0.3909016251564026,-0.07538598030805588,0.6676124930381775,0.3266235291957855
23.95,-1.3582677841186523,1.2698155641555786,0.0469447523355484,0.2513286769390106,1.136938214302063,0.2023177444934845
24.0,-0.8052701354026794,0.5561572313308716,0.8616275787353516,0.48461267352104187,1.4965605735778809,0.1768980622291565
24.05,-0.8901385068893433,0.4987861216068268,1.1509448289871216,0.6754754185676575,1.7457811832427979,0.2656823396682739
24.1,-0.6345586776733398,0.8862373232841492,0.8900471925735474,0.9179461002349854,2.048891305923462,0.04487607255578041
24.15,0.5556430816650391,0.3296700119972229,1.1635079383850098,1.0207116603851318,2.2398321628570557,-0.292453795671463
24.2,1.2592562437057495,-0.2842312157154083,0.9748529195785522,0.9493828415870667,2.1898813247680664,-0.271077960729599
24.25,0.9835000038146973,-0.9075280427932739,0.6558046340942383,0.878510057926178,1.9913030862808228,-0.3160243034362793
24.3,0.5493833422660828,-1.2020989656448364,0.34204086661338806,0.7212748527526855,1.6847944259643555,-0.3530445396900177
24.35,-0.345042884349823,-1.8417656421661377,0.74029541015625,0.5102043747901917,1.4960013628005981,-0.172888845205307
24.4,-1.3738842010498047,-5.308725833892822,0.9982485175132751,0.3747173547744751,1.364475131034851,-0.062083981931209564
24.45,1.7339081764221191,-13.136503219604492,-0.36318540573120117,-0.4970943331718445,0.33323290944099426,0.9015324711799622
24.5,4.501136779785156,-11.017168998718262,1.0108284950256348,-1.8214123249053955,-2.3254120349884033,1.5791926383972168
24.55,3.5254199504852295,-0.1765798032283783,-3.818783760070801,-1.10329008102417,-2.8186748027801514,0.9251726269721985
24.6,1.706429123878479,7.11961555480957,-2.1978323459625244,-1.6749365329742432,-2.3384790420532227,2.771615743637085
24.65,-0.7430569529533386,8.066780090332031,0.782231330871582,-1.6406545639038086,-2.0161261558532715,3.7403206825256348
24.7,-2.758054733276367,6.709833145141602,-1.2248235940933228,-0.5796202421188354,-0.7390003800392151,2.5888671875
24.75,-1.2834184169769287,3.280686855316162,-2.215540647506714,-0.743708074092865,0.13157837092876434,1.4347779750823975
24.8,-0.6546748876571655,1.7044947147369385,-0.9147430658340454,-1.6058679819107056,0.15986864268779755,1.2883024215698242
24.85,-1.3337594270706177,-1.117895245552063,-1.4025142192840576,-0.977014422416687,0.6633037328720093,0.15572740137577057
24.9,-1.4107791185379028,-1.0615636110305786,-0.9064361453056335,-0.18799491226673126,0.697637677192688,-0.04017992690205574
24.95,-0.7361587882041931,-1.1382876634597778,-0.6075630187988281,0.4600108563899994,0.3985668122768402,-0.3051947057247162
25.0,0.6761605143547058,-0.2231769859790802,0.5895931720733643,0.3464724123477936,0.021934811025857925,0.24359753727912903
25.05,0.6279803514480591,0.9816657304763794,0.5083065629005432,0.25807440280914307,0.060414526611566544,0.33381417393684387
25.1,0.9365453720092773,-0.08153065294027328,-0.7817268967628479,0.22913029789924622,0.136614590883255,0.13601301610469818
25.15,0.020723596215248108,0.015940647572278976,-0.4172803461551666,0.01666863262653351,-0.09869177639484406,0.2746471166610718
25.2,-0.14374031126499176,-0.8664742708206177,-0.08391866087913513,-0.04108545184135437,-0.3422836363315582,0.03409286588430405
25.25,0.10524247586727142,0.12549403309822083,0.3888803720474243,-0.1119801253080368,-0.48078179359436035,0.19912166893482208
25.3,1.0537221431732178,-0.6007967591285706,0.529483437538147,-0.11377812176942825,-0.3583512306213379,0.15427325665950775
25.35,0.6560403108596802,-0.11502360552549362,1.023818016052246,-0.2039794623851776,-0.20753508806228638,0.4315336346626282
25.4,0.31564003229141235,-0.3450022041797638,0.21129941940307617,-0.1494392454624176,0.03635897859930992,0.42247167229652405
25.45,0.344832181930542,-0.06583885103464127,-0.4270906150341034,-0.09157943725585938,-0.1548147201538086,0.5266854166984558
25.5,-0.46485966444015503,0.48014360666275024,-0.5268214344978333,0.09860560297966003,-0.4560944736003876,0.6821033954620361
25.55,-0.5684842467308044,0.1661072075366974,-0.09297742694616318,0.12431034445762634,-0.440308541059494,0.6486963033676147
25.6,-0.7620803117752075,0.8294393420219421,0.33921876549720764,0.03303387761116028,-0.5582510828971863,0.7108505368232727
25.65,-0.885556697845459,0.472781240940094,-0.5201916694641113,-0.13448910415172577,-0.4097191095352173,0.515202522277832
25.7,-1.281561255455017,0.6461830735206604,-1.2757354974746704,-0.11018900573253632,-0.37696942687034607,0.3685322701931
25.75,-0.9110750555992126,-0.0748758390545845,-0.7784525156021118,0.05701048672199249,-0.3728824555873871,0.1950557976961136
25.8,-1.0841515064239502,0.585434079170227,-0.06177112087607384,0.17819741368293762,-0.49464306235313416,0.30114448070526123
25.85,-0.5305683612823486,0.33727651834487915,-0.05966934189200401,0.2748430073261261,-0.3046986162662506,0.10098741203546524
25.9,-0.012620441615581512,-0.0670022964477539,0.1650061458349228,0.2524830996990204,-0.25455108284950256,0.17072167992591858
25.95,0.2460033893585205,0.059663765132427216,-0.09158468246459961,0.16081732511520386,-0.2578296959400177,0.2403685301542282
26.0,0.5104617476463318,0.3053169250488281,-0.030990179628133774,0.13547036051750183,-0.22836726903915405,0.14699257910251617
26.05,0.12052763998508453,0.3487749397754669,-0.06287531554698944,-0.027328796684741974,-0.39374789595603943,0.2037215232849121
26.1,-0.14096620678901672,0.279601126909256,0.02966208942234516,-0.06658676266670227,-0.4184117317199707,0.175981342792511
26.15,-0.6802603602409363,-0.1430978924036026,-0.4209485650062561,-0.07713015377521515,-0.3063095510005951,-0.01670966111123562
26.2,-1.1650590896606445,-0.7041196823120117,-0.2571880519390106,0.004312932025641203,-0.3773142397403717,-0.004337215796113014
26.25,-1.1486220359802246,-0.3281059265136719,-0.2242485135793686,0.22049272060394287,-0.32597556710243225,0.028875019401311874
26.3,-0.586441695690155,-0.7094832062721252,-0.22164702415466309,0.48860692977905273,-0.13112692534923553,-0.175309956073761
26.35,-0.8524218797683716,-0.7304191589355469,0.04981119930744171,0.3126920163631439,-0.06029777601361275,-0.08671615272760391
26.4,-0.46731168031692505,0.0586424246430397,0.24169112741947174,0.24197418987751007,-0.0874118059873581,0.07567021250724792
26.45,-0.21201828122138977,0.0867166668176651,0.017718693241477013,0.1357247233390808,-0.0015653379959985614,0.0180913507938385
26.5,-0.8903713822364807,0.007013338152319193,-0.38884299993515015,0.13339081406593323,-0.03447159752249718,-0.3389928340911865
26.55,-0.5347853302955627,-0.23621465265750885,0.024953588843345642,0.18262821435928345,-0.26328182220458984,-0.3811069428920746
26.6,-1.0913559198379517,-0.188751220703125,-0.17089726030826569,0.12618198990821838,-0.1782550811767578,-0.20818881690502167
26.65,-0.6377670764923096,-0.4471769630908966,0.11049574613571167,0.33302193880081177,0.14146210253238678,-0.25925412774086
26.7,-0.6152169704437256,0.02254873514175415,0.752225399017334,0.3771127462387085,0.3810858428478241,-0.1045963391661644
26.75,-0.3087775707244873,0.7699729800224304,1.0981054306030273,0.27611592411994934,0.9890347123146057,-0.1948164701461792
26.8,1.299278974533081,1.0504274368286133,-0.9223384261131287,0.31422385573387146,1.7072490453720093,-0.5019629001617432
26.85,1.9560259580612183,-0.3496801257133484,-1.37100088596344,0.44851160049438477,0.8420212864875793,-0.4438555836677551
26.9,1.7304357290267944,0.7386903762817383,0.5501145124435425,0.15578770637512207,-0.5701509118080139,0.26605522632598877
26.95,2.485574722290039,0.5630912184715271,0.10677174478769302,0.1564248502254486,-0.8517187237739563,0.30417054891586304
27.0,2.049572706222534,0.7991858124732971,0.6049820780754089,-0.13428306579589844,-1.050689935684204,0.5508984923362732
27.05,0.9890382289886475,0.9738035798072815,0.16092169284820557,-0.4231988191604614,-1.2132437229156494,0.7196998000144958
27.1,0.4330117106437683,1.4854871034622192,0.17850950360298157,-0.6373451352119446,-1.0043582916259766,0.6137627959251404
27.15,-0.22389505803585052,0.7244845628738403,0.6795559525489807,-0.8247582912445068,-0.46614447236061096,0.12115472555160522
27.2,-0.5042340159416199,0.5867272615432739,0.6482680439949036,-0.8081583976745605,0.39509180188179016,0.023419374600052834
27.25,-1.7320266962051392,0.6696978211402893,-1.3108799457550049,-0.20608186721801758,0.9748227000236511,0.6101563572883606
27.3,-2.856858730316162,0.4518900513648987,-2.224730968475342,-0.04913067817687988,0.7011195421218872,1.186643123626709
27.35,-2.4149656295776367,0.3012705445289612,-1.421198844909668,0.007167696952819824,0.2307751476764679,1.092470407485962
27.4,-1.6435654163360596,-0.6491546630859375,-0.37832996249198914,0.007643908262252808,0.6396984457969666,0.3133276402950287
27.45,-1.2352449893951416,-0.7205477356910706,-0.4963763952255249,0.08271181583404541,0.770510196685791,-0.026881033554673195
27.5,-0.9572639465332031,-0.16475485265254974,-0.2020234912633896,0.283310204744339,0.6194165945053101,-0.05157892405986786
27.55,-0.46472662687301636,-0.3688392639160156,0.4475993514060974,0.399732768535614,0.47120869159698486,0.008361516520380974
27.6,0.5800356864929199,0.24214647710323334,-0.5263177752494812,0.4162207245826721,0.5513253211975098,-0.06326301395893097
27.65,0.48184698820114136,0.36526206135749817,0.3620827794075012,0.46215981245040894,0.11953127384185791,-0.03520023077726364
27.7,0.9036792516708374,-0.018964795395731926,0.18643701076507568,0.3025050759315491,0.12522932887077332,0.004030190408229828
27.75,0.4515923261642456,-0.1190653145313263,0.07487998157739639,0.34650832414627075,0.37693560123443604,-0.006860487163066864
27.8,-0.3643101155757904,0.35363486409187317,-0.019484514370560646,0.3425323963165283,0.5903370976448059,0.015047436580061913
27.85,-0.8247085809707642,-0.11356162279844284,-0.1932108998298645,0.3608032763004303,0.7118446230888367,-0.1406068503856659
27.9,-0.657505214214325,-0.012869820930063725,-0.2010456919670105,0.41961902379989624,0.4536127746105194,-0.11737185716629028
27.95,-0.9318590760231018,0.4778920114040375,-0.44738465547561646,0.46565014123916626,0.25077396631240845,-0.11683540046215057
28.0,-0.9751039743423462,0.416476309299469,-0.6125375628471375,0.3535994589328766,-0.033625200390815735,-0.3307173252105713
28.05,-0.7610318064689636,0.4745636582374573,-0.8414302468299866,0.2371387928724289,-0.12588879466056824,-0.6067816019058228
28.1,-0.9827533960342407,0.12931540608406067,-0.5442312955856323,0.24406954646110535,-0.1444382518529892,-0.894320547580719
28.15,-0.9387209415435791,0.8926793932914734,0.4857116639614105,0.0755738615989685,0.2320491224527359,-1.3500665426254272
28.2,0.7569249272346497,-0.2180691361427307,0.03187139704823494,0.1266830563545227,1.1898258924484253,-1.8421951532363892
28.25,0.8360475301742554,-0.7716294527053833,0.5550868511199951,0.3564021587371826,1.126341700553894,-1.447014570236206
28.3,0.4836049973964691,-0.8346291184425354,1.1121466159820557,0.4956984221935272,0.5354244112968445,-0.7732515335083008
28.35,0.9911357164382935,-1.441001057624817,0.7272524833679199,0.5956437587738037,0.122572161257267,-0.3095974922180176
28.4,2.8778295516967773,-2.0762875080108643,0.8244609832763672,0.4810728132724762,-0.6922774910926819,0.194020077586174
28.45,8.632001876831055,-2.7165300846099854,4.928139686584473,0.14154183864593506,-2.5867202281951904,1.2816832065582275
28.5,-4.260427474975586,2.131002187728882,4.5010986328125,-0.36953604221343994,-2.111562967300415,2.2773807048797607
28.55,1.120834231376648,-1.4464218616485596,-1.7564773559570312,-1.393108606338501,0.6256496906280518,1.2264529466629028
28.6,-4.5482869148254395,3.7146756649017334,-0.28746822476387024,-1.3801404237747192,-0.24632059037685394,1.9067918062210083
28.65,-3.328763723373413,1.2471829652786255,-2.6295742988586426,-1.1558281183242798,1.6734305620193481,0.3396117091178894
28.7,-2.104611873626709,0.1440896987915039,-2.111715078353882,-0.7862751483917236,0.8273016214370728,0.5353841185569763
28.75,-0.5030337572097778,-0.996802568435669,-2.4336466789245605,-0.4664709270000458,0.7993314862251282,0.15962356328964233
28.8,-1.5601420402526855,0.5094233751296997,-0.3742315471172333,-0.06665551662445068,0.39307624101638794,0.22784274816513062
28.85,-0.6657413840293884,0.49856477975845337,-0.28324905037879944,-0.060030676424503326,0.8048751950263977,-0.2933662533760071
28.9,0.13571985065937042,-0.2343492954969406,-0.09487013518810272,-0.20127007365226746,0.821336567401886,-0.46661239862442017
28.95,0.01989986002445221,0.23738102614879608,0.26574113965034485,-0.16997966170310974,0.5792477130889893,-0.3096950352191925
29.0,-0.18004029989242554,0.29899027943611145,-0.14539577066898346,-0.22120234370231628,0.5172566175460815,-0.32018372416496277
29.05,0.061742573976516724,0.05423544719815254,-0.3408391773700714,-0.33286744356155396,0.28700125217437744,-0.1760447919368744
29.1,-0.374987930059433,0.011409767903387547,-0.14373016357421875,-0.30816805362701416,0.15695640444755554,-0.10029447823762894
29.15,-0.38244253396987915,0.1855669468641281,0.46390500664711,-0.28861021995544434,0.04109380394220352,0.0180190522223711
29.2,-0.209376722574234,0.06720640510320663,0.0862242579460144,-0.2867411971092224,0.09404626488685608,-0.04007640480995178
29.25,-0.1496141254901886,0.09393121302127838,-0.19777776300907135,-0.3174384832382202,-0.08364974707365036,0.039511289447546005
29.3,-0.5329647064208984,-0.3313770592212677,-0.5819864869117737,-0.34724077582359314,-0.16048477590084076,0.015438726171851158
29.35,-0.5786885023117065,-0.14130209386348724,0.030497392639517784,-0.23349107801914215,-0.29219868779182434,0.04512571915984154
29.4,-0.16395021975040436,-0.06212997063994408,0.08170529454946518,-0.16937243938446045,-0.10778538882732391,-0.06854885071516037
29.45,-0.22121471166610718,-0.21214105188846588,0.015004130080342293,-0.00894060730934143,0.05280124023556709,-0.18615242838859558
29.5,-0.2061310112476349,-0.2339649498462677,-0.0221202801913023,0.08573472499847412,-0.012518016621470451,-0.05110029876232147
29.55,-0.15503868460655212,-0.1170807033777237,-0.06784030050039291,0.05268985033035278,0.022353453561663628,-0.13026587665081024
29.6,0.21490687131881714,0.030424119904637337,0.14342200756072998,0.009327497333288193,-0.040938425809144974,-0.009096045978367329
29.65,0.2119041085243225,0.032899826765060425,-0.5961647033691406,0.01977035403251648,0.10102274268865585,-0.0908084586262703
29.7,-0.1560077965259552,0.12183285504579544,-0.2990637719631195,0.046948302537202835,-1.774807969923131e-05,-0.039229221642017365
29.75,-0.2774776816368103,0.012902244925498962,-0.6022299528121948,0.06577000021934509,0.025563500821590424,-0.1178521141409874
29.8,-0.13106662034988403,0.052982330322265625,-0.24506062269210815,0.08385282754898071,-0.030661216005682945,-0.15214382112026215
29.85,-0.22744232416152954,-0.262816458940506,0.12058661133050919,0.0469142347574234,-0.03721953555941582,-0.15878812968730927
29.9,-0.48428797721862793,-0.6566982865333557,-0.29677799344062805,0.13867855072021484,0.01994522474706173,-0.21985028684139252
29.95,-0.4248380661010742,-0.01636122353374958,-0.040845006704330444,0.19611895084381104,-0.04097915068268776,-0.1562517285346985
30.0,-0.02976275235414505,0.12390616536140442,0.2891547381877899,0.15987522900104523,-0.019020628184080124,-0.23517775535583496
30.05,-0.04845826327800751,-0.27699095010757446,-0.5359289646148682,0.15373718738555908,-0.008181477896869183,-0.32347726821899414
30.1,-0.36180123686790466,-0.018433570861816406,-0.27213239669799805,0.2387193888425827,-0.1639593541622162,-0.26402977108955383
30.15,-0.006377384066581726,0.13968467712402344,-0.4416511654853821,0.3565100431442261,-0.18109221756458282,-0.2397126704454422
30.2,0.2933271825313568,0.3095398247241974,-0.07349611073732376,0.28921014070510864,-0.22135287523269653,-0.3228656053543091
30.25,0.05228235200047493,-0.627723753452301,-0.13059847056865692,0.16907715797424316,-0.3050377368927002,-0.2995959222316742
30.3,-0.7173458933830261,0.013814952224493027,-0.0730535089969635,0.21919527649879456,-0.48025810718536377,-0.06802090257406235
30.35,-0.3461799621582031,0.20525266230106354,-0.5622814893722534,0.330188512802124,-0.2819787859916687,-0.18254397809505463
30.4,-0.10671524703502655,-0.14688970148563385,0.05901051312685013,0.36032211780548096,-0.13314113020896912,-0.36150798201560974
30.45,0.29068073630332947,-0.24355223774909973,0.10360555350780487,0.3813893795013428,-0.057289011776447296,-0.36421146988868713
30.5,0.22744053602218628,-0.03444291651248932,-0.041755225509405136,0.35383063554763794,-0.023544341325759888,-0.36750921607017517
30.55,0.15393750369548798,0.4544296860694885,0.0035439925268292427,0.3483639359474182,-0.13134442269802094,-0.3320496678352356
30.6,0.2919078469276428,0.2340259552001953,-0.3319266140460968,0.3498048782348633,-0.05201508477330208,-0.45112109184265137
30.65,0.09818379580974579,0.1992950737476349,0.23767626285552979,0.33671674132347107,-0.13835830986499786,-0.33402886986732483
30.7,-0.1688660830259323,0.1947498768568039,0.2405516803264618,0.3979470133781433,-0.18803928792476654,-0.32644081115722656
30.75,-0.2602386772632599,0.480867475271225,0.47427019476890564,0.3783157169818878,-0.27364879846572876,-0.27051836252212524
30.8,-0.5343303680419922,-0.15769387781620026,-0.3016427159309387,0.320101797580719,-0.3035242557525635,-0.5386435389518738
30.85,-0.24906927347183228,0.13651660084724426,0.03247721493244171,0.2653418183326721,-0.608355700969696,-0.5237364172935486
30.9,-0.0469050407409668,0.176511749625206,-0.5690911412239075,0.38161662220954895,-0.5927779078483582,-0.5741344094276428
30.95,0.0029271431267261505,0.7650538682937622,0.10734574496746063,0.47566652297973633,-0.5683619379997253,-0.5233468413352966
31.0,0.06504958122968674,0.6820059418678284,0.1129273846745491,0.5253864526748657,-0.4658089876174927,-0.5569778680801392
31.05,0.1108318343758583,0.22599032521247864,0.15169692039489746,0.517501950263977,-0.33202043175697327,-0.6310573816299438
31.1,0.3120943307876587,0.27445513010025024,0.6534987092018127,0.5215401649475098,-0.4930417537689209,-0.6735660433769226
31.15,0.280253529548645,-0.112061507999897,0.44853249192237854,0.48308998346328735,-0.4738035202026367,-0.7255027294158936
31.2,0.2214929163455963,-0.13638494908809662,0.7827600240707397,0.33664512634277344,-0.645882785320282,-0.567499041557312
31.25,-0.0881623774766922,-0.1568889617919922,0.39344707131385803,0.29766222834587097,-0.5488256216049194,-0.4836301803588867
31.3,0.15055842697620392,-0.010769831947982311,0.40571480989456177,0.23986941576004028,-0.5867519378662109,-0.36830028891563416
31.35,0.21109604835510254,0.008319872431457043,0.5369075536727905,0.2183879315853119,-0.48938390612602234,-0.3813261389732361
31.4,0.013532787561416626,0.02120594121515751,0.8196748495101929,0.14473611116409302,-0.5593876242637634,-0.361638605594635
31.45,-0.2839083671569824,-0.4313383400440216,0.3811115026473999,0.004158139228820801,-0.4819566011428833,-0.31236615777015686
31.5,-0.5623436570167542,-0.08377642184495926,0.8366532325744629,-0.06693832576274872,-0.4991098940372467,-0.17879684269428253
31.55,-0.28529611229896545,-0.44982820749282837,-0.06319347023963928,-0.09930606186389923,-0.34380805492401123,-0.17171460390090942
31.6,-0.7806406021118164,-0.1791829913854599,0.02205030992627144,-0.1732710301876068,-0.4799555242061615,-0.18324971199035645
31.65,-0.6750749349594116,-0.40900328755378723,0.10941822081804276,-0.2804447412490845,-0.3977247476577759,-0.22429528832435608
31.7,-0.2933931350708008,-0.5249043107032776,-0.1712826043367386,-0.23075592517852783,-0.20414096117019653,-0.27675873041152954
31.75,-0.3890278935432434,0.6172781586647034,-0.1285359412431717,-0.2887270152568817,-0.26583242416381836,-0.23087403178215027
31.8,-0.07778984308242798,0.7353963851928711,-0.9658538699150085,-0.09292957186698914,-0.14459678530693054,-0.3909726142883301
31.85,-0.5628297328948975,1.066489338874817,-1.1333106756210327,0.07341545820236206,-0.08290653675794601,-0.43877166509628296
31.9,-0.29589447379112244,1.2204219102859497,-0.8764511346817017,0.5007096529006958,0.15546083450317383,-0.26349717378616333
31.95,-0.4969012141227722,1.097478985786438,0.167335644364357,0.6489921808242798,0.2198244333267212,-0.23334765434265137
32.0,-0.2064371109008789,0.6046019196510315,0.031983546912670135,0.8633147478103638,0.3770277798175812,-0.24694082140922546
32.05,0.09988671541213989,0.175053671002388,1.2807157039642334,0.7496957778930664,0.4265018701553345,-0.27562129497528076
32.1,1.3983230590820312,-1.8949382305145264,2.4713752269744873,0.6869145631790161,0.7334508299827576,-0.15712060034275055
32.15,1.8994594812393188,-5.716536998748779,0.3998802602291107,0.15220843255519867,1.1629314422607422,0.5389407277107239
32.2,2.8995537757873535,-4.845753192901611,1.6673619747161865,-0.8506359457969666,0.20432403683662415,1.1820515394210815
32.25,0.6434370279312134,-2.0801308155059814,1.7215183973312378,-2.0284957885742188,-0.8996297121047974,0.19565743207931519
32.3,-0.7348819375038147,-0.4099788963794708,0.3055337965488434,-2.3737549781799316,-1.3627909421920776,-0.8769965171813965
32.35,-1.2688395977020264,-0.8023577332496643,-0.29645565152168274,-1.9024301767349243,-1.3340102434158325,-1.7019468545913696
32.4,-0.26665788888931274,-0.47285953164100647,-2.1920361518859863,-1.521208643913269,-1.5492160320281982,-2.171821117401123
32.45,0.5434973835945129,1.5873900651931763,-2.2365355491638184,-0.8314797878265381,-1.5317680835723877,-2.281741142272949
32.5,-3.030277967453003,-0.061830468475818634,-1.257979154586792,0.03746187686920166,-1.5224472284317017,-2.1083390712738037
32.55,-5.5254597663879395,1.4954732656478882,0.21733912825584412,-0.05256664752960205,-0.6363459229469299,-2.728489875793457
32.6,-5.143464088439941,3.4496686458587646,-0.48400238156318665,0.2857389450073242,0.614080548286438,-3.793116569519043
32.65,-0.19558864831924438,7.594694137573242,-0.8824785947799683,0.8124228715896606,1.9418388605117798,-4.7563886642456055
32.7,2.010737180709839,5.4657816886901855,1.8721568584442139,1.4660624265670776,2.2316055297851562,-4.807431221008301
32.75,4.7749176025390625,1.345494270324707,1.5379317998886108,1.7871705293655396,2.3606157302856445,-4.553493976593018
32.8,3.2729153633117676,-0.9333191514015198,4.094387054443359,1.516910433769226,2.5360188484191895,-3.8082401752471924
32.85,2.719878911972046,-2.6309268474578857,1.278659462928772,0.8502672910690308,2.676344156265259,-3.1204311847686768
32.9,2.8279123306274414,-2.8611550331115723,-1.6241201162338257,-0.018082499504089355,2.3868768215179443,-2.608609914779663
32.95,2.174058675765991,-1.6661581993103027,-3.319859504699707,-0.5945559740066528,1.863450288772583,-1.756513237953186
33.0,1.6617770195007324,-0.8256047964096069,-4.107770919799805,-0.6255664825439453,1.2500685453414917,-1.3355659246444702
33.05,0.48742997646331787,-0.48219797015190125,-3.1102280616760254,-0.6798442602157593,0.7410581707954407,-1.1110780239105225
33.1,0.9142909646034241,0.06567753106355667,-1.8440548181533813,-0.5819095969200134,0.2292436957359314,-1.0760307312011719
33.15,1.0841174125671387,-0.3729811906814575,-1.1106101274490356,-0.5314521789550781,0.008179908618330956,-0.9932631254196167
33.2,0.0846940279006958,0.05026621371507645,-1.2294552326202393,-0.3742615580558777,-0.16550223529338837,-1.0365004539489746
33.25,-0.28929904103279114,0.18408867716789246,-1.079108476638794,-0.31230780482292175,-0.26353341341018677,-0.9895232915878296
33.3,0.13269184529781342,-0.08137227594852448,-0.04510006308555603,-0.425851047039032,-0.3923720419406891,-0.8326707482337952
33.35,-0.3434855341911316,-0.012181254103779793,0.35958266258239746,-0.3932729959487915,-0.37300753593444824,-0.7400082945823669
33.4,0.026341639459133148,0.1692495346069336,-0.19902227818965912,-0.17406877875328064,-0.37104901671409607,-0.5078173875808716
33.45,0.445581316947937,-0.35932162404060364,0.4336080551147461,0.16890649497509003,-0.2886044383049011,-0.587709367275238
33.5,0.7960300445556641,-0.5292655825614929,-2.1644866466522217,0.17918463051319122,-0.49082812666893005,-0.656550407409668
33.55,1.4678566455841064,-0.37173473834991455,-0.5371699333190918,-0.03628277778625488,-0.7772942185401917,-0.7692176699638367
33.6,1.043692946434021,-0.5433331727981567,0.047606464475393295,0.04198777675628662,-1.0332419872283936,-1.2064805030822754
33.65,0.8590834736824036,-0.30080705881118774,-0.19386576116085052,-0.006583809852600098,-1.314298391342163,-1.3215786218643188
33.7,1.3224040269851685,-0.38824087381362915,0.8566825985908508,-0.4142141342163086,-1.4988125562667847,-1.5494543313980103
33.75,0.7546378970146179,0.10919959843158722,1.8806629180908203,-0.3971150517463684,-1.5628721714019775,-1.5970419645309448
33.8,-0.6339667439460754,1.1171047687530518,1.7772308588027954,0.00976330041885376,-1.5048420429229736,-1.7148059606552124
33.85,-1.034900426864624,0.5931845903396606,0.11363328248262405,0.15854179859161377,-1.2375025749206543,-1.301143765449524
33.9,-0.36269810795783997,1.0427027940750122,0.5282955169677734,0.07138043642044067,-0.6587884426116943,-1.4439475536346436
33.95,-0.5475035309791565,-0.0315685011446476,0.17058859765529633,-0.006523072719573975,-0.07626508176326752,-1.4289369583129883
34.0,-0.5897659063339233,0.43021494150161743,-0.38431572914123535,-0.38365960121154785,0.1525786817073822,-1.819177508354187
34.05,0.408342182636261,-0.20855148136615753,-0.5452245473861694,-0.7984144687652588,0.37530478835105896,-1.295636534690857
34.1,0.3936767876148224,0.5385322570800781,-0.6307057738304138,-0.44677191972732544,0.5031037330627441,-1.2947206497192383
34.15,0.8251421451568604,1.2433196306228638,-0.07010747492313385,-0.41587236523628235,0.4309796988964081,-0.9895775318145752
34.2,1.084672451019287,1.5477076768875122,-0.7800028324127197,-0.41342443227767944,0.4105137288570404,-0.8951780796051025
34.25,1.204195499420166,1.104090690612793,-0.454703688621521,-0.23678776621818542,0.2610234022140503,-0.42067763209342957
34.3,-0.3598383665084839,1.050315022468567,-1.42789888381958,-0.4110887050628662,0.08845094591379166,0.3490959405899048
34.35,-0.6771531105041504,-1.4458056688308716,-0.12686261534690857,-0.39877745509147644,-0.19774368405342102,0.9539502859115601
34.4,0.6158393621444702,1.163535237312317,-0.7139853835105896,-0.5891398787498474,-0.48050299286842346,0.4583183526992798
34.45,0.26490145921707153,0.7317305207252502,0.10258058458566666,-0.2877133786678314,-0.012606020085513592,0.884374737739563
34.5,0.6345423460006714,0.4730120003223419,0.0555705726146698,-0.28576046228408813,-0.5926867127418518,0.7925347685813904
34.55,0.4077094495296478,0.045496903359889984,-0.59406977891922,-0.2306702435016632,-0.6718007922172546,1.0249381065368652
34.6,-0.509296715259552,-0.701728880405426,-0.7076207399368286,-0.46340450644493103,-0.6235982775688171,1.1431726217269897
34.65,-0.10069380700588226,-0.3913469612598419,0.576756477355957,-0.6882635354995728,-0.6045538187026978,1.094684362411499
34.7,-0.5354118347167969,-1.193948745727539,1.3635858297348022,-0.786487340927124,-0.7014385461807251,1.0045318603515625
34.75,-0.6429632306098938,-0.8251487016677856,0.07715115696191788,-0.7722839117050171,-0.9593710899353027,0.6239963173866272
34.8,-0.5308060646057129,-1.0167609453201294,0.5954908728599548,-0.3261832296848297,-0.6624733805656433,0.8590133786201477
34.85,-0.18769079446792603,-0.18120382726192474,0.6357101202011108,-0.49853819608688354,-0.9939479231834412,0.7864688634872437
34.9,-0.2577112019062042,-0.15721990168094635,-0.0929947942495346,-0.6716307997703552,-1.2652126550674438,0.8098951578140259
34.95,0.12369458377361298,-1.0185729265213013,0.15058758854866028,-0.5949777364730835,-0.8025510311126709,0.9867879748344421
35.0,0.5947445631027222,-0.10297597944736481,-2.0703814029693604,-0.7371692657470703,-0.9969293475151062,0.6010016798973083
35.05,0.7286161780357361,-0.5648013353347778,-0.789380669593811,-0.6717784404754639,-0.08255048096179962,0.8791608810424805
35.1,0.7205586433410645,-0.16215810179710388,-1.0009154081344604,-0.7124804258346558,-0.03424178436398506,0.6791629791259766
35.15,0.327665239572525,-0.9349920153617859,-0.5803036689758301,-0.7941373586654663,0.05283594876527786,0.6625595688819885
35.2,0.4012144207954407,-0.7503750324249268,-2.4765892028808594,-0.7480784058570862,0.0039662583731114864,0.6969081163406372
35.25,1.4753221273422241,-0.08470066636800766,-0.45194077491760254,-0.6754922866821289,-0.1126457154750824,0.40010082721710205
35.3,-0.021109580993652344,0.08919426053762436,-0.9559548497200012,-0.8757629990577698,0.3128074109554291,0.42862820625305176
35.35,0.11646851897239685,0.9713909029960632,1.1103824377059937,-0.9189606308937073,0.35225433111190796,0.3144557774066925
35.4,0.4391607344150543,-0.37771230936050415,0.3747754395008087,-0.8583811521530151,0.06449335813522339,0.4924602508544922
35.45,1.0153934955596924,-0.16635511815547943,1.5550806522369385,-0.9375786781311035,0.8603093028068542,0.45565158128738403
35.5,0.5792771577835083,-0.5796328783035278,-0.45013678073883057,-0.567755937576294,-0.16137602925300598,0.3789525628089905
35.55,0.5964195728302002,0.5230961441993713,0.10534483194351196,-0.7187941074371338,0.3167431950569153,0.29640015959739685
35.6,0.10234147310256958,-0.131444051861763,-1.094361662864685,-0.6544235944747925,-0.1131562888622284,0.2137434035539627
35.65,1.0743153095245361,-4.793542385101318,-0.46809399127960205,-0.7253649830818176,0.26827502250671387,0.1413055807352066
35.7,4.381726264953613,-45.94572448730469,1.5784621238708496,-0.6705232262611389,0.2909810245037079,-0.8821016550064087
35.75,-2.5383365154266357,1.645951509475708,-2.596461296081543,-0.38707900047302246,-0.638500452041626,-3.89943265914917
35.8,3.6159627437591553,-11.853226661682129,1.258697509765625,0.31520986557006836,2.288774251937866,3.5456621646881104
35.85,2.0332653522491455,0.531461775302887,1.8639622926712036,-0.29365161061286926,1.5425050258636475,0.014765220694243908
35.9,-0.4137342572212219,0.26126477122306824,-1.8266730308532715,-0.32861030101776123,0.03233783319592476,0.07257041335105896
35.95,1.319589614868164,0.016987815499305725,1.3777443170547485,-0.20814046263694763,1.187815546989441,0.021011751145124435
36.0,0.7658305168151855,1.0604192018508911,-0.47039687633514404,0.13738581538200378,-0.14586159586906433,-0.24232961237430573
36.05,-0.4504792094230652,-0.7575808763504028,-0.457355260848999,0.12664227187633514,0.3079048693180084,-0.17376896739006042
36.1,-1.9969204664230347,-2.4812238216400146,-0.8201964497566223,-0.11652372777462006,0.5450382828712463,0.03620601072907448
36.15,-2.9914462566375732,0.4986622929573059,2.6776814460754395,-1.147169828414917,0.9723678827285767,0.5113458037376404
36.2,-0.434468150138855,-0.8912307024002075,0.20369572937488556,-0.14174586534500122,-0.33818110823631287,0.9895009994506836
36.25,0.21202847361564636,-0.8506376147270203,-1.2625669240951538,0.6188545227050781,-0.9477900266647339,0.49532994627952576
36.3,0.02146727591753006,0.27230075001716614,0.07750141620635986,0.29686012864112854,-0.5864840745925903,0.1198834553360939
36.35,-1.2017688751220703,0.2426663041114807,-0.46299582719802856,0.03481859713792801,0.05108531937003136,-0.03999773785471916
36.4,-0.8112179040908813,0.5190573334693909,-0.31185629963874817,-0.25023433566093445,0.8381036520004272,0.006049235817044973
36.45,0.9217531681060791,-3.137446165084839,-3.800032377243042,0.5828427076339722,0.006633351556956768,0.3691270351409912
36.5,4.325593948364258,-12.859177589416504,-7.3752007484436035,2.6838841438293457,-0.6481905579566956,-1.3758293390274048
36.55,7.307394981384277,-26.51367950439453,-6.604423522949219,5.288027286529541,0.6349465250968933,-5.555217266082764
36.6,-2.4764974117279053,1.1512455940246582,4.453904151916504,2.5313217639923096,2.192722797393799,-6.231471061706543
36.65,-9.543539047241211,30.893943786621094,8.142136573791504,1.563010811805725,1.5659937858581543,-4.1466217041015625
36.7,-9.255760192871094,40.070945739746094,6.970187187194824,2.192410945892334,0.16476911306381226,-0.29074788093566895
36.75,-0.2667543888092041,8.288835525512695,5.947743892669678,-0.8460245728492737,-1.0976732969284058,1.6331740617752075
36.8,0.2971463203430176,-10.52414321899414,6.88897180557251,-2.9921998977661133,-2.64871883392334,5.583003044128418
36.85,13.394254684448242,-87.2613525390625,-13.219477653503418,-4.868535041809082,-5.305229187011719,7.7734599113464355
36.9,7.335923194885254,-1.1859854459762573,-9.875916481018066,0.7671822309494019,-4.2035675048828125,1.2715439796447754
36.95,1.1288423538208008,-1.261487603187561,-10.329236030578613,-1.6125941276550293,3.0937705039978027,1.2597864866256714
37.0,1.1635565757751465,-2.3648643493652344,-12.099868774414062,-3.9403600692749023,3.826728582382202,0.9363000392913818
37.05,11.244351387023926,-9.84460163116455,2.4417200088500977,-1.5878764390945435,4.162682056427002,-1.561856746673584
37.1,3.1447105407714844,-6.168262481689453,6.3850226402282715,1.427605152130127,2.343944787979126,-7.53059196472168
37.15,12.057083129882812,11.87369155883789,20.44387435913086,3.4417428970336914,1.8132675886154175,-9.197253227233887
37.2,2.8915586471557617,15.966913223266602,19.049448013305664,3.2279040813446045,-3.303802728652954,-9.012138366699219
37.25,-10.430753707885742,1.933922529220581,1.0978542566299438,3.019010066986084,-6.11702299118042,-3.1341378688812256
37.3,-5.056212902069092,-3.6876273155212402,-4.131189346313477,0.09015035629272461,-3.2562477588653564,-1.7892160415649414
37.35,-6.938353538513184,3.2473905086517334,1.6554243564605713,0.44029659032821655,-1.8636001348495483,0.10215095430612564
37.4,-4.379907131195068,0.31397539377212524,-2.694420099258423,-0.6618828773498535,-1.9800080060958862,0.24222064018249512
37.45,-1.2766246795654297,1.5230486392974854,-0.1316247284412384,-0.5171083211898804,-0.8495905995368958,0.5215649604797363
37.5,-0.9751958847045898,-1.193625569343567,-0.6163731217384338,-0.8260728120803833,-0.6113499999046326,1.4676228761672974
37.55,-0.4086860418319702,1.398144006729126,1.5772868394851685,-1.0297753810882568,-0.5140968561172485,1.296200156211853
37.6,-0.3419066369533539,-1.4146252870559692,-0.5703020095825195,-1.4415559768676758,-0.606440544128418,2.2491939067840576
37.65,0.09657567739486694,0.1578807383775711,-1.2570046186447144,-1.5168689489364624,-0.9884929656982422,1.6289794445037842
37.7,-0.24473759531974792,1.0036669969558716,-0.9781755805015564,-1.6673851013183594,-0.8791730999946594,1.8328105211257935
37.75,1.20816969871521,-0.10943139344453812,-1.5133264064788818,-1.7520885467529297,-0.7939299941062927,2.2232308387756348
37.8,1.9029039144515991,-1.9897483587265015,0.05686342716217041,-1.7590559720993042,-0.5155240297317505,2.3203272819519043
37.85,2.0221352577209473,-2.441148042678833,-0.3446158468723297,-1.6381232738494873,-0.25611913204193115,2.0169990062713623
37.9,1.1219658851623535,-0.6413851976394653,-0.5219407677650452,-1.5878161191940308,0.02676703967154026,1.724158525466919
37.95,2.267505168914795,-1.462988018989563,0.8797398805618286,-1.952085256576538,0.6263533234596252,1.672408103942871
38.0,1.6096880435943604,-0.10177909582853317,-0.7018405795097351,-1.7491906881332397,0.3885377049446106,1.318137526512146
38.05,1.1150012016296387,-0.9464237689971924,-1.3524969816207886,-2.1465492248535156,0.42591971158981323,1.1191353797912598
38.1,-0.36655211448669434,-0.9554569721221924,-2.932647705078125,-2.508962631225586,1.1134941577911377,1.111998200416565
38.15,-1.2805925607681274,-2.8164632320404053,-1.1264052391052246,-2.913458824157715,2.428795099258423,1.1696449518203735
38.2,-0.5374306440353394,-2.3571109771728516,3.3010027408599854,-2.8925065994262695,2.772371530532837,1.1584841012954712
38.25,-0.9990291595458984,0.9186050295829773,0.4238234758377075,-1.647351861000061,1.6828818321228027,0.6953495740890503
38.3,1.3845953941345215,1.9016287326812744,1.0896427631378174,-1.2376223802566528,1.036009669303894,0.46172526478767395
38.35,1.8278322219848633,1.8318893909454346,0.7914979457855225,-0.9393095374107361,0.36762598156929016,0.3561197817325592
38.4,0.5778923630714417,-0.71302330493927,-0.642535924911499,-0.8384493589401245,0.038973867893218994,0.2234944999217987
38.45,2.4335310459136963,-1.8397727012634277,-2.610093832015991,-0.8812442421913147,0.3588874340057373,-0.3269076645374298
38.5,4.596652030944824,-9.166792869567871,-4.107319355010986,-0.5496768951416016,0.7032239437103271,-3.178257703781128
38.55,4.623977184295654,-3.487338066101074,4.459545135498047,-1.6676530838012695,0.25398653745651245,-7.126826763153076
38.6,4.7895684242248535,8.850301742553711,10.789438247680664,-2.0351481437683105,0.833148181438446,-10.370979309082031
38.65,0.9244104623794556,4.343014240264893,3.383946657180786,-0.9924283027648926,-0.6813840270042419,-8.909581184387207
38.7,-7.011869430541992,0.03723474219441414,3.5825982093811035,0.8986666202545166,-2.052079916000366,-4.125205039978027
38.75,-3.5319743156433105,3.2042367458343506,0.39346450567245483,1.3579169511795044,-3.5999979972839355,-1.3490427732467651
38.8,-1.1014188528060913,1.8208191394805908,0.35242119431495667,1.5629956722259521,-3.1718647480010986,0.1375313252210617
38.85,-0.7722460627555847,2.1866390705108643,1.3015652894973755,0.8220875263214111,-2.103271961212158,-0.6539478898048401
38.9,-0.6551983952522278,1.4397776126861572,1.4575427770614624,0.7562168836593628,-1.4046818017959595,-0.5687769055366516
38.95,-0.9128918051719666,0.5207892656326294,0.9206776022911072,0.41488784551620483,-1.4663938283920288,-0.45365750789642334
39.0,-0.10634955018758774,0.45537862181663513,0.29537734389305115,0.4587380886077881,-1.4456325769424438,-0.37940335273742676
39.05,-0.6424546241760254,-0.0419444777071476,0.09024229645729065,0.4835367798805237,-1.2720394134521484,-0.20633111894130707
39.1,-1.0309115648269653,1.8475250005722046,0.5155093669891357,0.32498595118522644,-0.9061722159385681,-0.44767725467681885
39.15,-1.2364118099212646,2.357616662979126,0.6344798803329468,0.2767679691314697,-0.8347766399383545,-0.2624181807041168
39.2,-1.645991563796997,2.1779797077178955,-0.18980829417705536,-0.06921026855707169,-0.8538291454315186,0.11807016283273697
39.25,-1.0319559574127197,0.8786994218826294,-0.6045113205909729,-0.28350478410720825,-1.000683307647705,0.6389531493186951
39.3,-0.6087319850921631,0.332370787858963,-0.2383669912815094,-0.4126553535461426,-1.273169994354248,1.1370511054992676
39.35,0.03752946853637695,-0.5096341371536255,-0.8634387254714966,-0.6815519332885742,-1.6269932985305786,1.3513814210891724
39.4,0.04858660697937012,-1.3382580280303955,-2.621328830718994,-0.8831661939620972,-1.9287443161010742,1.5985654592514038
39.45,1.5820435285568237,-0.5869267582893372,-3.3005785942077637,-0.9439950585365295,-1.7952359914779663,1.4638582468032837
39.5,0.8981490731239319,-2.051325798034668,-2.517315149307251,-1.021536946296692,-1.305847406387329,1.810603141784668
39.55,0.4215528666973114,-0.6140652298927307,0.7848979830741882,-1.0644127130508423,-0.7051642537117004,1.5349595546722412
39.6,1.389299988746643,-0.2337045818567276,1.337965726852417,-1.2968547344207764,-0.8195434808731079,0.8689862489700317
39.65,1.0097002983093262,-1.1763030290603638,0.9070088863372803,-1.4237003326416016,-0.46795204281806946,1.0142821073532104
39.7,0.7691792249679565,0.1379212737083435,-0.990451991558075,-1.7313714027404785,-0.1180761456489563,0.8239144682884216
39.75,2.108170509338379,-1.3637620210647583,1.081692099571228,-2.294914484024048,0.36053964495658875,0.7503573298454285
39.8,0.9437853693962097,-0.39560896158218384,0.7615450024604797,-2.107034683227539,0.32251641154289246,0.549295961856842
39.85,0.8882980346679688,0.7746745944023132,2.365666389465332,-1.8181657791137695,0.3534620404243469,0.5013841986656189
39.9,1.0792360305786133,-0.9391432404518127,2.0139076709747314,-1.8980811834335327,0.3290555477142334,0.4564766585826874
39.95,0.022850364446640015,0.04026319831609726,0.45615559816360474,-1.9937987327575684,0.48443469405174255,0.4393669068813324
40.0,0.11281204223632812,-0.6722556352615356,-1.2855466604232788,-1.9766600131988525,0.8045427799224854,0.42619597911834717
40.05,1.2399505376815796,-0.4157753884792328,0.6456620097160339,-1.6039767265319824,2.210411787033081,0.47816044092178345
40.1,0.9370697736740112,-0.6516562104225159,0.7728039622306824,-0.9304256439208984,1.868823766708374,0.26730701327323914
40.15,-0.01156732439994812,-0.005524621345102787,0.3093363642692566,-0.7228609323501587,1.7060368061065674,-0.15760768949985504
40.2,-0.012176513671875,-0.5670652985572815,-0.49154964089393616,-0.3052350878715515,0.7747779488563538,-0.303946316242218
40.25,0.912747323513031,0.1158323585987091,1.0358850955963135,-0.4047906696796417,0.4759262800216675,-0.25651833415031433
40.3,-0.06960102915763855,0.07594303786754608,0.8096640110015869,0.14300437271595,-0.12035936117172241,-0.47992825508117676
40.35,-0.3169403374195099,-0.26680466532707214,1.2226287126541138,0.23219957947731018,-0.26715147495269775,-0.5549337267875671
40.4,-3.167433738708496,-1.0061675310134888,-3.0961215496063232,0.02801145613193512,-0.08545715361833572,-0.424789160490036
40.45,-5.613811016082764,-4.079233169555664,-3.408900022506714,0.7942270040512085,0.7958125472068787,-0.5995959639549255
40.5,-1.3881864547729492,-7.082352638244629,3.339402198791504,2.020050048828125,1.7462965250015259,-1.4798413515090942
40.55,1.683437466621399,-0.378351092338562,5.386155128479004,1.743581771850586,2.6246092319488525,-2.7836742401123047
40.6,3.213376522064209,4.835168361663818,3.316117286682129,1.2636945247650146,2.7568416595458984,-2.952901601791382
40.65,2.5092239379882812,0.6164674758911133,1.1282752752304077,0.7522019743919373,2.0655579566955566,-1.7515006065368652
40.7,0.11951637268066406,-0.061383385211229324,-2.7348899841308594,0.4453328251838684,0.7827576994895935,-1.6262511014938354
40.75,-0.014358460903167725,1.323577880859375,-1.5652402639389038,0.18681704998016357,0.6990646123886108,-1.3866126537322998
40.8,0.3161576986312866,0.21982480585575104,0.03525732457637787,0.496096134185791,0.6128371953964233,-0.9242992997169495
40.85,-0.584125280380249,0.7161207795143127,0.14184240996837616,0.3413093686103821,0.10225648432970047,-1.1691292524337769
40.9,-0.3609943985939026,0.16098690032958984,-0.7070057392120361,0.37708091735839844,0.1376490443944931,-1.0963643789291382
40.95,-0.44600629806518555,-0.020423905923962593,-0.7022737264633179,0.13722825050354004,0.1293829381465912,-0.8518195152282715
41.0,0.17353370785713196,0.6121168732643127,0.19512304663658142,0.0913446843624115,0.1772758513689041,-0.6046954989433289
41.05,0.22840343415737152,0.35944464802742004,0.44930723309516907,0.2733382284641266,0.010538159869611263,-0.46489015221595764
41.1,-0.21691912412643433,0.36110979318618774,0.6205278038978577,0.35353782773017883,-0.0863952711224556,-0.3323473334312439
41.15,-0.2546442449092865,0.3652553856372833,-0.02743641287088394,0.35349905490875244,-0.09957165271043777,-0.19788384437561035
41.2,-0.0751093327999115,-0.2617054283618927,-0.07569398730993271,0.32705771923065186,0.057547520846128464,0.11495265364646912
41.25,0.524596631526947,-0.7522841691970825,-0.13932359218597412,0.3756103217601776,0.16065575182437897,0.24639715254306793
41.3,0.6707202196121216,0.29131796956062317,0.23924459517002106,0.2692624032497406,0.07757677137851715,0.22432903945446014
41.35,0.740888237953186,0.14693069458007812,0.23472771048545837,0.2633323073387146,-0.021094495430588722,0.26532167196273804
41.4,0.4539220333099365,0.37537577748298645,0.022459588944911957,0.19244132936000824,-0.15466932952404022,0.17465068399906158
41.45,0.12170252203941345,0.2343130260705948,-0.20189590752124786,0.14610353112220764,-0.11141210049390793,0.21658658981323242
41.5,0.2904340326786041,-0.23962216079235077,0.07291626185178757,0.08469833433628082,-0.10961107164621353,0.25193488597869873
41.55,-0.1418016403913498,-0.00766275217756629,0.3586689233779907,0.2223590612411499,-0.15612345933914185,0.12923750281333923
41.6,-0.25551536679267883,0.31932932138442993,0.21117930114269257,0.22506026923656464,-0.09602218866348267,0.10181572288274765
41.65,-0.10557915270328522,0.04978945851325989,0.4073229134082794,0.1045331358909607,0.008891703560948372,0.26500165462493896
41.7,0.05772584676742554,-0.6389675736427307,-0.5275063514709473,0.0524168536067009,0.017840666696429253,0.27619796991348267
41.75,0.10573512315750122,-0.7431145906448364,-0.9254732728004456,0.015387937426567078,0.006708204746246338,0.3174794316291809
41.8,0.13689133524894714,-1.1359750032424927,-0.8402848243713379,-0.11002631485462189,-0.1021888256072998,0.4880199432373047
41.85,0.34673699736595154,-0.6100311875343323,-0.19439488649368286,-0.2325211763381958,-0.272754967212677,0.6105928421020508
41.9,0.40509915351867676,-0.556160032749176,-0.22540408372879028,-0.18217958509922028,-0.3557197153568268,0.6831308603286743
41.95,0.4287235140800476,-0.7465830445289612,-0.16815586388111115,-0.0007410347461700439,-0.28307148814201355,0.8488947749137878
42.0,-0.09242832660675049,-0.768562376499176,0.9734489321708679,-0.09018948674201965,-0.2850942313671112,0.9610257148742676
42.05,-0.6329919695854187,-1.5549156665802002,0.193269744515419,-0.26132336258888245,-0.3598819077014923,1.1457595825195312
42.1,-0.3903231620788574,-2.080657720565796,-0.03619102016091347,-0.14443939924240112,-0.40918177366256714,1.3605289459228516
42.15,-0.7542940378189087,-0.6959628462791443,1.769332766532898,0.13671213388442993,-0.47780612111091614,1.8095955848693848
42.2,-0.5607186555862427,-1.7715656757354736,-0.3684370517730713,0.37018001079559326,-0.49430137872695923,2.329257011413574
42.25,-0.31577515602111816,-1.0881110429763794,0.816923201084137,0.22270238399505615,-0.37268760800361633,2.8409347534179688
42.3,1.1175060272216797,-0.40774160623550415,0.9483067989349365,0.16850066184997559,-0.19062209129333496,3.4701309204101562
42.35,3.2683634757995605,0.5829744338989258,1.0613431930541992,0.47239017486572266,-0.1691858470439911,4.140840530395508
42.4,3.965240478515625,3.137305498123169,-0.45229989290237427,1.061769962310791,0.35563990473747253,4.974736213684082
42.45,2.358433961868286,9.104822158813477,-1.9072176218032837,1.3062045574188232,1.1894570589065552,5.316042423248291
42.5,-2.813767433166504,10.715776443481445,-1.9747531414031982,1.2753983736038208,1.1924148797988892,3.045252799987793
42.55,-5.804018974304199,3.1205692291259766,3.9809486865997314,0.9912443161010742,0.5687403082847595,-0.8666085600852966
42.6,-0.9462895393371582,-3.195354700088501,5.095010757446289,1.0283347368240356,0.77419114112854,-1.1689753532409668
42.65,4.031282424926758,-2.8763587474823,1.5139210224151611,1.0323994159698486,0.7585015296936035,-0.4725750982761383
42.7,3.3388946056365967,-2.306161403656006,-2.316760301589966,0.9470348358154297,0.48065271973609924,-0.2822416424751282
42.75,2.5584397315979004,-1.7869677543640137,-2.2609245777130127,0.6605097651481628,-0.37624967098236084,-0.2580384910106659
42.8,2.1841018199920654,-2.095170497894287,-1.621665358543396,-0.11408762633800507,-1.0537673234939575,-0.1425555944442749
42.85,0.9170619249343872,-0.8618394136428833,0.2728637754917145,-0.4923095405101776,-1.5866916179656982,-0.042158935219049454
42.9,0.5192555785179138,0.24156761169433594,-0.30084624886512756,-0.5221224427223206,-1.677537202835083,0.09135568886995316
42.95,0.42319613695144653,0.6551485657691956,0.2240312546491623,-0.48477208614349365,-2.0401599407196045,-0.05766691640019417
43.0,0.5697161555290222,0.8082629442214966,0.35549667477607727,-0.26855385303497314,-2.153911590576172,-0.06260822713375092
43.05,0.1902332305908203,-0.07331753522157669,0.22670717537403107,-0.07190138846635818,-2.5201051235198975,-0.10840578377246857
43.1,-0.2618062496185303,-1.1039210557937622,0.6764828562736511,0.0082402303814888,-2.6534276008605957,0.13885673880577087
43.15,-1.6688313484191895,-2.9763691425323486,0.8979393839836121,-0.20421463251113892,-2.5737383365631104,0.6707220673561096
43.2,-3.074787139892578,-3.101221799850464,0.9667777419090271,-0.885941743850708,-2.035184144973755,1.393822193145752
43.25,-5.236919403076172,-1.0088995695114136,0.3675810694694519,-1.5762771368026733,-1.3776123523712158,1.5903282165527344
43.3,-6.322969436645508,1.006243109703064,-0.7642752528190613,-1.8572571277618408,-0.40641671419143677,1.3448002338409424
43.35,-5.613052845001221,4.522860050201416,-0.959246814250946,-1.552366018295288,0.47899913787841797,1.0854213237762451
43.4,-2.7586145401000977,3.232907772064209,0.06361348927021027,-0.6766840219497681,1.15851891040802,1.242173671722412
43.45,-0.06278622150421143,0.6871463060379028,1.6797211170196533,-0.06513535976409912,1.4023854732513428,1.8899654150009155
43.5,3.038431167602539,-1.6449474096298218,1.1633082628250122,0.7069426774978638,1.7084881067276,2.7585854530334473
43.55,6.077103614807129,-1.7890419960021973,-0.7020443677902222,0.8967646360397339,2.282973289489746,2.5244414806365967
43.6,5.783842086791992,-0.4091256558895111,-1.256739854812622,0.09834414720535278,1.3961451053619385,1.259592890739441
43.65,3.862281322479248,-0.043239813297986984,-1.5106083154678345,-0.10024536401033401,0.022884583100676537,0.10923641920089722
43.7,3.5772171020507812,0.2678869664669037,-1.0505396127700806,0.007429540157318115,-0.7017894983291626,-0.3469315469264984
43.75,2.818126678466797,1.6280680894851685,-0.11032786220312119,0.12176577746868134,-1.0704091787338257,0.04653974622488022
43.8,0.35973167419433594,0.9559183716773987,-0.5788704752922058,0.17679667472839355,-1.2017096281051636,0.5884899497032166
43.85,-0.41542762517929077,0.5668650269508362,0.17051701247692108,0.13463792204856873,-1.0867161750793457,0.916723906993866
43.9,0.5160015821456909,-0.44801047444343567,1.1749821901321411,0.2799239456653595,-1.0677063465118408,0.8086190819740295
43.95,0.48254525661468506,-0.19819733500480652,1.6757229566574097,0.1378447264432907,-1.383745789527893,0.549320638179779
44.0,-1.1498050689697266,-0.7813835144042969,1.1549339294433594,0.14037102460861206,-1.8637384176254272,0.3065139651298523
44.05,-2.963404655456543,-0.5430764555931091,0.1172308623790741,0.015803903341293335,-2.0353844165802,0.25915616750717163
44.1,-4.246037006378174,-1.8787404298782349,-0.7157490253448486,0.08658086508512497,-1.5802890062332153,0.0848059356212616
44.15,-5.309494972229004,-2.634444236755371,-0.6255895495414734,-0.11413402855396271,-0.942539393901825,-0.14646093547344208
44.2,-6.822842121124268,-1.9945158958435059,-0.24127519130706787,-0.42644792795181274,-0.21704402565956116,-0.526308000087738
44.25,-7.0626420974731445,1.2341532707214355,0.7876582741737366,-0.5703184008598328,0.5472912192344666,-0.954539954662323
44.3,-6.335748672485352,4.632606506347656,1.6738357543945312,-0.31908512115478516,1.1054188013076782,-1.5619142055511475
44.35,-5.60493278503418,7.323246479034424,2.363187074661255,-0.3483729362487793,1.903895378112793,-2.6942408084869385
44.4,-4.169361114501953,9.060113906860352,3.4444451332092285,-0.3697248697280884,3.0532424449920654,-4.177075386047363
44.45,1.3960340023040771,9.104497909545898,5.3063812255859375,-0.1357405185699463,4.1564106941223145,-5.361705303192139
44.5,8.770761489868164,2.936511993408203,3.754070520401001,-0.10192489624023438,5.0017619132995605,-6.453619480133057
44.55,7.1625165939331055,-9.04057788848877,0.1262170672416687,-0.25220251083374023,5.349512100219727,-6.981532096862793
44.6,1.939577341079712,-10.636991500854492,-0.5939039587974548,-0.18885207176208496,5.242294788360596,-5.301474571228027
44.65,0.284457802772522,-6.427946090698242,-4.376062393188477,0.675840437412262,4.180172443389893,-2.656456470489502
44.7,1.772639513015747,-2.058712959289551,-1.611337661743164,0.009518325328826904,2.0617144107818604,-1.5478694438934326
44.75,0.6644008159637451,-1.1045228242874146,-0.6482396721839905,-0.06652188301086426,2.123638391494751,-1.1255006790161133
44.8,0.8496146202087402,-0.4099360406398773,-0.03146373853087425,-0.02780705690383911,2.1171646118164062,-0.47054871916770935
44.85,0.9931586980819702,-1.0920393466949463,-1.047465205192566,0.21404142677783966,2.0886099338531494,-0.340745210647583
44.9,0.06694018840789795,-0.7620079517364502,-2.141263008117676,0.4497622847557068,2.01448130607605,-0.25021103024482727
44.95,-0.6333643794059753,-0.6625653505325317,-2.324868679046631,0.872726321220398,1.7707239389419556,-0.33566224575042725
45.0,-0.6838589310646057,-0.755222499370575,-2.14262318611145,1.1710048913955688,1.3070694208145142,-0.3862318992614746
45.05,-1.1701711416244507,-0.15928654372692108,-1.7237008810043335,1.1995004415512085,0.6469199061393738,0.32961711287498474
45.1,-0.6983205080032349,-0.6149454712867737,-1.1615324020385742,1.4340277910232544,0.17330165207386017,1.181713342666626
45.15,-0.821094810962677,0.12185760587453842,-1.8453421592712402,1.9288660287857056,-0.5829429030418396,1.4454045295715332
45.2,0.21228718757629395,1.0324907302856445,-1.8150734901428223,2.3221657276153564,-1.6333634853363037,1.384092092514038
45.25,0.761298656463623,1.792317509651184,-2.492755174636841,2.944533109664917,-2.080540895462036,0.6596330404281616
45.3,1.5325349569320679,1.4739484786987305,-1.147481918334961,2.9451370239257812,-2.035975933074951,-0.07903420925140381
45.35,0.9628726243972778,0.3343591094017029,-1.3920984268188477,2.6852896213531494,-1.9174529314041138,-0.1396733522415161
45.4,1.4752895832061768,-1.2340375185012817,0.010586724616587162,2.1391303539276123,-2.4846737384796143,0.04128238558769226
45.45,1.0392990112304688,-2.7447450160980225,1.6557179689407349,1.9911348819732666,-2.7199323177337646,-0.02050529234111309
45.5,0.43601882457733154,-4.7301716804504395,2.702610731124878,2.2071328163146973,-2.332021713256836,-0.4016742408275604
45.55,0.2302113175392151,-5.181286811828613,1.777276635169983,2.609063148498535,-1.6781554222106934,-0.5140320062637329
45.6,0.8700037002563477,-3.5401225090026855,1.1548757553100586,2.8621535301208496,-1.4116753339767456,-0.28940412402153015
45.65,0.4053593873977661,0.4453364610671997,1.935990571975708,3.1694090366363525,-1.6696882247924805,0.2598550617694855
45.7,-1.4158012866973877,2.5195209980010986,0.14668402075767517,3.9441332817077637,-1.4569706916809082,0.2927149832248688
45.75,-0.7767493724822998,3.531996250152588,-2.9456565380096436,4.472500324249268,-1.0897364616394043,0.4056779742240906
45.8,0.5300410985946655,4.204277515411377,-1.6615591049194336,4.050746917724609,-1.7009669542312622,0.8019250631332397
45.85,0.5268350839614868,2.729703187942505,-0.8826082944869995,3.3350234031677246,-2.1800572872161865,0.7364048957824707
45.9,-0.03724724054336548,0.7630473971366882,1.859549641609192,2.60853910446167,-2.6369054317474365,0.5328654646873474
45.95,-0.7442960739135742,-0.00021540791203733534,2.0568885803222656,2.4020285606384277,-2.3591201305389404,0.3003840148448944
46.0,-1.3998947143554688,-0.6773270964622498,1.8667713403701782,2.087890625,-2.4377481937408447,0.30215969681739807
46.05,-2.3302252292633057,-1.0618342161178589,2.050114393234253,1.5236012935638428,-2.8425822257995605,0.2869364619255066
46.1,-3.2906386852264404,0.8605179190635681,3.216578483581543,0.6638796925544739,-3.1676759719848633,0.023173799738287926
46.15,-6.513808727264404,3.557687759399414,6.332145690917969,-0.6782875657081604,-3.3358490467071533,-0.7868589758872986
46.2,-6.941131114959717,6.826254367828369,7.019803047180176,-1.9875839948654175,-2.549865484237671,-1.6596134901046753
46.25,-3.2908177375793457,7.469057559967041,5.244856357574463,-2.957160472869873,-0.8276291489601135,-2.2455408573150635
46.3,-1.0967741012573242,8.46048355102539,3.9303221702575684,-3.3001110553741455,0.7621515989303589,-2.605936050415039
46.35,3.5859479904174805,6.745458602905273,-0.33782991766929626,-3.303489923477173,1.9531826972961426,-3.2564916610717773
46.4,6.108745574951172,2.600362539291382,-3.7418410778045654,-3.8596787452697754,1.760589838027954,-3.4140548706054688
46.45,6.237403869628906,-7.188726425170898,-9.183487892150879,-4.667036056518555,2.0810835361480713,-3.818329334259033
46.5,2.5059797763824463,-11.739774703979492,-8.60940170288086,-6.975318908691406,3.015012264251709,-6.032749176025391
46.55,2.514240026473999,-7.440056324005127,-10.923117637634277,-9.051923751831055,3.8089065551757812,-8.591363906860352
46.6,-10.779369354248047,-11.842061042785645,-1.342594861984253,-7.564273357391357,2.3868751525878906,-7.789934158325195
46.65,-9.236883163452148,-3.7669789791107178,9.599742889404297,-4.2928643226623535,1.6421222686767578,-3.705296277999878
46.7,-2.5320382118225098,-2.3061327934265137,5.219563961029053,-0.14715588092803955,0.32004204392433167,-1.4146950244903564
46.75,0.03293973207473755,0.00851637776941061,1.4511582851409912,1.5078272819519043,-1.14400315284729,-0.2747915983200073
46.8,-1.080742359161377,0.530795156955719,-0.2633928954601288,1.7665711641311646,-0.4715164303779602,0.027387769892811775
46.85,-0.7847189903259277,0.30963045358657837,0.13666962087154388,1.5965467691421509,-0.4406528174877167,0.47174736857414246
46.9,-0.30424949526786804,-0.8331958651542664,-1.1296312808990479,1.8581064939498901,-0.27798473834991455,0.6332300305366516
46.95,-0.2660125494003296,-2.503852367401123,-2.897217035293579,2.18730092048645,-0.4808763265609741,0.6423208713531494
47.0,0.5405852794647217,-3.0832459926605225,-3.3920629024505615,2.6003899574279785,-1.0421088933944702,1.0579367876052856
47.05,1.8799505233764648,-1.9092340469360352,-2.4532294273376465,3.0845956802368164,-1.5568807125091553,1.876893162727356
47.1,1.429450273513794,0.6000299453735352,-0.33957353234291077,3.4284427165985107,-1.8573085069656372,2.6736130714416504
47.15,-1.0505945682525635,2.124541759490967,2.3397600650787354,3.656900405883789,-2.0994815826416016,2.7263307571411133
47.2,-2.428157329559326,2.3415751457214355,3.0358667373657227,3.894646644592285,-1.731154441833496,2.045346736907959
47.25,-1.9203194379806519,1.719896674156189,2.2839794158935547,3.9644947052001953,-0.8759214878082275,1.1256307363510132
47.3,-1.1517813205718994,0.6892987489700317,0.8487415909767151,3.844358205795288,-0.27929070591926575,0.5608155727386475
47.35,-0.5339468717575073,-0.15633387863636017,0.7137160897254944,3.354340076446533,-0.2832207679748535,0.5838813781738281
47.4,-0.3103276789188385,-0.642730712890625,1.2647335529327393,3.1995983123779297,-0.8187606334686279,0.5459825396537781
47.45,-0.6775400638580322,-0.16079038381576538,0.9453127384185791,3.1377429962158203,-1.3201851844787598,0.8682474493980408
47.5,-1.3682138919830322,0.4032089114189148,1.707207202911377,2.9744365215301514,-2.0346662998199463,1.4436992406845093
47.55,-1.642935872077942,0.3404647707939148,1.865561604499817,3.036546468734741,-2.2912189960479736,1.5379911661148071
47.6,-1.1885051727294922,0.05218422785401344,1.558040976524353,3.1009488105773926,-2.236560583114624,1.049867033958435
47.65,-0.6844245195388794,0.750008761882782,1.3246517181396484,2.501302480697632,-2.383496046066284,0.5201403498649597
47.7,-0.5988855361938477,1.2153923511505127,1.189979910850525,1.4038439989089966,-2.5884554386138916,0.1782623827457428
47.75,-1.1962718963623047,0.7303668856620789,1.3675590753555298,0.6040866374969482,-2.0456478595733643,0.07220926880836487
47.8,-0.5825366377830505,0.6677743196487427,0.5650421977043152,0.15393145382404327,-0.7383620142936707,0.16502125561237335
47.85,0.2737375795841217,0.7717524766921997,-0.25290846824645996,-0.1684870570898056,-0.3133802115917206,0.023834016174077988
47.9,0.46345973014831543,0.11717794090509415,-0.37008774280548096,-0.17589154839515686,-0.8830127120018005,-0.35079607367515564
47.95,0.6725628972053528,-0.6098052263259888,-0.11925283819437027,0.06519819796085358,-1.4159413576126099,-0.5047469735145569
48.0,0.701134443283081,-1.1197949647903442,0.10892053693532944,0.26932162046432495,-1.8406068086624146,-0.4738221764564514
48.05,-0.8641029000282288,-1.8064996004104614,0.7337068915367126,0.3103063404560089,-2.608771562576294,-0.6197342872619629
