Time [s],Acc_x [m/s^2],Acc_y [m/s^2],Acc_z [m/s^2],Gyro_x [1/s],Gyro_y [1/s],Gyro_z [1/s]
0.0,0.0004967165878042579,0.07562447339296341,0.0018225383246317506,0.0035596839152276516,-0.002528485609218478,-0.0009722993127070367
0.05,0.0015051052905619144,0.0759124830365181,0.002368626184761524,0.0035596839152276516,-0.002528479788452387,-0.0009723127004690468
0.1,0.014191428199410439,0.08259392529726028,-0.018994398415088654,0.003372104838490486,-0.0009259690414182842,-0.0008659915183670819
0.15,0.0011177817359566689,0.08562565594911575,0.012143271043896675,0.002559642307460308,-0.00040772909414954484,-0.001129125477746129
0.2,-0.01711290329694748,0.08568573743104935,0.03511721268296242,0.0032910355366766453,0.0005654075648635626,-0.0007290876819752157
0.25,0.0004373714327812195,0.09881116449832916,0.031837306916713715,0.003319529118016362,-0.001230927649885416,-0.0009211208089254797
0.3,-0.001372840255498886,0.1149139553308487,-0.024960285052657127,0.0036328635178506374,-0.002430681139230728,-0.0009335181675851345
0.35,-0.02517947554588318,0.10217000544071198,-0.02662016823887825,0.0034917108714580536,-0.002618382917717099,-0.0010111078154295683
0.4,-0.03908821567893028,0.08934784680604935,0.0012855005916208029,0.0029838494956493378,-0.0032937040086835623,-0.0012895548716187477
0.45,-0.04995633661746979,0.08298111706972122,0.015135158784687519,0.004014785401523113,-0.00011359194468241185,-0.0005166908958926797
0.5,-0.035845838487148285,0.08460713177919388,0.000545704213436693,0.004246178083121777,0.003634658409282565,3.197912747054943e-06
0.55,-0.01708969846367836,0.06073665991425514,-0.05535135045647621,0.004443087615072727,0.0019444688223302364,-0.00011218769941478968
0.6,-0.012050782330334187,0.061254508793354034,-0.004403078928589821,0.00314932968467474,0.0005094980006106198,-0.0007902755751274526
0.65,0.00709124282002449,0.10837937891483307,0.05440351366996765,0.00245694350451231,0.0011159111745655537,-0.00099570385646075
0.7,-0.0027252845466136932,0.09698964655399323,0.055332086980342865,0.003661127295345068,0.0028308003675192595,-0.00032280437881127
0.75,-0.011357189156115055,0.06289482861757278,0.030607864260673523,0.0056928168050944805,0.003645933698862791,0.0005752379074692726
0.8,-0.0048393309116363525,0.051391612738370895,0.05727481096982956,0.006493598688393831,-0.003936341498047113,2.4896113245631568e-05
0.85,0.002783937379717827,0.05745888501405716,0.030019663274288177,0.006796398665755987,0.00023613980738446116,0.0006233823951333761
0.9,0.02211001142859459,0.0702209547162056,-0.015337279066443443,0.006180810742080212,0.0021628199610859156,-0.0005729553522542119
0.95,0.023002415895462036,0.07930470257997513,0.03184701129794121,0.00375965959392488,-0.0008550234488211572,-0.001840708777308464
1.0,0.021076451987028122,0.06438542157411575,0.05807716026902199,0.0038313339464366436,0.0012367520248517394,-0.000437421869719401
1.05,0.01900094747543335,0.05884743854403496,0.062449388206005096,0.007011585868895054,0.001643556752242148,-0.0002941334678325802
1.1,0.004831304773688316,0.091156966984272,0.04091080650687218,0.007327764295041561,-0.0013950581196695566,-0.0005024702404625714
1.15,0.003477666527032852,0.12394048273563385,-0.002188947284594178,0.006167330779135227,-0.0007806812645867467,0.0002547145704738796
1.2,0.014022604562342167,0.1279287487268448,-0.005300430580973625,0.006991863250732422,0.0016259319381788373,-0.000291487347567454
1.25,-0.0031174232717603445,0.07811928540468216,-0.004288944415748119,0.005779988598078489,-3.434692189330235e-06,-0.0009672930464148521
1.3,-0.019060539081692696,0.04986478015780449,0.03408261016011238,0.0041671693325042725,-0.001692186575382948,-0.0006438959389925003
1.35,-0.018358003348112106,0.06719494611024857,0.05129208415746689,0.003388919634744525,-0.0010889729019254446,-0.0008817010675556958
1.4,0.010250589810311794,0.08775521069765091,0.03638007119297981,0.002479683607816696,0.004229537211358547,-0.0017603433225303888
1.45,0.03038712777197361,0.08689308911561966,0.049505580216646194,0.0012324952986091375,0.013267059810459614,-0.004639572463929653
1.5,0.02886091358959675,0.09027863293886185,0.00844315905123949,-0.004910844378173351,-0.0007087394478730857,-0.01215827465057373
1.55,0.021609948948025703,0.14276792109012604,-0.07664622366428375,-0.02098659612238407,-0.030186103656888008,-0.024221738800406456
1.6,0.023857655003666878,0.12001802027225494,0.019317571073770523,-0.03960811719298363,-0.036383915692567825,-0.033504221588373184
1.65,-0.016152702271938324,0.054692283272743225,0.1855510175228119,-0.04293069988489151,-0.0256174486130476,-0.03472653776407242
1.7,-0.07357422262430191,0.03952409327030182,0.15668131411075592,-0.027042750269174576,-0.020454460754990578,-0.03120044618844986
1.75,-0.003811139613389969,0.041669853031635284,0.10038140416145325,-0.006245755590498447,-0.030019870027899742,-0.02621607482433319
1.8,0.05452292412519455,0.051371581852436066,0.08143500983715057,0.008759956806898117,-0.02180480770766735,-0.02039509080350399
1.85,0.0626402199268341,0.04935170337557793,0.1585504114627838,0.015373151749372482,-0.002545766532421112,-0.023531006649136543
1.9,0.0857294574379921,0.057986266911029816,0.09091600030660629,0.02144264429807663,-0.00365722319111228,-0.043803442269563675
1.95,0.1459992229938507,0.08036518096923828,-0.11019333451986313,0.022626301273703575,-0.04133182764053345,-0.07734373956918716
2.0,0.1595587581396103,0.09025382995605469,-0.10493285208940506,0.005111668258905411,-0.05954435095191002,-0.11741527169942856
2.05,0.15368348360061646,0.10023308545351028,0.022687742486596107,-0.014946304261684418,-0.07140648365020752,-0.1615608036518097
2.1,0.17941468954086304,0.08309174329042435,0.11490504443645477,-0.021778017282485962,-0.0884886160492897,-0.20616582036018372
2.15,0.06408065557479858,0.02416802942752838,0.29222095012664795,-0.008286744356155396,-0.05398384854197502,-0.24786949157714844
2.2,-0.11915239691734314,0.010590589605271816,0.6680123805999756,0.034215979278087616,-0.04017513617873192,-0.2818881869316101
2.25,-0.2239736169576645,0.17446714639663696,0.6693214178085327,0.12680858373641968,-0.08542603999376297,-0.29742276668548584
2.3,-0.32218924164772034,0.506019651889801,0.2207968831062317,0.21976317465305328,-0.1701836735010147,-0.2766154408454895
2.35,-0.3534124791622162,0.9142924547195435,-0.19159898161888123,0.21606090664863586,-0.34050700068473816,-0.2356681078672409
2.4,0.1396535485982895,1.0286561250686646,-0.4199554920196533,0.11014118045568466,-0.612341046333313,-0.18644161522388458
2.45,1.0884820222854614,0.3941488265991211,-0.4124664068222046,-0.01517561823129654,-0.8133919835090637,-0.09105336666107178
2.5,1.8787436485290527,-1.1513807773590088,-2.076707363128662,-0.06004003435373306,-0.7225752472877502,0.17705996334552765
2.55,1.9369006156921387,-1.9067407846450806,-5.00865364074707,0.3498722314834595,-1.1014665365219116,0.8012593388557434
2.6,2.5252819061279297,-1.4424833059310913,-4.374143600463867,1.4679102897644043,-2.144195079803467,1.3481500148773193
2.65,1.8431262969970703,-0.661729097366333,-2.5819692611694336,2.6104137897491455,-1.2332271337509155,1.7215794324874878
2.7,-1.0455831289291382,0.5138158798217773,-2.164295196533203,2.656765937805176,0.6468364596366882,2.042787551879883
2.75,-1.7254376411437988,-0.1407746821641922,-0.23931767046451569,1.9213993549346924,0.8115190267562866,1.4432960748672485
2.8,-0.7048054933547974,-0.860020637512207,1.6623942852020264,0.8684453964233398,0.671159029006958,0.7752402424812317
2.85,-0.874379575252533,-0.17551884055137634,2.852530002593994,-0.4798739552497864,0.8315191268920898,0.37391483783721924
2.9,-2.5420398712158203,1.2511752843856812,3.9514012336730957,-1.5915741920471191,0.7751327157020569,0.08871440589427948
2.95,-3.3944127559661865,2.3512330055236816,3.0726256370544434,-1.8747371435165405,0.538320004940033,0.18338921666145325
3.0,-3.6187779903411865,1.7441020011901855,1.614642858505249,-1.7308166027069092,0.14807862043380737,0.14652808010578156
3.05,-0.9384962320327759,0.7956231236457825,2.617600202560425,-1.4604374170303345,-0.06053594499826431,0.04458194598555565
3.1,1.7995820045471191,0.694582998752594,1.571765422821045,-1.1523737907409668,0.5660708546638489,0.2780519425868988
3.15,0.5128034353256226,0.27268218994140625,-0.20761236548423767,-1.0778779983520508,0.8157541155815125,0.2635863721370697
3.2,0.5076152682304382,0.004850361030548811,-0.16333791613578796,-1.0661063194274902,0.6173321008682251,0.03758404403924942
3.25,0.5792367458343506,-0.2841520607471466,0.45156899094581604,-0.9916493892669678,0.3065028786659241,-0.10429106652736664
3.3,-0.4672953486442566,-0.18428228795528412,0.15702982246875763,-0.8371002078056335,0.10401400178670883,-0.18216627836227417
3.35,-0.5230827331542969,-0.3218688666820526,0.6152841448783875,-0.6623141169548035,-0.2843320369720459,-0.2573276162147522
3.4,-0.032514333724975586,-0.27420610189437866,1.715584397315979,-0.42332372069358826,-0.6442004442214966,-0.28358057141304016
3.45,0.1241806149482727,-0.09604641795158386,1.0542194843292236,-0.16171732544898987,-0.6680852770805359,-0.253458172082901
3.5,-0.45735877752304077,-0.12283514440059662,0.24022892117500305,0.052403733134269714,-0.6626989841461182,-0.21350757777690887
3.55,0.15973106026649475,-0.05394456163048744,0.8954055309295654,0.15407082438468933,-0.592341423034668,-0.16333843767642975
3.6,1.011298418045044,0.21496298909187317,0.938166618347168,0.18045786023139954,-0.23373229801654816,-0.09859146177768707
3.65,0.0034542083740234375,-0.048270270228385925,-0.823279857635498,0.15958067774772644,0.18147055804729462,-0.09355107694864273
3.7,0.3141590356826782,0.0074395546689629555,-1.0435693264007568,0.08558179438114166,0.1453346461057663,-0.19155700504779816
3.75,0.7476395964622498,0.8484135270118713,-0.20220254361629486,0.010762721300125122,0.006156945135444403,-0.30933257937431335
3.8,0.011693477630615234,1.672583818435669,-0.9882653951644897,-0.10418309271335602,0.08437348902225494,-0.4401583969593048
3.85,0.8469202518463135,2.0565454959869385,-1.4598374366760254,-0.36388400197029114,-0.28303560614585876,-0.6064401268959045
3.9,1.4480106830596924,0.33679574728012085,-1.0610020160675049,-0.8553419709205627,-0.7283851504325867,-0.7062998414039612
3.95,0.5616363286972046,-1.524053931236267,-1.2845542430877686,-1.4253854751586914,-0.6775544881820679,-0.6978247165679932
4.0,-0.9669300317764282,-0.8477345705032349,-0.5753201842308044,-1.676365613937378,-0.6378277540206909,-0.6141394972801208
4.05,-1.8056654930114746,-0.3134631812572479,-0.3837812840938568,-1.7441444396972656,-0.47301140427589417,-0.6404942274093628
4.1,-2.118809223175049,-0.4554367661476135,-1.5287489891052246,-1.4983488321304321,0.15173092484474182,-0.7688900828361511
4.15,-0.050486087799072266,-2.1704752445220947,-2.291494607925415,-0.5575850605964661,0.27555403113365173,-0.40713608264923096
4.2,0.3614886999130249,-2.451838493347168,-3.6293442249298096,1.2544567584991455,0.44467517733573914,0.2833173871040344
4.25,0.09030890464782715,-0.6777584552764893,-3.811147689819336,3.0116541385650635,0.20069868862628937,0.87643963098526
4.3,-1.0926839113235474,1.296507716178894,-4.902840614318848,3.9206855297088623,-0.3974725306034088,1.4407893419265747
4.35,0.8857902884483337,2.275840997695923,-1.3566616773605347,3.885629177093506,-2.075695276260376,1.5633370876312256
4.4,0.909238338470459,1.6314051151275635,1.1713727712631226,3.3457114696502686,-2.1893372535705566,1.224363088607788
4.45,0.08770525455474854,0.7125913500785828,2.2867588996887207,2.487678050994873,-1.687452793121338,1.0034769773483276
4.5,0.30171823501586914,-0.5364445447921753,4.091867446899414,1.5076713562011719,-1.420048475265503,0.5129263997077942
4.55,0.3329179286956787,-1.1736801862716675,4.874175548553467,0.35781267285346985,-0.6774300932884216,0.1360481232404709
4.6,-0.3149070739746094,-0.957783579826355,4.777047157287598,-0.8086022138595581,0.2900252342224121,-0.2819536626338959
4.65,-2.0231223106384277,0.7886517643928528,2.7613492012023926,-1.7485110759735107,1.1696134805679321,-0.3807979226112366
4.7,-3.3383595943450928,1.4666492938995361,0.7254113554954529,-1.8522794246673584,0.8656312823295593,-0.3369101881980896
4.75,-3.2258689403533936,0.8275493383407593,1.9067779779434204,-1.5258926153182983,-0.3412632644176483,-0.49633291363716125
4.8,-1.1274827718734741,0.7486822009086609,2.300697088241577,-1.2992162704467773,-0.47725313901901245,-0.37831544876098633
4.85,-0.8841927647590637,0.7378255128860474,0.6240223050117493,-1.1583722829818726,0.2669942378997803,-0.04019831120967865
4.9,0.5450600385665894,-0.07110590487718582,1.8192152976989746,-0.9116439819335938,-0.16527849435806274,-0.1612679809331894
4.95,0.03157588839530945,-0.11757085472345352,0.8358137607574463,-0.7670567035675049,0.30263620615005493,-0.09496118128299713
5.0,0.13529089093208313,0.10583024471998215,0.9177146553993225,-0.5484890341758728,0.2971177399158478,-0.10537706315517426
5.05,-0.14671605825424194,0.0689726173877716,0.31055963039398193,-0.37841901183128357,0.3216302990913391,-0.08412422984838486
5.1,0.23905012011528015,0.17127324640750885,0.1052132323384285,-0.2684420347213745,0.13476252555847168,-0.1039874330163002
5.15,0.13708612322807312,0.1277017444372177,-0.3848029375076294,-0.25242239236831665,0.13518556952476501,-0.1440894454717636
5.2,0.0660400390625,0.009647374972701073,0.15907806158065796,-0.24764232337474823,0.0001339489535894245,-0.22311583161354065
5.25,-0.13402733206748962,-0.10930535197257996,0.8926234245300293,-0.234457865357399,0.1739417314529419,-0.2352936714887619
5.3,-0.1916172206401825,-0.2425059974193573,1.1014130115509033,-0.10275846719741821,0.25226256251335144,-0.18058951199054718
5.35,-0.008846372365951538,-0.16316603124141693,0.7563598155975342,0.08098351210355759,0.1812201887369156,-0.11270930618047714
5.4,-0.12117014825344086,-0.068023681640625,0.09627151489257812,0.21988150477409363,0.15244165062904358,-0.07257635146379471
5.45,0.05180954560637474,-0.03254508599638939,0.17003922164440155,0.32086920738220215,0.014630616642534733,-0.08689551055431366
5.5,0.19285732507705688,-0.13800716400146484,0.5835850238800049,0.41815662384033203,0.04261137545108795,-0.10171200335025787
5.55,0.3020080626010895,-0.11508084833621979,0.25925201177597046,0.5090896487236023,0.2080903798341751,-0.131304532289505
5.6,0.3586753010749817,0.01771160401403904,-0.5192663669586182,0.5494828820228577,0.41038456559181213,-0.21380439400672913
5.65,0.9600306153297424,0.1366395652294159,-0.25708332657814026,0.5419601202011108,0.2840700149536133,-0.3850353956222534
5.7,0.907922625541687,0.1332225650548935,0.06713113933801651,0.5101225972175598,0.230766162276268,-0.590798020362854
5.75,0.7319296598434448,0.05829904228448868,-0.06629672646522522,0.5113579630851746,0.22671176493167877,-0.7949967384338379
5.8,0.15597523748874664,0.34121039509773254,-0.004904353991150856,0.5300084352493286,0.16148270666599274,-0.9578400254249573
5.85,0.3816145062446594,1.2463942766189575,0.7544057369232178,0.5059731602668762,-0.08602777123451233,-1.1044225692749023
5.9,2.091808795928955,1.6815712451934814,2.8374929428100586,0.44153499603271484,-0.283296138048172,-1.2088868618011475
5.95,3.257901191711426,-0.8761892914772034,3.946847915649414,0.41556689143180847,0.05556529760360718,-1.0934935808181763
6.0,4.447816848754883,-2.8991739749908447,2.496283769607544,0.7799266576766968,0.9632318615913391,-0.29166749119758606
6.05,4.396822929382324,-0.8765623569488525,1.1266529560089111,1.5116673707962036,1.9372437000274658,0.993269681930542
6.1,0.7049384117126465,1.003524899482727,0.6389092206954956,1.1976953744888306,2.5295028686523438,1.3746122121810913
6.15,-0.16169026494026184,1.5758335590362549,0.911156415939331,0.07635074853897095,1.4620130062103271,1.1999417543411255
6.2,0.43891721963882446,1.4150639772415161,-0.18979762494564056,-1.0487115383148193,0.7204386591911316,1.2533305883407593
6.25,-0.2753215432167053,1.8053332567214966,-1.6171655654907227,-1.992067575454712,1.1640913486480713,1.701142430305481
6.3,-2.919227361679077,1.0200129747390747,-2.377666473388672,-2.5150275230407715,1.5163172483444214,1.823586106300354
6.35,-6.002229690551758,-0.11458484828472137,-2.9905261993408203,-2.5782527923583984,0.8324881792068481,1.581650972366333
6.4,-3.469233274459839,-1.0866833925247192,-2.500800609588623,-2.1107850074768066,-0.7177127599716187,1.4766963720321655
6.45,-2.4428205490112305,-1.617983102798462,-2.03410005569458,-1.5827343463897705,-0.5654334425926208,1.1864606142044067
6.5,-2.9284441471099854,-2.2860167026519775,-2.2235043048858643,-1.092501163482666,-0.008129319176077843,0.6194649934768677
6.55,-2.773561716079712,-2.793517827987671,-2.3183794021606445,-0.4036330580711365,-0.36333295702934265,0.19267059862613678
6.6,-2.540684223175049,-2.4034674167633057,-1.8637641668319702,0.2651093006134033,-0.7119225859642029,0.03102540411055088
6.65,-3.510495662689209,-0.7134714126586914,-1.1159250736236572,0.8987733125686646,-1.1184972524642944,0.23634114861488342
6.7,-0.003778129816055298,-0.35900694131851196,-0.6670293807983398,1.4107474088668823,-2.1232640743255615,0.3123466968536377
6.75,4.388033866882324,1.30950927734375,1.0175050497055054,1.451568841934204,-2.0358004570007324,0.18696951866149902
6.8,9.39755630493164,2.079586982727051,1.598230004310608,0.8457587957382202,-0.8439086079597473,0.10197488218545914
6.85,-0.44043397903442383,-1.403850793838501,-3.355515480041504,0.5958292484283447,1.2352269887924194,0.12356458604335785
6.9,-0.3082575798034668,0.1480856090784073,-0.15364259481430054,0.5598192811012268,-0.3531149923801422,0.014006503857672215
6.95,0.6088445782661438,0.6480818390846252,-0.07208230346441269,0.3785299062728882,-0.17520926892757416,-0.034095074981451035
7.0,0.5816051959991455,0.5094156861305237,0.012133927084505558,0.3009079098701477,-0.4572080075740814,-0.13631373643875122
7.05,0.4239879250526428,0.0382213369011879,-0.19705387949943542,0.14149799942970276,-0.2042829990386963,-0.2057310789823532
7.1,0.27282264828681946,0.12110232561826706,-0.22939416766166687,0.0338464230298996,-0.3264559805393219,-0.26189878582954407
7.15,0.6391551494598389,0.0754861980676651,0.6472129225730896,0.02847309410572052,-0.6539607644081116,-0.3531940281391144
7.2,-0.161199152469635,0.03702739253640175,0.5548291802406311,0.0032491981983184814,-0.38744089007377625,-0.4012366235256195
7.25,-0.5544626712799072,-0.1727866530418396,1.082154393196106,0.10505801439285278,-0.6579097509384155,-0.4300471842288971
7.3,0.1578879952430725,-0.2063865214586258,1.6250600814819336,0.227749764919281,-0.6776653528213501,-0.40793395042419434
7.35,0.04773154854774475,-0.05339428782463074,0.8539807796478271,0.35703518986701965,-0.4205823838710785,-0.3736782371997833
7.4,-0.11859181523323059,-0.07723233848810196,0.62967848777771,0.4279427230358124,-0.29217270016670227,-0.41894984245300293
7.45,-0.0839783251285553,-0.07693668454885483,0.9055293798446655,0.5122985243797302,-0.24564912915229797,-0.43402591347694397
7.5,-0.14489200711250305,-0.24456974864006042,1.1418259143829346,0.5993627309799194,-0.3037054240703583,-0.4436912536621094
7.55,-0.005141764879226685,-0.24957750737667084,0.8127613067626953,0.7089751362800598,-0.29585734009742737,-0.45267003774642944
7.6,0.7118438482284546,-0.35951995849609375,1.5213096141815186,0.8617827892303467,-0.335438996553421,-0.47841939330101013
7.65,0.36348018050193787,0.18445304036140442,0.4906906187534332,0.9588704109191895,-0.16489830613136292,-0.486819863319397
7.7,0.9671262502670288,1.2876882553100586,-1.5766527652740479,0.9143410325050354,-0.0742705836892128,-0.5944789052009583
7.75,1.4242932796478271,2.5742759704589844,-2.635925769805908,0.5440108180046082,-0.25439634919166565,-0.8847163319587708
7.8,1.4902315139770508,3.7266314029693604,-2.244938850402832,-0.24175262451171875,-0.8177216053009033,-1.3115135431289673
7.85,2.826010227203369,2.22512149810791,-2.850440263748169,-1.4940345287322998,-2.2100019454956055,-1.8861497640609741
7.9,3.9704840183258057,-1.1882871389389038,-1.2258353233337402,-2.6674728393554688,-4.027505397796631,-2.7307727336883545
7.95,3.1719090938568115,-3.7996597290039062,0.8749500513076782,-2.4286370277404785,-4.493904113769531,-2.382598400115967
8.0,3.676863670349121,-4.662991046905518,1.4674360752105713,-0.7420431971549988,-3.503572940826416,-0.2997992932796478
8.05,4.712984085083008,-2.249354600906372,1.720304250717163,0.5331807136535645,-1.8873248100280762,1.4079214334487915
8.1,3.4476542472839355,0.3552149832248688,0.37982383370399475,0.7478464841842651,-1.5254237651824951,2.845999002456665
8.15,2.386847972869873,2.062232255935669,3.068943738937378,0.2273019552230835,-2.812962770462036,3.617182493209839
8.2,-0.37696027755737305,1.596097469329834,4.8932085037231445,-0.16151070594787598,-3.5962769985198975,3.3626935482025146
8.25,-3.6923134326934814,0.4254879057407379,4.235101222991943,-0.3556349277496338,-3.2860827445983887,2.5652973651885986
8.3,-4.7198286056518555,0.9135955572128296,1.479148030281067,-0.614896833896637,-2.474428653717041,1.396949052810669
8.35,-5.668655872344971,-0.41831761598587036,0.5781774520874023,0.12707018852233887,-3.0151209831237793,0.25693801045417786
8.4,-7.7530388832092285,-1.374129056930542,0.41705599427223206,0.675416886806488,-2.610948324203491,-0.6614885926246643
8.45,-5.955845355987549,0.6673499941825867,-2.03525710105896,0.19352489709854126,-0.156218484044075,-1.7922555208206177
8.5,-0.9988211989402771,1.0789661407470703,-2.739462375640869,0.27085310220718384,0.8569577932357788,-2.0339298248291016
8.55,-2.5133910179138184,0.38065144419670105,-3.779163122177124,0.1585242748260498,0.10304412245750427,-1.5094292163848877
8.6,-2.933776378631592,0.5084868669509888,-1.3338544368743896,-0.18756920099258423,-0.4415164291858673,-1.038509726524353
8.65,-0.5836259722709656,-0.9262085556983948,0.5341392159461975,-0.5361205339431763,-0.016557738184928894,-0.7275936603546143
8.7,-0.8675704002380371,0.25748077034950256,1.7227672338485718,-0.5238406658172607,0.11228213459253311,-0.5644722580909729
8.75,-1.3852713108062744,0.33479225635528564,0.7713850736618042,-0.34684401750564575,0.20666073262691498,-0.5119125843048096
8.8,0.10088303685188293,0.11962699145078659,-0.46886491775512695,-0.3294279873371124,0.7116012573242188,-0.4350346028804779
8.85,-0.33302557468414307,0.36792951822280884,0.6299139261245728,-0.30152711272239685,0.2996857762336731,-0.2357795536518097
8.9,1.0038740634918213,0.43714335560798645,0.34505587816238403,-0.2413325309753418,0.26920875906944275,-0.25686925649642944
8.95,-0.10868936777114868,-0.10428429394960403,0.060698866844177246,-0.11216649413108826,0.12517881393432617,-0.28351891040802
9.0,-0.47924771904945374,-0.014543509110808372,0.16078141331672668,-0.1003284901380539,0.10303106158971786,-0.21438458561897278
9.05,-0.061880894005298615,-0.12158490717411041,-0.0061291977763175964,-0.10637402534484863,0.01355851162225008,-0.10927608609199524
9.1,-0.3170618414878845,-0.10526751726865768,0.2597351670265198,-0.10555202513933182,-0.04506789147853851,-0.04038850590586662
9.15,0.003580242395401001,-0.07127857208251953,0.13775742053985596,-0.10910285264253616,0.18345090746879578,-0.02815704047679901
9.2,-0.1791805773973465,0.1246672049164772,0.2895653247833252,-0.10518209636211395,-0.02498687244951725,0.07821055501699448
9.25,0.1506718397140503,0.18532563745975494,0.2638179659843445,-0.07102082669734955,-0.06010068953037262,0.09329485148191452
9.3,-0.15721800923347473,0.05295756086707115,0.2362704873085022,-0.023065634071826935,0.11089058965444565,0.02195252850651741
9.35,-0.6413599252700806,0.010641122236847878,-0.026714295148849487,-0.006492983549833298,0.10052599012851715,0.03994818404316902
9.4,-0.44180744886398315,-0.04463481530547142,-0.1889342963695526,-0.054169461131095886,0.21542122960090637,0.07174893468618393
9.45,-0.04716020077466965,-0.03290366753935814,0.10515341907739639,-0.08081010729074478,0.21173422038555145,0.07572808861732483
9.5,-0.07918380200862885,-0.0661325454711914,0.11098620295524597,-0.10312465578317642,0.21549487113952637,0.06067527085542679
9.55,-0.1226724237203598,0.12057402729988098,0.1727752387523651,-0.12803839147090912,0.05879900977015495,0.11953748762607574
9.6,0.7094308733940125,0.40424734354019165,0.3534144163131714,-0.09990489482879639,-0.0026434375904500484,0.09265895932912827
9.65,0.8375020623207092,0.14085766673088074,-0.317317396402359,-0.02894606441259384,0.06334278732538223,-0.05063521862030029
9.7,0.05813413858413696,-0.21075060963630676,0.12674817442893982,0.014766205102205276,-0.20414480566978455,-0.11594702303409576
9.75,-0.9569593667984009,-0.3082914352416992,0.1568828970193863,0.009934797883033752,-0.2661583125591278,-0.12120132893323898
9.8,-0.6298211216926575,-0.16154097020626068,0.10414346307516098,-0.05224011093378067,-0.010157384909689426,-0.12429766356945038
9.85,-0.39244920015335083,0.050032638013362885,-0.017955925315618515,-0.08227647095918655,0.0044702826999127865,-0.08426598459482193
9.9,-0.5770763158798218,-0.1179189682006836,-0.11246611922979355,-0.10621510446071625,0.012844478711485863,-0.044952116906642914
9.95,-0.29920512437820435,-0.042973507195711136,0.0765128880739212,-0.12461914122104645,0.0339803472161293,0.0024596659932285547
10.0,-0.16864509880542755,0.03425217419862747,-0.05917797610163689,-0.14016415178775787,0.11912229657173157,0.023008372634649277
10.05,-0.02536175586283207,-0.0311737097799778,-0.011383505538105965,-0.18124505877494812,0.25065553188323975,0.00754692405462265
10.1,0.17899808287620544,0.2207947075366974,0.05453072488307953,-0.2185666859149933,0.35972559452056885,-0.037946924567222595
10.15,0.20412158966064453,0.29003337025642395,0.04978075996041298,-0.21184538304805756,0.33505216240882874,-0.10507340729236603
10.2,0.34392207860946655,0.2870292663574219,-0.0816078931093216,-0.21216267347335815,0.4115922451019287,-0.21901965141296387
10.25,0.4073396325111389,0.2125873863697052,0.20989884436130524,-0.17909011244773865,0.19590705633163452,-0.23247021436691284
10.3,-0.32029053568840027,0.31870752573013306,0.4454234540462494,-0.10452457517385483,-0.090457022190094,-0.1714005172252655
10.35,-0.02779264748096466,0.3307504951953888,0.2112491875886917,0.026536203920841217,-0.20710402727127075,-0.1565251648426056
10.4,0.6441917419433594,0.6217709183692932,0.7140620946884155,0.1869560331106186,-0.5017998814582825,-0.08474894613027573
10.45,0.10296249389648438,0.865082859992981,0.4568210244178772,0.3755043148994446,-0.7998515963554382,-0.0529792346060276
10.5,-0.3077576756477356,0.3475666344165802,-0.12593837082386017,0.5344139337539673,-1.16069757938385,0.027248909696936607
10.55,-1.511886715888977,-0.09367179870605469,-1.0513287782669067,0.5713976621627808,-1.3452690839767456,0.04625321179628372
10.6,-2.0017871856689453,-0.5565157532691956,-1.5951554775238037,0.34287089109420776,-1.5069013833999634,0.10193577408790588
10.65,-1.8610386848449707,-1.6099703311920166,-0.7377644777297974,-0.1326698213815689,-2.416823387145996,0.16828739643096924
10.7,-1.0194916725158691,-2.089810609817505,-0.10358742624521255,-0.6547603607177734,-3.744389057159424,0.04149733483791351
10.75,0.04806262254714966,-0.9185925722122192,-0.5292211174964905,-1.022760272026062,-4.250096321105957,-0.14490129053592682
10.8,2.312084197998047,-0.5179807543754578,-1.2681125402450562,-0.9583889245986938,-2.581510305404663,-0.29760655760765076
10.85,0.5048227310180664,1.5406838655471802,-2.1086959838867188,-0.7533671259880066,-0.3575969934463501,-0.42663997411727905
10.9,1.5738106966018677,1.2256383895874023,-1.4388900995254517,-0.8388838171958923,0.1818748116493225,-0.48752301931381226
10.95,0.3442496657371521,1.1267919540405273,-2.4437007904052734,-1.3961385488510132,-0.7969576716423035,-0.2424415796995163
11.0,3.2651453018188477,0.22106057405471802,-1.6792223453521729,-1.6179733276367188,-0.7018756866455078,-0.28991320729255676
11.05,0.07270874083042145,1.8264820575714111,-0.32317543029785156,-1.445393681526184,-0.45433634519577026,0.060133907943964005
11.1,6.2743024826049805,-0.6191018223762512,0.040878020226955414,-1.0830433368682861,-0.11141402274370193,0.19361552596092224
11.15,1.528062105178833,-2.6875429153442383,-3.3999874591827393,-1.5763039588928223,-1.8179309368133545,1.2610565423965454
11.2,-0.2134948968887329,-0.7767565250396729,-3.0809807777404785,-1.66433584690094,-1.7122929096221924,0.8462076187133789
11.25,-0.4910571575164795,-0.12579356133937836,-2.465895175933838,-1.3450182676315308,-1.0429162979125977,0.09264498949050903
11.3,-0.03197199106216431,0.7953310012817383,-2.055894374847412,-0.9604001045227051,-0.918559730052948,-0.08046378940343857
11.35,-0.9409081935882568,-0.3954888880252838,-2.621666193008423,-0.33976906538009644,-0.50608891248703,0.4654812812805176
11.4,-1.4109046459197998,0.6334428787231445,-1.9201442003250122,0.5628430843353271,0.4933328628540039,0.47997623682022095
11.45,-2.6344449520111084,1.7363064289093018,-1.1737209558486938,0.8777966499328613,1.5653340816497803,0.3842028081417084
11.5,-2.217221260070801,2.8488993644714355,0.8219836354255676,0.838580846786499,2.3965649604797363,0.11602305620908737
11.55,-3.4366581439971924,2.157702922821045,1.5963339805603027,0.7120727300643921,2.1917946338653564,0.4732915461063385
11.6,-4.872615814208984,1.0992196798324585,2.085463523864746,0.8744935989379883,2.049909830093384,0.7799599170684814
11.65,-5.311215400695801,0.2602514326572418,3.171426773071289,1.0116113424301147,2.3166894912719727,0.594889223575592
11.7,-4.473903656005859,-1.8092259168624878,4.037807464599609,0.9469393491744995,2.245741128921509,0.38121679425239563
11.75,-2.665181875228882,-2.98935604095459,2.8570477962493896,1.3606622219085693,2.024878740310669,-0.17665308713912964
11.8,-0.8169025778770447,-2.568486213684082,2.4151883125305176,2.609614849090576,1.6775226593017578,-0.8912094831466675
11.85,-0.8181487321853638,-1.8174734115600586,3.887639045715332,3.852665901184082,1.2563581466674805,-1.4805530309677124
11.9,3.6055359840393066,-0.36396506428718567,2.841475486755371,4.232193946838379,1.4294182062149048,-1.8048923015594482
11.95,5.957657337188721,-1.6918491125106812,1.9567779302597046,3.9001846313476562,-0.25471702218055725,-2.138084650039673
12.0,-1.185337781906128,-0.7516013383865356,-0.621329128742218,1.9677778482437134,-2.3437376022338867,-2.32450532913208
12.05,-2.329066753387451,-2.656672716140747,-0.9513309597969055,0.6754807233810425,0.49768707156181335,-0.11400696635246277
12.1,0.9149570465087891,-1.1134051084518433,5.51541805267334,-0.6795694231987,3.324831485748291,1.9186513423919678
12.15,0.8103170394897461,7.779132843017578,-0.727186381816864,-2.140334367752075,3.9049277305603027,2.522207021713257
12.2,2.1866555213928223,6.356561183929443,-3.696737766265869,-2.1406683921813965,1.3927161693572998,0.8160853385925293
12.25,3.6439108848571777,-2.7220818996429443,3.0330750942230225,-1.9138789176940918,0.4143008589744568,0.660968542098999
12.3,-0.360931396484375,0.18574923276901245,3.269536256790161,-1.3185374736785889,1.5484732389450073,0.4757053256034851
12.35,1.326280117034912,-0.21601678431034088,1.4593818187713623,-0.7190200090408325,1.147980809211731,0.22938992083072662
12.4,1.7026560306549072,1.4145756959915161,1.064412236213684,-0.618725597858429,0.9595223069190979,0.17630945146083832
12.45,0.026224613189697266,0.7639553546905518,2.700530529022217,-0.3423674702644348,-0.04842066392302513,0.14958620071411133
12.5,1.390134334564209,0.7580729126930237,-0.1410890370607376,-0.02301396243274212,0.045250553637742996,0.08570758253335953
12.55,-0.03690251708030701,0.16872316598892212,1.0071864128112793,0.23698824644088745,-0.8124403953552246,0.15225130319595337
12.6,0.14434665441513062,-0.09362605214118958,-0.2998388111591339,0.3353031873703003,-0.10767583549022675,0.02207201160490513
12.65,-0.1467820405960083,-0.05763246491551399,-0.35262614488601685,0.2733743488788605,-0.12460856139659882,0.06586040556430817
12.7,-0.5835493803024292,-0.13654136657714844,-0.2876349985599518,0.1594196856021881,-0.5397230982780457,0.16790176928043365
12.75,-0.19529950618743896,-0.2161875218153,-0.3459668755531311,0.0169551819562912,-0.23873774707317352,0.21283845603466034
12.8,-1.4053910970687866,-0.02553553134202957,0.06077474355697632,-0.0956590548157692,-0.11452125012874603,0.2546142041683197
12.85,-1.169468641281128,-0.415531188249588,-0.5672476291656494,-0.26110050082206726,0.2713945508003235,0.32231858372688293
12.9,-1.7705097198486328,-0.9895545244216919,-1.7742161750793457,-0.4836304783821106,-0.023164045065641403,0.5764698386192322
12.95,0.18217012286186218,-0.13805770874023438,0.5123600959777832,-0.6980124115943909,-0.14070795476436615,0.8240594863891602
13.0,-1.8752609491348267,-0.8404189348220825,-1.3828519582748413,-0.659127414226532,0.0283050537109375,0.9928343296051025
13.05,-1.7117105722427368,0.1457730233669281,0.08338487893342972,-0.8292639851570129,0.23675771057605743,1.3855329751968384
13.1,-4.673651695251465,1.7032474279403687,-2.0783491134643555,-0.9997594356536865,0.3444141149520874,2.1813526153564453
13.15,-4.5351762771606445,2.3631584644317627,-6.265462875366211,-1.1567795276641846,0.6108318567276001,2.727055311203003
13.2,-6.5138678550720215,6.652292251586914,-1.4549528360366821,-1.298840045928955,0.9412624835968018,3.5756988525390625
13.25,-8.257209777832031,-1.3161578178405762,6.71938419342041,0.029305696487426758,1.80081045627594,2.8924131393432617
13.3,-5.864081382751465,-2.31720232963562,5.404112815856934,-0.5906804800033569,4.054086208343506,0.7276220917701721
13.35,0.9745063781738281,0.030215412378311157,3.997849941253662,-0.41500797867774963,4.236385822296143,-1.1539292335510254
13.4,-0.09523582458496094,1.3652435541152954,9.427347183227539,0.5675016045570374,2.786646604537964,-2.0434160232543945
13.45,3.2209420204162598,-0.630991518497467,12.507400512695312,0.2870469093322754,3.3158230781555176,-1.907299518585205
13.5,4.153240203857422,1.979870080947876,4.46229887008667,-1.2203845977783203,6.129077434539795,-0.16803424060344696
13.55,5.65260124206543,1.2460681200027466,5.769041061401367,-0.3873169720172882,4.796876430511475,-0.8358228802680969
13.6,7.824374198913574,1.970084309577942,4.851978302001953,-0.6570419669151306,4.531017780303955,-0.9465911984443665
13.65,6.731635093688965,1.5198688507080078,0.4293440282344818,-0.5533928871154785,4.926542282104492,-0.7242977023124695
13.7,5.616446495056152,0.9098079800605774,-1.6815919876098633,-0.9844290018081665,3.9664149284362793,-1.0433218479156494
13.75,5.551485061645508,-1.3528599739074707,-3.082273483276367,-1.663468360900879,2.427427053451538,-1.0949292182922363
13.8,5.641687870025635,-3.1405677795410156,-3.6844639778137207,-2.3447628021240234,1.627995252609253,-0.35218414664268494
13.85,3.418135166168213,-2.9990105628967285,-4.63319730758667,-2.659356117248535,1.3408443927764893,0.5376242995262146
13.9,0.986119270324707,-2.2641220092773438,-4.692390441894531,-3.0360360145568848,0.6815159916877747,0.969845712184906
13.95,-0.5679425001144409,-2.7090654373168945,-3.6067593097686768,-2.80509614944458,-0.22571104764938354,1.1851524114608765
14.0,-0.7049462795257568,-1.4720507860183716,-0.9992913007736206,-2.2325439453125,-1.253051519393921,1.5150470733642578
14.05,-0.8191391229629517,-1.9070889949798584,-0.06202789768576622,-1.2512544393539429,-1.8365782499313354,1.862460970878601
14.1,-2.5040392875671387,-0.031985145062208176,0.9688174724578857,-0.587165355682373,-1.622700572013855,1.537660837173462
14.15,-1.9630987644195557,-0.20770730078220367,1.3113938570022583,0.3283545672893524,-0.9468886256217957,1.1868247985839844
14.2,-4.259429931640625,2.00950026512146,5.601411819458008,1.301289439201355,0.2672891616821289,1.1918312311172485
14.25,-6.330129146575928,1.2337373495101929,0.7577484250068665,0.9088829755783081,1.728797197341919,0.01902909390628338
14.3,7.691359043121338,6.199008941650391,7.228191375732422,1.1465802192687988,1.7747561931610107,-0.4762859046459198
14.35,-3.990966796875,-4.996966361999512,-0.8055539727210999,0.5956023335456848,3.306735038757324,-0.46988505125045776
14.4,2.0330371856689453,-1.0481970310211182,-2.0581443309783936,1.3265761137008667,0.38925468921661377,-0.2499714195728302
14.45,-1.7510018348693848,-0.39943885803222656,0.05154452472925186,0.8095438480377197,1.1660717725753784,-0.16304968297481537
14.5,0.10033959150314331,0.743840217590332,-1.289612054824829,0.9634139537811279,0.29637426137924194,-0.14573992788791656
14.55,0.9487341046333313,0.582423210144043,-0.009234811179339886,0.805172324180603,-0.05281639099121094,-0.21229106187820435
14.6,-0.7600163221359253,-0.1289529800415039,-0.3700023889541626,0.5469609498977661,0.6219987869262695,-0.15614905953407288
14.65,0.5439407825469971,-0.05482197552919388,0.4709552228450775,0.5572259426116943,0.08182444423437119,-0.2483433485031128
14.7,-0.20279991626739502,-0.23163317143917084,0.9309533834457397,0.5542719960212708,-0.08377637714147568,-0.29144585132598877
14.75,0.14392733573913574,0.21209244430065155,0.3417336344718933,0.7000564932823181,-0.3186981976032257,-0.3708692491054535
14.8,-0.24472776055335999,0.01040364895015955,0.11676187068223953,0.6570169925689697,-0.4600473642349243,-0.4275190234184265
14.85,-1.239479660987854,0.5788842439651489,-0.3005426824092865,0.5459067821502686,-0.18410199880599976,-0.38382625579833984
14.9,1.0009323358535767,0.5257931351661682,0.7876496911048889,0.43843984603881836,-0.8000742793083191,-0.658408522605896
14.95,0.3183126151561737,0.07730203121900558,1.2533403635025024,0.5611683130264282,-0.5715862512588501,-0.816781759262085
15.0,1.499822735786438,0.5067759156227112,0.6337894797325134,0.6863833069801331,-0.21557046473026276,-1.0425500869750977
15.05,0.3949545621871948,1.2776272296905518,1.6426242589950562,0.676908016204834,-0.5001091957092285,-0.987346351146698
15.1,1.2916886806488037,1.9374972581863403,-1.5250941514968872,0.6554772257804871,-1.0592520236968994,-1.2493025064468384
15.15,2.995366334915161,3.908961534500122,-3.080106019973755,-0.0475199818611145,-1.5236557722091675,-1.4582295417785645
15.2,3.8727660179138184,0.5939366221427917,-4.843181133270264,-1.441648244857788,-2.3371055126190186,-1.9723525047302246
15.25,8.25796127319336,-5.52354621887207,-3.235748767852783,-2.538991689682007,-3.837533712387085,-2.2263333797454834
15.3,14.09095573425293,-5.1968584060668945,-1.356338381767273,-0.539050281047821,-7.229652404785156,-0.2708083987236023
15.35,6.385175704956055,1.8045332431793213,5.223953723907471,1.1731386184692383,-7.429203510284424,2.9879283905029297
15.4,-1.70686936378479,0.8854652047157288,7.373550891876221,1.0644980669021606,-5.056675910949707,4.615159511566162
15.45,-4.314568519592285,0.720902681350708,0.911389172077179,-0.2372196912765503,-2.154877185821533,3.910226821899414
15.5,-4.995279312133789,1.0344421863555908,-2.251575469970703,-0.3916780352592468,-1.9606189727783203,0.9918407201766968
15.55,-4.146071910858154,0.7722485661506653,0.9596924185752869,1.3547505140304565,-3.3088409900665283,-1.8718315362930298
15.6,-8.660018920898438,-0.7002130150794983,3.1759684085845947,2.5146830081939697,-3.8927032947540283,-3.039260149002075
15.65,-1.952544927597046,-1.074666142463684,-0.4840341806411743,1.5716267824172974,-2.674135208129883,-2.496598720550537
15.7,-4.752148628234863,0.8640406131744385,-1.183349847793579,1.297550916671753,-3.691575527191162,-1.8879677057266235
15.75,-3.1997649669647217,1.1118298768997192,-1.5365780591964722,0.3249301314353943,-2.2226390838623047,-1.6299527883529663
15.8,-1.4336826801300049,1.5323774814605713,-0.5826194286346436,-0.5678418278694153,0.06886449456214905,-0.9967948794364929
15.85,-1.6267824172973633,-1.3667936325073242,0.7824884057044983,-0.7123445868492126,1.178704023361206,-0.934167206287384
15.9,1.4327994585037231,0.27774137258529663,-0.5098497271537781,-0.7900639772415161,0.9716658592224121,-0.7737041115760803
15.95,-3.6984095573425293,-0.5976207852363586,1.7427616119384766,-0.4998479187488556,-0.2924516201019287,-0.4821633994579315
16.0,0.9000120162963867,0.30231475830078125,0.3156287968158722,-0.7214547395706177,1.727543830871582,-0.5863922238349915
16.05,0.3403589427471161,-0.1695079654455185,0.8687925338745117,-0.5885639190673828,1.023902416229248,-0.5266786217689514
16.1,-0.16671665012836456,-0.02426624484360218,-0.08282086998224258,-0.5292994379997253,0.9231653213500977,-0.3539649546146393
16.15,0.25234514474868774,-0.2537928521633148,-0.7999461889266968,-0.47448161244392395,0.4799026846885681,-0.1114605963230133
16.2,0.2606089115142822,0.03690243139863014,0.2342875897884369,-0.5376137495040894,-0.1715938299894333,0.18343408405780792
16.25,1.1825227737426758,0.3735837936401367,0.3767153322696686,-0.5302029252052307,-0.36000683903694153,0.23740547895431519
16.3,0.12779614329338074,0.4689550995826721,0.35845187306404114,-0.43181878328323364,-0.4125060439109802,0.14034609496593475
16.35,-0.13439443707466125,-0.0770731195807457,-0.5162847638130188,-0.3648260235786438,-0.4446919858455658,0.12035636603832245
16.4,-0.07056359946727753,-0.23654749989509583,-0.21587984263896942,-0.4003419280052185,-0.6033740639686584,0.28368666768074036
16.45,-0.0957471951842308,-0.27300551533699036,0.003050981555134058,-0.46958020329475403,-0.5214190483093262,0.31209826469421387
16.5,-0.5000308156013489,0.10768698900938034,-0.9077509641647339,-0.5412886738777161,-0.549064576625824,0.32286566495895386
16.55,-0.5858557224273682,0.467994749546051,-0.25244230031967163,-0.5374137759208679,-0.7070491313934326,0.5544319748878479
16.6,0.24299395084381104,1.037750244140625,-1.384865641593933,-0.5350120067596436,-0.21467167139053345,0.569665253162384
16.65,-0.25849205255508423,1.4744720458984375,-2.1359927654266357,-0.5997006893157959,-0.1927238553762436,0.7430874109268188
16.7,-1.8649301528930664,1.6973134279251099,-3.1172149181365967,-0.7675519585609436,-0.0716637447476387,0.9830575585365295
16.75,-0.41947996616363525,0.5742921233177185,-3.2264997959136963,-1.0221877098083496,-0.3082372546195984,1.0496033430099487
16.8,0.2194594144821167,-1.1388523578643799,-3.110983371734619,-0.8631545305252075,-1.32465660572052,1.3547389507293701
16.85,0.7964474558830261,-0.2260190099477768,-1.0929784774780273,-0.7443712949752808,-2.294281244277954,1.6314923763275146
16.9,-2.267566680908203,0.3129273056983948,-1.201520562171936,-0.8359583616256714,-2.821837902069092,1.6485724449157715
16.95,-1.4045071601867676,-0.6546640396118164,-0.32129350304603577,-0.7758027911186218,-1.88238525390625,0.6107555031776428
17.0,1.8150798082351685,-0.08729559183120728,0.34287625551223755,-0.1904231458902359,-1.2077765464782715,-0.22246892750263214
17.05,1.1761829853057861,0.2667904496192932,1.5683199167251587,0.28116893768310547,-1.077095866203308,0.004653687588870525
17.1,0.7325239777565002,-0.6753101348876953,2.0476245880126953,0.5039414167404175,-0.6725084781646729,-0.2709881365299225
17.15,2.8832976818084717,0.20252996683120728,3.115553855895996,0.5490750670433044,-0.018078988417983055,-0.9289231896400452
17.2,4.373857498168945,0.14421942830085754,4.117687702178955,0.5142177939414978,-0.2971043586730957,-0.7228967547416687
17.25,2.91975736618042,-0.3530949354171753,5.584184646606445,0.3274870812892914,-1.0403103828430176,-0.04057656601071358
17.3,2.213820457458496,-0.503840446472168,3.66329288482666,-0.2836623191833496,-0.9397684335708618,0.24692657589912415
17.35,2.3878955841064453,-1.786409616470337,2.458894729614258,-0.0025053322315216064,-0.4226331412792206,0.6391450762748718
17.4,0.9902970194816589,-1.44720458984375,2.3210129737854004,0.7571812868118286,-0.12873154878616333,1.017234444618225
17.45,-0.7055681943893433,-0.6078032851219177,1.7265074253082275,1.5107886791229248,0.06926342099905014,1.2274510860443115
17.5,-2.017648220062256,0.2941371500492096,0.8303832411766052,1.9803225994110107,0.7399219274520874,0.8129123449325562
17.55,-2.054255962371826,0.7416470050811768,1.781314492225647,1.9423925876617432,2.0238122940063477,0.051309287548065186
17.6,5.606697082519531,1.9748440980911255,3.251643657684326,1.3537111282348633,1.6402575969696045,-0.2171594649553299
17.65,-2.9788715839385986,0.8192235231399536,-2.502115249633789,1.7894800901412964,-1.1268250942230225,-0.1210562065243721
17.7,-0.7213684916496277,-0.5512486696243286,-2.3669826984405518,1.3663415908813477,0.05672280862927437,-0.5328781604766846
17.75,0.49121785163879395,-0.6924782991409302,-1.3604530096054077,0.9993035793304443,0.3264097571372986,-0.5212801694869995
17.8,-1.2754219770431519,-0.2854452431201935,-1.1082020998001099,0.6826090216636658,0.33079272508621216,-0.5650115013122559
17.85,1.2325717210769653,0.3594989478588104,-0.581723690032959,0.5068494081497192,1.0431804656982422,-0.6542636752128601
17.9,1.6102070808410645,0.5123949646949768,0.825019896030426,0.38010889291763306,0.8617368340492249,-0.5917426943778992
17.95,-0.677196741104126,0.032426849007606506,-0.36128348112106323,0.3028389811515808,0.036739200353622437,-0.4380257725715637
18.0,-0.325543612241745,0.19982723891735077,-0.019838664680719376,0.2827703654766083,0.13395673036575317,-0.40274176001548767
18.05,-0.555939793586731,-0.08734607696533203,-0.26351678371429443,0.20265766978263855,-0.03690246865153313,-0.29153764247894287
18.1,0.33706045150756836,0.04909515753388405,0.16609320044517517,0.15614104270935059,0.0823652520775795,-0.23666240274906158
18.15,0.03983515501022339,0.02685357816517353,0.33771610260009766,0.14032968878746033,-0.04091041162610054,-0.20620259642601013
18.2,0.5491816401481628,0.25720885396003723,0.25698912143707275,0.11864989995956421,0.021619707345962524,-0.1839524656534195
18.25,-0.16371038556098938,0.008281722664833069,0.1740204393863678,0.025053486227989197,-0.20692040026187897,-0.11693485081195831
18.3,0.005606229417026043,-0.018120767548680305,0.005602455232292414,0.042747944593429565,-0.27834808826446533,-0.09690055251121521
18.35,0.5499230623245239,-0.003371251979842782,0.1783595085144043,0.029113851487636566,-0.16246256232261658,-0.08595320582389832
18.4,-0.2362222820520401,-0.03611467778682709,0.19949759542942047,0.03843194246292114,-0.245153546333313,-0.07747343927621841
18.45,0.34644508361816406,0.009641633369028568,-0.038925766944885254,0.06634394824504852,-0.06107195094227791,-0.07392832636833191
18.5,0.06214039400219917,0.04106426239013672,-0.002893992932513356,0.03935971111059189,0.05945747345685959,-0.07281158119440079
18.55,-0.07044951617717743,0.0639495849609375,-0.28323331475257874,-0.05139375478029251,-0.14388157427310944,-0.07179823517799377
18.6,-0.09628051519393921,0.12525275349617004,0.10116081684827805,-0.09486781060695648,-0.03011966682970524,-0.04391273483633995
18.65,0.19978350400924683,0.11341095715761185,-0.04662436246871948,-0.06810111552476883,0.2652220129966736,-0.021931104362010956
18.7,-0.08700253069400787,0.043993931263685226,-0.5464428663253784,-0.055129051208496094,0.35638827085494995,-0.007861199788749218
18.75,-0.009415462613105774,-0.025542283430695534,-0.461282879114151,-0.11568465083837509,0.5545544028282166,0.006798516493290663
18.8,-0.024408727884292603,0.038161274045705795,-0.21623030304908752,-0.199053555727005,0.630764365196228,0.02186453342437744
18.85,0.2803189754486084,-0.0017824254464358091,0.06156810373067856,-0.23395635187625885,0.7332544326782227,0.02061050944030285
18.9,0.2856907844543457,0.07637405395507812,0.05490345135331154,-0.2819274961948395,0.6709729433059692,0.017334455624222755
18.95,0.10546702891588211,0.04696941375732422,-0.0962066650390625,-0.29683917760849,0.608779788017273,0.008075005374848843
19.0,-0.07411672174930573,0.06610298156738281,-0.17000232636928558,-0.3408524990081787,0.4447774291038513,0.027840476483106613
19.05,-0.21783798933029175,0.11961939930915833,0.09592321515083313,-0.3383960723876953,0.32429102063179016,0.05732736364006996
19.1,0.043714769184589386,0.0481720007956028,-0.020079586654901505,-0.31266868114471436,0.3090994656085968,0.09476898610591888
19.15,-0.23161649703979492,0.06342030316591263,-0.17813162505626678,-0.3178958296775818,0.18157130479812622,0.128265380859375
19.2,0.288161039352417,0.10663604736328125,-0.006268688477575779,-0.34267324209213257,0.21730749309062958,0.13597197830677032
19.25,0.03437186777591705,0.012063972651958466,-0.17165540158748627,-0.31405559182167053,0.1016438826918602,0.12973427772521973
19.3,0.6331282258033752,0.02196023054420948,-0.13536641001701355,-0.2709847688674927,0.25187352299690247,0.034223832190036774
19.35,-0.013234883546829224,-0.08427812159061432,-0.2547714114189148,-0.25489383935928345,0.12429788708686829,-0.001898638904094696
19.4,-0.5489161610603333,-0.08192823827266693,0.0135743273422122,-0.2680686116218567,-0.08465368300676346,-0.007131998892873526
19.45,-0.08787553757429123,-0.21341708302497864,-0.17339272797107697,-0.3047570288181305,-0.18281106650829315,-0.0018806417938321829
19.5,-0.4453718960285187,0.5079775452613831,-0.2363879531621933,-0.4363628029823303,-0.28085052967071533,0.05432935059070587
19.55,0.8346220850944519,0.6976137161254883,-0.10225437581539154,-0.48882102966308594,-0.0892295241355896,0.04995214566588402
19.6,0.843006432056427,0.9003688097000122,0.695782482624054,-0.3777454197406769,-0.19804339110851288,0.11377988755702972
19.65,0.6763013601303101,0.6684379577636719,-0.43906527757644653,-0.192112997174263,-0.11012395471334457,0.07920923084020615
19.7,-0.6213377714157104,-1.4574730396270752,-2.3220834732055664,-0.4281447231769562,-0.6915315389633179,0.4923735558986664
19.75,0.443575382232666,1.3674304485321045,-8.182683944702148,-1.4137823581695557,0.01638406701385975,0.780068039894104
19.8,4.000401020050049,2.310781955718994,-11.51514720916748,-2.473660945892334,-0.22116410732269287,1.0428669452667236
19.85,-2.0655417442321777,0.6662777662277222,-5.341642379760742,-2.9794540405273438,-0.6855165362358093,1.6005585193634033
19.9,-5.789715766906738,-3.2586843967437744,-0.0346190482378006,-1.943568468093872,1.346672773361206,1.3697115182876587
19.95,2.263673782348633,0.5379589200019836,-3.8109374046325684,-0.2743329703807831,4.149325370788574,-0.5714712142944336
20.0,-6.6540327072143555,3.0362212657928467,0.6483408808708191,3.53288197517395,1.801811933517456,0.8916563987731934
20.05,-6.041853904724121,-1.7830013036727905,12.01706600189209,4.546121597290039,2.576244831085205,-1.032591700553894
20.1,8.5514497756958,3.142904758453369,7.154584884643555,1.6528934240341187,5.952755928039551,-2.7415974140167236
20.15,1.7365095615386963,-4.794002056121826,9.411849975585938,1.781139850616455,0.024978920817375183,-1.8642070293426514
20.2,9.2889404296875,5.982550621032715,-2.595841407775879,-0.6875811219215393,0.12000808119773865,-0.10056453198194504
20.25,8.217619895935059,11.855618476867676,-5.3450493812561035,-1.2162519693374634,2.6565937995910645,-0.012432536110281944
20.3,-4.563758373260498,2.414567470550537,3.6494269371032715,-0.30351522564888,-1.1983121633529663,-0.1654524952173233
20.35,-0.6040095090866089,1.6363424062728882,1.9678633213043213,-0.7735776901245117,0.7998953461647034,-0.258683443069458
20.4,3.8983447551727295,-0.42024174332618713,-4.018935203552246,-0.7631682753562927,1.2980461120605469,-0.35073602199554443
20.45,-2.0577545166015625,-0.9774121642112732,2.1954126358032227,-0.41657501459121704,-0.6347867846488953,-0.006512962747365236
20.5,0.44003206491470337,0.02694128081202507,-0.1359340250492096,-0.7333055138587952,0.3104779124259949,0.030114401131868362
20.55,-1.5812941789627075,-0.10229001939296722,1.8849056959152222,-0.6819827556610107,-0.08988781273365021,0.26133477687835693
20.6,-2.075298547744751,0.6348774433135986,1.992976188659668,-0.640866756439209,0.0015392201021313667,0.37594321370124817
20.65,1.4308159351348877,0.2876701056957245,-0.13015566766262054,-0.6031160354614258,0.62513667345047,0.2616993486881256
20.7,1.5717010498046875,0.3430566191673279,-0.3935261070728302,-0.4024158716201782,0.3501223921775818,0.29470083117485046
20.75,0.15038970112800598,0.411166250705719,0.4383874833583832,-0.18669433891773224,0.08459717035293579,0.28293341398239136
20.8,0.547899603843689,0.13470743596553802,-0.037458501756191254,-0.16652312874794006,0.16159963607788086,0.14281141757965088
20.85,-0.3165487051010132,0.14622598886489868,0.6996989250183105,-0.09016595780849457,-0.05492779240012169,0.1462167203426361
20.9,-0.38218918442726135,0.2878161072731018,0.5279206037521362,-0.054986193776130676,0.01886621117591858,0.12167096138000488
20.95,-0.5422490835189819,0.0928974524140358,0.2500382661819458,0.0519203320145607,0.007988839410245419,0.17467384040355682
21.0,0.2467736303806305,-0.04029563441872597,-0.4438047409057617,0.02162439376115799,0.16271118819713593,0.15609930455684662
21.05,0.06817667186260223,-0.12101367861032486,-0.3921518921852112,-0.0004045069217681885,0.04360951855778694,0.20745083689689636
21.1,0.35850033164024353,-0.3927536904811859,-0.4020947217941284,-0.08295784890651703,0.08210183680057526,0.15806512534618378
21.15,0.37472182512283325,-0.018933318555355072,-0.15138234198093414,-0.08919530361890793,-0.008082975633442402,0.15811292827129364
21.2,-0.20445531606674194,0.2652130722999573,0.7712075710296631,-0.02916136011481285,-0.17884454131126404,0.15366654098033905
21.25,0.028564635664224625,0.29229071736335754,0.09658290445804596,-0.009687294252216816,-0.03431154042482376,0.042620960623025894
21.3,0.33602839708328247,0.18236158788204193,-0.21573130786418915,0.014530438929796219,0.02957526594400406,-0.08133909851312637
21.35,0.5867691040039062,0.26711177825927734,-0.4690936803817749,0.05797287076711655,-0.09364556521177292,-0.11573578417301178
21.4,-0.17559944093227386,0.20607666671276093,0.3375157117843628,0.16129477322101593,-0.37511560320854187,-0.05085266754031181
21.45,-0.624797523021698,0.14532476663589478,0.6004736423492432,0.197948157787323,-0.2740967571735382,-0.09263364970684052
21.5,-0.3850007653236389,-0.053278904408216476,0.24401959776878357,0.20302248001098633,-0.04594799131155014,-0.15187948942184448
21.55,-0.001490660011768341,0.17319968342781067,0.22137640416622162,0.21982994675636292,0.07531755417585373,-0.16853906214237213
21.6,0.4593054950237274,-0.012976689264178276,-0.5053735971450806,0.22053056955337524,0.10698150098323822,-0.18944552540779114
21.65,-0.2986827492713928,-0.13872434198856354,-0.14680799841880798,0.23615622520446777,-0.08046013861894608,-0.17648735642433167
21.7,0.8527818918228149,0.1996602565050125,-0.9447410702705383,0.21205133199691772,-0.06163642928004265,-0.23187798261642456
21.75,0.2937135100364685,0.2238922119140625,-0.2765531837940216,0.33425551652908325,-0.5923832654953003,-0.12990976870059967
21.8,-3.0446386337280273,0.3282157778739929,0.8975124359130859,0.45404312014579773,-1.0072331428527832,-0.005172536242753267
21.85,-0.9646756649017334,-0.07946774363517761,0.01784994639456272,0.35616809129714966,-0.17871718108654022,-0.21106480062007904
21.9,0.1872829794883728,-0.3122701942920685,-0.03505637124180794,0.22435861825942993,0.3981824815273285,-0.3050307333469391
21.95,-0.7197210192680359,-0.1647014617919922,-0.32733458280563354,0.18035760521888733,0.3180170953273773,-0.23994113504886627
22.0,-0.16852569580078125,-0.21648316085338593,-0.38928550481796265,0.13915260136127472,0.19447389245033264,-0.13858206570148468
22.05,-0.371500700712204,-0.2289457619190216,-0.3376992344856262,0.1302439421415329,-0.006607081741094589,-0.036179568618535995
22.1,-1.03995943069458,-0.5703611969947815,-1.16804838180542,0.02144642174243927,-0.03951169177889824,0.0492408387362957
22.15,-0.4712413549423218,-0.6815128922462463,-0.9936622381210327,-0.18206651508808136,-0.06091902777552605,0.21117350459098816
22.2,-0.583269476890564,-0.5997181534767151,-0.6505470871925354,-0.37201637029647827,-0.0014721263432875276,0.31312692165374756
22.25,-0.303870290517807,-1.0048142671585083,-1.2498568296432495,-0.5269697308540344,0.030286841094493866,0.3787881135940552
22.3,1.4591329097747803,0.5569734573364258,0.2350679337978363,-0.647973895072937,0.0012192834401503205,0.5061764121055603
22.35,-1.4995328187942505,0.3556472063064575,0.5225191116333008,-0.6354482173919678,-0.01079193502664566,0.45761585235595703
22.4,-0.21612678468227386,0.293766051530838,-0.21612641215324402,-0.6105665564537048,0.03986882045865059,0.310676246881485
22.45,2.2684481143951416,0.279633492231369,0.8300607204437256,-0.46444830298423767,-0.13488946855068207,0.3688618540763855
22.5,-1.6992475986480713,-0.44437113404273987,1.8723397254943848,-0.12815642356872559,-0.6492666006088257,0.5276511311531067
22.55,-1.9355717897415161,0.05709090083837509,1.3102906942367554,-0.07971662282943726,-0.3471996784210205,0.4017574191093445
22.6,1.3012638092041016,0.14800353348255157,-0.07647257298231125,-0.07340733706951141,0.06696602702140808,0.2659289240837097
22.65,0.8998883366584778,0.06894583255052567,-0.610019326210022,-0.09315917640924454,0.22731921076774597,0.12851780652999878
22.7,0.10658110678195953,0.06621647626161575,0.07973331212997437,-0.02195669710636139,0.06506077200174332,0.060612358152866364
22.75,0.6436483860015869,0.1368722766637802,-0.18768519163131714,-0.030418183654546738,0.0578070767223835,-0.06195874884724617
22.8,0.05936932563781738,0.1286650002002716,0.48208022117614746,0.15442514419555664,-0.2671852111816406,-0.009952359832823277
22.85,0.011643558740615845,0.24396707117557526,-0.25371792912483215,0.06014512479305267,0.1169118732213974,-0.2163776159286499
22.9,0.030640721321105957,-0.24803264439105988,-1.0584168434143066,0.047950513660907745,0.15279127657413483,-0.2642880082130432
22.95,-0.12372660636901855,-0.597087025642395,-0.797665536403656,0.04436008632183075,-0.011943699792027473,-0.20667219161987305
23.0,-0.42398175597190857,-0.23463919758796692,-0.5143415927886963,-0.00392632931470871,-0.038281697779893875,-0.16821816563606262
23.05,-0.556025505065918,-0.08249855786561966,-0.528144896030426,-0.06587444245815277,0.018817957490682602,-0.17167168855667114
23.1,-0.6008092164993286,-0.05966852977871895,-0.11992716789245605,-0.06906758248806,-0.07086378335952759,-0.08644887059926987
23.15,-0.127587229013443,-0.03176021948456764,-0.10941659659147263,-0.08872801065444946,-0.004165884107351303,-0.06631415337324142
23.2,-0.16183039546012878,0.036771781742572784,-0.022092318162322044,-0.05268397927284241,-0.023480791598558426,-0.02773192711174488
23.25,-0.47023558616638184,0.3523598313331604,0.4321441650390625,-0.03452333062887192,-0.03471289575099945,0.006593862548470497
23.3,-0.7982311248779297,0.388281911611557,0.27924081683158875,-0.027554215863347054,0.03230417147278786,0.01021586824208498
23.35,-0.4702618718147278,0.12703517079353333,-0.13686084747314453,-0.007178574334830046,0.0469219833612442,0.0156270582228899
23.4,-0.5179919600486755,0.326789915561676,-0.030641403049230576,-0.014306029304862022,0.0731591209769249,0.02430698089301586
23.45,-0.44994357228279114,0.4237585961818695,0.4442116916179657,0.021419459953904152,0.05700809136033058,0.027580419555306435
23.5,0.09927983582019806,0.3566446900367737,0.4762989580631256,0.09406189620494843,0.06092456355690956,-0.024531029164791107
23.55,0.2641495168209076,0.47612863779067993,0.09648136794567108,0.18264620006084442,0.00618036650121212,-0.07613372802734375
23.6,0.28439122438430786,0.47834497690200806,0.1907278299331665,0.3007090389728546,-0.10845956206321716,-0.14479780197143555
23.65,0.3995212912559509,0.7263794541358948,0.6410878300666809,0.3973963260650635,-0.09959074854850769,-0.24650287628173828
23.7,0.14244487881660461,0.2551107704639435,0.26404204964637756,0.5303162336349487,-0.09870634973049164,-0.34749364852905273
23.75,0.5251654386520386,0.22225192189216614,0.45719677209854126,0.6001280546188354,-0.057921770960092545,-0.4309169054031372
23.8,-0.06409674882888794,-0.5197764039039612,-0.621792733669281,0.6875348687171936,-0.020131098106503487,-0.4970318675041199
23.85,0.0017790496349334717,-0.2540608048439026,-0.3920046389102936,0.6209327578544617,0.07664804905653,-0.49392908811569214
23.9,-1.2248921394348145,-0.6868133544921875,-0.3525099754333496,0.600821316242218,-0.09830239415168762,-0.4067062735557556
23.95,-1.2004514932632446,-0.6910715699195862,-0.7370588779449463,0.3801595866680145,0.23648345470428467,-0.3517821133136749
24.0,0.29783937335014343,-0.33889394998550415,-0.5187521576881409,0.27317649126052856,0.14021006226539612,-0.2153465896844864
24.05,0.2551923990249634,-0.01995852217078209,-0.31987494230270386,0.261862576007843,0.1608697474002838,-0.21708610653877258
24.1,-1.2990041971206665,-0.4690838158130646,-0.37260082364082336,0.25203460454940796,0.012977657839655876,-0.1646239012479782
24.15,0.2741203308105469,-0.07294657081365585,-0.05598140135407448,0.08654488623142242,0.1352071762084961,-0.05135497450828552
24.2,-0.21123945713043213,-0.04635429382324219,-0.10092683136463165,0.11584465205669403,0.01644815318286419,-0.014827913604676723
24.25,-0.11004570871591568,0.09691715985536575,-0.2455158233642578,0.11056793481111526,-0.01637004129588604,0.007090463303029537
24.3,-0.2304651141166687,0.015608785673975945,-0.26670295000076294,0.07235546410083771,-0.0991436168551445,0.03618825599551201
24.35,-0.32091689109802246,0.026075363159179688,-0.33778202533721924,-0.016375022009015083,-0.004381456412374973,0.05287407338619232
24.4,-0.28799256682395935,-0.09746458381414413,-0.38044196367263794,-0.08077805489301682,-0.047241125255823135,0.09491685032844543
24.45,-0.6959102153778076,-0.28985121846199036,-0.49466291069984436,-0.14782081544399261,-0.05497472733259201,0.12721458077430725
24.5,-0.46963977813720703,-0.4261046051979065,-0.47871291637420654,-0.25237780809402466,-0.03605638071894646,0.1921936571598053
24.55,1.1122479438781738,0.29074665904045105,-0.30685579776763916,-0.3650937080383301,-0.09408193081617355,0.34812843799591064
24.6,-0.48214927315711975,0.06777959316968918,0.5570948719978333,-0.3356904089450836,-0.45479026436805725,0.34871381521224976
24.65,-1.6143217086791992,0.38594064116477966,-0.39619526267051697,-0.49768126010894775,-0.17826108634471893,0.2117205560207367
24.7,-1.9175584316253662,1.300055742263794,0.1194247156381607,-0.6180077195167542,-0.1959850937128067,0.11355827748775482
24.75,0.4587141275405884,1.0615931749343872,-0.02797488495707512,-0.6092095971107483,-0.01553631853312254,-0.038011133670806885
24.8,-0.8055988550186157,0.848883867263794,1.944798469543457,-0.3958144783973694,-0.1254606395959854,-0.056114815175533295
24.85,-1.7821073532104492,0.6626788973808289,0.6768618822097778,-0.21824055910110474,0.03897286206483841,-0.10786344110965729
24.9,0.1372007429599762,-0.14141085743904114,-0.1810426563024521,-0.1439647078514099,0.1775083988904953,-0.1295296996831894
24.95,0.8373914361000061,-0.030454646795988083,0.5314573645591736,-0.11132217943668365,0.23438799381256104,-0.07722001522779465
25.0,-0.06680417060852051,0.10470199584960938,-0.3230988383293152,0.020716644823551178,0.07649097591638565,-0.016868745908141136
25.05,-0.09976852685213089,0.3388729691505432,0.27002012729644775,0.052714262157678604,0.02174539491534233,-0.007642556447535753
25.1,-0.01045062392950058,-0.15627767145633698,-0.13964268565177917,0.10824030637741089,0.03502441197633743,0.011719634756445885
25.15,-0.037920355796813965,-0.027804378420114517,-0.023233715444803238,0.05662192404270172,0.056224044412374496,0.047189779579639435
25.2,-0.2961193919181824,-0.17626002430915833,-0.46513622999191284,0.04274636134505272,-0.017738763242959976,0.04783889651298523
25.25,-0.395163357257843,-0.15807059407234192,-0.6553679704666138,-0.014089413918554783,0.02726598270237446,0.044519197195768356
25.3,-0.07416282594203949,0.2433357685804367,0.17061929404735565,-0.03257299214601517,-4.3299396565998904e-06,0.05958971008658409
25.35,0.2256499081850052,0.16826725006103516,-0.052904341369867325,-0.026794008910655975,0.082595095038414,0.017840908840298653
25.4,0.07100991904735565,0.1938944160938263,0.19519321620464325,-0.016122810542583466,-0.0341574065387249,0.009822451509535313
25.45,-0.4570936858654022,-0.013794892467558384,-0.19918563961982727,0.0035142034757882357,-0.081705741584301,0.0060960641130805016
25.5,-0.2833845317363739,0.06221391260623932,-0.04683006927371025,-0.007462680339813232,-0.006772144231945276,-0.01387765258550644
25.55,-0.00925245601683855,0.06256294995546341,0.026762571185827255,-0.013752510771155357,0.021751856431365013,-0.02334561012685299
25.6,-0.05764567106962204,0.08813285827636719,-0.1307065784931183,-0.02346443571150303,0.04288593307137489,-0.031192537397146225
25.65,-0.1981830894947052,0.2813616096973419,-0.08117005228996277,-0.040390126407146454,0.05969369783997536,-0.04217974469065666
25.7,-0.3215159773826599,0.2026873081922531,-0.012939694337546825,-0.039203204214572906,0.0471845380961895,-0.049918126314878464
25.75,0.056438177824020386,0.044679637998342514,-0.12400694191455841,-0.058951474726200104,0.09248144924640656,-0.06800628453493118
25.8,-0.02209147810935974,0.03838253766298294,0.03755468130111694,-0.04972517490386963,0.015052404254674911,-0.04755113273859024
25.85,-0.09111759066581726,0.017186181619763374,0.25200581550598145,-0.026644941419363022,0.012864558026194572,-0.053999509662389755
25.9,0.03730436787009239,0.027729995548725128,0.1192842572927475,-0.0024782121181488037,0.04468897730112076,-0.0629962831735611
25.95,-0.016581624746322632,-0.028776178136467934,-0.14561989903450012,0.008471373468637466,0.0199107825756073,-0.055269330739974976
26.0,-0.1916004717350006,-0.03302096575498581,0.1175176128745079,0.002910078503191471,-0.019517669454216957,-0.028771396726369858
26.05,-0.21000653505325317,0.07224846631288528,-0.10479213297367096,-0.00566088454797864,0.031218843534588814,-0.013330221176147461
26.1,-0.33810821175575256,-0.01924895867705345,-0.15626046061515808,0.008685696870088577,0.05133892223238945,-0.02171204797923565
26.15,0.02609124779701233,-0.03225135803222656,0.10000871121883392,-0.010674797929823399,0.06308396905660629,0.005548188462853432
26.2,-0.20983663201332092,-0.038833606988191605,0.16207285225391388,-0.0006105527281761169,-0.009821291081607342,0.05035191774368286
26.25,-0.015824954956769943,0.040906913578510284,0.038738545030355453,0.012220331467688084,0.050009094178676605,0.0350140742957592
26.3,-0.009682532399892807,0.1650724560022354,0.09572619944810867,0.034458886831998825,0.0551602840423584,0.028637604787945747
26.35,-0.2146279662847519,0.007118223700672388,-0.22779956459999084,0.04160328954458237,0.0733378455042839,0.02368822693824768
26.4,-0.2073526233434677,0.001273148925974965,-0.3129510283470154,0.00813521258533001,0.0697750598192215,0.03267225623130798
26.45,0.12295760214328766,0.08402442187070847,-0.22082211077213287,-0.027625568211078644,0.07181131839752197,0.03478887304663658
26.5,-0.05233299359679222,0.2795734703540802,-0.11698630452156067,-0.031621482223272324,0.04071785882115364,0.037436146289110184
26.55,-0.3193420171737671,0.1726074516773224,0.05934278294444084,-0.0069282385520637035,-0.0036867025773972273,0.01983456313610077
26.6,0.22190125286579132,0.07279492169618607,0.11432554572820663,0.0014956921804696321,0.028021493926644325,-0.008029135875403881
26.65,-0.1528470814228058,-0.08562850952148438,-0.004157451447099447,0.03205065429210663,-0.05180695280432701,-0.0007224467699415982
26.7,-0.1279611438512802,-0.07830143719911575,-0.09951019287109375,0.033618565648794174,-0.031670667231082916,-0.002384515479207039
26.75,-0.1385883241891861,-0.03047085553407669,-0.1807972937822342,0.026469402015209198,-0.017253106459975243,0.011238490231335163
26.8,-0.015255890786647797,0.10208989679813385,-0.01570580154657364,0.014324053190648556,-0.0027867865283042192,0.012378285638988018
26.85,0.011133015155792236,0.026307106018066406,-0.07145309448242188,0.005536894779652357,0.05191601812839508,0.00194271607324481
26.9,-0.13608324527740479,0.018567083403468132,-0.1759854257106781,0.010233672335743904,0.05418172478675842,-0.00540513638406992
26.95,0.14471879601478577,-0.03898050636053085,-0.3235868811607361,-0.002675756812095642,0.07730362564325333,-0.018764406442642212
27.0,0.163381427526474,0.02524375356733799,-0.06245012208819389,-0.0042838831432163715,0.026221923530101776,-0.016373757272958755
27.05,-0.12519250810146332,-0.10438348352909088,-0.05264425277709961,0.0017618564888834953,0.0034136343747377396,-0.010307387448847294
27.1,-0.04823477193713188,0.015648847445845604,0.04888097569346428,-0.01603943668305874,0.004471869673579931,0.005569556728005409
27.15,0.06403559446334839,0.11977579444646835,0.1874673068523407,-0.013761547394096851,-0.04348766803741455,0.008607168681919575
27.2,-0.18820632994174957,-0.02509022131562233,-0.1509542465209961,0.01819707453250885,-0.08752792328596115,0.000763737945817411
27.25,-0.4450021982192993,-0.0595102459192276,-0.5273301601409912,-0.005357623100280762,-0.0720977932214737,0.011173807084560394
27.3,-0.31451666355133057,0.025990504771471024,0.08088519424200058,-0.06011772155761719,-0.10879693180322647,0.05823994055390358
27.35,-0.06659390032291412,0.13660340011119843,0.474094033241272,-0.04067536070942879,-0.042647141963243484,0.06048734113574028
27.4,0.10075192898511887,-0.02117731422185898,-0.35097670555114746,-0.006441120989620686,0.127948597073555,-0.0006753735360689461
27.45,0.1979762315750122,-0.0943327322602272,-0.32604435086250305,0.007072006817907095,0.048873238265514374,-0.016933761537075043
27.5,0.055867575109004974,0.0304946880787611,-0.09544581174850464,0.01877984032034874,-0.05040545016527176,-0.021556278690695763
27.55,-0.4775552749633789,0.10276606678962708,-0.15077778697013855,0.027212247252464294,-0.05255797132849693,-0.02880914881825447
27.6,-0.2984040379524231,0.19689564406871796,0.09284374117851257,0.021497344598174095,0.038770612329244614,-0.05384534224867821
27.65,-0.30373117327690125,0.092804916203022,-0.24981577694416046,0.03409917652606964,0.07465096563100815,-0.07355118542909622
27.7,-0.4076001048088074,-0.0038805166259407997,-0.6767889261245728,0.032860055565834045,0.03492029756307602,-0.07281725108623505
27.75,-0.2655176520347595,0.03376104682683945,0.191125750541687,0.02295655384659767,-0.04244657978415489,-0.03961518034338951
27.8,-0.09453985095024109,0.10497763752937317,0.31198856234550476,0.0359966866672039,0.01037287712097168,-0.024112578481435776
27.85,-0.09390655159950256,-0.075928695499897,-0.08139850944280624,0.07344463467597961,0.0692477896809578,-0.0712454617023468
27.9,0.07505550235509872,-0.16150954365730286,-0.10125179588794708,0.0796763151884079,0.08294685184955597,-0.09023497998714447
27.95,-0.21595236659049988,-0.16255855560302734,0.2272292971611023,0.06839808821678162,0.04611373320221901,-0.05298548936843872
28.0,-0.033705808222293854,-0.12187100201845169,0.20848172903060913,0.06140092760324478,0.09171784669160843,-0.03843282163143158
28.05,0.07474473118782043,-0.008829119615256786,0.013803602196276188,0.06444642692804337,0.1257113814353943,-0.03780527412891388
28.1,-0.2126358598470688,-0.1109924465417862,-0.1622072160243988,0.05950639024376869,0.10797594487667084,-0.02138935960829258
28.15,-0.2669309079647064,-0.08520126342773438,-0.026519132778048515,0.055279023945331573,0.09018891304731369,0.0004075055767316371
28.2,0.2959463596343994,0.08246516436338425,0.001060669543221593,0.05413287132978439,0.12917476892471313,0.0019391553942114115
28.25,0.2711530029773712,0.11656379699707031,-0.02918466180562973,0.06861137598752975,0.07745400816202164,-0.003071359358727932
28.3,-0.1506044566631317,0.12178803235292435,-0.2137743979692459,0.06994744390249252,-0.04297628253698349,0.003959600813686848
28.35,-0.1038094311952591,0.18456554412841797,-0.34156548976898193,0.06771954894065857,-0.10273872315883636,-0.003729908261448145
28.4,-0.22914281487464905,0.032500267028808594,-0.2640022039413452,0.07769860327243805,-0.10234913975000381,-0.025868451222777367
28.45,-0.42986419796943665,-0.13498783111572266,-0.13105587661266327,0.042776789516210556,-0.07992170006036758,-0.0058406563475728035
28.5,-0.422397643327713,-0.01553819328546524,0.17439581453800201,-0.009651046246290207,-0.05086514726281166,0.04413788020610809
28.55,-0.3425452411174774,-0.14494992792606354,-0.20155006647109985,-0.03798689693212509,0.0525999553501606,0.058718059211969376
28.6,0.030072003602981567,-0.11888604611158371,-0.8448680639266968,-0.13170398771762848,0.2296755462884903,0.04387697950005531
28.65,0.5681654214859009,0.3118114471435547,-0.09632617235183716,-0.1927487850189209,0.014108246192336082,0.07371798157691956
28.7,0.604601263999939,0.5425511002540588,0.5699671506881714,-0.11479458212852478,-0.3309703767299652,0.08781825006008148
28.75,0.15073032677173615,0.40504178404808044,0.5395215153694153,0.03092118911445141,-0.5131056904792786,0.05460457503795624
28.8,-0.2621808648109436,-0.0273885577917099,0.17881938815116882,0.09301026165485382,-0.37047141790390015,-0.014816299080848694
28.85,-0.31152868270874023,-0.21377278864383698,0.10413362830877304,0.07624375820159912,-0.15837997198104858,-0.03327434882521629
28.9,-0.34663236141204834,-0.20716668665409088,0.02247198112308979,0.0820610299706459,-0.09498932957649231,0.015896355733275414
28.95,0.1508418321609497,0.02619362249970436,0.1414210945367813,0.06625907123088837,0.0010283441515639424,0.05644259601831436
29.0,0.24084550142288208,0.1614675670862198,0.20794011652469635,0.06268125772476196,0.04657663777470589,0.04054071009159088
29.05,-0.06795655190944672,0.0644388273358345,-0.1350145936012268,0.06096847355365753,0.037825360894203186,0.0049050417728722095
29.1,-0.17591693997383118,-0.19180110096931458,-0.240748792886734,0.034726787358522415,0.004957177676260471,0.008428219705820084
29.15,-0.1006326675415039,-0.13964654505252838,-0.1908966451883316,-0.022148648276925087,0.05920661240816116,0.01450258307158947
29.2,0.10302448272705078,0.03903674706816673,-0.052857208997011185,-0.05774451047182083,0.08722104877233505,0.0036544292233884335
29.25,0.16369777917861938,0.09527111798524857,-0.021479913964867592,-0.0489543080329895,0.038633573800325394,-0.01794547028839588
29.3,0.07774081081151962,0.1560535579919815,-0.00945344753563404,-0.034104764461517334,-0.04316263273358345,-0.026966549456119537
29.35,0.020498134195804596,0.04352856054902077,-0.004076402634382248,-0.02423301339149475,-0.0958067774772644,-0.03671799600124359
29.4,-0.4516153335571289,-0.09639452397823334,0.2665589153766632,0.0022173114120960236,-0.10538727045059204,-0.04334491863846779
29.45,-0.2974501848220825,-0.06618116796016693,0.2088349163532257,-0.00087742879986763,0.037325046956539154,-0.04515678063035011
29.5,-0.03660782799124718,-0.06760598719120026,-0.11324956268072128,-0.016343574970960617,0.09869358688592911,-0.02601635456085205
29.55,0.0335746705532074,0.02156258001923561,0.05207769200205803,-0.03483528643846512,0.07010588049888611,-0.012838135473430157
29.6,0.07130222022533417,0.12615300714969635,-0.02159682847559452,-0.035739023238420486,0.07600507140159607,-0.023891638964414597
29.65,-0.08460842072963715,0.002694124821573496,-0.18801532685756683,-0.03030328080058098,0.07679852098226547,-0.04307388886809349
29.7,-0.1541600525379181,-0.07570076733827591,-0.11503803730010986,-0.05463571846485138,0.061520177870988846,-0.04546572268009186
29.75,-0.02212567999958992,0.024267202243208885,0.04122542962431908,-0.07391778379678726,0.052691347897052765,-0.04351380094885826
29.8,0.12033514678478241,0.04391193017363548,-0.05805175006389618,-0.06944770365953445,0.0852566510438919,-0.0627945065498352
29.85,-0.08151233941316605,-0.001858710777014494,-0.05347440764307976,-0.05381972715258598,0.06223488226532936,-0.0751316249370575
29.9,-0.19832280278205872,-0.06707954406738281,-0.018158186227083206,-0.04786413162946701,0.057169076055288315,-0.07558689266443253
29.95,0.06411907076835632,-0.049905791878700256,-0.1346275359392166,-0.07163667678833008,0.07187475264072418,-0.05843512341380119
30.0,0.14211711287498474,0.09721662104129791,0.07065628468990326,-0.09117476642131805,0.008038491941988468,-0.03625357896089554
30.05,0.10289803147315979,0.0965891033411026,0.04100974649190903,-0.08549129962921143,0.0002543933514971286,-0.05644555389881134
30.1,-0.009855596348643303,0.031093601137399673,-0.01582465134561062,-0.07875730842351913,-0.020408455282449722,-0.07962815463542938
30.15,-0.1839398443698883,0.011249551549553871,0.031157396733760834,-0.07556717842817307,-0.03165994957089424,-0.08373898267745972
30.2,-0.2747843265533447,0.01986027881503105,-0.01554573979228735,-0.06977690011262894,0.007907051593065262,-0.08752268552780151
30.25,-0.11184283345937729,0.04360867291688919,-0.04447206109762192,-0.06991560757160187,0.06772743910551071,-0.08605251461267471
30.3,-0.07275445759296417,0.10054780542850494,-0.013236921280622482,-0.06422027945518494,0.10527105629444122,-0.08335112035274506
30.35,-0.11424779891967773,0.17258073389530182,0.014984122477471828,-0.05563482269644737,0.09382933378219604,-0.07260654866695404
30.4,-0.03291480988264084,0.16123200953006744,-0.06361078470945358,-0.057167332619428635,0.0774516686797142,-0.05793231725692749
30.45,-0.1831105351448059,0.07612515240907669,-0.12954315543174744,-0.058240145444869995,0.0377318374812603,-0.04414462298154831
30.5,-0.11756913363933563,0.01632404513657093,-0.08570699393749237,-0.07226870954036713,0.05002381652593613,-0.04105271399021149
30.55,0.05493011325597763,0.03983401507139206,-0.17692463099956512,-0.08971013128757477,0.040922053158283234,-0.028483310714364052
30.6,0.013534080237150192,0.08337211608886719,-0.10328321903944016,-0.09824074804782867,-0.00289675104431808,-0.01004347950220108
30.65,-0.02072661742568016,0.184053435921669,0.1255633682012558,-0.09244324266910553,-0.028301618993282318,-0.0039679426699876785
30.7,0.04284938424825668,0.16323091089725494,-0.014644949696958065,-0.05634376034140587,-0.05369919538497925,-0.017746418714523315
30.75,-0.22028063237667084,0.12374214082956314,0.23031793534755707,-0.01021996233612299,-0.07434502989053726,-0.03776944801211357
30.8,-0.3034888505935669,0.07515623420476913,0.13459545373916626,0.015960749238729477,0.006970806047320366,-0.07027478516101837
30.85,-0.192713662981987,0.03210831806063652,-0.03862347826361656,0.0252077654004097,0.09027621150016785,-0.08731938153505325
30.9,-0.04740622267127037,0.024773603305220604,-0.0012350681936368346,0.033173177391290665,0.1330646574497223,-0.09875621646642685
30.95,-0.13830873370170593,-0.030682573094964027,-0.23331965506076813,0.04134498909115791,0.15865464508533478,-0.10722263157367706
31.0,-0.38335564732551575,-0.02689838595688343,-0.2920463979244232,0.02764415368437767,0.09259912371635437,-0.05453381687402725
31.05,-0.2731512784957886,-0.06502247601747513,-0.24537436664104462,-0.0015764250420033932,0.036303967237472534,0.014456361532211304
31.1,-0.2944936156272888,0.02332688495516777,-0.028799770399928093,-0.0200027022510767,0.03772880509495735,0.0638156533241272
31.15,-0.3247326612472534,0.18477919697761536,0.03875012323260307,-0.005045615136623383,-0.025923768058419228,0.12234140932559967
31.2,-0.08390185981988907,0.09151841700077057,0.14376826584339142,0.02454061061143875,-0.04873868450522423,0.14867056906223297
31.25,0.2750701308250427,-0.05810071527957916,0.05158479884266853,0.03079931065440178,0.04164664074778557,0.11951964348554611
31.3,0.09986916184425354,-0.027638448402285576,-0.11114634573459625,0.049001485109329224,-0.03546086326241493,0.14744265377521515
31.35,-0.0414331816136837,0.059113509953022,-0.04791737720370293,0.07302168011665344,-0.09602129459381104,0.16792649030685425
31.4,-0.05170464143157005,0.05351830646395683,0.0571843683719635,0.07653051614761353,-0.047409191727638245,0.14331555366516113
31.45,-0.2674647569656372,-0.019163120537996292,0.047647446393966675,0.0790245532989502,-0.04919540137052536,0.14835292100906372
31.5,-0.02909817546606064,0.035970691591501236,0.010000965557992458,0.0704997181892395,-0.043621812015771866,0.1683177947998047
31.55,0.002160530537366867,0.12969686090946198,0.1046307310461998,0.06036539375782013,-0.052462298423051834,0.1907283365726471
31.6,-0.4996246099472046,-0.026594147086143494,-0.0005706415395252407,0.05399675667285919,-0.04957157373428345,0.1911185383796692
31.65,-0.2873266041278839,-0.15886498987674713,-0.25062820315361023,0.028019942343235016,-0.020824210718274117,0.1956137716770172
31.7,0.010431342758238316,-0.034124378114938736,-0.013535507954657078,0.010228447616100311,-0.07180465012788773,0.24197205901145935
31.75,-0.15265485644340515,0.018116971477866173,0.26818713545799255,0.012710832059383392,-0.07142546027898788,0.26057809591293335
31.8,-0.26366180181503296,0.15175822377204895,0.14209000766277313,0.02446223795413971,-0.06037082150578499,0.25950777530670166
31.85,0.009117932990193367,0.22765925526618958,0.05265900492668152,0.033523738384246826,-0.09554688632488251,0.26403117179870605
31.9,0.29313644766807556,0.24172307550907135,-0.03378985822200775,0.028152570128440857,-0.024457884952425957,0.2256772220134735
31.95,-0.17631325125694275,0.1606302410364151,-0.025870604440569878,0.03930511325597763,-0.0019504543161019683,0.19255006313323975
32.0,0.10922493785619736,-0.0018949575023725629,-0.048258889466524124,0.026787996292114258,0.01934821531176567,0.15826421976089478
32.05,0.45298486948013306,-0.03262809291481972,-0.2704560458660126,0.021344400942325592,0.04506776109337807,0.15071088075637817
32.1,0.06040363758802414,-0.11585906147956848,-0.3115708827972412,0.04897934943437576,-0.030568990856409073,0.18428249657154083
32.15,-0.11135012656450272,-0.2278461754322052,-0.17561379075050354,0.042190760374069214,-0.09189674258232117,0.2190978229045868
32.2,-0.22145316004753113,-0.08067703247070312,-0.0071714045479893684,0.015033140778541565,-0.1231348067522049,0.2720576226711273
32.25,-0.19110290706157684,0.03986837714910507,0.21304208040237427,-0.024371817708015442,-0.15561500191688538,0.3219265043735504
32.3,-0.7997941970825195,-0.09466741234064102,0.14638632535934448,-0.02012823522090912,-0.25881800055503845,0.38077065348625183
32.35,-0.6364939212799072,-0.2029895931482315,-0.06660865247249603,-0.058125078678131104,-0.223104327917099,0.41971153020858765
32.4,-0.15371334552764893,-0.2467203438282013,-0.12523004412651062,-0.0860021561384201,-0.18046844005584717,0.46621227264404297
32.45,0.37252718210220337,-0.05928995832800865,-0.10785166919231415,-0.16070686280727386,-0.13633812963962555,0.47547632455825806
32.5,0.4215635657310486,0.10657501965761185,0.17209210991859436,-0.2758203148841858,-0.1055835634469986,0.45529359579086304
32.55,-0.43783411383628845,0.5168658494949341,0.649724543094635,-0.3176182508468628,-0.09382982552051544,0.3823501467704773
32.6,0.22158947587013245,0.9566012620925903,0.03770315274596214,-0.3131181299686432,0.12387232482433319,0.13600465655326843
32.65,1.2796744108200073,0.6378630995750427,-1.0297722816467285,-0.28313809633255005,0.4282146096229553,-0.26516416668891907
32.7,-0.11188215017318726,0.2694616913795471,0.8396340608596802,-0.20674291253089905,0.41056880354881287,-0.5061613321304321
32.75,-1.6715126037597656,-0.05211714655160904,3.1341702938079834,-0.06338955461978912,0.40312954783439636,-0.4663608968257904
32.8,-0.8701776266098022,-0.5081844329833984,1.0374995470046997,-0.06015676259994507,0.959452211856842,-0.4481782615184784
32.85,-0.19454161822795868,-0.37081533670425415,-0.601650595664978,-0.07745165377855301,0.8973729014396667,-0.24831795692443848
32.9,0.03394605219364166,-0.0977192297577858,-0.4454663395881653,-0.06159980967640877,0.3311630189418793,-0.07044918090105057
32.95,1.2546344995498657,0.08749571442604065,-1.0817548036575317,-0.15386001765727997,0.3078801929950714,-0.13859829306602478
33.0,1.2647387981414795,-0.26286137104034424,-1.108808159828186,0.005256343632936478,-0.1125757098197937,-0.032172560691833496
33.05,0.04543788358569145,-0.24018099904060364,0.04423481225967407,0.07288292050361633,-0.4477761685848236,0.016058674082159996
33.1,-0.2913459241390228,-0.1382741779088974,0.3649958074092865,0.035998888313770294,-0.3794863820075989,-0.001157356658950448
33.15,-0.112638920545578,-0.1334400326013565,0.06301277130842209,0.10053198039531708,-0.3831171691417694,0.09864581376314163
33.2,-0.36065420508384705,-0.10809135437011719,0.06399161368608475,0.12439873814582825,-0.43977633118629456,0.19777512550354004
33.25,-0.4721839725971222,-0.1039733961224556,-0.1794223040342331,0.06595344096422195,-0.38093793392181396,0.2235732525587082
33.3,-0.28374552726745605,-0.026990894228219986,-0.23020727932453156,0.06651356816291809,-0.4243276119232178,0.3170897364616394
33.35,0.0016654133796691895,-0.056872397661209106,-0.4559003412723541,0.04003244638442993,-0.394254595041275,0.3566577136516571
33.4,-0.056645989418029785,0.14958001673221588,-0.09468579292297363,-0.001144900918006897,-0.365736186504364,0.3444235622882843
33.45,-0.3894999027252197,-0.02764604054391384,0.30351921916007996,-0.014116853475570679,-0.2665503919124603,0.320986270904541
33.5,-0.3289945125579834,-0.2524614632129669,-0.4673325717449188,-0.05629609525203705,-0.06783898174762726,0.25942790508270264
33.55,-0.10749790072441101,0.15747834742069244,-0.007628561928868294,-0.040399760007858276,-0.11397252976894379,0.3085249066352844
33.6,-0.49558669328689575,0.17622192203998566,0.7281814813613892,-0.007500126957893372,-0.13588795065879822,0.3185177147388458
33.65,0.31046533584594727,0.5234795212745667,0.08092393726110458,-0.1022416427731514,0.1419539451599121,0.13337957859039307
33.7,1.0498864650726318,0.4092426300048828,-0.5157519578933716,-0.08191875368356705,0.256718248128891,-0.03621705621480942
33.75,0.512252926826477,0.1577272117137909,-0.4317079484462738,0.002080533653497696,0.13418348133563995,-0.12665784358978271
33.8,-0.27331316471099854,-0.14608097076416016,-0.007172787096351385,-0.06342720240354538,0.10153605788946152,-0.20214785635471344
33.85,-0.7086221575737,-0.10385795682668686,0.5791654586791992,-0.14232608675956726,0.22428715229034424,-0.2670042812824249
33.9,-0.3563630282878876,0.4480820596218109,0.5226404666900635,-0.1277485489845276,0.3926716446876526,-0.24379773437976837
33.95,0.12767593562602997,0.6102848649024963,0.12613750994205475,-0.08056306838989258,0.5182770490646362,-0.29132506251335144
34.0,0.3322034180164337,0.5146065354347229,0.18569107353687286,0.01320183277130127,0.4246423542499542,-0.3656012713909149
34.05,0.05949714779853821,0.09689140319824219,-0.33590400218963623,0.06586673855781555,0.33728402853012085,-0.44059327244758606
34.1,0.1797785609960556,0.0384959876537323,-0.6123778223991394,0.005901336669921875,0.33656296133995056,-0.5523666143417358
34.15,0.4089016616344452,-0.25361356139183044,-0.6534497737884521,-0.038450926542282104,0.3430188000202179,-0.6070572137832642
34.2,0.1408873051404953,-0.5588752031326294,-0.6415166258811951,0.02306121587753296,0.08363379538059235,-0.4774894118309021
34.25,-0.9147613048553467,-0.3981819450855255,-0.02988874353468418,0.0391983836889267,-0.16572460532188416,-0.2638245224952698
34.3,-0.9219059944152832,-0.2424602508544922,-0.08315505087375641,-0.06283393502235413,-0.029536182060837746,-0.16632692515850067
34.35,-1.1857348680496216,-0.36098194122314453,-0.10468461364507675,-0.07249075174331665,-0.1891474574804306,0.032330986112356186
34.4,-0.9919899106025696,-0.37462902069091797,-0.02005436271429062,-0.07556569576263428,-0.38994571566581726,0.20790144801139832
34.45,-0.8584408760070801,-0.2575807571411133,0.1767231673002243,-0.09419109672307968,-0.35471969842910767,0.329112708568573
34.5,-0.5165466666221619,0.036028895527124405,0.2235349416732788,-0.06446868181228638,-0.20349547266960144,0.45240575075149536
34.55,-0.13502945005893707,0.27509409189224243,0.3098609447479248,0.019521981477737427,-0.20933446288108826,0.5945637226104736
34.6,0.6882644891738892,0.2169666290283203,-0.09059013426303864,0.00851672887802124,-0.0830739438533783,0.5486147999763489
34.65,0.6231285929679871,-0.021184002980589867,-0.23117677867412567,0.0006271451711654663,-0.10871152579784393,0.480794757604599
34.7,-0.5421861410140991,-0.07954880595207214,0.3686095178127289,-0.0025774091482162476,-0.22249652445316315,0.4416233003139496
34.75,-0.6785639524459839,-0.45695212483406067,0.3196996748447418,-0.0335550457239151,-0.17771483957767487,0.384264200925827
34.8,0.9820449352264404,0.26305386424064636,-0.6208993792533875,-0.09287247806787491,-0.017187243327498436,0.32078778743743896
34.85,0.6604506373405457,0.1541890949010849,-0.24951936304569244,-0.003408670425415039,-0.199154332280159,0.3186051845550537
34.9,-0.5313178300857544,0.1292753666639328,0.13013537228107452,0.058010585606098175,-0.29667389392852783,0.24324703216552734
34.95,-0.48054006695747375,0.455298513174057,0.32364335656166077,0.042922407388687134,-0.17854419350624084,0.12662753462791443
35.0,-0.3468739688396454,0.5358515381813049,0.20746731758117676,0.03686072677373886,0.018684841692447662,-0.01997060887515545
35.05,-0.004344122484326363,0.5508547425270081,0.00478221895173192,0.058624267578125,0.12479826807975769,-0.14463186264038086
35.1,0.13140186667442322,0.15615558624267578,-0.21550092101097107,0.08408378809690475,0.1446690708398819,-0.24414367973804474
35.15,0.01736682653427124,-0.007909787818789482,-0.24965764582157135,0.07496067136526108,0.13624076545238495,-0.3019411563873291
35.2,-0.42593133449554443,-0.03944109007716179,0.17214733362197876,0.07839047908782959,0.1226743832230568,-0.31624728441238403
35.25,-0.48229846358299255,0.08038526028394699,0.5094236731529236,0.06991460919380188,0.21797111630439758,-0.3368786871433258
35.3,-0.08241809904575348,0.10633185505867004,0.2444787621498108,0.08003562688827515,0.2953900098800659,-0.3554840087890625
35.35,-0.17978723347187042,0.05290033668279648,0.1871722787618637,0.1672009527683258,0.250392884016037,-0.3358461856842041
35.4,-0.00847021583467722,0.3190489113330841,0.011762144975364208,0.2124651074409485,0.2912239730358124,-0.3548525869846344
35.45,0.10808514058589935,0.07197854667901993,-0.5276006460189819,0.14765632152557373,0.3485230505466461,-0.43280747532844543
35.5,0.35535264015197754,0.19387245178222656,-0.39833104610443115,0.13617032766342163,0.18779723346233368,-0.41542452573776245
35.55,0.13760343194007874,-0.0249872338026762,-0.07518132030963898,0.1782841980457306,0.003619816619902849,-0.42281222343444824
35.6,-0.2211284041404724,-0.2136526256799698,0.10356010496616364,0.1505974531173706,0.022315895184874535,-0.4600560963153839
35.65,-0.11728478968143463,-0.2545500099658966,-0.019465848803520203,0.1022951751947403,0.19160732626914978,-0.4853079319000244
35.7,0.03854815661907196,-0.1285705864429474,-0.332741379737854,0.024669945240020752,0.3203272521495819,-0.47580960392951965
35.75,-0.1341840773820877,-0.2838640511035919,-0.3223899304866791,0.04089418053627014,0.167435884475708,-0.37981435656547546
35.8,-0.030688203871250153,-0.2760639488697052,-0.10709235072135925,0.04727531224489212,0.03945819288492203,-0.2783733606338501
35.85,-0.847861111164093,-0.12352559715509415,0.15207940340042114,0.057817474007606506,0.0317140556871891,-0.23369771242141724
35.9,-0.43088823556900024,-0.18012523651123047,-0.006795104127377272,0.03857843577861786,0.1069575697183609,-0.18373781442642212
35.95,0.24663913249969482,-0.12286093831062317,-0.13678273558616638,0.04387527331709862,0.09361284226179123,-0.08317558467388153
36.0,0.1440618336200714,0.025334352627396584,-0.07310214638710022,0.07568296790122986,-0.05030754581093788,0.010017533786594868
36.05,-0.5252595543861389,0.10025123506784439,0.06547953933477402,0.10934817790985107,-0.09010172635316849,0.020492462441325188
36.1,-0.40647634863853455,0.10971644520759583,0.05636020749807358,0.09427737444639206,0.030894633382558823,0.016823584213852882
36.15,-0.01958499848842621,-0.04590132459998131,-0.5205624103546143,0.07243546843528748,0.046481017023324966,0.09051837027072906
36.2,-0.06845930218696594,0.1352720558643341,0.28305160999298096,0.10736709088087082,-0.13553301990032196,0.18854641914367676
36.25,0.41189682483673096,0.10774422436952591,0.12567652761936188,0.16459932923316956,-0.12103790044784546,0.15464261174201965
36.3,-0.011876571923494339,-0.005927090998739004,-0.10556468367576599,0.1782679408788681,-0.03899124264717102,0.0865098163485527
36.35,-1.8047277927398682,-0.4862861633300781,-0.08726796507835388,0.17049318552017212,-0.1040191501379013,0.08029640465974808
36.4,-0.46701550483703613,-0.07894326001405716,-0.4373944401741028,0.007083147764205933,0.04947415739297867,0.12201209366321564
36.45,-0.2980300188064575,0.07697867602109909,-0.6247729659080505,-0.10003514587879181,0.002912657568231225,0.28327518701553345
36.5,-0.32143545150756836,-0.5994873642921448,-0.6303480863571167,-0.1976020485162735,-0.08680566400289536,0.43042072653770447
36.55,2.4016246795654297,0.8184519410133362,0.29906684160232544,-0.33027026057243347,-0.22319532930850983,0.5904627442359924
36.6,-0.6976408958435059,0.4119950234889984,-0.010647391900420189,-0.30554676055908203,-0.4646204710006714,0.36975887417793274
36.65,1.251278042793274,-0.8158791065216064,-1.7681008577346802,-0.6750333905220032,0.056916698813438416,-0.08503079414367676
36.7,-1.5607874393463135,-1.907232403755188,0.18531835079193115,-0.7078783512115479,-0.21827158331871033,0.15774832665920258
36.75,-5.636927127838135,-1.852159023284912,-0.2606562376022339,-0.860886812210083,0.027343465015292168,0.47334545850753784
36.8,2.1203742027282715,0.3198957145214081,0.5793344974517822,-0.9880965948104858,0.2522185444831848,0.8222262859344482
36.85,4.330513000488281,0.9518499970436096,2.9465904235839844,-0.3546846807003021,-0.16267676651477814,1.087929368019104
36.9,0.9599979519844055,1.5228110551834106,-1.2096126079559326,-0.001265406608581543,0.0872298926115036,0.515188455581665
36.95,3.189079761505127,1.5945367813110352,-1.4290715456008911,0.061756931245326996,0.17541994154453278,0.05356396362185478
37.0,-0.9154072999954224,-0.2803192138671875,-0.2326773852109909,0.28262796998023987,-0.28962743282318115,-0.1412540227174759
37.05,-1.3961005210876465,-0.39511391520500183,0.4732009172439575,0.05826394259929657,-0.3257526457309723,-0.1331530660390854
37.1,-1.2912726402282715,0.3303767144680023,0.2412874847650528,0.13381047546863556,-0.28556546568870544,-0.032122835516929626
37.15,1.5960845947265625,0.3418644964694977,-0.9528741240501404,-0.19072052836418152,0.3937467634677887,-0.43135255575180054
37.2,-1.09226655960083,-0.7967549562454224,-0.9490070939064026,-0.16745039820671082,0.16585463285446167,-0.48655909299850464
37.25,-0.4789963960647583,-2.1879258155822754,-3.281282663345337,-0.4406776428222656,0.30821093916893005,-0.3945612907409668
37.3,0.006794273853302002,-0.33847615122795105,1.3577303886413574,-0.286932110786438,-0.28659147024154663,0.47551220655441284
37.35,0.3213980793952942,0.764270007610321,1.4234519004821777,-0.16979770362377167,-0.002145996782928705,0.7091137170791626
37.4,0.6820765137672424,1.1566249132156372,0.2781134247779846,-0.05761159956455231,0.21268853545188904,0.4533807635307312
37.45,1.6264657974243164,0.43919461965560913,-1.3210796117782593,0.15258170664310455,0.1762475073337555,0.256644070148468
37.5,0.25126880407333374,-0.25150400400161743,-0.7341857552528381,0.1895851343870163,-0.0051625692285597324,0.1194479838013649
37.55,-0.34305238723754883,-0.02253817208111286,0.03877371549606323,0.06926330924034119,-0.05501687899231911,-0.02709166519343853
37.6,0.04430798441171646,0.4434519410133362,0.004564175847917795,0.0880131721496582,-0.1896670162677765,-0.022747181355953217
37.65,0.2772860527038574,0.3884277939796448,0.3232785165309906,0.13632437586784363,-0.1315251886844635,-0.08747833222150803
37.7,-0.1382969617843628,0.6997576951980591,0.6012759804725647,0.2495242953300476,-0.12170819938182831,-0.15344056487083435
37.75,0.6613099575042725,0.7792330384254456,-0.10241176187992096,0.31576576828956604,0.048122942447662354,-0.34125590324401855
37.8,0.7824366092681885,0.7353087067604065,0.2741200923919678,0.48335298895835876,-0.040609970688819885,-0.46773284673690796
37.85,0.22864097356796265,0.5648279786109924,0.4047110676765442,0.5452413558959961,-0.10618402063846588,-0.6338654160499573
37.9,0.5937913060188293,-0.09728530049324036,0.19586919248104095,0.5886374711990356,-0.08750089257955551,-0.7936229705810547
37.95,0.5236564874649048,-0.6083346009254456,-0.1062392070889473,0.6202763319015503,0.04889890179038048,-0.866182267665863
38.0,-0.6897810101509094,-1.1024152040481567,-0.3392150104045868,0.6301507353782654,0.13119055330753326,-0.8149683475494385
38.05,-0.7628728747367859,-0.5202646851539612,-0.1562959849834442,0.5686776638031006,0.22494737803936005,-0.7114524841308594
38.1,-0.6353801488876343,-0.699313223361969,-0.7614946365356445,0.44959497451782227,0.24966312944889069,-0.5947516560554504
38.15,-0.33521121740341187,-0.5253573060035706,-0.6065025925636292,0.32129764556884766,0.22249850630760193,-0.4348144829273224
38.2,-0.7803996801376343,-0.4784288704395294,-0.21329069137573242,0.22421154379844666,0.18783235549926758,-0.30485883355140686
38.25,-0.7207414507865906,-0.4368315041065216,-0.2648768723011017,0.14175747334957123,0.1958850622177124,-0.1891067922115326
38.3,-0.8292426466941833,-0.5761004090309143,-0.4072819650173187,0.10018377006053925,0.07977926731109619,-0.03662652149796486
38.35,0.34463781118392944,-0.2210569828748703,0.043033286929130554,0.03594116121530533,0.1787482351064682,0.07901609688997269
38.4,-0.3137058913707733,0.11770442128181458,0.14343741536140442,0.05286705493927002,-0.014334048144519329,0.18775177001953125
38.45,-0.6115539073944092,-0.10519695281982422,-0.11772451549768448,0.04890969395637512,-0.16172882914543152,0.22554245591163635
38.5,-0.09080751240253448,-0.4579992890357971,-0.3873666226863861,-0.0026324987411499023,-0.13313916325569153,0.24650026857852936
38.55,-0.9089584350585938,-1.1278153657913208,-1.1439744234085083,-0.1864752322435379,-0.12768018245697021,0.41607049107551575
38.6,-1.5545649528503418,-2.0153157711029053,-2.341130495071411,-0.5329346060752869,-0.17308342456817627,0.7540645599365234
38.65,4.063127040863037,-1.1908258199691772,-2.1062893867492676,-0.9455698132514954,-0.10594882816076279,0.9476315975189209
38.7,0.19595494866371155,-0.13073250651359558,1.0156421661376953,-0.9193640947341919,-0.5536125898361206,1.0321532487869263
38.75,-2.0152835845947266,0.8285697102546692,2.0412676334381104,-0.8528163433074951,-0.47706007957458496,0.9099084138870239
38.8,0.4926260709762573,1.2341910600662231,0.9349523782730103,-0.6567457318305969,-0.03595287352800369,0.6668127179145813
38.85,1.4891562461853027,0.8795624375343323,0.14096689224243164,-0.40557727217674255,0.21231292188167572,0.44545021653175354
38.9,0.1266101896762848,0.3794412910938263,-0.26343661546707153,-0.19993995130062103,0.1338520646095276,0.32782647013664246
38.95,-0.035050585865974426,0.35337066650390625,-0.4602861702442169,-0.21863706409931183,0.05853104963898659,0.2008759081363678
39.0,0.5209604501724243,0.5794993042945862,0.23067247867584229,-0.12216626107692719,-0.16605272889137268,0.2360392063856125
39.05,-0.8616212606430054,0.5776998400688171,1.4690275192260742,0.08923149108886719,-0.2706725597381592,0.3019405007362366
39.1,-0.3405291736125946,0.9864494204521179,1.1019706726074219,0.12731385231018066,-0.011834293603897095,0.13743442296981812
39.15,0.1402883529663086,0.8990194201469421,1.2041212320327759,0.3256694972515106,0.06302560865879059,0.05257599428296089
39.2,0.37265023589134216,0.43082723021507263,0.974139928817749,0.4087115526199341,0.21950145065784454,-0.1407041847705841
39.25,1.0934083461761475,0.05265132337808609,-1.0670292377471924,0.29240474104881287,0.47123464941978455,-0.42550724744796753
39.3,1.668902039527893,0.14646901190280914,-1.3064160346984863,0.3203178346157074,0.31536486744880676,-0.5808625221252441
39.35,-0.000708945095539093,0.07219602167606354,0.109171561896801,0.4078442454338074,-0.13066288828849792,-0.6331284046173096
39.4,0.19908662140369415,-0.05755047872662544,-0.7387118339538574,0.3201872706413269,-0.039963819086551666,-0.7663658261299133
39.45,-0.39321428537368774,-0.08238504081964493,0.3395628035068512,0.4286947548389435,-0.17061491310596466,-0.6654728055000305
39.5,-1.3169329166412354,0.21844205260276794,0.22382546961307526,0.48195385932922363,-0.1421530693769455,-0.64134681224823
39.55,-0.050801679491996765,0.22977355122566223,-0.0930764377117157,0.4972083568572998,-0.006990224123001099,-0.7050812840461731
39.6,-0.2939269542694092,0.200076162815094,0.5651346445083618,0.55743408203125,-0.1610027253627777,-0.6637645363807678
39.65,-0.6405268311500549,0.04651926830410957,-0.8318292498588562,0.4343639612197876,-0.0011717501329258084,-0.7157875299453735
39.7,-0.9689040780067444,-0.45032408833503723,0.06284710764884949,0.40562811493873596,-0.029245387762784958,-0.721513032913208
39.75,-0.6054136753082275,-0.5490828156471252,-0.15993626415729523,0.4144401252269745,-0.04949536174535751,-0.6134402751922607
39.8,-0.6774628162384033,-0.2588081359863281,-0.00019000523025169969,0.41369083523750305,0.10881099104881287,-0.6161432862281799
39.85,-1.1373059749603271,-0.198394775390625,-0.1756749004125595,0.3228021264076233,0.09369616955518723,-0.4443019926548004
39.9,-1.3253252506256104,-0.40859606862068176,-0.5035073757171631,0.2169942855834961,0.2369977831840515,-0.30787524580955505
39.95,-0.8164222836494446,-0.09612277150154114,-0.9585437774658203,0.05732280761003494,0.388254314661026,-0.12602677941322327
40.0,-0.5914843678474426,-0.3251934349536896,-0.2664749324321747,0.012695768848061562,0.049585942178964615,0.07113349437713623
40.05,0.5147606134414673,-0.12391383200883865,-0.6952483654022217,-0.043825481086969376,0.2044992595911026,0.09274603426456451
40.1,-0.08996906876564026,0.47184380888938904,0.36270731687545776,-0.08833111077547073,0.14763222634792328,0.13047334551811218
40.15,1.0516438484191895,-0.3076811730861664,-0.5947101712226868,-0.0923832505941391,0.28707975149154663,0.05960969254374504
40.2,-0.039146676659584045,0.01906014420092106,0.14382901787757874,-0.04872782155871391,0.2298797219991684,-0.00701280077919364
40.25,-0.5869433879852295,0.08609965443611145,0.061936382204294205,-0.037495240569114685,0.12339188903570175,-0.0017531552584841847
40.3,-0.19718202948570251,0.051033053547143936,0.38444089889526367,-0.05577918514609337,0.05871744826436043,0.054183151572942734
40.35,-0.1923120617866516,-0.006448740605264902,-0.024943970143795013,-0.0503823459148407,-0.01621229015290737,0.07210396975278854
40.4,0.0047640204429626465,-0.15269187092781067,-0.22114498913288116,-0.06614675372838974,-0.030217217281460762,0.10619453340768814
40.45,-1.0824617147445679,-0.6554003357887268,-0.25966739654541016,-0.08181919157505035,-0.2360766977071762,0.1962609440088272
40.5,-2.0679874420166016,-0.8001528382301331,-0.6391862034797668,-0.25995561480522156,-0.1663743555545807,0.4143485724925995
40.55,-1.119675874710083,-0.6634235382080078,-0.1992918998003006,-0.4890996813774109,-0.19009220600128174,0.7751731872558594
40.6,0.9417659640312195,0.21671006083488464,-0.5897591710090637,-0.5682065486907959,-0.4754866063594818,0.9351778030395508
40.65,0.3406224548816681,-0.6186457276344299,0.3142554759979248,-0.6406904458999634,-0.1855723261833191,0.7734715938568115
40.7,-2.0532944202423096,0.15801633894443512,0.9764516353607178,-0.640916109085083,-0.33132508397102356,0.7791906595230103
40.75,1.8479833602905273,0.9777508974075317,1.255395770072937,-0.6136534810066223,-0.1204720214009285,0.6462719440460205
40.8,0.09496724605560303,1.2260611057281494,2.2833120822906494,-0.40277671813964844,-0.010336308740079403,0.5637286305427551
40.85,-1.7252986431121826,0.6539232134819031,1.6229968070983887,-0.20254766941070557,-0.2470443695783615,0.5250557661056519
40.9,1.6048533916473389,0.7464084625244141,-0.5465642809867859,-0.35807499289512634,0.3669184446334839,0.23406171798706055
40.95,-0.8119164705276489,0.3775264024734497,0.8704178333282471,-0.0975787416100502,-0.09232506901025772,0.30880582332611084
41.0,-0.01941196620464325,0.263304740190506,0.1200283095240593,-0.09871098399162292,0.05200726166367531,0.13840517401695251
41.05,0.6431040167808533,0.03623195365071297,-0.4777931272983551,-0.08181025832891464,0.10430001467466354,0.10458409786224365
41.1,-0.809272289276123,-0.09277912229299545,0.2804591655731201,-0.0034636110067367554,-0.0669795498251915,0.18292972445487976
41.15,-0.05219024419784546,-0.32791048288345337,-0.5235632658004761,-0.14704149961471558,0.0630374327301979,0.08176259696483612
41.2,0.38007205724716187,-0.137485533952713,-0.14938345551490784,-0.16469311714172363,-0.04019314795732498,0.148713156580925
41.25,-1.3478248119354248,-0.5157299041748047,-0.1566939651966095,-0.1545393466949463,-0.030901441350579262,0.15973015129566193
41.3,-0.6652246713638306,0.4255400598049164,-0.14415594935417175,-0.25984352827072144,0.0410495400428772,0.14074495434761047
41.35,0.5304440259933472,0.1401338428258896,-0.1819419413805008,-0.22327320277690887,0.12313427776098251,0.11342605948448181
41.4,-0.02562207728624344,0.02044200338423252,-0.19384066760540009,-0.1380690634250641,-0.012692656368017197,0.179774671792984
41.45,-0.23421984910964966,-0.061736103147268295,0.016564812511205673,-0.10111720860004425,-0.06011661887168884,0.2093411087989807
41.5,-0.006727924570441246,0.3018665611743927,0.05296333134174347,-0.13616575300693512,0.052131231874227524,0.12294772267341614
41.55,0.09754826128482819,0.07735157757997513,0.12528863549232483,-0.09602620452642441,0.02806428074836731,0.10829682648181915
41.6,-0.2158510982990265,0.1629515141248703,0.3738478124141693,-0.028224244713783264,-0.025997566059231758,0.10389770567417145
41.65,0.12827648222446442,0.10279560834169388,-0.12675020098686218,-0.012389147654175758,-0.02424905076622963,0.06207437068223953
41.7,-0.023125573992729187,0.03238008916378021,-0.42143845558166504,-0.006753293331712484,-0.018209775909781456,0.013203463517129421
41.75,-0.4733847975730896,0.12587645649909973,0.07785453647375107,-0.013757845386862755,-0.02308024652302265,0.007189576514065266
41.8,-0.29603779315948486,0.06355763226747513,-0.21837784349918365,-0.09136131405830383,0.06172531098127365,-0.07038602232933044
41.85,0.05735757201910019,0.14032651484012604,-0.04542488232254982,-0.07608500123023987,0.00243767281062901,-0.08464837074279785
41.9,0.05186311900615692,0.02768230065703392,-0.10442915558815002,-0.001290537416934967,-0.0964665412902832,-0.0450267568230629
41.95,-0.3987826108932495,0.028197312727570534,0.12089742720127106,0.07484649121761322,-0.1960945725440979,-0.012218204326927662
42.0,-0.4636654257774353,-0.0468435101211071,0.1360010802745819,0.08061765134334564,-0.16479919850826263,-0.026705360040068626
42.05,-0.2407047152519226,-0.12569524347782135,-0.3429058790206909,-0.009730178862810135,0.020828768610954285,-0.12220022082328796
42.1,-0.05947033315896988,-0.008887294679880142,-0.11815226078033447,-0.03391585126519203,-0.050999801605939865,-0.11331376433372498
42.15,0.4811546206474304,0.1914835125207901,0.032447826117277145,-0.014096114784479141,-0.174399271607399,-0.09005188196897507
42.2,-0.09048660844564438,-0.055237773805856705,0.027808569371700287,-0.008143961429595947,-0.131287083029747,-0.10451547056436539
42.25,0.2617008686065674,0.2738180458545685,0.03151947259902954,-0.0748748853802681,-0.028532972559332848,-0.2546710968017578
42.3,-0.061526328325271606,0.049931563436985016,0.606772243976593,0.002514883875846863,-0.14026319980621338,-0.19305895268917084
42.35,-0.47757548093795776,-0.27375030517578125,0.29500612616539,0.07849442958831787,-0.19105921685695648,-0.16075722873210907
42.4,-0.3357965648174286,-0.00850771740078926,-0.008780629374086857,0.09292212128639221,-0.126755490899086,-0.19133679568767548
42.45,0.0976351723074913,-0.18729592859745026,0.09997613728046417,0.10882497578859329,-0.054230064153671265,-0.17115339636802673
42.5,-0.1463664174079895,-0.0700683444738388,0.3250759243965149,0.04301462322473526,0.003671871731057763,-0.13292716443538666
42.55,-0.27752411365509033,0.3778114914894104,-0.13060499727725983,0.04558009281754494,-0.06824381649494171,-0.10858050733804703
42.6,-0.02449539490044117,0.3274593651294708,0.03184084966778755,0.09337768703699112,-0.21804597973823547,-0.13635452091693878
42.65,-0.5325912833213806,-0.8486090302467346,0.6078498959541321,0.11059220880270004,-0.0968635231256485,-0.1828707903623581
42.7,0.15730543434619904,-0.5372076630592346,0.2266945242881775,0.08516759425401688,0.0948437750339508,-0.22586935758590698
42.75,-0.2739894986152649,0.47933778166770935,0.14407265186309814,0.21812117099761963,0.02042636275291443,-0.10646945238113403
42.8,1.6186692714691162,-0.31964027881622314,-0.8933921456336975,0.14302471280097961,0.21200452744960785,-0.1955072581768036
42.85,-0.8694189190864563,0.12461383640766144,0.5985392332077026,0.2684900760650635,-0.28604260087013245,-0.0556008480489254
42.9,-1.2242122888565063,-0.19917969405651093,-1.3923864364624023,0.16322189569473267,0.059940680861473083,-0.1755266636610031
42.95,-0.6453706622123718,0.10844423621892929,-0.3154081106185913,0.21941015124320984,-0.06777147203683853,-0.09380242973566055
43.0,0.49810802936553955,-0.05222133919596672,-0.3533594012260437,0.14250792562961578,0.021800661459565163,-0.035616353154182434
43.05,-0.506712019443512,0.02896408550441265,0.43255019187927246,0.12123102694749832,-0.10882575064897537,0.05901871249079704
43.1,-0.9881099462509155,-0.19570443034172058,0.3798600435256958,0.11285658925771713,-0.1777021288871765,0.07479719817638397
43.15,0.08678022027015686,0.020846381783485413,0.3462977409362793,0.0636313185095787,0.019429530948400497,0.08513591438531876
43.2,-0.3971897065639496,-0.03158852458000183,0.37204018235206604,0.19858422875404358,-0.18665660917758942,0.20311011373996735
43.25,-0.5849462747573853,0.08267500251531601,-0.10200127214193344,0.07380900532007217,0.059640154242515564,0.14746877551078796
43.3,-0.8699866533279419,-0.15639109909534454,0.6733554601669312,0.08015604317188263,0.22631791234016418,0.13834786415100098
43.35,-0.37391939759254456,-0.1822500079870224,0.35057634115219116,0.1137794554233551,0.3383267819881439,0.1416063755750656
43.4,0.3682371973991394,0.03705214709043503,0.033902425318956375,0.06259805709123611,0.5379167795181274,0.08340971171855927
43.45,0.07859832048416138,0.5221682190895081,-0.27703699469566345,0.08413663506507874,0.6887598037719727,-0.031011750921607018
43.5,0.8520651459693909,1.5265953540802002,1.276779055595398,0.08557973802089691,1.1069767475128174,-0.41045743227005005
43.55,2.811854124069214,0.8547276854515076,-1.363065481185913,0.1183968186378479,1.5066615343093872,-0.8622280359268188
43.6,3.032419443130493,-0.37528353929519653,-2.758291482925415,0.34223583340644836,1.2486382722854614,-1.00653076171875
43.65,0.3938969671726227,-0.9374524354934692,-0.2342635989189148,0.440468966960907,1.8883552551269531,-0.8213281035423279
43.7,-1.6514158248901367,-0.2052764594554901,0.07410643994808197,0.16581439971923828,2.900611400604248,-1.0172957181930542
43.75,-3.5987610816955566,-2.196580648422241,-0.49906277656555176,-0.041446685791015625,1.6714922189712524,-1.0932984352111816
43.8,-4.7836761474609375,-0.3196018636226654,-0.062196750193834305,0.20056726038455963,-1.0796111822128296,-0.18763640522956848
43.85,3.1475136280059814,-0.25910016894340515,-1.010237455368042,-0.1492798775434494,0.28385576605796814,0.12158635258674622
43.9,1.313419222831726,-0.13718421757221222,-0.3376888632774353,-0.1016453355550766,0.5599815845489502,-0.09860546886920929
43.95,-1.46185302734375,-0.6725292205810547,-0.25052234530448914,-0.22060665488243103,0.8130806684494019,-0.21537958085536957
44.0,0.48831748962402344,-0.13111795485019684,-2.0456383228302,-0.18754994869232178,0.23525342345237732,-0.11964308470487595
44.05,1.5893025398254395,0.2539997100830078,0.6895325183868408,0.03781862556934357,-1.0142042636871338,0.041722021996974945
44.1,-0.26572003960609436,0.10618779808282852,-0.9555933475494385,-0.09016449749469757,-0.44363850355148315,-0.2749064862728119
44.15,-0.6875244379043579,-0.16461269557476044,1.3968026638031006,0.0785241574048996,-1.3794634342193604,-0.1445753574371338
44.2,-0.738649845123291,-0.06324765086174011,0.260041743516922,0.0006615929305553436,-0.9028307199478149,-0.1078275814652443
44.25,-0.5175328254699707,-0.2839326560497284,0.7240868210792542,0.01903850957751274,-0.5508685111999512,-0.10081540048122406
44.3,-0.6119729280471802,-0.1914834827184677,0.46424752473831177,0.019726587459445,-0.237032949924469,-0.049214430153369904
44.35,-0.1643190234899521,0.6333733201026917,0.2251499891281128,0.03624453395605087,-0.10840360820293427,0.13710203766822815
44.4,-0.42638081312179565,0.011832264252007008,0.18833811581134796,0.12982980906963348,-0.3267916440963745,0.21162499487400055
44.45,-0.7101549506187439,0.03833010047674179,-0.17506924271583557,0.20477651059627533,-0.5065171122550964,0.3139525055885315
44.5,0.1478618085384369,0.07644370943307877,0.7253618240356445,0.29639387130737305,-0.799003005027771,0.4427340030670166
44.55,0.3754204511642456,0.034192103892564774,0.6524522304534912,0.3336016833782196,-0.4877650737762451,0.26300129294395447
44.6,-0.6206940412521362,-0.1517639309167862,-0.39747074246406555,0.384451299905777,-0.3698127865791321,0.2674858570098877
44.65,-2.8399648666381836,-0.11586184054613113,-0.8828642964363098,0.27810490131378174,-0.19701309502124786,0.4072909653186798
44.7,-0.6336333155632019,-0.612066388130188,-2.2734293937683105,-0.13152307271957397,0.6006000638008118,0.6863169074058533
44.75,-3.4280221462249756,-1.0590600967407227,-0.26015394926071167,-0.05323117971420288,0.4080400764942169,1.3237333297729492
44.8,-5.786477088928223,1.187150239944458,-3.026106834411621,-0.08912062644958496,0.4166470468044281,2.227055549621582
44.85,-8.46463680267334,2.829749584197998,-1.3794103860855103,0.036084771156311035,1.0326948165893555,3.3500404357910156
44.9,-8.538593292236328,1.9798057079315186,2.2192633152008057,-0.1282482147216797,1.8841243982315063,3.377279758453369
44.95,0.14735889434814453,-1.1044520139694214,6.180030822753906,1.281408429145813,2.5844199657440186,1.7271287441253662
45.0,-0.4245014190673828,-0.904364287853241,9.004740715026855,0.30336618423461914,4.211862087249756,0.6840034127235413
45.05,-1.6903355121612549,-0.7619149684906006,6.120445728302002,-0.23880958557128906,3.337064743041992,1.1138302087783813
45.1,1.4883110523223877,-1.607664942741394,8.654252052307129,0.3058476746082306,2.501477003097534,-1.184539556503296
45.15,5.823381423950195,1.1833480596542358,10.11217212677002,-0.8149091005325317,3.790065288543701,-1.3362758159637451
45.2,9.600320816040039,3.8258631229400635,3.2981717586517334,-1.0336482524871826,5.644312858581543,0.054424948990345
45.25,5.916194915771484,4.272411823272705,0.5573506355285645,-0.3814646005630493,5.718272686004639,0.5246152877807617
45.3,8.635756492614746,1.877903699874878,-2.104853868484497,-1.1237105131149292,3.817690849304199,-1.076297640800476
45.35,7.485992908477783,0.9992623925209045,-5.274064540863037,-1.8285133838653564,3.177244186401367,-0.6722522974014282
45.4,4.5439772605896,-2.593357801437378,-7.600584030151367,-2.021756649017334,2.916212797164917,0.0413166843354702
45.45,2.551292657852173,-4.84997034072876,-7.607856273651123,-2.5499582290649414,1.8859361410140991,1.0582979917526245
45.5,1.046050786972046,-4.533585548400879,-7.464603900909424,-3.149623155593872,0.9251616597175598,2.2054734230041504
45.55,-4.533531188964844,-3.691869020462036,-6.549976348876953,-3.296888828277588,0.2851840555667877,2.7431421279907227
45.6,-5.498488903045654,-6.354668617248535,-6.472912311553955,-2.8109540939331055,-3.2330026626586914,3.274628162384033
45.65,2.4711270332336426,0.7915725708007812,-0.900794506072998,0.13135910034179688,-7.719500541687012,3.134800434112549
45.7,20.373741149902344,19.354368209838867,22.123729705810547,2.1266281604766846,-4.079502105712891,0.31016433238983154
45.75,-30.81950569152832,-16.43048858642578,-14.5536470413208,-2.1455843448638916,9.473326683044434,-1.2163811922073364
45.8,3.570873737335205,2.2182791233062744,3.3603012561798096,2.3970468044281006,-2.881211519241333,0.433526873588562
45.85,-6.313029766082764,-2.064375400543213,-2.061368227005005,0.4897584915161133,2.606802463531494,-0.166598379611969
45.9,1.6575350761413574,1.1551436185836792,-3.2834506034851074,1.1901309490203857,0.31870850920677185,-0.13307593762874603
45.95,1.4618562459945679,0.8698082566261292,-0.6997846961021423,0.6681039929389954,-0.07813405990600586,-0.32104235887527466
46.0,-3.1404037475585938,-0.9089536666870117,0.0795101597905159,-0.20616689324378967,1.9268367290496826,-0.018191244453191757
46.05,0.6489869356155396,0.6616897583007812,-0.20855800807476044,0.06858962029218674,0.2898048162460327,0.03270677849650383
46.1,-0.6373183131217957,1.3633614778518677,-0.007381983567029238,0.1789829283952713,0.6916506886482239,0.16732722520828247
46.15,-0.2932834029197693,0.6391382813453674,-0.7975304126739502,0.022123679518699646,0.47774702310562134,0.23120281100273132
46.2,-1.5740647315979004,-0.393058717250824,1.0877912044525146,-0.16544140875339508,0.604621171951294,0.279163122177124
46.25,-0.1197211965918541,0.12938502430915833,0.34533941745758057,0.2428789734840393,-0.693082332611084,-0.01995888724923134
46.3,-1.0743879079818726,0.3501778244972229,-0.11399481445550919,0.35751450061798096,-0.976067304611206,-0.10252252221107483
46.35,1.25026273727417,1.1573009490966797,-0.4507209062576294,0.34436777234077454,-1.3759838342666626,-0.23962315917015076
46.4,-0.327098548412323,0.2032948136329651,0.28268447518348694,0.04543443024158478,-1.1474812030792236,-0.3553048074245453
46.45,-0.029163062572479248,-0.1393270045518875,1.1620590686798096,0.2756649851799011,-1.7092794179916382,-0.49924764037132263
46.5,0.31022390723228455,0.15029625594615936,0.8158085346221924,0.5089436173439026,-2.0429837703704834,-0.5488982796669006
46.55,0.6511087417602539,0.5123023986816406,-0.4588383436203003,0.4225189983844757,-1.565704584121704,-0.45448946952819824
46.6,1.5669362545013428,-0.5514020919799805,2.616060495376587,0.2168596088886261,-1.0539921522140503,-0.3603076934814453
46.65,-1.0545637607574463,-2.392150402069092,2.9058456420898438,-0.01045626774430275,0.42040446400642395,0.10716823488473892
46.7,-4.079452037811279,-0.3901938498020172,0.13073691725730896,0.5795276165008545,0.6190216541290283,0.5626435875892639
46.75,0.5361897945404053,0.2721996307373047,-0.25209203362464905,1.1140631437301636,-0.9382688999176025,0.4558528661727905
46.8,0.27000710368156433,0.6718435883522034,-0.2848438620567322,0.630801796913147,-0.1475680023431778,0.5941493511199951
46.85,0.4960646629333496,2.137594699859619,5.388062953948975,0.7440778613090515,-0.007375353015959263,0.6270532011985779
46.9,-4.10771369934082,-0.4348524510860443,0.9375288486480713,1.1348991394042969,0.6280924081802368,0.9743430018424988
46.95,-5.865357875823975,-0.37796005606651306,-0.2938120663166046,1.803201675415039,-0.9905921220779419,0.9498240947723389
47.0,-8.150528907775879,0.2659457325935364,-0.9951534271240234,2.54542875289917,-1.7096160650253296,0.7450300455093384
47.05,-3.4001193046569824,1.6698365211486816,1.6318721771240234,3.0792932510375977,-2.7328906059265137,0.2916679084300995
47.1,1.1316814422607422,0.6353943943977356,6.026193618774414,2.4450740814208984,-1.9359301328659058,-0.2549324035644531
47.15,0.3352963924407959,-0.6522300839424133,5.035381317138672,0.966500997543335,0.06221548840403557,0.2453676462173462
47.2,1.3999866247177124,0.05442729964852333,4.344949722290039,-0.0671621561050415,1.3242753744125366,-0.6649203896522522
47.25,3.1013967990875244,1.2689640522003174,4.284011363983154,-0.8404175043106079,2.5431549549102783,-1.2432857751846313
47.3,8.322227478027344,2.6020278930664062,0.06358925253152847,-1.156261920928955,3.4799675941467285,-1.175187587738037
47.35,4.489308834075928,2.1397876739501953,-1.7986762523651123,-0.7398093938827515,4.141084671020508,-0.21210089325904846
