Time [s],Acc_x [m/s^2],Acc_y [m/s^2],Acc_z [m/s^2],Gyro_x [1/s],Gyro_y [1/s],Gyro_z [1/s]
0.0,-0.13515238463878632,0.359068900346756,-0.12385477125644684,-0.0032850545831024647,0.030349453911185265,0.010026225820183754
0.05,-0.01420651562511921,-0.005744928494095802,0.05117974430322647,-0.05151456966996193,-0.009805974550545216,-0.006705251056700945
0.1,-0.1459609866142273,-0.4234181046485901,0.09063848853111267,-0.0755205824971199,-0.00412518298253417,-0.01034018024802208
0.15,-0.29488447308540344,0.1934252381324768,0.19493615627288818,0.05211491510272026,-0.03383215144276619,0.015594834461808205
0.2,-0.12818561494350433,0.2679167091846466,-0.13258934020996094,0.04134359583258629,-0.04322073236107826,0.023474598303437233
0.25,0.001813830342143774,0.1207275539636612,0.028412090614438057,0.06109492480754852,-0.05874831601977348,-0.0016236291266977787
0.3,-0.014138481579720974,0.10176756232976913,0.05279923975467682,0.010981345549225807,-0.026674611493945122,-0.0187997967004776
0.35,-0.18362388014793396,0.15018275380134583,0.11551602184772491,-0.044917602092027664,0.007122702430933714,-0.019419584423303604
0.4,-0.10495172441005707,0.08441827446222305,-0.24204914271831512,-0.02874702215194702,-0.047102827578783035,0.021833468228578568
0.45,-0.07848503440618515,0.1861601024866104,-0.022244125604629517,0.017829202115535736,-0.06438527256250381,0.01988660916686058
0.5,-0.22315101325511932,0.033449191600084305,0.08341066539287567,-0.08563949912786484,-0.0839887484908104,-0.012815148569643497
0.55,-0.35055288672447205,-0.4225245416164398,-0.21900035440921783,-0.11241704225540161,-0.07925485819578171,-0.019170550629496574
0.6,-0.42353710532188416,0.06086637079715729,0.008201174437999725,-0.03431272506713867,-0.09740027040243149,-0.032118767499923706
0.65,0.39702069759368896,0.40536409616470337,-0.06858789175748825,0.05049071088433266,-0.1890539973974228,0.001434926176443696
0.7,0.5707293748855591,0.1026744544506073,-0.29715481400489807,0.06411848962306976,-0.12937171757221222,0.03661349415779114
0.75,0.2237635999917984,0.3285417854785919,-0.06531355530023575,0.04650362953543663,0.006630821619182825,0.018028918653726578
0.8,0.1553325355052948,0.11610128730535507,0.0749044343829155,-0.08463316410779953,0.09320151805877686,-0.021138399839401245
0.85,0.20582406222820282,-0.34525203704833984,0.39335256814956665,-0.12365282326936722,0.15172871947288513,-0.007922754622995853
0.9,-0.47371283173561096,0.021739982068538666,0.11416324228048325,-0.06175963953137398,0.2836686372756958,-0.03031923994421959
0.95,-0.36690816283226013,0.11042505502700806,0.3593233823776245,0.0397610142827034,0.20660606026649475,-0.030342452228069305
1.0,-0.28936150670051575,0.26773929595947266,-0.18262170255184174,0.03763222694396973,0.15893708169460297,-0.0799422338604927
1.05,-0.21054035425186157,-0.5422974228858948,-0.1982053965330124,-0.0187252014875412,0.01589118503034115,-0.027762722223997116
1.1,-0.19686543941497803,-0.13799288868904114,-0.20393963158130646,-0.03769487887620926,-0.07583935558795929,-0.0496857576072216
1.15,-0.2800145149230957,0.007660923525691032,0.4457734525203705,-0.15331095457077026,-0.10665120929479599,-0.009808228351175785
1.2,-0.6160342693328857,0.17481619119644165,0.28970205783843994,0.0726703479886055,-0.1935589611530304,0.11302001774311066
1.25,0.26060715317726135,0.04231356456875801,-0.08598483353853226,0.1063750758767128,-0.3143908977508545,-0.001908331410959363
1.3,0.4843827188014984,0.40226465463638306,0.12661541998386383,0.13478682935237885,-0.18934862315654755,-0.05352867767214775
1.35,0.29519206285476685,0.18221190571784973,0.12306201457977295,0.1227041706442833,-0.0650831088423729,0.0017391812289133668
1.4,0.29550373554229736,-0.05585480108857155,0.07273396104574203,0.09584078937768936,0.015070535242557526,0.015766356140375137
1.45,0.09321587532758713,0.3061370849609375,-0.15378792583942413,0.06663919985294342,0.09907318651676178,0.01129980944097042
1.5,-0.466653972864151,0.176483154296875,-0.18639853596687317,-0.031107759103178978,0.08372130244970322,0.002502731280401349
1.55,-0.42942821979522705,0.25720885396003723,-0.11821980774402618,-0.07637874037027359,-0.010634562000632286,0.019699210301041603
1.6,0.09570082277059555,0.22257713973522186,0.08617351949214935,-0.0472978912293911,-0.16873137652873993,0.02461901493370533
1.65,-0.0313611775636673,-0.15984342992305756,0.24078115820884705,-0.09353279322385788,-0.09326618909835815,0.03964177891612053
1.7,-0.018979517742991447,0.17988303303718567,0.1336786448955536,0.002733943983912468,-0.036944273859262466,0.06532590091228485
1.75,-0.016920778900384903,0.278960257768631,-0.1134786531329155,-0.04475167393684387,-0.061391234397888184,0.08032549917697906
1.8,0.09558290243148804,0.031365375965833664,-0.18587209284305573,-0.04137876629829407,-0.029848555102944374,0.043856777250766754
1.85,0.07286673039197922,-0.0786142498254776,-0.05010754242539406,-0.021570060402154922,0.025209588930010796,-0.020677585154771805
1.9,-0.024570316076278687,-0.06358334422111511,0.326515793800354,-0.008316287770867348,0.013044064864516258,-0.004501220770180225
1.95,-0.10838516801595688,0.18376831710338593,0.21588212251663208,0.08045525848865509,0.05533985048532486,-0.004798412322998047
2.0,-0.11621718108654022,0.30462461709976196,0.1585622876882553,0.03166649490594864,0.03529219329357147,-0.017747540026903152
2.05,0.2354821115732193,0.007827751338481903,-0.0425192154943943,0.004648012109100819,-0.00640529952943325,-0.019815796986222267
2.1,0.0648111030459404,-0.10513879358768463,0.005784634966403246,0.0752987191081047,0.039082158356904984,0.0029965792782604694
2.15,-0.8100029826164246,0.36782553791999817,-0.13629944622516632,0.15102075040340424,0.09707708656787872,0.029983237385749817
2.2,-0.5259168744087219,0.06129074469208717,-0.1017165556550026,0.10534950345754623,0.04968913644552231,-0.011112406849861145
2.25,0.48055437207221985,-0.02937602438032627,0.13528940081596375,0.11824170500040054,-0.06845200806856155,-0.05663572996854782
2.3,0.7174990773200989,-0.17987164855003357,-0.5319149494171143,-0.028919173404574394,-0.053717732429504395,-0.02465597540140152
2.35,-0.26596924662590027,1.241577386856079,0.5446314215660095,0.07468800991773605,-0.032477397471666336,0.07726512104272842
2.4,-0.0385952964425087,-0.06567103415727615,-0.5158660411834717,-0.3419363796710968,0.12282392382621765,-0.028454147279262543
2.45,-0.0868682861328125,0.09708978235721588,0.013993714936077595,-0.14412327110767365,0.07197632640600204,-0.02759307622909546
2.5,-0.4571649730205536,0.5086612701416016,-0.3905349671840668,-0.2649935483932495,0.05760394409298897,0.0004973331233486533
2.55,0.13591964542865753,0.5089902877807617,-0.291779488325119,-0.23665751516819,0.027594707906246185,-0.0546393059194088
2.6,0.2559826374053955,-0.22330769896507263,-0.48463380336761475,-0.31360578536987305,-0.03201751038432121,-0.0010814369888976216
2.65,-0.297404944896698,-0.9180290102958679,-0.5340719223022461,-0.37708014249801636,-0.10302892327308655,0.02504762075841427
2.7,-0.3257647156715393,0.14499574899673462,0.3645453155040741,-0.1332533061504364,-0.12299521267414093,-0.03979730233550072
2.75,0.2204604297876358,-0.4716329872608185,0.3626415431499481,-0.16962295770645142,-0.10108279436826706,-0.18271732330322266
2.8,0.09811518341302872,0.20605571568012238,0.448271244764328,-0.0693085566163063,-0.19211876392364502,0.04532490670681
2.85,0.048859529197216034,0.15658384561538696,0.39134830236434937,-0.023568129166960716,-0.07205341756343842,0.21404783427715302
2.9,-0.13401935994625092,0.07828523963689804,0.09623710066080093,0.009379818104207516,0.07403049618005753,0.07430373132228851
2.95,-0.2376740574836731,-0.13801676034927368,-0.34892410039901733,-0.12289859354496002,0.04774342477321625,-0.11468036472797394
3.0,-0.13319413363933563,0.26682859659194946,0.23734621703624725,0.005821095313876867,-0.11203456670045853,0.0463811494410038
3.05,0.8543384075164795,-0.18489743769168854,0.13263462483882904,0.12610748410224915,-0.11986914277076721,0.10236039757728577
3.1,0.504218578338623,-0.16037940979003906,0.19272515177726746,0.10938121378421783,0.10161315649747849,-0.10234598070383072
3.15,0.009566307067871094,0.15634730458259583,0.17304594814777374,0.08830839395523071,0.2363574355840683,-0.1685292273759842
3.2,0.061214931309223175,0.23975467681884766,-0.20736756920814514,0.17473776638507843,0.1877952218055725,-0.11268550157546997
3.25,-0.1751251220703125,-0.32267287373542786,-0.14561694860458374,0.15848283469676971,0.15219104290008545,-0.07191154360771179
3.3,-0.2546793818473816,-0.37070655822753906,0.22149698436260223,0.19519349932670593,0.10729629546403885,-0.04014774039387703
3.35,-0.4015270471572876,0.04027082398533821,0.06513147801160812,0.3252738118171692,0.13892661035060883,-0.0029527863953262568
3.4,-0.2260218858718872,0.8358156085014343,0.24224525690078735,0.4346148371696472,0.13489791750907898,0.05017707124352455
3.45,0.16929225623607635,0.3104419708251953,-0.24357356131076813,0.35598623752593994,0.178263321518898,0.0580771267414093
3.5,0.1859859973192215,-0.40598684549331665,-0.0731787234544754,0.4250061810016632,0.3026413917541504,0.06915140151977539
3.55,-0.22469468414783478,-0.12476921826601028,0.03325389325618744,0.36833542585372925,0.319774866104126,0.07203076034784317
3.6,-0.6210123300552368,0.013892198912799358,0.11767199635505676,0.2129957526922226,0.35292211174964905,0.06624294817447662
3.65,-0.888977587223053,0.7812063694000244,0.7230111360549927,-0.15827509760856628,0.395506352186203,-0.05496009811758995
3.7,-1.2423630952835083,1.4232228994369507,1.4789694547653198,-0.4489786624908447,0.32536956667900085,-0.1807105392217636
3.75,0.659986138343811,-0.28843122720718384,-0.242404043674469,-0.575789213180542,-0.017795341089367867,0.01682688109576702
3.8,0.977069616317749,0.5777390003204346,1.8523513078689575,0.1923845261335373,0.2661741077899933,0.11325543373823166
3.85,0.8177576065063477,1.5712910890579224,-0.5110510587692261,0.15495926141738892,1.005763053894043,0.019040187820792198
3.9,1.5499051809310913,-1.8607929944992065,-1.1553148031234741,-0.156250461935997,1.1061038970947266,0.009045638144016266
3.95,0.9273476600646973,-1.6992868185043335,-1.3211724758148193,0.33588796854019165,1.38880455493927,0.33703070878982544
4.0,-0.39470750093460083,0.3776978850364685,-1.17772376537323,0.8678112626075745,1.7145485877990723,0.10584915429353714
4.05,0.20797616243362427,-0.15662585198879242,-0.721155047416687,0.4430130422115326,1.8145917654037476,-0.12441849708557129
4.1,1.092025637626648,1.1485919952392578,-1.0523511171340942,0.38124939799308777,1.9270538091659546,-0.0793423280119896
4.15,0.5777287483215332,0.7674827575683594,-1.1203691959381104,0.20888331532478333,2.0964467525482178,0.32154378294944763
4.2,-0.39160072803497314,0.6206665635108948,-0.0500088594853878,0.2965388000011444,2.113114595413208,0.182102769613266
4.25,-0.42798811197280884,0.568436861038208,1.3098832368850708,0.19263918697834015,1.7636972665786743,0.005446197465062141
4.3,0.08809022605419159,-0.4466668963432312,-0.8741182684898376,-0.06630405783653259,1.244293451309204,0.07329686731100082
4.35,0.6455709934234619,0.23222161829471588,-0.031350214034318924,-0.1223825067281723,0.7545720338821411,-0.1027698740363121
4.4,0.9389194250106812,0.6908989548683167,0.002213240135461092,-0.06452100723981857,0.4612720310688019,-0.033916864544153214
4.45,0.7686511278152466,-0.33096039295196533,-0.6411884427070618,-0.3829576373100281,0.40123412013053894,0.25103965401649475
4.5,0.7350016236305237,-0.0248651634901762,0.010665898211300373,-0.4643460810184479,0.16245995461940765,0.19898809492588043
4.55,0.9255074858665466,0.4251136779785156,-0.3676323890686035,-0.4531077742576599,-0.02298498898744583,0.27192389965057373
4.6,0.896000325679779,0.8301411867141724,-0.11397968232631683,-0.3691409230232239,-0.1824398934841156,0.2843564450740814
4.65,-0.18787476420402527,0.0031834167893975973,0.4119119644165039,-0.24231119453907013,-0.19081608951091766,0.24683374166488647
4.7,-0.6217324137687683,-1.1285582780838013,0.22334976494312286,-0.0966143012046814,-0.2713272273540497,0.21058307588100433
4.75,-0.519275426864624,-0.9739170670509338,0.24625664949417114,-0.030497003346681595,-0.5044888257980347,0.11524467170238495
4.8,-0.5945944786071777,-0.03944872319698334,0.09003547579050064,-0.014883258379995823,-0.5899910926818848,0.12808634340763092
4.85,-0.4920858144760132,1.1076565980911255,-0.28728923201560974,0.13863877952098846,-0.5005555748939514,0.07831387221813202
4.9,-0.7459249496459961,0.5308830142021179,0.815157413482666,0.0970221683382988,-0.3434690535068512,0.03478038311004639
4.95,-0.7055990695953369,-0.3413238227367401,0.5262438654899597,0.07312817871570587,-0.39086225628852844,0.0908883735537529
5.0,-0.7397334575653076,-0.622502326965332,0.44010505080223083,0.2276197075843811,-0.39002665877342224,-0.0803043395280838
5.05,-0.7509002685546875,-0.6571168899536133,0.601360023021698,0.23817645013332367,-0.19440732896327972,-0.14654065668582916
5.1,-0.7282280921936035,0.5099002718925476,0.8452745079994202,0.08560805767774582,-0.11643169075250626,-0.18990905582904816
5.15,-0.15946321189403534,0.3864327669143677,0.5081357955932617,-0.082638218998909,-0.11641903221607208,-0.1323005110025406
5.2,0.2417159378528595,0.6836939454078674,0.10141468793153763,-0.10882890224456787,-0.03857429325580597,-0.048432789742946625
5.25,-0.7154687643051147,-0.26502519845962524,-0.25786837935447693,-0.3460187613964081,0.10510353744029999,0.2213420271873474
5.3,-0.2430644929409027,0.8039133548736572,0.8662029504776001,0.13127782940864563,0.14322218298912048,-0.03190072625875473
5.35,-0.18751680850982666,0.3521280586719513,-0.06778466701507568,-0.3799518346786499,0.2641521990299225,0.1646304428577423
5.4,0.08645603060722351,-0.3906574845314026,-0.017771637067198753,-0.6330339312553406,0.2947837710380554,0.40174904465675354
5.45,-0.16383962333202362,0.044640593230724335,0.39665377140045166,-0.2633722424507141,0.38059210777282715,0.24687109887599945
5.5,-0.4207630455493927,0.13476087152957916,-0.07842195779085159,-0.13971255719661713,0.5523162484169006,0.06224292516708374
5.55,-0.5410120487213135,-0.46859651803970337,-0.01585986092686653,-0.0021259356290102005,0.6077775359153748,-0.1747833490371704
5.6,-0.46741417050361633,-1.0362664461135864,-0.03756915032863617,0.10812787711620331,0.6700842976570129,-0.29786041378974915
5.65,0.42184653878211975,-0.31876370310783386,0.5473676323890686,0.3047128915786743,0.5839025378227234,-0.5052459836006165
5.7,0.033090583980083466,0.11674217879772186,0.22591941058635712,0.2536298930644989,0.6573430895805359,-0.39846450090408325
5.75,0.4686918556690216,0.8461716175079346,0.8666630983352661,0.08203526586294174,0.7053223848342896,-0.23461493849754333
5.8,-0.29312941431999207,0.9623529314994812,0.3787616491317749,-0.10150103271007538,0.6978145241737366,0.029010700061917305
5.85,0.12099248170852661,-0.4011164605617523,-0.205227330327034,0.03692692518234253,0.5629714131355286,0.011518755927681923
5.9,0.296018123626709,-1.7118695974349976,-0.6150920391082764,0.1748913824558258,0.6053963303565979,-0.1539919674396515
5.95,0.34643781185150146,-0.4645768702030182,-0.6251882910728455,0.27005887031555176,0.6040499806404114,-0.34703949093818665
6.0,0.8639199733734131,1.5914736986160278,-0.8977938294410706,0.2503456473350525,0.38339871168136597,-0.35080021619796753
6.05,1.3027313947677612,1.3935478925704956,-1.3620874881744385,0.15290479362010956,0.3769468367099762,-0.1708192229270935
6.1,1.5164504051208496,0.6069926619529724,-0.9957913160324097,-0.008520662784576416,0.4576890170574188,-0.03206397220492363
6.15,0.9929510951042175,-0.11664784699678421,-0.799314558506012,-0.1202160120010376,0.4897381663322449,0.15207329392433167
6.2,0.8359313011169434,-0.4577848017215729,-0.5691299438476562,-0.07183049619197845,0.4638443887233734,0.15262939035892487
6.25,0.8949768543243408,-0.29215162992477417,-1.0477104187011719,0.09488611668348312,0.25735142827033997,0.056584879755973816
6.3,0.9486538767814636,-0.23244497179985046,-1.4048571586608887,0.15914428234100342,0.2814103066921234,0.15373899042606354
6.35,0.8611169457435608,0.0421769805252552,-1.7787599563598633,0.23115693032741547,0.28997498750686646,0.1415894478559494
6.4,0.6102526783943176,0.5728902220726013,-0.875252366065979,0.33132994174957275,0.270134836435318,0.1494295597076416
6.45,-0.056961070746183395,-0.3840322494506836,0.6039083003997803,0.22478727996349335,0.44011178612709045,0.2023797184228897
6.5,-0.7440195083618164,-1.5167580842971802,0.6694536209106445,0.039289481937885284,0.5248726606369019,0.1655760258436203
6.55,-0.4119723439216614,0.39246866106987,1.1121832132339478,0.08742496371269226,0.19500426948070526,-0.015447147190570831
6.6,-0.9861819744110107,1.1527855396270752,0.4170539677143097,0.2349885255098343,-0.3016400635242462,0.19834129512310028
6.65,-1.251336932182312,0.9743205308914185,-0.14355480670928955,0.2594327926635742,-0.48773106932640076,0.16107656061649323
6.7,-0.8158131837844849,-0.5967569351196289,0.4384288787841797,0.2180549055337906,-0.21828292310237885,-0.1737910807132721
6.75,-0.8394697904586792,-0.5204066038131714,1.3768203258514404,0.029714364558458328,-0.09932082891464233,-0.3170711398124695
6.8,-0.8409470915794373,0.47762036323547363,1.3374526500701904,-0.07295124977827072,-0.2829034924507141,-0.21661534905433655
6.85,-0.11991342157125473,0.6766320466995239,0.3111337125301361,-0.05705491825938225,-0.41878563165664673,-0.05627511441707611
6.9,-0.3477095663547516,0.4538021683692932,-0.06416484713554382,-0.20255902409553528,-0.17387260496616364,0.20097927749156952
6.95,-0.735537052154541,0.060022395104169846,0.20218095183372498,-0.19522009789943695,-0.03155557066202164,0.40760940313339233
7.0,-0.5846806764602661,-0.20299528539180756,0.32143646478652954,-0.15654169023036957,-0.025791389867663383,0.22557736933231354
7.05,-0.1509028822183609,0.25658512115478516,-0.2564525306224823,-0.18248605728149414,-0.05057694390416145,0.12231934815645218
7.1,-0.7013478875160217,0.2055501788854599,-0.42316022515296936,-0.051944151520729065,-0.23645064234733582,0.15153777599334717
7.15,0.0738472193479538,-0.5156985521316528,-0.5724524259567261,0.16314662992954254,-0.41177883744239807,0.2037246972322464
7.2,-0.10936550050973892,0.14423848688602448,-0.015446866862475872,0.046633556485176086,-0.10929843038320541,0.0386107861995697
7.25,-0.15029054880142212,0.09040544927120209,-0.20429959893226624,-0.048688434064388275,0.003621205687522888,-0.2142050713300705
7.3,-0.04665929451584816,0.3792276382446289,-0.4073391854763031,-0.030613962560892105,-0.008148683235049248,-0.32817116379737854
7.35,0.1722739338874817,0.1062878966331482,-0.579926073551178,0.03717898204922676,-0.361006498336792,-0.05488961935043335
7.4,0.34545740485191345,0.2674866020679474,-0.06430725753307343,0.0845939964056015,-0.2444775104522705,0.01916317082941532
7.45,0.25170862674713135,0.047414783388376236,0.009244328364729881,-0.09791550040245056,0.0832059383392334,-0.09113125503063202
7.5,-0.05929406359791756,0.13614365458488464,-0.3701261878013611,-0.2229236215353012,0.2219828963279724,-0.12603233754634857
7.55,0.010139890015125275,0.5359926819801331,-0.24248014390468597,-0.19432897865772247,-0.039092157036066055,0.03074725717306137
7.6,0.02677273005247116,0.10181426256895065,-0.18672454357147217,0.0283200666308403,-0.3754757344722748,0.20735852420330048
7.65,0.2745945155620575,-0.08801554143428802,0.22090931236743927,-0.015588253736495972,-0.25120362639427185,0.19230036437511444
7.7,0.2775682806968689,-0.21203522384166718,-0.07501117885112762,-0.11278071999549866,0.010469075292348862,-0.08240069448947906
7.75,0.23667173087596893,-0.17394351959228516,0.14326442778110504,-0.14464403688907623,0.2564927041530609,-0.16771450638771057
7.8,0.32027187943458557,0.09394840151071548,0.2517434358596802,-0.13090015947818756,0.3798857629299164,-0.17988385260105133
7.85,0.06145087629556656,0.15096861124038696,0.4026857018470764,-0.1458195596933365,0.38004186749458313,-0.15810491144657135
7.9,0.15615005791187286,0.05231286212801933,0.039664652198553085,-0.24623917043209076,0.32473286986351013,-0.2710934579372406
7.95,0.07343536615371704,0.10286995768547058,-0.3459445834159851,-0.28691256046295166,0.31291118264198303,-0.18684782087802887
8.0,0.03537018224596977,0.031904201954603195,-0.1894969642162323,-0.14563915133476257,0.03790479525923729,0.03759344294667244
8.05,0.23694106936454773,0.15480898320674896,-0.19431845843791962,0.021991997957229614,-0.1627551019191742,0.06796474754810333
8.1,0.019429229199886322,0.1547679603099823,-0.41436323523521423,0.006048576906323433,-0.03920756280422211,0.07368561625480652
8.15,-0.07662662118673325,-0.011605296283960342,-0.28919708728790283,-0.04911328852176666,0.060024961829185486,-0.040684908628463745
8.2,0.11723341792821884,-0.0992460548877716,-0.09774252027273178,-0.08151239156723022,0.04232849180698395,-0.10373847931623459
8.25,0.16791336238384247,-0.06838135421276093,-0.2823137640953064,-0.08229144662618637,0.02201477624475956,-0.059345513582229614
8.3,0.26832157373428345,0.32935044169425964,-0.5242393016815186,-0.03879932686686516,-0.0065086474642157555,-0.08382614701986313
8.35,0.16266174614429474,0.8181048035621643,-0.5528711676597595,-0.051748890429735184,-0.006231729406863451,-0.0559052973985672
8.4,0.21470478177070618,0.05511564388871193,-0.5134221315383911,-0.10590240359306335,-0.14624060690402985,0.10519961267709732
8.45,0.12502934038639069,-0.02323531173169613,0.10638725757598877,-0.027968449518084526,-0.24011443555355072,0.1574598252773285
8.5,0.01018859725445509,0.13009360432624817,0.0875772163271904,0.04824121296405792,-0.17411111295223236,0.06365330517292023
8.55,-0.07911869883537292,-0.23237137496471405,-0.14242631196975708,0.028253154829144478,-0.12603363394737244,-0.013045521453022957
8.6,0.014402922242879868,-0.2712278962135315,-0.2783811688423157,0.04069630429148674,-0.12448839098215103,-0.009843491017818451
8.65,0.12277891486883163,0.010832726955413818,-0.4925873875617981,0.041788093745708466,-0.04270172119140625,0.025743672624230385
8.7,0.39902380108833313,0.30848973989486694,-0.680333137512207,-0.0021782973781228065,0.05633925646543503,-0.07512300461530685
8.75,-0.22660773992538452,0.10199926793575287,-0.30239322781562805,-0.01140846312046051,0.007690309546887875,-0.01602322980761528
8.8,-0.3887636363506317,-0.0721682757139206,0.660205602645874,0.04648146033287048,-0.15733212232589722,0.07586060464382172
8.85,0.06315623223781586,-0.10590840876102448,0.009107451885938644,0.10698772966861725,-0.20115192234516144,0.015142189338803291
8.9,0.161515474319458,0.0745973214507103,-0.33942511677742004,0.13686829805374146,-0.08724440634250641,-0.057157259434461594
8.95,0.24164044857025146,0.19994832575321198,-0.1479169726371765,0.08182348310947418,0.036241721361875534,-0.045202311128377914
9.0,0.23786711692810059,0.3773813247680664,-0.464661180973053,0.03256171569228172,0.11873488128185272,-0.04567906633019447
9.05,0.2233802080154419,0.20345398783683777,-0.5258796215057373,-0.06675592064857483,0.10380683839321136,-0.02395940199494362
9.1,-0.4027833640575409,0.10934359580278397,0.4073968529701233,0.020682668313384056,-0.07642412930727005,0.06120138615369797
9.15,-0.3894261121749878,-0.223569855093956,0.32207393646240234,0.09978387504816055,-0.15899541974067688,0.020617282018065453
9.2,0.12795034050941467,-0.05509760603308678,-0.13089022040367126,0.07764144241809845,-0.1305501013994217,-0.106792151927948
9.25,-0.058325789868831635,0.13385294377803802,-0.20917262136936188,0.07262946665287018,-0.0645173117518425,-0.10585641115903854
9.3,0.281208336353302,0.643834114074707,-0.2982805669307709,0.006221159361302853,-0.0034108441323041916,-0.011558991856873035
9.35,-0.03469139337539673,0.3023204207420349,-0.7613474130630493,-0.14728446304798126,0.05334058776497841,0.005026592873036861
9.4,-0.42469099164009094,-0.2066345065832138,0.2950330078601837,-0.13062477111816406,-0.05081233009696007,0.0673903301358223
9.45,0.07007808238267899,-0.4636268615722656,0.525665819644928,0.01479944959282875,-0.18758079409599304,0.0962374284863472
9.5,0.37881290912628174,0.07770345360040665,-0.22350084781646729,0.03801313415169716,-0.20208081603050232,-0.04093453288078308
9.55,0.03783959150314331,0.46085643768310547,-0.5239410400390625,0.03867298737168312,-0.10341870039701462,-0.022536996752023697
9.6,0.24674201011657715,0.7752905488014221,-0.48938748240470886,-0.03647048771381378,0.0007796243880875409,-0.05839450657367706
9.65,-0.7095649242401123,-0.30010128021240234,0.2810767590999603,-0.138954296708107,-0.01575087197124958,0.07207323610782623
9.7,-0.37904617190361023,-0.2154034823179245,0.860980212688446,0.04261019825935364,-0.2715986967086792,0.06465867906808853
9.75,0.29484280943870544,-0.0437975749373436,-0.6261103749275208,0.11740874499082565,-0.40658038854599,-0.021928511559963226
9.8,0.26022982597351074,0.6023873686790466,-1.0540040731430054,0.09099505841732025,-0.2201361060142517,-0.06389249861240387
9.85,-0.03916875272989273,0.3958588242530823,-0.1294836401939392,-0.03837936744093895,-0.007888281717896461,-0.043723709881305695
9.9,-0.4161486327648163,-0.35251516103744507,0.785092294216156,-0.08543473482131958,-0.05126892402768135,0.13800175487995148
9.95,0.053245190531015396,-0.18989664316177368,-0.29881346225738525,0.1090472936630249,-0.28858816623687744,0.05514032766222954
10.0,-0.05225744843482971,0.1079624742269516,-1.2504992485046387,0.10911475867033005,-0.20319615304470062,0.011951185762882233
10.05,0.25812792778015137,0.5530538558959961,-0.5123788714408875,0.0472063384950161,0.026348860934376717,-0.03810359910130501
10.1,-0.06478699296712875,-0.19144149124622345,0.6247952580451965,-0.03583009913563728,0.09627330303192139,0.02044494077563286
10.15,-0.07664789259433746,-0.3535575866699219,0.14147798717021942,0.06005890667438507,-0.037816405296325684,0.0749792754650116
10.2,0.280245304107666,0.09221066534519196,-0.8785020112991333,0.14016571640968323,-0.07808535546064377,-0.06247130036354065
10.25,0.4990173280239105,0.975339949131012,-0.47039729356765747,0.042127542197704315,0.15529656410217285,-0.10162719339132309
10.3,-0.1553846150636673,-0.018217995762825012,0.3674919605255127,-0.14920590817928314,0.3320330083370209,0.006955281365662813
10.35,-0.12507666647434235,-0.08652869611978531,0.7294349670410156,-0.07789403945207596,0.13516558706760406,0.04742643982172012
10.4,-0.08555276691913605,0.42527011036872864,-0.3111395537853241,-0.013402119278907776,-0.0598086453974247,0.0389651283621788
10.45,0.2903512120246887,-0.8065245747566223,-1.2734092473983765,-0.10210194438695908,0.07868259400129318,0.05461658537387848
10.5,-0.3575729429721832,-0.22816261649131775,1.4609326124191284,-0.10481110215187073,0.46319815516471863,-0.14744573831558228
10.55,-0.6925832033157349,0.1589520424604416,2.194681406021118,-0.2573879361152649,0.6609196066856384,-0.22911609709262848
10.6,-0.04227212071418762,-0.16640660166740417,0.31191951036453247,-0.3038838505744934,0.4137897491455078,-0.4589225947856903
10.65,-0.13774068653583527,-0.018300075083971024,-0.1664130538702011,-0.20600950717926025,0.3459025025367737,-0.37781134247779846
10.7,-0.07696337252855301,-0.25912100076675415,-0.34056660532951355,-0.10964754223823547,0.36632734537124634,-0.1735641360282898
10.75,0.16224583983421326,-0.34859755635261536,-0.05154802277684212,-0.034408088773489,0.22257167100906372,-0.1108805239200592
10.8,0.00416719913482666,0.6743021011352539,-0.3329084515571594,0.002474672393873334,-0.01049062144011259,-0.019996358081698418
10.85,-0.03385363519191742,0.19106188416481018,-0.9916240572929382,0.09366071224212646,-0.16364316642284393,0.07502294331789017
10.9,0.6602663397789001,0.8854827880859375,-0.9285919070243835,0.21673858165740967,-0.06411683559417725,-0.0661204531788826
10.95,0.918914794921875,0.47348490357398987,-1.1521490812301636,0.025559697300195694,0.3011705279350281,-0.12122981995344162
11.0,0.4212232232093811,-0.1506921499967575,-1.1741394996643066,-0.12353964895009995,0.4943868815898895,-0.014847628772258759
11.05,0.38318827748298645,0.7276859879493713,0.19376280903816223,-0.06594530493021011,0.2946034073829651,-0.051823314279317856
11.1,0.13907791674137115,0.5103093385696411,0.45081639289855957,-0.01327614113688469,0.14219814538955688,0.14042000472545624
11.15,0.16803309321403503,0.021595943719148636,-0.0893709808588028,-0.03208174929022789,0.20707044005393982,0.18130230903625488
11.2,0.021752094849944115,-0.3609638512134552,0.0033259205520153046,-0.031138047575950623,0.28394201397895813,0.06014695391058922
11.25,-0.45366886258125305,0.08390811085700989,0.14808860421180725,0.015585822984576225,0.248861163854599,0.0074122268706560135
11.3,-0.21255332231521606,0.39292052388191223,-0.33539867401123047,0.10766512155532837,0.0957934632897377,0.06333108246326447
11.35,0.059119876474142075,0.5685853958129883,-0.5963609218597412,0.08946190029382706,0.16585826873779297,0.095148466527462
11.4,0.6053142547607422,0.4203023612499237,-0.7568024396896362,-0.263602077960968,0.39630845189094543,-0.033126115798950195
11.45,-0.6714771389961243,-0.5316543579101562,0.5614724159240723,-0.43390190601348877,0.5528663396835327,0.14251531660556793
11.5,-1.3944900035858154,-1.177414894104004,0.919817328453064,-0.20142973959445953,0.14318935573101044,0.5317116975784302
11.55,-0.4023970365524292,-0.6401222944259644,1.312207579612732,0.2793092429637909,-0.7754354476928711,0.3110301196575165
11.6,-0.9679498672485352,-0.13256829977035522,0.5563353300094604,0.662959635257721,-0.8886294960975647,0.1951303780078888
11.65,-0.4924616515636444,1.1500245332717896,-0.3071555495262146,0.5852068662643433,-0.5179417729377747,0.002545667579397559
11.7,0.37327343225479126,0.4443272352218628,-1.5401631593704224,0.021082505583763123,-0.11234592646360397,-0.23982742428779602
11.75,0.1578853726387024,0.5292350053787231,0.5182557106018066,-0.33970895409584045,0.14937597513198853,-0.44473689794540405
11.8,-1.00080406665802,-1.000457763671875,1.2863751649856567,-0.2005130499601364,-0.1978098601102829,0.31293749809265137
11.85,-0.9408859610557556,0.07927989959716797,-0.19320370256900787,0.17427973449230194,-0.9082081913948059,0.411703497171402
11.9,-0.2268298715353012,0.5270376205444336,-0.2859034240245819,0.18326911330223083,-1.1269830465316772,0.557712197303772
11.95,0.014060240238904953,0.4292612075805664,-0.4833748936653137,0.13999199867248535,-0.7441195249557495,0.4787905216217041
12.0,-0.27581894397735596,-0.016578558832406998,0.9506155848503113,-0.035711415112018585,-0.319575697183609,0.0935523509979248
12.05,-1.202020287513733,0.8498404622077942,1.2604619264602661,-0.15250489115715027,-0.4078572392463684,0.07807622104883194
12.1,-1.044033408164978,-0.4039422273635864,-0.730071485042572,-0.3036884367465973,-0.9335917830467224,0.4091150164604187
12.15,-0.26321345567703247,-0.5889884829521179,-1.085771083831787,0.08490186929702759,-1.3771909475326538,0.5836756825447083
12.2,-0.041554391384124756,0.0887594148516655,-0.15260547399520874,0.09832970052957535,-1.1556754112243652,0.19417443871498108
12.25,1.1414450407028198,0.16161806881427765,-1.3213478326797485,0.03203584998846054,-1.03569757938385,0.053557250648736954
12.3,1.3840177059173584,0.5510051250457764,-2.193824052810669,0.14030320942401886,-0.8128878474235535,0.026254266500473022
12.35,1.2132229804992676,-0.5320112705230713,-1.5996639728546143,0.26961445808410645,-0.6744214296340942,-0.12936237454414368
12.4,0.6735261678695679,-0.169965922832489,-1.2535954713821411,0.1940416693687439,-0.6104360818862915,-0.15160797536373138
12.45,1.098183274269104,1.514389991760254,-1.5542964935302734,-0.06082562357187271,-0.6168674230575562,-0.038389138877391815
12.5,2.2314958572387695,1.1718500852584839,-2.057206153869629,-0.35116517543792725,-0.3832143545150757,-0.07832640409469604
12.55,2.3682868480682373,-1.2575496435165405,-1.665425181388855,-0.48708289861679077,-0.09151222556829453,-0.13227660953998566
12.6,-0.00208171084523201,0.035164881497621536,0.3842235207557678,-0.1922171711921692,-0.12209407985210419,-0.09813070297241211
12.65,-0.6888624429702759,-0.20968535542488098,-0.033569205552339554,-0.13540533185005188,-0.35597938299179077,0.307498037815094
12.7,0.5598827004432678,-0.5237648487091064,-1.6670459508895874,-0.07077664136886597,-0.5261929035186768,0.41287854313850403
12.75,0.40051770210266113,0.4356441795825958,-0.2029990702867508,-0.17430461943149567,-0.3128207325935364,0.15714552998542786
12.8,-0.5379472970962524,0.07731828838586807,0.6699672341346741,-0.13936498761177063,-0.04483038932085037,0.148472398519516
12.85,0.8477292656898499,0.21405309438705444,-0.6934747695922852,-0.010921267792582512,-0.2253156155347824,0.11084681004285812
12.9,0.13923245668411255,0.033878352493047714,0.21628431975841522,-0.06238589435815811,0.17770835757255554,0.08264195173978806
12.95,-1.2355717420578003,-0.10801292955875397,1.869727373123169,0.06762822717428207,0.43174830079078674,-0.23001845180988312
13.0,-1.77206552028656,1.150122046470642,2.0925209522247314,0.2096158117055893,0.3902202546596527,-0.21816423535346985
13.05,-1.189785361289978,0.6100265383720398,0.6564835906028748,-0.15983381867408752,-0.030588585883378983,0.3617793321609497
13.1,0.6402400732040405,0.37362200021743774,0.34245389699935913,0.07698085904121399,-0.12682558596134186,0.3579460680484772
13.15,-0.10981251299381256,-0.5572413206100464,1.3874417543411255,0.275320827960968,0.09490552544593811,0.06708325445652008
13.2,-0.7546994686126709,-0.2226713001728058,1.958482265472412,0.18536879122257233,-0.009298108518123627,-0.0009853329975157976
13.25,-0.16417545080184937,-0.3084792196750641,0.9877659678459167,-0.08228718489408493,-0.23622828722000122,-0.010494492948055267
13.3,0.0006292238831520081,0.3975936472415924,0.7380569577217102,0.03242877125740051,-0.2198985069990158,-0.1340102255344391
13.35,0.23502346873283386,-0.6808947920799255,0.8467098474502563,-0.0035690017975866795,-0.077171191573143,-0.04318586736917496
13.4,-0.13688017427921295,0.3237420320510864,0.8207148313522339,0.15724864602088928,0.04025912657380104,-0.16294345259666443
13.45,-0.13062119483947754,1.1327364444732666,0.7758572697639465,0.20114248991012573,0.07672042399644852,-0.1453414112329483
13.5,0.17407743632793427,0.4625331163406372,0.45648646354675293,0.2366388440132141,0.04919619485735893,-0.13126060366630554
13.55,0.06697864830493927,-0.16297046840190887,0.7603403925895691,0.20920315384864807,0.12638543546199799,-0.03998293727636337
13.6,-0.04779559746384621,-0.05874340608716011,0.6555442214012146,0.1207728385925293,0.3209933936595917,-0.16965016722679138
13.65,-0.3397422432899475,0.2528725266456604,0.25352880358695984,0.08652268350124359,0.43525826930999756,-0.17398174107074738
13.7,-0.5132291913032532,0.08929736912250519,0.4854923188686371,0.049560584127902985,0.5160105228424072,-0.16780368983745575
13.75,-0.2733768820762634,0.09273351728916168,1.0237704515457153,-0.06980767846107483,0.732366681098938,-0.20135168731212616
13.8,-0.23139572143554688,0.8037273287773132,0.6011759638786316,-0.24205562472343445,0.9995826482772827,-0.28832194209098816
13.85,0.14411106705665588,0.9516631364822388,0.20536741614341736,-0.3212597072124481,1.2110649347305298,-0.28757885098457336
13.9,0.8449267745018005,0.9967775344848633,-0.6774216890335083,-0.37461498379707336,1.1841431856155396,-0.15895317494869232
13.95,0.9515060186386108,0.9820975065231323,-1.732627272605896,-0.25399768352508545,1.212738037109375,-0.11640086024999619
14.0,0.20942583680152893,-0.34740957617759705,-2.4130423069000244,-0.13774435222148895,1.4227190017700195,-0.0027522556483745575
14.05,-0.2982698678970337,-0.8901894688606262,-1.6428418159484863,-0.16333909332752228,1.6557841300964355,0.014193374663591385
14.1,-0.8938753604888916,-1.444525957107544,-0.6759980320930481,-0.1548861861228943,1.8651008605957031,-0.1172473207116127
14.15,-0.20870426297187805,-0.4413280785083771,0.16183707118034363,-0.15120422840118408,1.8216111660003662,-0.41882702708244324
14.2,-0.4177250564098358,0.10837462544441223,0.04875622317194939,-0.10749341547489166,1.471453309059143,-0.3557044565677643
14.25,0.507300078868866,0.43727970123291016,-0.34170520305633545,-0.037484005093574524,1.1227916479110718,-0.25291258096694946
14.3,0.20620118081569672,0.019473958760499954,-0.5820164084434509,-0.09062372893095016,0.8664488792419434,-0.052393585443496704
14.35,-0.1090255156159401,-0.2963448166847229,-0.24503672122955322,-0.03054613061249256,0.5624485611915588,0.09145905822515488
14.4,0.22821445763111115,0.11843014508485794,-0.011735695414245129,0.0016482872888445854,0.2814899682998657,0.052170589566230774
14.45,-0.07496839761734009,0.26745888590812683,-0.5261630415916443,0.011420266702771187,0.031470634043216705,0.17596346139907837
14.5,-0.08458496630191803,0.1475839465856552,-0.22499734163284302,-0.037667177617549896,-0.0438632108271122,0.17471599578857422
14.55,-0.021903852000832558,0.04015827178955078,-0.03290426358580589,-0.0540345162153244,-0.14352580904960632,0.0855279192328453
14.6,0.07375100255012512,0.5307979583740234,-0.30072641372680664,-0.08263963460922241,-0.15387526154518127,0.004759322386234999
14.65,0.014775194227695465,-0.1641617715358734,-0.6648009419441223,-0.11437381058931351,-0.19723652303218842,0.06972052901983261
14.7,0.10824327915906906,0.20850655436515808,-0.46082448959350586,0.019236888736486435,-0.3240545094013214,0.11429084092378616
14.75,0.11697715520858765,0.4100837707519531,-0.5423061847686768,0.07471108436584473,-0.26111307740211487,0.20025329291820526
14.8,0.17752471566200256,0.1689547598361969,-0.8099256157875061,0.05073655769228935,-0.18650245666503906,0.13052958250045776
14.85,0.30830758810043335,0.25200071930885315,-0.8818328380584717,0.12128954380750656,-0.15110036730766296,-0.002169629791751504
14.9,0.2674950957298279,0.10602664947509766,-0.08994054794311523,0.13947708904743195,0.027071870863437653,-0.11580431461334229
14.95,0.06225576624274254,-0.03733058273792267,0.41598787903785706,0.021387914195656776,0.17260530591011047,-0.3119322657585144
15.0,-0.055228009819984436,-0.3668384850025177,0.08845215290784836,-4.353374242782593e-05,0.11733679473400116,-0.32459044456481934
15.05,0.1975696086883545,-0.0388670414686203,-0.3062971234321594,-0.004835154861211777,0.17948360741138458,-0.3035644292831421
15.1,-0.23157306015491486,0.1646595150232315,0.014766552485525608,-0.06651357561349869,0.26593440771102905,-0.210725799202919
15.15,-0.6081231832504272,0.12354189902544022,0.36458995938301086,-0.09800494462251663,0.21671542525291443,-0.13109467923641205
15.2,-0.27064529061317444,0.10324101150035858,0.22673214972019196,0.031309936195611954,-0.08034799247980118,-0.011129716411232948
15.25,-0.1619425266981125,-0.0950784981250763,-0.12293841689825058,0.1276049166917801,-0.22411999106407166,0.09179931879043579
15.3,-0.11084948480129242,0.1634531170129776,-0.014288825914263725,0.12639102339744568,-0.18992528319358826,0.06611330062150955
15.35,-0.07874822616577148,0.17821983993053436,0.2723821699619293,-0.0007521822699345648,-0.15769635140895844,0.01051474828273058
15.4,0.10586433112621307,0.13307763636112213,0.03968802094459534,-0.07951515167951584,-0.11139029264450073,0.01538782473653555
15.45,0.151502788066864,-0.041392333805561066,-0.024089494720101357,-0.1073462963104248,-0.09079152345657349,-0.015594635158777237
15.5,0.052249789237976074,-0.06472495198249817,-0.17014619708061218,-0.09639293700456619,-0.09029501676559448,-0.03757254779338837
15.55,-0.050612758845090866,0.10247132182121277,-0.3539906144142151,-0.07232712209224701,-0.11957690119743347,0.024434704333543777
15.6,0.3910863399505615,0.20185375213623047,-0.22627094388008118,-0.07907938957214355,-0.048672664910554886,0.0009148975368589163
15.65,0.14517095685005188,0.052822086960077286,-0.2626989483833313,-0.09600906819105148,0.01819162629544735,-0.022699782624840736
15.7,0.3466927111148834,0.14589403569698334,-0.19612082839012146,-0.09671925753355026,0.054671090096235275,-0.03207811713218689
15.75,0.08393611013889313,0.039244648069143295,-0.03850555419921875,-0.07170286774635315,0.04941179230809212,-0.0291226077824831
15.8,-0.06731045991182327,0.007238387130200863,-0.02269747667014599,-0.03747318312525749,0.0361500009894371,-0.03397795930504799
15.85,0.13858045637607574,0.1754160076379776,0.005149043630808592,-0.01661725342273712,0.0362064503133297,-0.06732778251171112
15.9,-0.20673885941505432,-0.10723021626472473,-0.16885517537593842,-0.027919763699173927,0.07193385064601898,-0.009676501154899597
15.95,-0.1025552749633789,0.10302354395389557,-0.027616141363978386,-0.0017579183913767338,0.018695779144763947,0.04582570865750313
16.0,-0.04478640854358673,0.15221881866455078,-0.1776411533355713,0.03485674783587456,-0.06765477359294891,0.11676430702209473
16.05,0.1350155621767044,0.1783742606639862,-0.4042823612689972,0.014526521787047386,-0.12410638481378555,0.11978131532669067
16.1,0.43145570158958435,-0.3786078095436096,0.049321725964546204,-0.04410158097743988,-0.2094031572341919,0.09528735280036926
16.15,0.6082183718681335,0.6777688264846802,0.6474869847297668,0.0029048817232251167,-0.2601523697376251,-0.03186165168881416
16.2,-0.0189357977360487,0.7855645418167114,-0.19079355895519257,0.005793728865683079,-0.44153934717178345,0.08155649900436401
16.25,-0.14068597555160522,0.47141361236572266,-0.5585429072380066,-0.02526506781578064,-0.4597868025302887,0.05061386898159981
16.3,-0.6858929395675659,-0.07077508419752121,-0.4697810411453247,0.0330156646668911,-0.4885753095149994,0.12113836407661438
16.35,-0.18935620784759521,0.1988973617553711,-0.28841152787208557,0.17926158010959625,-0.36228132247924805,0.1460460126399994
16.4,-0.07608755677938461,0.08820531517267227,-0.25372806191444397,0.05928914248943329,-0.043625280261039734,0.06893075257539749
16.45,-0.03670504316687584,-0.14746570587158203,0.15286202728748322,0.005681587383151054,0.03512122482061386,0.09515782445669174
16.5,0.12708351016044617,-0.03000156208872795,0.7127832174301147,0.053895995020866394,-0.016483530402183533,0.17472843825817108
16.55,-0.051665931940078735,-0.043334927409887314,0.30860111117362976,0.05836471915245056,-0.11596055328845978,0.21816489100456238
16.6,-0.05449230596423149,0.1204662173986435,-0.26924797892570496,0.11344758421182632,-0.14576666057109833,0.08524367958307266
16.65,-0.12587881088256836,-0.06492143869400024,-0.42681169509887695,0.09581258147954941,-0.019718684256076813,-0.052202288061380386
16.7,-0.16542711853981018,-0.13296706974506378,-0.5790382623672485,0.10746552795171738,0.07947514206171036,-0.07689172029495239
16.75,-0.1129787489771843,0.30046743154525757,-0.6688358187675476,0.09706440567970276,0.07001490890979767,-0.06015647202730179
16.8,-0.10616432875394821,0.15611547231674194,-0.6751245260238647,-0.04002353549003601,0.2583155035972595,-0.09156342595815659
16.85,0.005642738193273544,0.1255083680152893,0.3514137864112854,-0.08965146541595459,0.39755013585090637,-0.219797745347023
16.9,-0.16520920395851135,0.002347065368667245,0.5931726098060608,-0.09021279960870743,0.5073363780975342,-0.3017590045928955
16.95,-0.22404232621192932,0.10932069271802902,0.2593840956687927,-0.137876957654953,0.5671642422676086,-0.429755300283432
17.0,-0.20590774714946747,0.4105130136013031,0.2943735122680664,-0.1651928573846817,0.5502875447273254,-0.4099249541759491
17.05,-0.5419415235519409,-0.04512977600097656,-0.03530312702059746,-0.13301795721054077,0.3888968825340271,-0.22691930830478668
17.1,-0.15206944942474365,0.2703094482421875,-0.14703162014484406,-0.12790235877037048,0.12860241532325745,-0.06927423179149628
17.15,-0.24415981769561768,0.19474409520626068,-0.39919862151145935,-0.05132630467414856,-0.10542601346969604,0.2273261547088623
17.2,-0.25183412432670593,-0.08777809143066406,0.061708878725767136,0.039159130305051804,-0.1311708241701126,0.3201942443847656
17.25,0.019015206024050713,0.1860971599817276,0.010595163330435753,0.14829768240451813,-0.2786688506603241,0.22155863046646118
17.3,-0.0733739510178566,-0.15702734887599945,-0.7397333979606628,0.18301266431808472,-0.3739909529685974,0.2722470760345459
17.35,0.3565315008163452,-0.17623154819011688,-1.1548155546188354,0.20306611061096191,-0.3652055859565735,0.25587359070777893
17.4,0.6915035843849182,0.7077341079711914,-0.499819278717041,0.09565737098455429,-0.09840048104524612,-0.004322943743318319
17.45,0.2825891375541687,0.3481579124927521,0.031932469457387924,-0.14467807114124298,0.11701884120702744,-0.16460181772708893
17.5,-0.09566614776849747,-0.3709411919116974,0.04253656417131424,-0.16467607021331787,0.09211104363203049,-0.16884322464466095
17.55,0.19352038204669952,0.09085370600223541,0.07644741982221603,-0.1329747587442398,0.029455026611685753,-0.24649284780025482
17.6,0.32629597187042236,0.031388234347105026,-0.38631120324134827,-0.0947062149643898,0.04817098751664162,-0.21859082579612732
17.65,0.13996319472789764,-0.2954045236110687,-0.4381854832172394,-0.021467112004756927,0.047792594879865646,-0.22425024211406708
17.7,0.16564394533634186,0.11386295408010483,-0.42537668347358704,-0.05626773089170456,0.006180872209370136,-0.1472833752632141
17.75,0.014542512595653534,0.27789589762687683,-0.5554340481758118,0.007326554507017136,0.04619263857603073,-0.08867815881967545
17.8,0.1943882256746292,0.18729406595230103,0.3509867489337921,0.0581805445253849,0.1055629700422287,-0.1454225331544876
17.85,-0.07588221877813339,-0.13602924346923828,0.13167418539524078,-0.0528838187456131,0.08694607019424438,-0.10103052854537964
17.9,0.10672623664140701,0.2935972809791565,0.17647427320480347,-0.02953854762017727,0.10059650242328644,-0.20999830961227417
17.95,0.3230268955230713,0.2516842484474182,0.257543683052063,0.013901319354772568,0.0047334968112409115,-0.17164073884487152
18.0,-0.01525845192372799,0.10685538500547409,-0.21077661216259003,-0.019628535956144333,-0.009758307598531246,-0.08350607007741928
18.05,-0.05810761824250221,-0.039149317890405655,-0.26386550068855286,-0.0017792386934161186,0.03978768363595009,-0.0752776637673378
18.1,0.0879322811961174,0.20873360335826874,0.11980751901865005,0.013139977119863033,0.09751840680837631,-0.17001670598983765
18.15,-0.04265853017568588,0.18668179214000702,0.18790991604328156,4.785880446434021e-05,0.08037129044532776,-0.08329389989376068
18.2,0.020710274577140808,0.006467805709689856,-0.12108952552080154,0.019977066665887833,0.027130907401442528,-0.018465755507349968
18.25,-0.18607097864151,-0.1665830910205841,-0.20332308113574982,0.05772222951054573,0.023841172456741333,0.04210462048649788
18.3,0.03504711762070656,0.34220126271247864,-0.03370927274227142,0.09140646457672119,-0.06338366866111755,0.07846098393201828
18.35,0.26921799778938293,0.10610581934452057,0.06287389248609543,0.14500249922275543,-0.2407388985157013,0.19158226251602173
18.4,0.4362850487232208,0.46626195311546326,0.19871407747268677,0.14464536309242249,-0.192800372838974,0.09815549105405807
18.45,0.016880881041288376,0.28951460123062134,0.2818061113357544,0.11931469291448593,-0.2712877094745636,0.1347629427909851
18.5,-0.25002777576446533,0.04108808562159538,-0.21181964874267578,0.16827617585659027,-0.34709978103637695,0.11509214341640472
18.55,-0.32749420404434204,0.04854955896735191,-0.894260585308075,0.21050232648849487,-0.33429068326950073,0.052407536655664444
18.6,0.062120597809553146,0.2140626162290573,-0.8418411612510681,0.11513546854257584,0.029138481244444847,0.06658399105072021
18.65,0.271614134311676,0.6610108017921448,-0.14144475758075714,-0.08731650561094284,0.2966688275337219,-0.05090221390128136
18.7,-0.07469755411148071,-0.28968334197998047,0.20002500712871552,-0.11522229015827179,0.3373054265975952,0.13904809951782227
18.75,0.21239282190799713,0.24200066924095154,0.5286833643913269,-0.043227631598711014,0.17180468142032623,0.10200495272874832
18.8,-0.03545147925615311,0.42393696308135986,0.6191655397415161,0.02111537754535675,0.01856677234172821,0.26362454891204834
18.85,-0.24570326507091522,0.07793139666318893,-0.16600704193115234,0.05670914798974991,-0.09440876543521881,0.3545437455177307
18.9,-0.1434384286403656,-0.006894157268106937,-0.39594951272010803,0.08312859386205673,-0.060706932097673416,0.22297653555870056
18.95,0.2068721503019333,-0.0903959795832634,-0.35665959119796753,0.06692009419202805,0.06660106033086777,0.14201709628105164
19.0,0.006714837625622749,-0.14461617171764374,-0.24498909711837769,0.0001657530665397644,0.035105474293231964,0.15003517270088196
19.05,0.09743451327085495,0.2613706886768341,0.033827997744083405,-0.031103424727916718,-0.00404646759852767,0.13892535865306854
19.1,-0.20675739645957947,0.07029055804014206,-0.16286131739616394,-0.07275757193565369,0.03226013109087944,0.2513265013694763
19.15,-0.19991400837898254,0.22720813751220703,-0.22356896102428436,-0.050457872450351715,-0.05063086375594139,0.14182829856872559
19.2,-0.29199570417404175,-0.1021605059504509,-0.3375195264816284,0.06426966190338135,-0.17148031294345856,0.11618910729885101
19.25,0.04210638627409935,-0.11334709823131561,-0.2684878408908844,0.05958011746406555,-0.03167835995554924,0.031402427703142166
19.3,0.02316959574818611,0.0024070448707789183,-0.2449413537979126,-0.09010870009660721,0.23035582900047302,-0.0009511108510196209
19.35,-0.2396949678659439,-0.032720550894737244,0.11770009249448776,-0.16001541912555695,0.2184852808713913,-0.001820715144276619
19.4,-0.14878129959106445,0.10930638015270233,0.23537416756153107,-0.11656684428453445,0.04468691721558571,-0.0147053562104702
19.45,-0.14724339544773102,0.31854918599128723,-0.10302242636680603,-0.005657735746353865,-0.1604364961385727,0.03371642157435417
19.5,-0.30189892649650574,-0.06918436288833618,-0.4924764037132263,0.08947599679231644,-0.2969607710838318,0.04106834530830383
19.55,0.07613514363765717,0.06041711941361427,-0.5265951752662659,0.049054354429244995,-0.06679684668779373,-0.10977323353290558
19.6,-0.0362577885389328,0.22687816619873047,-0.25139206647872925,-0.04602579399943352,0.20909665524959564,-0.1204395666718483
19.65,0.3727838695049286,0.07544231414794922,-0.03433214873075485,-0.15289652347564697,0.22354012727737427,-0.12983909249305725
19.7,-0.1289667785167694,-0.23035332560539246,0.4606868624687195,-0.1949034333229065,0.13355869054794312,-0.09024536609649658
19.75,0.054019030183553696,0.0379810631275177,0.22643610835075378,-0.01923339068889618,-0.1695677936077118,0.15261955559253693
19.8,-0.432340532541275,0.13555333018302917,-0.49523618817329407,0.12070505321025848,-0.4173226058483124,0.07747554033994675
19.85,-0.31887683272361755,0.1260337382555008,-0.5192967057228088,0.15993821620941162,-0.34459465742111206,0.04085509851574898
19.9,0.15147331357002258,0.5035191178321838,-0.09508945047855377,0.10477486252784729,0.010904847644269466,-0.11454370617866516
19.95,0.20659321546554565,0.13016512989997864,0.1252054125070572,-0.056296732276678085,0.2320050597190857,-0.10748583823442459
20.0,0.07950754463672638,-0.10261630266904831,0.2293080985546112,-0.18336620926856995,0.24684694409370422,-0.1579539030790329
20.05,-0.05049499124288559,-0.24820710718631744,0.13034479320049286,-0.16499190032482147,0.09465423226356506,0.008899331092834473
20.1,-0.20676729083061218,0.18886663019657135,-0.1902124136686325,-0.00032550469040870667,-0.1868971884250641,0.18133583664894104
20.15,-0.34723755717277527,0.10319709032773972,-0.21947945654392242,0.041627123951911926,-0.30764737725257874,0.12360543012619019
20.2,-0.32013747096061707,-0.035569217056035995,-0.2356838434934616,0.12749619781970978,-0.30886948108673096,0.026156945154070854
20.25,0.2938626706600189,0.3180055618286133,-0.19458474218845367,0.12415824085474014,0.029353253543376923,-0.11905478686094284
20.3,0.3552228510379791,0.0006465384503826499,-0.40132075548171997,-0.04495277628302574,0.3394268751144409,-0.17764326930046082
20.35,0.13398511707782745,-0.1281614452600479,0.05135158449411392,-0.17159122228622437,0.4232512414455414,-0.2491968721151352
20.4,-0.013242984190583229,-0.1150197759270668,0.3135359287261963,-0.15238800644874573,0.2416571080684662,-0.07841069996356964
20.45,-0.20016798377037048,0.2799844741821289,-0.2781001329421997,-0.043259549885988235,-0.07065557688474655,0.11377738416194916
20.5,-0.4429088532924652,0.21370218694210052,-0.4321576952934265,-0.031048379838466644,-0.242252916097641,0.1143588125705719
20.55,-0.15952935814857483,0.06868840754032135,0.03952954709529877,0.069185271859169,-0.33647415041923523,-0.05079894885420799
20.6,0.35805991291999817,0.4357214570045471,0.027703892439603806,0.12296994775533676,-0.02482358179986477,-0.18319155275821686
20.65,0.23109538853168488,0.01303096767514944,-0.30647945404052734,-0.02827392891049385,0.2507178783416748,-0.19612839818000793
20.7,0.14956462383270264,0.08095646649599075,0.008582967333495617,-0.13844263553619385,0.3269070088863373,-0.18268410861492157
20.75,-0.1013479009270668,0.02396583929657936,-0.019258124753832817,-0.16136948764324188,0.21884551644325256,-0.024482404813170433
20.8,-0.09850713610649109,0.16112133860588074,-0.35378143191337585,-0.08310815691947937,-0.048034925013780594,0.1991528570652008
20.85,-0.118784099817276,0.1529531478881836,-0.08559805154800415,-0.03964555263519287,-0.26078101992607117,0.190987691283226
20.9,-0.42944765090942383,-0.06421849876642227,0.2057725042104721,0.07333961129188538,-0.3546143174171448,0.0757114440202713
20.95,0.2621929347515106,0.43330103158950806,-0.04178977385163307,0.07633092254400253,-0.04547148570418358,-0.16157282888889313
21.0,0.2892913222312927,0.1862926185131073,-0.31295138597488403,-0.08668944984674454,0.26717203855514526,-0.18597596883773804
21.05,-0.02934296242892742,0.10640910267829895,0.10935403406620026,-0.15865489840507507,0.3410877585411072,-0.06485260277986526
21.1,0.35715293884277344,0.6426077485084534,0.1191384494304657,-0.1468021422624588,0.14689548313617706,0.02846967615187168
21.15,-0.1304316222667694,-0.12030891329050064,-0.18294624984264374,-0.1160145103931427,-0.09703247249126434,0.4795537292957306
21.2,-0.42427802085876465,0.12322235852479935,-0.1258762776851654,-0.00904889777302742,-0.3491802513599396,0.3904566764831543
21.25,-0.43971139192581177,-0.13878820836544037,0.1606033593416214,0.08669731020927429,-0.3203178346157074,0.15319566428661346
21.3,0.3273466229438782,0.28595826029777527,-0.4003758728504181,0.06853069365024567,0.007505857851356268,-0.15930573642253876
21.35,0.25623181462287903,0.323151558637619,-0.5548421740531921,-0.0661671981215477,0.35139185190200806,-0.19520071148872375
21.4,-0.007007324602454901,0.3999939560890198,-0.04210025817155838,-0.18494585156440735,0.36990585923194885,-0.04951466992497444
21.45,0.11025610566139221,-0.3088131546974182,-0.2284388244152069,-0.18936419486999512,0.16939766705036163,0.2858933210372925
21.5,-0.45589080452919006,-0.6874266862869263,-0.6322864294052124,-0.04120694845914841,-0.1274951994419098,0.5442012548446655
21.55,0.059273555874824524,0.029398908838629723,-0.10383539646863937,0.05426696687936783,-0.27939313650131226,0.2700459659099579
21.6,0.12608765065670013,0.5142346024513245,0.032786741852760315,0.07493382692337036,-0.15071743726730347,-0.026669315993785858
21.65,-0.43536239862442017,0.6159573197364807,-0.25975626707077026,0.10149411857128143,-0.05773388221859932,0.10107031464576721
21.7,-0.1433066725730896,0.5508365631103516,-0.6765086650848389,0.20056365430355072,-0.22912469506263733,0.20721091330051422
21.75,0.09354628622531891,-0.3026076853275299,-0.9753617644309998,0.10331270843744278,-0.16390827298164368,0.2419799417257309
21.8,0.30848097801208496,-0.2910415530204773,-1.1205843687057495,0.13208584487438202,-0.0442785769701004,0.2731132209300995
21.85,-0.10351007431745529,0.5681076049804688,-0.3173445165157318,0.12955419719219208,0.03741986304521561,0.22707343101501465
21.9,-0.1613406389951706,0.013508773408830166,-0.23149238526821136,0.16766512393951416,-0.011928202584385872,0.18137528002262115
21.95,0.052974097430706024,-0.019208844751119614,0.565050482749939,0.1850549727678299,0.0714089497923851,0.02862553484737873
22.0,-0.20295335352420807,-0.13574884831905365,0.25670766830444336,0.20895975828170776,0.12500345706939697,0.08851496875286102
22.05,0.15216095745563507,0.1370229721069336,-0.1373445689678192,0.22685329616069794,0.027556274086236954,-0.09353599697351456
22.1,-0.04052096605300903,0.031119363382458687,0.09952137619256973,0.13397376239299774,0.12029097229242325,-0.09033063799142838
22.15,-0.18798953294754028,-0.22431467473506927,0.3628041446208954,0.08863011747598648,0.07134101539850235,-0.040465861558914185
22.2,-0.452736496925354,0.12674526870250702,0.23822614550590515,0.0717136487364769,-0.045539744198322296,-0.03928292170166969
22.25,0.012418391183018684,0.497046560049057,0.23746882379055023,0.04654864966869354,-0.13928964734077454,-0.03777918592095375
22.3,-0.18739649653434753,0.2357655167579651,0.21373067796230316,-0.014639534056186676,-0.008997317403554916,0.05382762849330902
22.35,-0.2606953978538513,0.05695253983139992,0.45404523611068726,-0.017660148441791534,0.014041571877896786,0.024013515561819077
22.4,-0.06953674554824829,0.16517740488052368,0.41446059942245483,-0.02397223562002182,0.003449635813012719,-0.02785869501531124
22.45,0.0005318932235240936,-0.11782264709472656,0.15464937686920166,0.008826890960335732,-0.0916273444890976,-0.01616545207798481
22.5,-0.14016741514205933,-0.08704379945993423,-0.24635514616966248,-0.033898621797561646,-0.08452702313661575,-0.04841163754463196
22.55,-0.162113219499588,0.36048606038093567,0.06954678148031235,-0.07758806645870209,-0.13516266644001007,-0.05299665406346321
22.6,-0.11644905805587769,0.1518716961145401,0.033532630652189255,-0.08223070949316025,-0.1771683245897293,-0.06402675807476044
22.65,0.10774499177932739,0.16715623438358307,0.041870083659887314,-0.06018795818090439,-0.03656768053770065,-0.15536972880363464
22.7,-0.08179149031639099,0.029277803376317024,-0.018594853579998016,-0.05139844864606857,0.050391942262649536,-0.1333392709493637
22.75,-0.08589612692594528,-0.2350807636976242,-0.16810600459575653,-0.010935818776488304,0.028616253286600113,-0.1566159427165985
22.8,0.0755973532795906,0.2051095813512802,-0.34123966097831726,0.03913912549614906,-0.050074782222509384,-0.0973881259560585
22.85,-0.01003507524728775,0.3504800796508789,-0.36030814051628113,-0.012922661378979683,-0.05359475314617157,-0.013739879243075848
22.9,-0.05006455257534981,0.2608366310596466,0.002146256621927023,-0.08723972737789154,0.009188964031636715,-0.057403773069381714
22.95,-0.026625491678714752,0.03150463104248047,-0.026741426438093185,-0.07054328173398972,0.08332382887601852,-0.06018726900219917
23.0,0.01419014111161232,-0.0154190082103014,0.0027820966206490993,-0.018953796476125717,0.11380314081907272,-0.045944973826408386
23.05,-0.05227702111005783,0.013600340113043785,-0.10038615018129349,0.03480993211269379,0.09067197889089584,-0.03090609423816204
23.1,0.10560300201177597,0.16849610209465027,-0.3896915316581726,0.04711272567510605,0.012436882592737675,-0.021872628480196
23.15,-0.0907401591539383,0.1502790004014969,-0.458869993686676,0.0008804001845419407,-0.0038232808001339436,0.04396916180849075
23.2,0.138839989900589,0.3552265763282776,0.33981645107269287,-0.04139445722103119,-0.02896607667207718,-0.024744205176830292
23.25,0.10783813148736954,0.27876096963882446,0.18395106494426727,-0.050641465932130814,0.020709246397018433,0.012789498083293438
23.3,-0.05632432550191879,0.1323270946741104,0.03490164503455162,-0.04944094270467758,0.12592217326164246,0.052266187965869904
23.35,-0.05927790328860283,-0.17566493153572083,-0.19044922292232513,-0.025297079235315323,0.11081498116254807,0.05563506856560707
23.4,-0.24689549207687378,-0.10813717544078827,-0.3071255385875702,0.015185747295618057,0.03661556914448738,0.12961144745349884
23.45,0.10377325117588043,0.30417725443840027,-0.49892646074295044,0.030113831162452698,-0.03829357400536537,0.09036727994680405
23.5,0.028465118259191513,0.535245954990387,0.11240099370479584,-0.044640544801950455,-0.06070811301469803,0.048843301832675934
23.55,-0.07475506514310837,0.16739755868911743,0.35556215047836304,-0.050627339631319046,-0.05694374814629555,-0.024617895483970642
23.6,0.025767818093299866,0.16196157038211823,0.06281224638223648,-0.04940498620271683,0.10861276835203171,-0.04546808823943138
23.65,-0.0642213299870491,-0.1846972107887268,-0.36339271068573,-0.062069859355688095,0.14294686913490295,0.06254563480615616
23.7,-0.5479044914245605,-0.4085436761379242,-0.3578893542289734,-0.017997007817029953,0.07043440639972687,0.13708320260047913
23.75,-0.23371723294258118,-0.1575842648744583,-0.5437536835670471,0.013530321419239044,0.012048276141285896,0.0564044825732708
23.8,0.13672204315662384,0.5135908126831055,-0.33347830176353455,-0.020630717277526855,-0.03310001641511917,-0.03580860793590546
23.85,-0.15147021412849426,0.18735317885875702,0.2598489820957184,-0.055847764015197754,-0.0916757583618164,-0.07192215323448181
23.9,0.2369394153356552,0.3357868790626526,0.24998952448368073,-0.04435073584318161,0.05934945493936539,-0.18970485031604767
23.95,-0.18094836175441742,0.09749414026737213,-0.00417897617444396,-0.02539900690317154,0.15390948951244354,-0.14271493256092072
24.0,-0.19536907970905304,-0.0786752700805664,0.0517331063747406,-0.02728545293211937,0.1763114631175995,-0.10781725496053696
24.05,-0.08946004509925842,-0.12940697371959686,-0.20413944125175476,-0.009464149363338947,0.118181012570858,-0.07772029936313629
24.1,0.06102623790502548,0.04953188821673393,-0.4580305218696594,-0.030770892277359962,0.10737664997577667,0.0032619035337120295
24.15,-0.17460976541042328,0.22629642486572266,-0.24142105877399445,-0.03180614113807678,-0.010905660688877106,0.08019896596670151
24.2,-0.2524571418762207,0.39238178730010986,0.35927513241767883,0.004368566907942295,-0.11718181520700455,0.02583133615553379
24.25,-0.014349684119224548,0.4096432626247406,0.2663115859031677,-0.022566812112927437,0.07229328900575638,-0.08653739839792252
24.3,-0.2201048880815506,0.14066891372203827,0.18198977410793304,-0.035586073994636536,0.14174485206604004,-0.10738986730575562
24.35,-0.29414406418800354,-0.23618029057979584,0.3040962517261505,-0.023206498473882675,0.16378742456436157,-0.09031232446432114
24.4,0.11646479368209839,-0.3604126572608948,-0.20506656169891357,-0.010030440054833889,0.12598776817321777,-0.09884627163410187
24.45,-0.3643282353878021,-0.21212299168109894,-0.4825541377067566,-0.04122011363506317,0.0541691817343235,0.05950787663459778
24.5,-0.6705335974693298,0.38155850768089294,0.0909850150346756,0.04338371008634567,-0.25087571144104004,0.1016131192445755
24.55,-0.4089645743370056,0.43253907561302185,0.08468634635210037,0.02266046777367592,-0.15623238682746887,-0.05334175378084183
24.6,0.17916038632392883,0.7103071808815002,-0.17954616248607635,-0.04204780235886574,0.11086493730545044,-0.18804234266281128
24.65,-0.3145659863948822,0.05864623188972473,0.1550215482711792,-0.042913779616355896,0.13097932934761047,0.03026142716407776
24.7,-0.04334861785173416,-0.6300116181373596,-0.01897755078971386,0.02494523487985134,0.06427807360887527,0.0318944938480854
24.75,-0.40690070390701294,-0.551864743232727,-0.44608786702156067,0.028673695400357246,0.029961518943309784,0.09481373429298401
24.8,-0.10934532433748245,-0.09342487156391144,-0.5914541482925415,0.07280271500349045,0.031040377914905548,0.0378616638481617
24.85,-0.16557642817497253,-0.3006144165992737,-0.30140650272369385,0.04257069155573845,0.041834086179733276,0.048576947301626205
24.9,0.07942386716604233,0.09839443117380142,0.21566416323184967,0.1104183942079544,0.024772660806775093,-0.13485480844974518
24.95,-0.4330027103424072,-0.7591810822486877,0.3987170159816742,0.0881396159529686,0.009156635031104088,0.0005657311412505805
25.0,-0.278263121843338,-0.20153231918811798,0.6010016798973083,0.1749529093503952,-0.09428220242261887,-0.1761789470911026
25.05,-0.24697242677211761,0.11358547955751419,-0.06549008190631866,0.2049485296010971,-0.19018813967704773,-0.27910810708999634
25.1,-0.08543635904788971,0.9839745163917542,-0.46210232377052307,0.280855655670166,-0.2770099937915802,-0.3393084704875946
25.15,-0.4247173070907593,1.1721439361572266,-0.9851986765861511,0.17822444438934326,-0.12884527444839478,-0.41869792342185974
25.2,-0.15618076920509338,0.2952841520309448,-1.357543706893921,0.07898825407028198,-0.1515502780675888,-0.34045374393463135
25.25,0.15668614208698273,1.13970947265625,-0.7623698115348816,-0.014899667352437973,-0.27642717957496643,-0.13417528569698334
25.3,-0.7174187302589417,0.5827836990356445,-0.7918629050254822,-0.07453377544879913,-0.5844113826751709,0.2781294882297516
25.35,0.21215608716011047,-0.2571375370025635,-1.6672395467758179,-0.03961751610040665,-0.7042792439460754,0.27053302526474
25.4,0.333701491355896,-0.9035075902938843,-1.8944092988967896,0.0005435645580291748,-0.5944337248802185,0.3170837461948395
25.45,0.40765878558158875,-0.1925116926431656,-0.8678659200668335,0.031111061573028564,-0.47091877460479736,0.2729259431362152
25.5,0.1236959844827652,0.4903296232223511,-1.4609310626983643,0.0289573073387146,-0.46560561656951904,0.15178579092025757
25.55,0.3737103044986725,0.5217550992965698,-1.6508070230484009,-0.000690738670527935,-0.4198053777217865,0.12447470426559448
25.6,-0.03837524354457855,-0.03094680793583393,-0.6157031655311584,0.11734585464000702,-0.299730509519577,0.2385682463645935
25.65,-0.34202393889427185,-0.23326201736927032,0.6405916213989258,0.0884644165635109,-0.1408206671476364,0.12053057551383972
25.7,0.32074612379074097,0.05515776574611664,0.850849986076355,0.021262260153889656,-0.10750540345907211,-0.035403285175561905
25.75,0.7309839725494385,-0.010753616690635681,0.22798097133636475,0.15294122695922852,-0.0006688114372082055,-0.12821532785892487
25.8,0.03376556932926178,1.203157663345337,1.099151849746704,0.1927926391363144,0.20829474925994873,-0.2992696166038513
25.85,0.37666305899620056,0.10474219918251038,1.181870460510254,0.1594843715429306,0.3135450482368469,-0.23391257226467133
25.9,1.0470685958862305,-0.1677798181772232,1.1670008897781372,-0.03744770586490631,0.2926434278488159,-0.1392674744129181
25.95,0.7372280955314636,-0.48706045746803284,1.2844228744506836,-0.11582878232002258,0.13490696251392365,-0.07636244595050812
26.0,0.8300537467002869,0.4444839060306549,0.8337357640266418,-0.027665460482239723,0.01674957014620304,-0.1831824630498886
26.05,0.8960303664207458,0.6653215289115906,1.2677302360534668,0.007214343175292015,0.1272391825914383,-0.20105236768722534
26.1,0.9513769149780273,0.3218480348587036,0.7783449292182922,-0.05998862534761429,0.16704106330871582,-0.09890440106391907
26.15,0.4315933585166931,-0.19205856323242188,0.30887243151664734,-0.12037848681211472,0.11146649718284607,0.024760011583566666
26.2,0.02301107347011566,-0.1438072919845581,1.1425025463104248,-0.09301828593015671,0.16595333814620972,0.05816201493144035
26.25,0.17333781719207764,0.06412807106971741,1.2294790744781494,-0.02460090070962906,0.07056253403425217,0.08302941173315048
26.3,1.038468360900879,0.2083979845046997,0.9234769344329834,0.052554480731487274,0.025252820923924446,0.11546089500188828
26.35,1.0049569606781006,-0.3813648521900177,0.2993237376213074,-0.030977539718151093,0.04391368106007576,0.3278263807296753
26.4,0.5830672979354858,-0.18230149149894714,0.3949836790561676,0.08144938945770264,0.006146660074591637,0.302288293838501
26.45,0.8001965880393982,-0.2816896140575409,0.4887832701206207,0.18842768669128418,0.08732019364833832,0.09781232476234436
26.5,1.2746175527572632,0.08314426243305206,0.7164493203163147,0.1388823390007019,0.14445075392723083,0.23425708711147308
26.55,0.9410990476608276,0.8809120059013367,0.8259246349334717,0.08645467460155487,0.33494168519973755,0.2731058895587921
26.6,0.4645654559135437,0.7548792362213135,0.8906927704811096,-0.01862671971321106,0.40411099791526794,0.42336368560791016
26.65,0.004041336476802826,1.0690338611602783,0.9855877757072449,-0.04824361950159073,0.33736586570739746,0.3490959405899048
26.7,-0.3651471734046936,1.035019040107727,0.43253394961357117,-0.08316893875598907,0.19080078601837158,0.19024373590946198
26.75,-0.8386785984039307,1.0263901948928833,0.045479368418455124,-0.10921691358089447,0.050106558948755264,0.08205041289329529
26.8,-0.8089830875396729,-0.07357986271381378,-0.6698364019393921,-0.1916799247264862,0.12702661752700806,0.14519378542900085
26.85,-0.9866145849227905,-0.6492197513580322,-1.6719552278518677,-0.2247883826494217,0.3215326964855194,0.023059707134962082
26.9,-1.0194332599639893,-1.3285707235336304,-2.3710122108459473,-0.1675037294626236,0.4900883436203003,-0.10051077604293823
26.95,-0.7892811298370361,0.06328381597995758,-1.0135512351989746,-0.07571924477815628,0.4946852922439575,-0.23323315382003784
27.0,-1.0513973236083984,0.7853147387504578,0.13766005635261536,0.050642482936382294,0.2580276429653168,-0.07301424443721771
27.05,-0.15898269414901733,-0.032368749380111694,-0.7570468783378601,-0.059788864105939865,0.10552576184272766,0.03598681837320328
27.1,-0.25461822748184204,-0.4366771876811981,-1.4181915521621704,-0.27760517597198486,0.008956889621913433,0.10917002707719803
27.15,-0.8113579750061035,-0.49950042366981506,-0.8931407928466797,-0.17002716660499573,-0.048373203724622726,0.3054156005382538
27.2,-0.7169544696807861,0.1849069744348526,-0.09072143584489822,0.035995226353406906,-0.20409852266311646,0.26999226212501526
27.25,-0.30608028173446655,0.1430206596851349,0.04963940754532814,0.036722008138895035,-0.4892922639846802,0.18143488466739655
27.3,-0.09841457009315491,-0.35044384002685547,0.18836231529712677,-0.02756620943546295,-0.5338925123214722,0.14379233121871948
27.35,-0.1439541131258011,-0.23390676081180573,0.09153899550437927,0.05216877907514572,-0.531071126461029,-0.07277283072471619
27.4,0.019190713763237,0.1398763507604599,-0.2322414368391037,0.11660175025463104,-0.44371578097343445,-0.14977970719337463
27.45,-0.0421123132109642,0.43979841470718384,0.04990803450345993,0.10264968872070312,-0.38924697041511536,-0.10488423705101013
27.5,-0.17896384000778198,0.05398944020271301,0.17140018939971924,0.1869542896747589,-0.4187413156032562,-0.05673399195075035
27.55,0.07801704108715057,0.20147518813610077,0.11777861416339874,0.19108833372592926,-0.2994405925273895,-0.14564204216003418
27.6,0.1927456557750702,0.4424801468849182,0.133059561252594,0.06218089908361435,-0.06552084535360336,-0.2827461361885071
27.65,0.04940911382436752,0.1618681252002716,0.17940007150173187,-0.03162495046854019,0.14412544667720795,-0.23582245409488678
27.7,0.3305601477622986,0.042478568851947784,0.06145735830068588,-0.09435296058654785,0.27939552068710327,-0.14847774803638458
27.75,0.10847123712301254,-0.019940387457609177,-0.060867805033922195,-0.1004563644528389,0.2910600006580353,-0.0016836326103657484
27.8,-0.02383194863796234,0.08912660926580429,0.14000138640403748,-0.012337584979832172,0.2947361469268799,0.004894527606666088
27.85,-0.12414155155420303,0.08891106396913528,-0.02252141572535038,-0.1390105038881302,0.3358219563961029,0.0915805920958519
27.9,-0.2949451804161072,-0.14318853616714478,-0.43965548276901245,-0.22145259380340576,0.25643327832221985,0.1292002648115158
27.95,-0.16033685207366943,-0.15645799040794373,-0.6281901001930237,-0.13142307102680206,0.058613091707229614,0.22044552862644196
28.0,-0.1570112109184265,0.009158100932836533,-0.30993208289146423,-0.06501028686761856,-0.037543099373579025,0.20799532532691956
28.05,0.03578663989901543,0.5159264802932739,0.3161539137363434,-0.04995887354016304,-0.06284511834383011,0.09870143234729767
28.1,0.17559495568275452,0.08887098729610443,-0.15058279037475586,-0.043124668300151825,0.0029436489567160606,0.06210722029209137
28.15,-0.05245262011885643,0.007814417593181133,0.07332386821508408,-0.03254443779587746,0.11056292802095413,0.025593193247914314
28.2,-0.10545774549245834,-0.0690317153930664,0.04025908187031746,-0.005266004707664251,0.1316143125295639,0.038170039653778076
28.25,-0.1644328534603119,0.057423558086156845,-0.35892754793167114,-0.02421727031469345,0.10747069865465164,0.023000314831733704
28.3,-0.004574906080961227,0.22042368352413177,-0.3542526066303253,-0.01765446737408638,0.030239291489124298,0.08057934045791626
28.35,-0.08938480168581009,0.014924045652151108,-0.05611918121576309,-0.018886566162109375,-0.029308265075087547,0.07452116161584854
28.4,-0.014662470668554306,0.046628013253211975,0.0846492201089859,0.04807281494140625,-0.10683845728635788,0.09880311787128448
28.45,-0.1319563239812851,0.11210251599550247,-0.050539012998342514,0.14399214088916779,-0.16830967366695404,0.07793223112821579
28.5,-0.029790423810482025,0.3393592834472656,-0.36787375807762146,0.14720264077186584,-0.13553601503372192,-0.012783360667526722
28.55,0.021003780886530876,0.14441582560539246,-0.33590078353881836,0.058594610542058945,0.021381303668022156,-0.07610460370779037
28.6,0.09165992587804794,0.09014321863651276,0.0800456553697586,0.03962652385234833,0.05378130450844765,-0.1503729522228241
28.65,-0.00047677382826805115,0.12331777811050415,0.3546162545681,0.11066180467605591,-0.016987040638923645,-0.14331364631652832
28.7,0.05920662358403206,0.11205009371042252,0.22490200400352478,0.17275525629520416,-0.05837017670273781,-0.15912799537181854
28.75,0.17608438432216644,0.20897583663463593,0.19073174893856049,0.11289161443710327,0.08114878088235855,-0.255321741104126
28.8,0.01041042897850275,0.048159606754779816,-0.010872207581996918,0.04007590934634209,0.15256209671497345,-0.2881050407886505
28.85,0.21159420907497406,-0.08861827850341797,0.06096925958991051,-0.017349839210510254,0.1505962461233139,-0.2914879024028778
28.9,0.022060777992010117,-0.0024347021244466305,0.2442483901977539,-0.012557756155729294,0.1746474951505661,-0.22400550544261932
28.95,-0.026241609826683998,-0.17551521956920624,-0.24968594312667847,-0.07926744967699051,0.22384938597679138,-0.10378704965114594
29.0,-0.21787673234939575,-0.2924547493457794,-0.14163324236869812,-0.11597715318202972,0.13099102675914764,0.015857871621847153
29.05,-0.12417582422494888,0.0625629797577858,0.227983757853508,-0.0038296375423669815,-0.10645172744989395,0.05527481064200401
29.1,0.09067296236753464,0.26676371693611145,0.07974925637245178,0.06193355843424797,-0.18389584124088287,0.015818824991583824
29.15,0.04487983137369156,0.2654094696044922,-0.12213721871376038,0.0011472739279270172,-0.09493781626224518,-0.06421422958374023
29.2,0.10743866860866547,0.22912219166755676,0.035813260823488235,-0.012041127309203148,-0.05490308627486229,-0.10516155511140823
29.25,0.2727184593677521,0.16625693440437317,0.17545710504055023,-0.018630096688866615,0.024693159386515617,-0.18073630332946777
29.3,0.2900853753089905,0.22870828211307526,-0.06483209878206253,-0.038365304470062256,0.06394097208976746,-0.17325344681739807
29.35,0.27578264474868774,0.37352657318115234,-0.22180558741092682,-0.07432936877012253,0.13318657875061035,-0.11666523665189743
29.4,-0.08951950073242188,0.20588970184326172,-0.2531667947769165,-0.10604359209537506,0.20160628855228424,-0.0661153793334961
29.45,-0.32008007168769836,-0.22790247201919556,-0.34964922070503235,-0.09631074965000153,0.18136094510555267,-0.052091553807258606
29.5,-0.3464793860912323,-0.6675397157669067,-0.3286168873310089,-0.0985712930560112,0.10135354101657867,-0.02710355445742607
29.55,-0.37034767866134644,-0.3741922974586487,-0.35561075806617737,-0.05194126069545746,-0.05347379669547081,-0.056537870317697525
29.6,-0.17035911977291107,0.4260549545288086,-0.43591398000717163,-0.0018296875059604645,-0.11653546988964081,-0.028964798897504807
29.65,-0.2550978362560272,0.5309038162231445,-0.544682502746582,-0.018045376986265182,-0.11791177093982697,0.052238307893276215
29.7,-0.4119117856025696,-0.08094985783100128,-0.6040093898773193,-0.03850490599870682,-0.08775202184915543,0.0388837568461895
29.75,-0.25559744238853455,-0.054898329079151154,-0.5419487357139587,-0.05808703973889351,-0.12793907523155212,-0.013525813817977905
29.8,-0.37492966651916504,0.010008762590587139,-0.4732373058795929,0.0018321950919926167,-0.23380263149738312,0.05280398577451706
29.85,-0.15947669744491577,0.0867614597082138,-0.18670165538787842,0.056972064077854156,-0.3991912305355072,0.16232700645923615
29.9,0.030281733721494675,0.30680951476097107,0.4613540470600128,0.05332125350832939,-0.39710646867752075,0.19504044950008392
29.95,0.19768665730953217,0.5536243319511414,1.177069902420044,0.09888141602277756,-0.4000299870967865,0.1850019097328186
30.0,0.03358934819698334,0.07628268003463745,1.4708207845687866,0.2088855654001236,-0.6094768643379211,0.23532462120056152
30.05,0.2948303818702698,-0.31900402903556824,0.48720234632492065,0.15895035862922668,-0.5064272284507751,0.20189538598060608
30.1,0.916479229927063,0.3157386779785156,-0.020797275006771088,-0.01318267174065113,-0.06919247657060623,-0.014850524254143238
30.15,0.5996113419532776,0.40569883584976196,0.15102504193782806,-0.0865090936422348,0.2668934464454651,-0.038554105907678604
30.2,0.009028784930706024,-0.538723886013031,0.9574117660522461,-0.1400732398033142,0.3201811611652374,0.037572961300611496
30.25,0.31283441185951233,-4.2090678215026855,3.079343318939209,-0.09641966968774796,0.09987099468708038,0.03682722523808479
30.3,0.11042079329490662,-0.20823389291763306,-0.217665433883667,-0.003168500028550625,-0.07878044992685318,0.0701632872223854
30.35,-0.017550364136695862,0.6446342468261719,-0.6470771431922913,0.04480333626270294,-0.17803849279880524,0.14114628732204437
30.4,-0.1755058467388153,0.7011508941650391,-0.5347914099693298,-0.03189610317349434,-0.12041337043046951,0.1763404756784439
30.45,-0.10286573320627213,0.006424859166145325,-0.39936473965644836,-0.0449548065662384,-0.04129475727677345,0.06254852563142776
30.5,-0.0014231447130441666,-0.28372102975845337,-0.19356898963451385,0.03253353387117386,-0.00035040450165979564,0.051870379596948624
30.55,-0.05238207057118416,-0.02548219822347164,-0.15324711799621582,0.02252645045518875,0.01247497834265232,0.07437370717525482
30.6,-0.12105679512023926,0.2996501922607422,-0.2672197222709656,0.01594361662864685,-0.02012699656188488,-0.0009487812058068812
30.65,-0.03746757656335831,0.2006225734949112,-0.11968706548213959,0.004531577229499817,-0.027826886624097824,-0.009544738568365574
30.7,-0.021696506068110466,-0.01600075513124466,-0.04949085786938667,0.007302665151655674,-0.031313180923461914,0.035775333642959595
30.75,-0.0629139095544815,-0.03734782338142395,-0.2250816375017166,0.0029877573251724243,0.0014861521776765585,0.05579350143671036
30.8,-0.049951352179050446,0.16545867919921875,-0.1592167764902115,0.033912599086761475,0.03213651850819588,0.041824501007795334
30.85,-0.09249001741409302,0.11919880658388138,-0.07670983672142029,0.0469990037381649,0.08880753070116043,0.06272993981838226
30.9,-0.09193556010723114,0.05389596149325371,0.010407156310975552,0.06909947097301483,0.09492693096399307,0.04176634922623634
30.95,-0.017549779266119003,0.013699538074433804,0.0333549939095974,0.07383181154727936,0.0816972404718399,0.022548917680978775
31.0,-0.0038294908590614796,0.09704209864139557,-0.02209467627108097,0.05259215086698532,0.06606253981590271,0.05276256054639816
31.05,-0.13302454352378845,0.042921070009469986,-0.009169447235763073,0.04472671449184418,0.05426979809999466,0.02668718434870243
31.1,-0.13167499005794525,0.1765289455652237,-0.023052161559462547,0.0195133276283741,0.07204294949769974,-0.05071520432829857
31.15,-0.1591261774301529,0.11765292286872864,0.09862320125102997,0.004747392144054174,0.07448237389326096,-0.05908474698662758
31.2,0.0005304021760821342,0.09087183326482773,0.1016310453414917,0.006599313113838434,0.06223471462726593,-0.06939680129289627
31.25,-0.07819146662950516,0.12341979146003723,0.08883415162563324,-0.011071987450122833,0.0738166943192482,-0.030686596408486366
31.3,-0.015112841501832008,0.056483279913663864,0.035112347453832626,-0.01994161866605282,0.03699079900979996,-0.0029274593107402325
31.35,-0.09358537942171097,0.0845193862915039,-0.09742997586727142,-0.019768325611948967,-0.03957216814160347,-0.018488241359591484
31.4,-0.13230770826339722,0.1041736975312233,0.20300275087356567,-0.024021415039896965,-0.0638633593916893,-0.007380477152764797
31.45,0.12309885025024414,0.3235378563404083,0.06181194633245468,-0.036072686314582825,-0.02217608503997326,-0.0017991462955251336
31.5,0.06371709704399109,0.19862936437129974,-0.3439224362373352,-0.07080037891864777,0.041351068764925,0.04992622137069702
31.55,-0.07986479997634888,0.02152632176876068,-0.14579303562641144,-0.06289659440517426,0.031915269792079926,0.08675941824913025
31.6,0.12940926849842072,0.08942321687936783,0.2820080518722534,-0.07196027785539627,0.047358058393001556,0.007313615642488003
31.65,0.07939806580543518,0.10956000536680222,-0.1494501531124115,-0.06715992093086243,0.04834191873669624,0.044217951595783234
31.7,-0.04881460964679718,0.07224271446466446,-0.23629508912563324,-0.056936152279376984,0.10453398525714874,0.04981164634227753
31.75,-0.12884734570980072,-0.008290300145745277,-0.08738617599010468,-0.07109417766332626,0.1411455124616623,0.008431289345026016
31.8,-0.2974649667739868,-0.16282466053962708,-0.1690712720155716,-0.02821670100092888,0.030117060989141464,0.011114776134490967
31.85,-0.0474914014339447,0.10192781686782837,0.3635057806968689,0.019095979630947113,-0.0962640568614006,-0.06920486688613892
31.9,0.054626576602458954,0.2260790318250656,0.12902899086475372,0.02849007025361061,-0.07483687251806259,-0.06033777445554733
31.95,-0.1500830054283142,0.16454312205314636,-0.3646213114261627,-0.006256504449993372,0.028245937079191208,-0.032664138823747635
32.0,-0.1365017294883728,0.05592631548643112,-0.15877710282802582,0.008131861686706543,-0.0015272386372089386,0.007149976212531328
32.05,-0.06310472637414932,0.08371453732252121,0.3917144238948822,0.02141495794057846,-0.10698549449443817,-0.05553864687681198
32.1,0.25173476338386536,0.024655327200889587,-0.12778446078300476,0.04967605695128441,-0.1226143166422844,-0.05726190656423569
32.15,0.17585088312625885,0.34087562561035156,-0.316448837518692,0.01337682269513607,0.04380306228995323,-0.03708476200699806
32.2,-0.17612802982330322,0.09975147992372513,-0.058547209948301315,-0.03726224601268768,0.14495375752449036,-0.02318366803228855
32.25,-0.10376065969467163,-0.058872248977422714,-0.17907904088497162,-0.032863739877939224,0.11597630381584167,-0.012781674973666668
32.3,-0.18652930855751038,0.05342387035489082,-0.18927118182182312,-0.016765477135777473,0.030822614207863808,0.012917998246848583
32.35,-0.19253462553024292,0.15293321013450623,0.5573915839195251,-0.009974737651646137,-0.04420465975999832,0.025287579745054245
32.4,0.25989261269569397,0.515806257724762,0.17475201189517975,0.03363636136054993,-0.07667888700962067,-0.013245666399598122
32.45,-0.014918569475412369,0.39525890350341797,-0.401809424161911,-0.01992874965071678,0.05837826058268547,0.08018618077039719
32.5,-0.12224487960338593,0.07064912468194962,-0.27998751401901245,-0.05847921222448349,0.09211190789937973,0.20702257752418518
32.55,-0.08643177896738052,0.017973903566598892,0.011859905906021595,-0.07067292183637619,0.011922179721295834,0.13001219928264618
32.6,0.4729031026363373,0.19132237136363983,0.21169540286064148,-0.029028233140707016,0.017176803201436996,0.10926828533411026
32.65,-0.13779908418655396,-0.2370024174451828,-0.1547364592552185,-0.004600662738084793,0.08044705539941788,0.21688735485076904
32.7,0.008564628660678864,-0.20385174453258514,-0.14368480443954468,0.0062936958856880665,0.09562433511018753,0.007509294431656599
32.75,-0.3178921043872833,-0.28080087900161743,-0.21927393972873688,0.017765164375305176,0.1323951780796051,-0.1555452197790146
32.8,0.0786033645272255,0.17302227020263672,-0.09309419244527817,0.01632695086300373,0.05520383641123772,-0.28114601969718933
32.85,-0.014279186725616455,0.3460332453250885,0.993446409702301,-0.009969379752874374,-0.03974162042140961,-0.21038107573986053
32.9,0.14325949549674988,0.2828274071216583,-0.08966832607984543,0.009451509453356266,-0.08468378335237503,-0.004489171784371138
32.95,-0.5783836245536804,0.04272739216685295,-0.7763710021972656,0.008194095455110073,-0.023210691288113594,0.08638463914394379
33.0,0.21036957204341888,0.19048407673835754,0.006311920005828142,0.026517372578382492,-0.06130087375640869,-0.045805368572473526
33.05,0.528278112411499,0.20585256814956665,0.3739454448223114,-0.03686005622148514,-0.018147898837924004,-0.146966814994812
33.1,-0.169431671500206,-0.3351326882839203,-0.4523999094963074,-0.030325014144182205,0.035116925835609436,0.018049264326691628
33.15,-0.2952442169189453,0.24738219380378723,-0.0683886855840683,-0.020918194204568863,0.08712176233530045,-0.0509888157248497
33.2,-0.13190989196300507,0.24949456751346588,-0.17529967427253723,-0.046933095902204514,0.12769968807697296,-0.004797097761183977
33.25,-0.16511483490467072,-0.11073116213083267,-0.22496584057807922,-0.048652634024620056,0.06920090317726135,0.050236862152814865
33.3,-0.1024262085556984,-0.0838165432214737,-0.06532386690378189,-0.07628343999385834,0.06386085599660873,0.013209319673478603
33.35,-0.0907629132270813,0.09442047774791718,0.21598845720291138,-0.06820473074913025,0.09933393448591232,0.008448748849332333
33.4,-0.1462801843881607,0.22710804641246796,0.157972514629364,-0.04969518259167671,0.08937747776508331,-0.00200224993750453
33.45,-0.010845164768397808,0.2728882133960724,0.11679770052433014,-0.024731682613492012,0.021814554929733276,0.013341882266104221
33.5,-0.10258692502975464,0.14904214441776276,0.023397210985422134,-0.005561173893511295,-0.07200441509485245,0.031107759103178978
33.55,-0.11318201571702957,0.0018539943266659975,0.41872116923332214,0.013404058292508125,-0.14823971688747406,-0.020170388743281364
33.6,0.16749684512615204,0.13007259368896484,-0.09833291172981262,0.013774075545370579,-0.10179807990789413,-0.1013253703713417
33.65,-0.13157205283641815,0.08901211619377136,-0.3306003510951996,0.017024902626872063,-0.0894864872097969,-0.05404672026634216
33.7,-0.24398711323738098,-0.1141672283411026,-0.012780209071934223,0.004995810799300671,-0.10111813992261887,-0.020716721192002296
33.75,0.2793276906013489,0.18100929260253906,-0.10024479776620865,-0.012909192591905594,0.004704173654317856,-0.09069792181253433
33.8,-0.045311421155929565,0.07863998413085938,-0.039985235780477524,0.00211532786488533,0.036967933177948,0.0378277488052845
33.85,-0.06848334521055222,0.21590138971805573,-0.07944387942552567,0.015378426760435104,0.029816770926117897,-0.031132197007536888
33.9,-0.4665229618549347,0.21664048731327057,-0.22036641836166382,0.012782675214111805,0.024320675060153008,0.07263442873954773
33.95,0.11115355789661407,0.24082285165786743,0.31995832920074463,0.021839214488863945,-0.05872858315706253,0.024709202349185944
34.0,0.10498640686273575,-0.008966444991528988,0.02511361986398697,0.007887536659836769,0.004022028762847185,0.00025898462627083063
34.05,-0.07581468671560287,0.03358076885342598,-0.12161959707736969,0.04825536906719208,-0.005973967723548412,0.02884514629840851
34.1,-0.0027176798321306705,0.0630350112915039,-0.06148115172982216,0.027341261506080627,-0.027342190966010094,0.029621044173836708
34.15,0.20030823349952698,0.051290515810251236,-0.021809902042150497,-0.014855621382594109,0.04950045794248581,-0.04540437459945679
34.2,-0.1859470009803772,0.05511951446533203,-0.08803696185350418,0.0021054658573120832,0.07345595210790634,0.004834637977182865
34.25,-0.1620270162820816,0.0355224572122097,-0.07008747011423111,0.006053674966096878,0.05453522130846977,-0.021392790600657463
34.3,-0.02386871725320816,0.09941481053829193,-0.26538601517677307,-0.02356901206076145,0.09687438607215881,-0.02657080441713333
34.35,-0.17813345789909363,0.07784463465213776,0.06549116969108582,-0.04771598428487778,0.07829249650239944,0.036311689764261246
34.4,-0.17103540897369385,0.0910988599061966,0.5762559771537781,-0.0316455140709877,-0.03563428670167923,0.009494099766016006
34.45,-0.015933360904455185,0.03835773840546608,0.013063936494290829,-0.006725536193698645,-0.06163124367594719,0.0017434235196560621
34.5,-0.08866432309150696,0.1660594791173935,-0.2754577100276947,-0.004563268274068832,-0.0325312614440918,0.004213711246848106
34.55,-0.18717741966247559,-0.02160360850393772,-0.2076866179704666,-0.015182778239250183,-0.04875761643052101,0.03843271732330322
34.6,0.19791732728481293,0.08052163571119308,0.4140419065952301,-0.013781705871224403,-0.11936956644058228,-0.04833675175905228
34.65,0.19385822117328644,0.13185402750968933,-0.365878164768219,0.0022909173276275396,-0.02758750505745411,-0.015568971633911133
34.7,-0.2387201339006424,0.023678764700889587,-0.1885666400194168,-0.023792199790477753,0.0354110486805439,-0.012416857294738293
34.75,0.03870908170938492,0.027941711246967316,0.034551750868558884,-0.022745607420802116,0.034704118967056274,-0.06340377032756805
34.8,-0.10093122720718384,0.2542124092578888,0.10135146975517273,0.027693627402186394,-0.020708275958895683,0.01708545908331871
34.85,-0.04833853244781494,0.18508438766002655,0.22815199196338654,0.023890063166618347,-0.04573631286621094,-0.01886349730193615
34.9,0.0465552918612957,0.23922540247440338,-0.10894995927810669,-0.014938033185899258,0.010393092408776283,-0.11162444949150085
34.95,-0.20364879071712494,-0.14497092366218567,-0.18504734337329865,0.021540097892284393,-0.024646513164043427,-0.05089975520968437
35.0,0.2486247420310974,0.1800728291273117,0.2876593768596649,0.024539513513445854,0.012750133872032166,-0.10862366110086441
35.05,-0.04482695832848549,0.04534342139959335,0.15867723524570465,-0.012445198372006416,0.11815081536769867,-0.12583740055561066
35.1,-0.1448904275894165,0.12542057037353516,-0.17122693359851837,-0.003414673265069723,-0.011978555470705032,-0.04749240353703499
35.15,0.010902363806962967,0.2687701880931854,-0.413502961397171,-0.06505076587200165,0.007642833050340414,-0.02180136740207672
35.2,-0.12765131890773773,0.17939192056655884,0.38321438431739807,-0.04481038823723793,-0.02207980491220951,-0.004095309879630804
35.25,-0.05729984864592552,0.1307249367237091,0.06756161153316498,-0.02060079202055931,-0.03324711322784424,0.0020540920086205006
35.3,-0.21465444564819336,0.08498764038085938,-0.11458240449428558,0.006102618761360645,-0.06657623499631882,0.014045274816453457
35.35,-0.2446291446685791,0.06197739392518997,-0.020359663292765617,0.00847603753209114,-0.08893433958292007,0.008981678634881973
35.4,0.06006685271859169,0.10800840705633163,0.09784554690122604,-0.0616309717297554,0.034769997000694275,-0.02968425303697586
35.45,-0.12454652786254883,0.02490142360329628,0.23423638939857483,-0.06603311002254486,0.07615648955106735,-0.017198363319039345
35.5,0.17452821135520935,0.20956899225711823,-0.16643548011779785,-0.002867298200726509,-0.037659768015146255,-0.07309621572494507
35.55,-0.2238297313451767,0.09536171704530716,-0.10547293722629547,-0.0037664552219212055,-0.033956222236156464,-0.01551364827901125
35.6,0.11912904679775238,0.31707483530044556,0.15501707792282104,-0.02775471657514572,-0.07146836817264557,-0.06085930019617081
35.65,0.3462637960910797,0.06638523936271667,-0.255279541015625,-0.039951346814632416,-0.0538770817220211,-0.07845279574394226
35.7,0.06183008477091789,0.04917430877685547,-0.04483633115887642,-0.020311757922172546,-0.02655935473740101,-0.07707894593477249
35.75,0.04855801910161972,0.22901445627212524,0.20783072710037231,-0.072169229388237,0.1501035988330841,-0.08346476405858994
35.8,-0.5189564824104309,0.04557324945926666,0.022796383127570152,-0.05310108885169029,0.03213098645210266,-0.007897451519966125
35.85,0.45504647493362427,0.9834643006324768,-0.38414281606674194,-0.04943111911416054,-0.11778250336647034,-0.033307887613773346
35.9,-0.2620140016078949,0.0675525814294815,0.001590453670360148,-0.12819401919841766,0.026518482714891434,0.12082495540380478
35.95,-0.06757884472608566,0.08176232874393463,0.08237522095441818,-0.07556405663490295,-0.015842150896787643,0.030499057844281197
36.0,-0.43383681774139404,0.07471271604299545,-0.4575501084327698,-0.010597839951515198,-0.12372379004955292,0.031521789729595184
36.05,-0.1216559112071991,0.3877573609352112,0.01591143198311329,-0.027494553476572037,-0.1380118727684021,0.06684049963951111
36.1,-0.0480983667075634,-0.25983816385269165,-0.2780470848083496,-0.07462582737207413,-0.07452014088630676,-0.01251588761806488
36.15,-0.32333365082740784,0.0298356544226408,-0.4658673405647278,0.01505694817751646,-0.10356000810861588,-0.04121217504143715
36.2,0.17054982483386993,0.3589591979980469,-0.18935486674308777,0.054658278822898865,-0.10194183886051178,-0.060203682631254196
36.25,-0.06932663172483444,0.037313420325517654,-0.38030681014060974,-0.004462834447622299,-0.043635044246912,-0.18358726799488068
36.3,-0.47357454895973206,0.3485270142555237,0.24250860512256622,-0.029097389429807663,-0.18142728507518768,-0.21699942648410797
36.35,-0.4844531714916229,-0.4499187469482422,0.3722987174987793,0.034719038754701614,-0.42221519351005554,-0.025932004675269127
36.4,0.135875403881073,-0.3391677141189575,-0.8470155000686646,-0.012788904830813408,-0.6495463252067566,0.10603275895118713
36.45,0.5696209669113159,0.17338640987873077,-1.3984930515289307,0.04544898122549057,-0.7361911535263062,0.2892737090587616
36.5,0.5969603657722473,0.041413139551877975,-1.366979718208313,0.0967743843793869,-0.4202209413051605,0.26308438181877136
36.55,-0.13459840416908264,-0.09211074560880661,-0.9199540615081787,-0.01376761682331562,-0.21979276835918427,0.018535345792770386
36.6,-1.1706923246383667,0.5996152758598328,0.6658322215080261,0.05516848713159561,-0.29251936078071594,-0.10395669937133789
36.65,-0.905724048614502,0.22700317203998566,0.20810779929161072,0.1787944883108139,-0.5817878842353821,0.06277144700288773
36.7,-0.7304599285125732,0.02695563994348049,0.17324262857437134,0.1264808475971222,-0.8170528411865234,0.3029731214046478
36.75,-0.6732361912727356,-0.09235477447509766,-0.001711387070827186,0.11542646586894989,-0.9052135944366455,0.5306911468505859
36.8,-0.15854719281196594,0.44421860575675964,-0.8978788256645203,0.10231181979179382,-1.0265555381774902,0.5139244198799133
36.85,-0.7449769377708435,0.7876864671707153,-0.21400003135204315,0.004878923296928406,-0.7788647413253784,0.46921250224113464
36.9,-0.9905272722244263,-0.8556920289993286,-0.018261870369315147,-0.07647138088941574,-0.5994502902030945,0.29589763283729553
36.95,-0.13238148391246796,-1.4419509172439575,0.30569109320640564,0.09544998407363892,-0.8487851023674011,-0.14867648482322693
37.0,-1.0538090467453003,-0.7978887557983398,0.9253808259963989,0.1582125723361969,-0.9472070336341858,-0.04319795221090317
37.05,-0.4065607190132141,0.6646071672439575,0.5826005339622498,0.10083126276731491,-1.236501932144165,0.03458229824900627
37.1,0.8687353134155273,0.37387940287590027,-0.485353946685791,-0.00849925260990858,-1.3572999238967896,0.14993397891521454
37.15,1.4718992710113525,-0.35260018706321716,-0.2673981487751007,-0.015222497284412384,-1.0725806951522827,-0.021426362916827202
37.2,1.0406378507614136,1.5101512670516968,0.9176236987113953,0.10375998914241791,-0.6148333549499512,-0.25938981771469116
37.25,-0.09186499565839767,1.9368157386779785,1.666411280632019,-0.008946027606725693,-0.4558943510055542,-0.3443593978881836
37.3,-0.012652814388275146,1.5393643379211426,1.6749588251113892,0.04532875120639801,-0.47527700662612915,-0.22251774370670319
37.35,0.6068397164344788,0.10315331071615219,0.6734687089920044,0.09064869582653046,-0.37284499406814575,-0.18877293169498444
37.4,0.8285558819770813,-0.5857715606689453,0.38767388463020325,0.08945003896951675,-0.09548056125640869,-0.25289079546928406
37.45,-0.03641952946782112,-0.6852750778198242,0.35556694865226746,-0.012846352532505989,0.31913456320762634,-0.1988513469696045
37.5,-0.040529411286115646,-0.5205746293067932,-0.0018238330958411098,-0.06655864417552948,0.6144170165061951,-0.1860581487417221
37.55,-0.6290420293807983,0.4904080331325531,0.10546649992465973,-0.17327432334423065,0.8797675371170044,-0.17526377737522125
37.6,-1.1072039604187012,0.8546497225761414,0.4241577982902527,-0.14467133581638336,1.0851306915283203,-0.08751046657562256
37.65,-1.2107319831848145,0.5794803500175476,0.9170678853988647,-0.1470966339111328,1.073923110961914,0.07660996168851852
37.7,-0.9569036960601807,0.1498987227678299,1.4098578691482544,-0.23637615144252777,0.9243658781051636,0.22088567912578583
37.75,-1.078994870185852,-0.4929627776145935,0.8688392639160156,-0.4213102459907532,0.8732385039329529,0.28082042932510376
37.8,-0.5820409655570984,-0.27289968729019165,-0.27361011505126953,-0.6255759000778198,0.8627248406410217,0.39096152782440186
37.85,-0.26423919200897217,-0.0674353539943695,-0.7156362533569336,-0.5490199327468872,0.8047439455986023,0.33124011754989624
37.9,0.44945093989372253,-0.7514182925224304,-0.2518143355846405,-0.17908865213394165,0.7521036267280579,0.08014709502458572
37.95,0.5201939344406128,-1.207855463027954,-0.5577113628387451,-0.057391077280044556,0.7751292586326599,-0.07485827058553696
38.0,1.0502701997756958,-1.0778439044952393,-0.9234603047370911,-0.06341052055358887,0.8081960678100586,-0.273955374956131
38.05,1.0177748203277588,0.615175187587738,-1.014214038848877,0.09619024395942688,0.9116262793540955,-0.5621501803398132
38.1,0.8496002554893494,0.40743348002433777,-0.5796532034873962,0.12452483177185059,0.9913924336433411,-0.4581736922264099
38.15,0.0057758549228310585,0.0048684971407055855,-0.08889786154031754,0.06785943359136581,0.9943548440933228,-0.3562139570713043
38.2,0.8894339203834534,0.7710906863212585,0.42133185267448425,0.17933012545108795,0.7038319110870361,-0.4133763313293457
38.25,0.6850444674491882,0.9564715623855591,0.07159530371427536,0.42467421293258667,0.40467315912246704,-0.3434888422489166
38.3,0.6871709823608398,0.1199759915471077,-0.5086368322372437,0.49499794840812683,0.08599817007780075,-0.17033256590366364
38.35,1.046651840209961,1.5550700426101685,-0.9406710267066956,0.3894650936126709,0.05775066465139389,-0.2062937468290329
38.4,0.4353744089603424,0.8271608948707581,-0.32675889134407043,0.4737858474254608,0.12111940234899521,-0.0913202315568924
38.45,0.3669145405292511,0.1558646708726883,-0.44790327548980713,0.5261916518211365,-0.006681020837277174,0.04515761882066727
38.5,0.4551156759262085,-0.3421536684036255,-0.5731847882270813,0.35639944672584534,-0.13164517283439636,0.13482022285461426
38.55,0.13260498642921448,-0.4764261841773987,-0.01281732227653265,0.13305415213108063,-0.2176435887813568,0.20932301878929138
38.6,0.582985520362854,0.030599581077694893,-0.06404808908700943,0.03668133541941643,-0.35486268997192383,0.2651125490665436
38.65,0.7022305727005005,0.49820321798324585,-1.0320971012115479,0.05813397839665413,-0.43751344084739685,0.2593190371990204
38.7,0.842623770236969,0.28904902935028076,-1.1552587747573853,-0.07138025760650635,-0.38779717683792114,0.44491443037986755
38.75,0.4798358082771301,0.10182564705610275,-0.6320781707763672,-0.13608890771865845,-0.3690231740474701,0.5433036088943481
38.8,0.08339286595582962,0.19413848221302032,-0.5989804267883301,-0.1614750325679779,-0.36445939540863037,0.5606205463409424
38.85,-0.07150501012802124,0.012639015913009644,-0.2802410125732422,-0.14970748126506805,-0.25154930353164673,0.45250341296195984
38.9,-0.21303226053714752,-0.138671875,0.10105782747268677,-0.1673172414302826,-0.10635245591402054,0.2266748994588852
38.95,0.08430265635251999,-0.7053328156471252,0.10171730071306229,-0.219346284866333,0.0147441066801548,0.08373995125293732
39.0,-0.15477131307125092,-0.3240518271923065,0.4602771997451782,-0.11339469999074936,0.014809129759669304,-0.07519302517175674
39.05,-0.28386199474334717,-0.028272636234760284,-0.07152997702360153,-0.08906660228967667,-0.04704926162958145,-0.018546273931860924
39.1,-0.4078832268714905,-0.5487327575683594,0.28506937623023987,-0.09854007512331009,-0.022785978391766548,-0.020812150090932846
39.15,-0.10181305557489395,-0.49626630544662476,0.9816358685493469,0.015859760344028473,-0.06986527144908905,-0.20112161338329315
39.2,-0.3048210144042969,0.04372134804725647,1.1976732015609741,0.04008883610367775,-0.16316011548042297,-0.3092989921569824
39.25,-0.16491112112998962,1.0506260395050049,1.3330291509628296,0.0709989070892334,-0.24899372458457947,-0.3406030833721161
39.3,0.16783538460731506,0.516033411026001,1.3694367408752441,0.059200529009103775,-0.25356385111808777,-0.392549067735672
39.35,-0.13893108069896698,-0.0886276438832283,1.4778193235397339,0.030046654865145683,-0.32852014899253845,-0.4098736643791199
39.4,0.5116778612136841,-0.348958820104599,1.4616492986679077,0.05685794726014137,-0.39596879482269287,-0.3959011733531952
39.45,0.2593228816986084,-0.12398231029510498,1.1823848485946655,0.18220803141593933,-0.38497522473335266,-0.4040500521659851
39.5,0.39210182428359985,-0.2673128843307495,1.2292011976242065,0.2862953841686249,-0.34582048654556274,-0.263772577047348
39.55,0.40368807315826416,0.1832248866558075,1.646479606628418,0.23487362265586853,-0.24198409914970398,-0.12423193454742432
39.6,-0.09526374936103821,0.7558721303939819,1.907958984375,0.08026082068681717,-0.16568498313426971,0.021169157698750496
39.65,0.026137590408325195,0.4810812175273895,1.2323369979858398,0.024666737765073776,-0.13027910888195038,0.11731759458780289
39.7,0.6688731908798218,1.1659098863601685,0.22256307303905487,0.051663175225257874,-0.0922156572341919,0.13093993067741394
39.75,-0.010193079710006714,0.8373394012451172,-0.9799575805664062,0.0373670794069767,0.10331571102142334,0.015011344105005264
39.8,-0.15304671227931976,0.7782878875732422,-0.8601087927818298,0.05766977742314339,0.3304900825023651,-0.10521350055932999
39.85,-0.4543280005455017,1.6509391069412231,-0.6847128868103027,-0.2410251647233963,0.5154910087585449,-0.04818879812955856
39.9,-0.6958099007606506,-0.10966691374778748,-0.705777645111084,-0.2867967188358307,0.6410765051841736,-0.02823890559375286
39.95,0.1965031623840332,-1.6258662939071655,-1.1750012636184692,-0.18889792263507843,0.5496180057525635,-0.12915678322315216
40.0,-0.07710239291191101,-1.2975904941558838,-1.2462786436080933,-0.08328664302825928,0.476675808429718,-0.06106921657919884
40.05,-0.06582723557949066,0.3564109206199646,-0.7987239956855774,-0.0195583775639534,0.3853161334991455,0.0540011003613472
40.1,0.11602985858917236,1.139394760131836,-1.0706278085708618,0.042516689747571945,0.2258298546075821,0.010927650146186352
40.15,0.6450599431991577,-0.4695360064506531,-1.008850336074829,-0.0189422145485878,0.10680602490901947,0.19792859256267548
40.2,0.509290337562561,-0.1836196631193161,-1.1928616762161255,-0.18232282996177673,0.15249957144260406,0.44470199942588806
40.25,0.16773147881031036,0.5114630460739136,-1.4934992790222168,-0.10862818360328674,0.039366722106933594,0.2655680179595947
40.3,0.03897944092750549,0.01865560933947563,-1.4312618970870972,0.03182898089289665,0.0015097414143383503,0.25822973251342773
40.35,-0.07357870042324066,-0.3026363253593445,-1.237908959388733,0.04579009860754013,-0.14488278329372406,0.11005271226167679
40.4,-0.2567594051361084,-0.41048163175582886,-1.151531457901001,0.08179932087659836,-0.23390525579452515,-0.004687097854912281
40.45,-0.013869896531105042,0.6861075758934021,-1.1221343278884888,0.2125519961118698,-0.3117637634277344,-0.11379233747720718
40.5,-0.15034659206867218,0.45598119497299194,-0.9231439828872681,0.1061309427022934,-0.3260864317417145,0.27507540583610535
40.55,-0.25010034441947937,0.13632488250732422,-0.10026811063289642,0.08421072363853455,-0.19858698546886444,0.1864708960056305
40.6,-0.2859235405921936,-0.5544739365577698,-0.24275487661361694,0.011343121528625488,-0.17690987884998322,0.2305745929479599
40.65,-0.6241174936294556,-0.26654723286628723,-0.10087618231773376,0.00838068313896656,-0.17936265468597412,0.212218776345253
40.7,-0.9733438491821289,-0.15338224172592163,0.4722643792629242,0.023506339639425278,-0.2278275042772293,0.2724978029727936
40.75,-0.9092597365379333,-0.2814558744430542,1.0399937629699707,0.09588144719600677,-0.2527768909931183,0.1299135535955429
40.8,-0.7350992560386658,-0.23289091885089874,1.4984424114227295,0.14245745539665222,-0.43800660967826843,0.03885689377784729
40.85,-0.5618815422058105,0.40831780433654785,1.3646535873413086,0.0762782022356987,-0.5493056178092957,0.018593804910779
40.9,-0.5044845342636108,0.8100550174713135,0.7802444100379944,0.08291597664356232,-0.3756200671195984,-0.07349129766225815
40.95,0.18087512254714966,0.36045369505882263,0.49419620633125305,0.03955020755529404,-0.2210097461938858,-0.1997784823179245
41.0,-0.11420077830553055,-0.5061321258544922,0.5228376388549805,-0.004216428846120834,-0.07251188904047012,-0.2757335603237152
41.05,0.05076110363006592,-0.5686168074607849,0.9364711046218872,-0.014257289469242096,0.05438699945807457,-0.2680950164794922
41.1,-0.18347668647766113,0.12450610101222992,0.7056967616081238,-0.06483042240142822,0.19066767394542694,-0.14794814586639404
41.15,0.267259418964386,0.47742003202438354,1.1080677509307861,-0.004418171942234039,0.34098097681999207,-0.22808240354061127
41.2,0.427400141954422,0.47710058093070984,1.2692078351974487,-0.1131822019815445,0.4494926929473877,-0.14605532586574554
41.25,-0.047769926488399506,0.6402389407157898,1.0724692344665527,-0.24860410392284393,0.47670331597328186,0.07419519126415253
41.3,-0.42819321155548096,1.1628572940826416,1.2048923969268799,-0.23644208908081055,0.5303133130073547,0.059008996933698654
41.35,0.04370399937033653,0.35450366139411926,-0.09848646074533463,-0.2485569715499878,0.5394955277442932,-0.05166912451386452
41.4,0.1013469398021698,-0.20366491377353668,-0.8349528908729553,-0.13027602434158325,0.518526017665863,-0.12089903652667999
41.45,-0.4071040451526642,0.44351959228515625,-0.6214194297790527,-0.16375410556793213,0.7494072318077087,-0.021773511543869972
41.5,-0.8881228566169739,-0.18863114714622498,-0.5904567241668701,-0.14566168189048767,0.8245247602462769,-0.030565662309527397
41.55,-0.6462116241455078,-0.5211402773857117,-1.0739996433258057,-0.10910676419734955,0.5866020321846008,-0.2772922217845917
41.6,-0.045593567192554474,-0.37534159421920776,-0.9270464181900024,-0.14567577838897705,0.2426842600107193,-0.13178668916225433
41.65,-0.0003231614828109741,0.05688468739390373,-0.7382364273071289,-0.033178623765707016,0.11716858297586441,0.048581305891275406
41.7,-0.1338672637939453,0.13652417063713074,-0.398460328578949,0.06301388889551163,-0.06169838830828667,0.17123296856880188
41.75,0.13710610568523407,-0.11869534850120544,-0.6240575313568115,-0.01023137103766203,-0.08239110559225082,0.15043053030967712
41.8,0.05002922937273979,0.15621086955070496,-0.4268202483654022,-0.01860048994421959,0.01098547875881195,0.022502770647406578
41.85,-0.06469970941543579,0.34612274169921875,-0.246280238032341,0.04556054249405861,0.031297601759433746,0.09444579482078552
41.9,-0.12150993943214417,0.4898567497730255,-0.34844300150871277,0.044448889791965485,-0.011142801493406296,0.06252489238977432
41.95,0.012655600905418396,0.2665404677391052,-0.7236939072608948,-0.018092721700668335,-0.008551171980798244,0.0430060438811779
42.0,-0.04413159191608429,-0.07207690924406052,-0.9109026193618774,-0.04058319702744484,-0.028614189475774765,0.10661085695028305
42.05,0.10875031352043152,-0.10754688084125519,-0.46588170528411865,-0.004932815209031105,-0.004884617403149605,0.17621482908725739
42.1,-0.17212329804897308,0.15513232350349426,0.13652870059013367,-0.00963793508708477,0.00046759078395552933,0.16983720660209656
42.15,0.2640184760093689,0.25333598256111145,-0.028381582349538803,0.04963667318224907,-0.08027546852827072,0.056438349187374115
42.2,0.026886627078056335,-0.2481098622083664,-0.16550329327583313,0.02179257571697235,-0.01570284366607666,0.08340567350387573
42.25,-0.13364353775978088,-0.13286113739013672,0.12041804194450378,0.06960353255271912,-0.05300204083323479,-0.10512209683656693
42.3,-0.01200593076646328,-0.006487813778221607,0.2801825702190399,0.07483579218387604,-0.07232347130775452,-0.2060645967721939
42.35,-0.1303941160440445,0.09164717048406601,0.09195011854171753,0.04229516535997391,-0.0700794979929924,-0.1848989725112915
42.4,-0.29366520047187805,-0.1841745525598526,0.019340958446264267,0.014354406856000423,-0.11298762261867523,-0.09072677046060562
42.45,0.12996144592761993,0.28878122568130493,0.19992047548294067,0.01332928892225027,-0.13107731938362122,-0.10675376653671265
42.5,0.09106732159852982,0.13912110030651093,0.30532243847846985,0.03169548511505127,-0.1611265242099762,-0.06008745729923248
42.55,0.09439057111740112,0.07778838276863098,0.21765202283859253,0.04094179347157478,-0.16199173033237457,-0.051454778760671616
42.6,0.014155486598610878,0.08977223187685013,-0.020037196576595306,0.053935110569000244,-0.18851573765277863,-0.044840775430202484
42.65,-0.12428008764982224,0.03506564721465111,-0.07449129968881607,0.05008348077535629,-0.18510369956493378,-0.0437539741396904
42.7,-0.15717479586601257,0.25948241353034973,0.08002021908760071,0.06185134872794151,-0.15623445808887482,-0.05565487965941429
42.75,0.024233972653746605,0.34073546528816223,-0.029690096154808998,0.02647906169295311,-0.13568252325057983,-0.00652301823720336
42.8,-0.23127368092536926,-0.038613349199295044,-0.2399573028087616,-0.009108567610383034,-0.0690300390124321,0.113746277987957
42.85,0.15292535722255707,-0.2136707454919815,0.08407530933618546,0.021687902510166168,-0.061366867274045944,0.12639398872852325
42.9,0.04061061143875122,0.29459384083747864,0.03905034810304642,0.07941125333309174,-0.08300638198852539,0.05347878113389015
42.95,0.25101935863494873,0.27145007252693176,0.0861566811800003,0.10334813594818115,-0.054536063224077225,-0.02654624730348587
43.0,-0.3438527584075928,0.07110025733709335,0.06474732607603073,0.08588229864835739,-0.03657643496990204,-0.0945160761475563
43.05,-0.12012755125761032,0.04365447163581848,0.21141329407691956,0.09909001737833023,-0.09762313961982727,-0.06259602308273315
43.1,-0.07996084541082382,0.12785914540290833,0.09355101734399796,0.11083333939313889,-0.12238804250955582,-0.03159012645483017
43.15,0.07371421158313751,0.10644248872995377,0.21248318254947662,0.08698088675737381,-0.09120960533618927,-0.02467954531311989
43.2,0.02477017045021057,0.005711567588150501,0.1000058650970459,0.03073803521692753,-0.05252028629183769,-0.025623831897974014
43.25,-0.05969883129000664,0.1388254463672638,0.1373598426580429,0.03546633571386337,-0.05946515128016472,-0.020630795508623123
43.3,-0.0199759341776371,0.023158079013228416,0.03032972291111946,0.04679589346051216,-0.08805809915065765,-0.016586612910032272
43.35,-0.03320716321468353,-0.1995401829481125,-0.068973109126091,0.07585504651069641,-0.07119903713464737,-0.12512168288230896
43.4,0.08879911154508591,-0.3721056878566742,-0.42221131920814514,0.15953215956687927,-0.06238836795091629,-0.28155025839805603
43.45,0.14043787121772766,-0.41914668679237366,-0.7917174100875854,0.23190730810165405,-0.021150261163711548,-0.373656302690506
43.5,0.13066589832305908,-0.277780681848526,-0.8951243758201599,0.2615070044994354,0.022482316941022873,-0.3767707943916321
43.55,0.19565004110336304,-0.4032556414604187,-1.051818609237671,0.3258131444454193,0.010109108872711658,-0.38716456294059753
43.6,0.23525816202163696,-0.6302759051322937,-1.08100163936615,0.3265782594680786,0.006634359247982502,-0.33813393115997314
43.65,0.22574368119239807,-0.2647944986820221,-0.9829287528991699,0.29235583543777466,-0.0929163321852684,-0.17782454192638397
43.7,0.2358514368534088,-0.430803507566452,-1.1544629335403442,0.40563851594924927,-0.19893525540828705,-0.18374040722846985
43.75,0.08658789098262787,-1.0312732458114624,-2.0113067626953125,0.43250757455825806,-0.16220547258853912,-0.1756313145160675
43.8,-0.2934165298938751,-1.3536533117294312,-2.2418301105499268,0.4113728702068329,-0.03445317596197128,-0.2910001575946808
43.85,-0.02300959825515747,-0.2805064022541046,-2.0119974613189697,0.6648600101470947,0.017898954451084137,-0.5059138536453247
43.9,-0.4233514666557312,0.4109134078025818,-1.1061843633651733,0.665698766708374,0.1173333153128624,-0.3728494644165039
43.95,-0.31991881132125854,1.0601913928985596,1.2637677192687988,0.5746485590934753,0.23586513102054596,-0.09966948628425598
44.0,-0.5790894627571106,1.895495057106018,2.9119203090667725,0.5425244569778442,0.33017200231552124,0.008446155115962029
44.05,0.16957804560661316,1.0984711647033691,2.8314766883850098,0.4030150771141052,0.17910413444042206,0.24210207164287567
44.1,1.1940456628799438,4.0548810958862305,3.9010119438171387,0.40825819969177246,0.2208815962076187,0.1329067498445511
44.15,0.8036357164382935,2.8180956840515137,2.815535545349121,0.2922182083129883,0.1459001898765564,0.3796233832836151
44.2,-0.45431333780288696,1.5030903816223145,2.3907558917999268,-0.01413847878575325,-0.11349307745695114,0.4826316833496094
44.25,-0.6194610595703125,0.7944216132164001,2.4232306480407715,-0.07977491617202759,-0.24134814739227295,0.43121859431266785
44.3,0.06792089343070984,-0.6256158947944641,2.0002434253692627,-0.13255715370178223,-0.14943784475326538,0.12828123569488525
44.35,0.09600001573562622,-1.6420326232910156,1.6052899360656738,-0.33271723985671997,-0.2606165409088135,0.1416587382555008
44.4,-0.27759528160095215,-1.3513555526733398,1.246303915977478,-0.4736168086528778,-0.28207525610923767,0.03150000795722008
44.45,-0.08962363749742508,-0.7542152404785156,1.0857218503952026,-0.5038965940475464,-0.3942301571369171,0.02909110300242901
44.5,0.28903916478157043,-0.2315291464328766,1.0507570505142212,-0.420289009809494,-0.38654008507728577,0.07805754244327545
44.55,0.5803601145744324,0.4077112078666687,1.1057790517807007,-0.480726033449173,-0.24266082048416138,0.1137467473745346
44.6,0.44401001930236816,0.7014296054840088,1.3205220699310303,-0.4876834452152252,-0.05957086384296417,0.15897811949253082
44.65,0.31543347239494324,1.117340326309204,1.1431849002838135,-0.42228108644485474,0.08323465287685394,0.06527692824602127
44.7,0.055554620921611786,-0.008837644010782242,0.48784446716308594,-0.44309285283088684,0.15649445354938507,0.22645573318004608
44.75,-0.13620010018348694,-1.0764027833938599,0.29069629311561584,-0.4184724688529968,0.1283075362443924,0.22198106348514557
44.8,-0.11123085021972656,-0.9251061677932739,-0.09243325144052505,-0.4651295244693756,0.37186259031295776,0.10874046385288239
44.85,-0.040699273347854614,-0.3936254680156708,-1.2631094455718994,-0.41126447916030884,0.5211541056632996,-0.07120625674724579
44.9,-0.580169141292572,-0.1905299872159958,-1.1997681856155396,-0.1980583369731903,0.44921109080314636,-0.21185842156410217
44.95,-0.3226318657398224,-0.5681650042533875,-0.8780754804611206,-0.1453392505645752,0.3559064567089081,-0.2520734667778015
45.0,-0.3199270963668823,-1.0379202365875244,-1.3519121408462524,-0.10937753319740295,0.20172083377838135,-0.3092105984687805
45.05,0.23947444558143616,-0.080789715051651,-1.1857181787490845,0.10032019764184952,-0.08234331756830215,-0.33264631032943726
45.1,0.08611883968114853,-0.7472526431083679,-0.8379071354866028,0.253978431224823,-0.2034246325492859,-0.10934529453516006
45.15,0.1000828742980957,-0.57087242603302,-0.7334500551223755,0.32094064354896545,-0.11508224159479141,-0.1575821489095688
45.2,0.02727186679840088,-0.5891010165214539,-1.0566164255142212,0.4958028197288513,-0.09435006976127625,-0.3461344242095947
45.25,-0.16628503799438477,-0.9881632328033447,-1.0787690877914429,0.6493741869926453,-0.13027454912662506,-0.5901265740394592
45.3,-0.06654424965381622,-1.2491209506988525,-1.3177143335342407,0.8256062269210815,-0.10271380096673965,-0.7136307954788208
45.35,-0.12353669106960297,-0.7305519580841064,-1.3710294961929321,0.9206737279891968,0.045440755784511566,-0.6350115537643433
45.4,-0.060593381524086,0.716401994228363,-1.1240489482879639,0.9823744893074036,0.190378338098526,-0.6345411539077759
45.45,-0.09415243566036224,0.8998880386352539,-1.1283955574035645,0.9544594883918762,0.22459539771080017,-0.670279860496521
45.5,0.46270495653152466,0.9262877106666565,-0.548373818397522,0.9812881946563721,0.28573474287986755,-0.5048297047615051
45.55,-0.04199150949716568,1.2177010774612427,0.3088078200817108,0.7660326361656189,0.09595931321382523,0.02301892265677452
45.6,-0.39994221925735474,0.4685099124908447,1.4598041772842407,0.4960234761238098,-0.15011239051818848,-0.05850016698241234
45.65,-0.46865856647491455,0.6225520968437195,1.184260606765747,0.16963519155979156,-0.4496123790740967,-0.1773892045021057
45.7,0.8926395773887634,1.2492533922195435,0.2603251338005066,0.10808252543210983,-0.5162465572357178,-0.01728832721710205
45.75,0.04290458559989929,1.770885944366455,2.2211499214172363,0.1413431465625763,-0.21855928003787994,0.13719256222248077
45.8,0.27784499526023865,1.343308925628662,2.6593399047851562,-0.20788803696632385,-0.3197721838951111,0.15679559111595154
45.85,0.5723378658294678,1.125440001487732,1.6706475019454956,-0.529731035232544,-0.34991708397865295,0.2564794719219208
45.9,0.642737090587616,0.9467891454696655,2.236940383911133,-0.6396958231925964,-0.26410970091819763,0.299618124961853
45.95,0.7355260252952576,0.8980783224105835,2.1327595710754395,-0.6799957752227783,-0.2063685953617096,0.3930997848510742
46.0,0.6782370805740356,0.587685763835907,1.286536455154419,-0.7559694051742554,-0.2420906126499176,0.4640003740787506
46.05,0.4383263885974884,-0.020471500232815742,0.6794488430023193,-0.8121093511581421,-0.14976432919502258,0.5119856595993042
46.1,-0.08576230704784393,-0.4558725655078888,0.32730633020401,-0.7435561418533325,-0.09788862615823746,0.5091875791549683
46.15,-0.0605800598859787,-0.7779713869094849,0.034211501479148865,-0.6512096524238586,0.030148809775710106,0.5010313987731934
46.2,-0.1472395807504654,-0.29518988728523254,-0.03280000761151314,-0.6062807440757751,0.1996132731437683,0.3970881998538971
46.25,0.21536484360694885,-0.43720921874046326,-0.205447718501091,-0.6259648203849792,0.23681260645389557,0.4389227330684662
46.3,0.0009849369525909424,-0.3102942109107971,-0.28269439935684204,-0.5895869135856628,0.22188463807106018,0.4266715943813324
46.35,-0.245391845703125,-0.48318973183631897,-0.6858143210411072,-0.617209255695343,0.2640025317668915,0.47194305062294006
46.4,-0.4703262746334076,-0.7364808917045593,-0.840403139591217,-0.5603959560394287,0.2670796513557434,0.4091646671295166
46.45,-0.08115068078041077,-0.6310721635818481,-0.6008709073066711,-0.49884724617004395,0.3499268591403961,0.23898813128471375
46.5,-0.19830277562141418,-0.2050124704837799,-0.9957677125930786,-0.5339345335960388,0.49810174107551575,0.17177119851112366
46.55,-0.5032217502593994,-0.21690857410430908,-0.7609778046607971,-0.493828147649765,0.43767884373664856,0.2610706686973572
46.6,-0.22306838631629944,-0.16009336709976196,-0.415488600730896,-0.4152258038520813,0.3276382088661194,0.18310147523880005
46.65,-0.14211128652095795,-0.363496869802475,-0.4904923737049103,-0.3794096112251282,0.1832222193479538,0.264455646276474
46.7,0.11358806490898132,0.10948275029659271,-0.2253454178571701,-0.2991110682487488,0.17159467935562134,0.2183334082365036
46.75,-0.11981228739023209,-0.13273906707763672,0.0615231916308403,-0.25847914814949036,0.19325204193592072,0.229867622256279
46.8,-0.06423810124397278,0.056040793657302856,0.1917632669210434,-0.12766888737678528,0.02603277750313282,0.1943163275718689
46.85,0.14910095930099487,0.4384012818336487,0.01991385966539383,-0.00168169429525733,-0.10841136425733566,0.0639566034078598
46.9,0.0927424281835556,0.27839195728302,0.6612730026245117,0.12679599225521088,-0.18043097853660583,-0.08428530395030975
46.95,0.4106772840023041,0.026930848136544228,0.35070115327835083,0.09013353288173676,-0.05809130519628525,-0.18245254456996918
47.0,0.07429136335849762,-0.3684530556201935,0.047792933881282806,0.03550204262137413,0.11297055333852768,-0.17586584389209747
47.05,-0.27591240406036377,-0.1806020736694336,0.15365584194660187,0.07152442634105682,0.21561644971370697,-0.13720741868019104
47.1,-0.4572726786136627,-0.34949496388435364,-0.00045904587022960186,0.14338669180870056,0.10769055783748627,-0.21891999244689941
47.15,0.17950941622257233,-0.20349982380867004,0.06549705564975739,0.21323372423648834,0.031962405890226364,-0.34762588143348694
47.2,0.39812999963760376,-0.006774905137717724,0.03418632596731186,0.2999138832092285,0.021867021918296814,-0.36065927147865295
