Time [s],Acc_x [m/s^2],Acc_y [m/s^2],Acc_z [m/s^2],Gyro_x [1/s],Gyro_y [1/s],Gyro_z [1/s]
0.0,3.4143459796905518,-0.7481833696365356,0.032419800758361816,-0.02625105157494545,0.07772012054920197,-0.14902296662330627
0.05,3.408175468444824,-0.6534072160720825,0.07449181377887726,0.004690941423177719,0.13129855692386627,-0.1149032786488533
0.1,2.690499782562256,0.13662531971931458,0.4142388105392456,0.2226635366678238,0.5221898555755615,0.15552550554275513
0.15,1.338848352432251,0.6202212572097778,0.4781046509742737,0.19395266473293304,0.6206182837486267,0.3870464563369751
0.2,0.774168074131012,0.11667539179325104,0.08963355422019958,0.006372850388288498,0.297838419675827,0.3526865839958191
0.25,0.6957291960716248,-0.31851106882095337,-0.10845734924077988,0.004649227485060692,0.03330611065030098,0.246829092502594
0.3,0.4161747395992279,-0.1379700005054474,-0.03895161673426628,0.08839873224496841,-0.11459162086248398,0.29249608516693115
0.35,-0.1150929257273674,0.21264271438121796,0.05340304598212242,0.11205679923295975,-0.11349469423294067,0.2488020360469818
0.4,-0.2042865753173828,0.03590397164225578,0.2752750515937805,0.10587196797132492,-0.06287360936403275,0.08257102966308594
0.45,0.190872460603714,0.2137967050075531,0.5660707354545593,0.0788777768611908,-0.1234956756234169,-0.08683301508426666
0.5,0.3874207139015198,0.37927451729774475,0.7724816203117371,0.019725747406482697,-0.2549854516983032,-0.12157972902059555
0.55,-0.25274384021759033,1.2973788976669312,2.000525951385498,0.05315288156270981,-0.2868441045284271,-0.24000635743141174
0.6,-1.313391923904419,5.053106307983398,4.254902362823486,0.008950814604759216,-0.0992431789636612,-0.6853537559509277
0.65,-1.0006864070892334,4.73859167098999,1.8762506246566772,-1.850573182106018,1.093263864517212,-2.0065865516662598
0.7,-0.4984862208366394,3.0540785789489746,0.563592791557312,-2.0569803714752197,1.2548818588256836,-3.0863301753997803
0.75,1.4693224430084229,1.7344896793365479,-0.13935568928718567,-1.2725218534469604,0.8028421998023987,-3.929591178894043
0.8,2.771962881088257,0.26321882009506226,-0.3134085237979889,-0.32949554920196533,0.9905144572257996,-4.776704788208008
0.85,4.54741907119751,-0.5144644975662231,0.016288159415125847,0.3003745675086975,1.2467422485351562,-5.340851306915283
0.9,6.88554573059082,0.9961109161376953,0.07093638181686401,-0.6479902267456055,0.8070616722106934,-3.465043067932129
0.95,2.609550952911377,-1.8126457929611206,-4.825224876403809,-4.099793910980225,0.43482592701911926,1.7591911554336548
1.0,-0.6559745073318481,-7.200689792633057,-3.3736793994903564,-3.7001802921295166,0.8298275470733643,1.4989091157913208
1.05,3.0489914417266846,-2.4622645378112793,-1.2460877895355225,0.9878396987915039,-0.5250577926635742,-3.3801257610321045
1.1,5.410632133483887,-0.08601757138967514,1.0383884906768799,1.3578909635543823,-0.6405970454216003,-0.9825479388237
1.15,0.6834774613380432,-1.5936092138290405,-0.8705191016197205,-0.10133698582649231,0.5101423859596252,2.2055041790008545
1.2,-2.2283265590667725,0.9521217942237854,-0.972952127456665,-0.0742311030626297,0.7319715619087219,0.4156532287597656
1.25,-1.0192270278930664,1.0823098421096802,-0.0010204515419900417,-0.8251062035560608,-0.4700051546096802,-0.06433498859405518
1.3,0.22403492033481598,-2.9127156734466553,-0.002631085691973567,-1.4317233562469482,-1.1772925853729248,0.9321376085281372
1.35,1.0019230842590332,-0.0364256389439106,-0.24343745410442352,0.5551918148994446,-0.44958338141441345,-0.8509184122085571
1.4,0.0015667229890823364,-0.348741739988327,-1.4209133386611938,1.874183177947998,0.10956527292728424,-2.7621407508850098
1.45,1.9170198440551758,0.5650701522827148,-0.3341102600097656,3.532465696334839,0.20835240185260773,-5.2227911949157715
1.5,4.288321495056152,0.6301167011260986,2.0212979316711426,3.279407501220703,0.3966039717197418,-4.684579372406006
1.55,0.3745693564414978,-1.0494471788406372,-0.15214894711971283,-0.009750794619321823,0.09048167616128922,-0.08675650507211685
1.6,2.1548848152160645,0.02012556791305542,1.770477056503296,-0.6212486028671265,-0.5737802982330322,0.9099026918411255
1.65,2.8560781478881836,2.1981711387634277,1.6777822971343994,-1.7229042053222656,-0.049814119935035706,2.3778252601623535
1.7,-0.35610029101371765,0.8463906049728394,-1.914951205253601,-4.101791858673096,0.6051849722862244,5.530455112457275
1.75,-1.7545961141586304,-6.011932373046875,-1.07149338722229,-3.189406394958496,0.7703718543052673,4.691090106964111
1.8,0.5655428171157837,-2.384573221206665,0.3985680341720581,0.8107901215553284,-0.23063255846500397,-0.9372230172157288
1.85,2.3819737434387207,-1.1566592454910278,0.6365154981613159,1.785109281539917,-0.8159799575805664,-1.8187307119369507
1.9,4.296610355377197,-0.14950577914714813,-0.7062264680862427,0.9895357489585876,-0.5015391111373901,-0.21061202883720398
1.95,1.4070438146591187,-1.4285072088241577,-2.23799729347229,-0.8328335285186768,0.2257145643234253,2.284841775894165
2.0,0.24210023880004883,0.2369794100522995,-0.8275225162506104,0.12364707887172699,0.07780926674604416,1.4048633575439453
2.05,0.9829849004745483,-0.5375577211380005,-0.2557533085346222,0.4062187373638153,-0.46312853693962097,0.547538161277771
2.1,0.9220604300498962,-0.28596392273902893,1.0306719541549683,0.45742836594581604,-0.17085863649845123,0.27632805705070496
2.15,1.5002925395965576,-1.2734060287475586,1.0855131149291992,-0.20420125126838684,-0.4263446033000946,1.246064305305481
2.2,1.6620361804962158,-1.3874170780181885,-0.4442938268184662,-0.9246059656143188,-0.7976498603820801,2.9188408851623535
2.25,0.5335099101066589,0.022168895229697227,-1.785243034362793,-0.87928307056427,-0.8676463961601257,4.7998223304748535
2.3,-0.9110137820243835,2.2689754962921143,-0.8301326632499695,0.4823229908943176,-0.27666252851486206,4.390616416931152
2.35,-3.6020357608795166,3.462824583053589,0.9967148900032043,1.189476490020752,0.8199693560600281,0.6095287203788757
2.4,-2.503570079803467,3.461993932723999,1.407802700996399,0.659509539604187,-0.11641266942024231,-1.4325302839279175
2.45,-0.5611592531204224,1.165061354637146,1.5006706714630127,-0.1772473305463791,-1.7294867038726807,-0.9214174151420593
2.5,0.7682662010192871,1.5963730812072754,2.5652105808258057,-0.11293637007474899,-1.7170618772506714,-0.8554887771606445
2.55,-0.6410934925079346,3.5926733016967773,3.301133155822754,0.15790578722953796,-0.25025224685668945,-1.2947328090667725
2.6,-0.7230179309844971,2.4382121562957764,2.9460363388061523,-0.050628989934921265,0.4584856331348419,-1.460205316543579
2.65,0.6868196725845337,1.2278999090194702,1.9681307077407837,0.36308830976486206,0.7258322834968567,-1.9957293272018433
2.7,0.7524049282073975,1.1452553272247314,0.700583815574646,0.9041768312454224,1.3417091369628906,-3.4482836723327637
2.75,5.173455238342285,0.17943182587623596,-0.18674467504024506,0.4389815032482147,1.5951977968215942,-4.509726047515869
2.8,5.597255706787109,-2.8717148303985596,-3.1869077682495117,-1.2519043684005737,2.595682144165039,-2.580249071121216
2.85,-0.09589207172393799,-6.521267414093018,-4.696979522705078,-0.514752984046936,2.7877306938171387,-1.9658246040344238
2.9,4.016793727874756,-1.4418883323669434,-2.2446887493133545,2.3415040969848633,-0.14883553981781006,-3.8461968898773193
2.95,3.866347074508667,-1.0426706075668335,-1.0572375059127808,0.34604138135910034,-1.0921550989151,-2.4330248832702637
3.0,1.0890835523605347,-4.816661357879639,-1.308341383934021,-1.3277305364608765,-0.5367670655250549,-0.40700384974479675
3.05,-1.4499449729919434,-2.191361665725708,0.2735864222049713,0.47961947321891785,0.4557294547557831,-0.06470195204019547
3.1,-0.6845940351486206,-0.44091129302978516,0.44314536452293396,0.8348541855812073,0.24628691375255585,-0.4176924526691437
3.15,-0.2947363555431366,0.19151782989501953,-0.3430606722831726,0.6550298929214478,0.1301177442073822,-0.8400386571884155
3.2,0.7218530178070068,-0.9543392062187195,-0.33172643184661865,0.25546231865882874,0.37720397114753723,-0.30784836411476135
3.25,0.0852937400341034,-2.118940830230713,-1.444037675857544,-0.8099789619445801,-0.03501465544104576,3.2312569618225098
3.3,-2.79642653465271,-1.0516753196716309,-2.993654489517212,-0.900972306728363,-0.7726866006851196,5.986861705780029
3.35,-1.9851049184799194,0.8399209976196289,-1.354601263999939,-0.12551215291023254,-1.1626768112182617,3.8061935901641846
3.4,-0.44331517815589905,0.9876653552055359,0.5660570859909058,0.29779505729675293,-1.396442174911499,1.4368404150009155
3.45,-0.23787207901477814,-0.4070510268211365,1.0437538623809814,0.1547810286283493,-1.639532208442688,1.4302692413330078
3.5,-0.3553309440612793,-1.7630435228347778,0.8794324994087219,-0.5102149248123169,-1.871841311454773,2.7436013221740723
3.55,1.045906901359558,-5.412769794464111,-0.31588849425315857,-1.466489553451538,-2.673196792602539,4.1283278465271
3.6,4.8263020515441895,-6.686816215515137,-1.5247589349746704,-1.0962347984313965,-2.9427478313446045,4.264591693878174
3.65,7.236099720001221,-2.9634687900543213,-3.9078688621520996,1.0238806009292603,-1.420446515083313,3.4415204524993896
3.7,3.6252448558807373,7.947981834411621,-6.125892162322998,4.084382057189941,1.2198535203933716,2.553192615509033
3.75,-4.523377418518066,18.240968704223633,5.506857395172119,6.390205383300781,3.4626431465148926,1.9933902025222778
3.8,-7.214605808258057,6.173874855041504,15.195693969726562,3.99145245552063,1.821921467781067,1.5009715557098389
3.85,-4.297569274902344,7.044724941253662,10.966285705566406,-0.06269102543592453,-3.273961305618286,-0.4615148901939392
3.9,1.6862818002700806,7.557561874389648,2.1291539669036865,-4.6670942306518555,-3.0963244438171387,-1.036297082901001
3.95,-0.45142245292663574,0.32868945598602295,-1.290705919265747,-6.876736164093018,-0.2654050290584564,0.1014421284198761
4.0,-5.550245761871338,-2.4583358764648438,-2.107733964920044,-5.853456020355225,1.3214415311813354,1.345762848854065
4.05,-6.093750476837158,-4.918481826782227,-2.442234516143799,-5.015862464904785,-0.43709900975227356,1.5425875186920166
4.1,-1.8488281965255737,-5.657732963562012,-2.1687090396881104,-3.9482061862945557,-2.3842408657073975,1.968104362487793
4.15,-0.9250420928001404,-4.498167514801025,-1.902164101600647,-2.474435567855835,-1.4454984664916992,1.4888259172439575
4.2,0.7809528112411499,-1.6961865425109863,-1.948617696762085,-1.083680272102356,-0.8270294666290283,0.9167606830596924
4.25,-1.7549785375595093,0.3540014922618866,-4.8304901123046875,-0.5827147960662842,0.8312413096427917,0.4967661201953888
4.3,-15.230958938598633,0.12820450961589813,-8.732969284057617,-0.870762288570404,4.229940891265869,0.038214582949876785
4.35,-4.603273868560791,3.311016798019409,-6.06569242477417,-0.3736606538295746,2.9186437129974365,0.42813366651535034
4.4,0.4255622625350952,1.6204519271850586,-1.5228933095932007,-0.7053622007369995,-0.3410409092903137,0.617044985294342
4.45,-0.8528836369514465,-0.925023078918457,0.8769405484199524,-0.7394443154335022,-0.38577017188072205,-0.15990741550922394
4.5,2.5195119380950928,-2.235145092010498,2.020521402359009,-0.43818649649620056,-0.2594502866268158,-0.08100687712430954
4.55,0.9864522218704224,-1.6570062637329102,1.7055739164352417,0.0629250705242157,0.49872422218322754,-0.3569028973579407
4.6,0.9666452407836914,-0.3705490231513977,1.7920607328414917,0.319543719291687,0.7634792923927307,-0.5742419958114624
4.65,0.14311052858829498,0.21472862362861633,1.995537281036377,0.4864788353443146,1.2433995008468628,-0.7575957775115967
4.7,-0.633110523223877,0.43116113543510437,1.2550729513168335,0.4858590364456177,0.8175063729286194,-0.5647896528244019
4.75,-0.3444948196411133,-0.21455463767051697,1.5268338918685913,0.3811659514904022,0.45297354459762573,-0.642329216003418
4.8,0.5831142663955688,-1.2224472761154175,1.6153028011322021,0.654606819152832,0.5522635579109192,-1.3391584157943726
4.85,-0.553349494934082,-0.8857258558273315,1.928518295288086,1.0380346775054932,1.2265297174453735,-2.4511923789978027
4.9,-1.1988681554794312,1.0642932653427124,1.7780853509902954,1.3191642761230469,1.6997332572937012,-3.0662500858306885
4.95,-1.4472154378890991,1.6884169578552246,1.4346649646759033,1.319944143295288,1.07612943649292,-2.715766668319702
5.0,-1.629604697227478,1.286973237991333,1.0139464139938354,1.386308193206787,-0.1995970755815506,-2.024346113204956
5.05,-1.8298484086990356,0.6825981736183167,-0.06408528238534927,1.3653738498687744,-1.2524336576461792,-1.2531955242156982
5.1,0.30781877040863037,2.168287515640259,-0.2460649460554123,1.223868727684021,-1.0776493549346924,-0.6716595888137817
5.15,3.7240283489227295,1.1321277618408203,-0.9373918771743774,-0.524138867855072,0.5388684272766113,-0.1557394117116928
5.2,1.4298603534698486,-1.3162540197372437,-2.2871758937835693,-1.9989207983016968,3.4732258319854736,-1.2954775094985962
5.25,-4.385739803314209,4.088835716247559,3.4389984607696533,-1.0918346643447876,3.909531354904175,-2.80141019821167
5.3,-3.855644702911377,4.630853652954102,3.571842908859253,-1.214343547821045,0.48589834570884705,-1.4508613348007202
5.35,2.5239458084106445,-0.4141445457935333,0.457059770822525,-2.353018045425415,-0.8090549111366272,-0.6033762097358704
5.4,8.40859603881836,-2.807173490524292,-3.0400149822235107,-1.8921592235565186,0.626549482345581,-1.0080201625823975
5.45,2.9111239910125732,-1.3449527025222778,0.8386918902397156,-1.0264085531234741,3.2759714126586914,-0.9733741879463196
5.5,-1.623478651046753,0.225999116897583,1.5637141466140747,-0.5057153701782227,2.3705880641937256,-0.1756017655134201
5.55,-1.3894047737121582,-0.11272063851356506,-1.3399890661239624,0.15409497916698456,0.39215946197509766,0.9412770867347717
5.6,0.9344905614852905,0.2510603666305542,-1.239448070526123,0.2268935889005661,0.44883209466934204,0.7030817866325378
5.65,0.10511534661054611,-0.4663706123828888,0.20742137730121613,0.6977806091308594,0.6485146880149841,0.877204954624176
5.7,-1.9500640630722046,-1.8737139701843262,1.6038739681243896,0.5361232757568359,0.17701725661754608,0.6785675287246704
5.75,0.9336026906967163,-6.0804972648620605,-2.1677050590515137,0.2839149236679077,-0.5898971557617188,1.0141336917877197
5.8,0.5381995439529419,-6.094644069671631,-5.215290546417236,0.7299864292144775,0.030951933935284615,-0.17954912781715393
5.85,-1.372808814048767,1.4476813077926636,-2.30851411819458,1.456237554550171,1.3049036264419556,-2.304356336593628
5.9,-0.7081319689750671,2.4559125900268555,-1.8818774223327637,2.445380687713623,0.7078291177749634,-1.2054859399795532
5.95,-0.3005942106246948,2.1067001819610596,-0.97081458568573,2.984666109085083,0.38635268807411194,0.6607239842414856
6.0,-0.33402594923973083,1.2510654926300049,0.9369165301322937,3.5537219047546387,0.17188607156276703,1.7498984336853027
6.05,-0.15393495559692383,1.3847345113754272,1.7473700046539307,3.7521212100982666,-0.35455745458602905,1.2780245542526245
6.1,0.33171582221984863,1.7931885719299316,1.8288524150848389,2.479461669921875,0.07286809384822845,0.11948142200708389
6.15,0.8391646146774292,1.4222596883773804,2.3162918090820312,0.8433200120925903,1.4424681663513184,-0.8142592906951904
6.2,1.4361436367034912,0.5309451222419739,2.3493576049804688,-0.016508042812347412,2.130460500717163,-1.0882594585418701
6.25,1.1861258745193481,-0.08028964698314667,1.860575556755066,-0.07131868600845337,1.7457855939865112,-0.9395653009414673
6.3,0.7584041953086853,-0.6361092329025269,1.4837391376495361,0.2066202163696289,1.0384836196899414,-0.8867220878601074
6.35,1.1282421350479126,-0.3118962347507477,1.1049641370773315,0.2964474856853485,0.4237072467803955,-1.3087725639343262
6.4,1.884082555770874,0.7508441805839539,0.7447847127914429,0.19885703921318054,-0.014024066738784313,-1.8747917413711548
6.45,2.7302539348602295,1.4207640886306763,0.5624837875366211,0.07141700387001038,-0.2005022168159485,-2.1243252754211426
6.5,3.175835132598877,0.9056654572486877,0.08927933871746063,-0.06352142989635468,-0.026844874024391174,-1.6839573383331299
6.55,2.3937079906463623,0.2808408737182617,-0.03260090574622154,-0.09134306013584137,0.5288460850715637,-0.6149393320083618
6.6,0.5245441794395447,0.6092826128005981,0.5423691272735596,0.06646259129047394,0.9476686716079712,0.4806540310382843
6.65,-0.7313917875289917,0.9438164830207825,1.4519177675247192,0.453410804271698,0.9176256060600281,0.7143868207931519
6.7,0.14033502340316772,0.35344168543815613,3.481557846069336,0.6706146001815796,0.4953489899635315,0.07852581888437271
6.75,0.7388395667076111,-0.2752472758293152,2.8947834968566895,0.3468678593635559,-1.098422884941101,-0.5738523006439209
6.8,0.13581691682338715,-0.024317661300301552,0.7200258374214172,-0.14054866135120392,-1.8875013589859009,-0.4334637224674225
6.85,-0.9848080277442932,0.11428356915712357,-0.21452055871486664,-0.2806239128112793,-1.1176098585128784,0.19688114523887634
6.9,-1.7070229053497314,-0.6114749312400818,0.7353028059005737,-0.03825359791517258,-0.006740507669746876,0.4348093867301941
6.95,-1.0257010459899902,-0.5020063519477844,1.844406008720398,0.10945701599121094,0.4396068751811981,0.13256175816059113
7.0,0.03386154770851135,0.3776037096977234,1.0716792345046997,-0.06988172233104706,-0.044414814561605453,-0.269986093044281
7.05,0.4316042363643646,0.8388501405715942,0.2500031292438507,-0.053919240832328796,-0.5826875567436218,-0.2633342444896698
7.1,0.5029346942901611,0.37565332651138306,-0.02735454961657524,0.00292007252573967,-0.7043662071228027,-0.015969866886734962
7.15,0.8732911348342896,0.5227546691894531,-0.4138767719268799,-0.08828821033239365,-0.5987564325332642,-0.0186707004904747
7.2,1.2855545282363892,0.308407723903656,-0.6688708662986755,-0.04671011120080948,-0.6507698893547058,-0.03888067603111267
7.25,0.6485719680786133,-0.37298789620399475,-1.0417039394378662,-0.11889522522687912,-0.607841432094574,0.14683137834072113
7.3,0.03147555887699127,-0.7043115496635437,-0.7858380675315857,-0.21632209420204163,-0.10606562346220016,0.23798803985118866
7.35,-0.20246203243732452,-0.3890725076198578,-0.28458118438720703,-0.1019325852394104,0.22943337261676788,0.16436611115932465
7.4,-0.3310789465904236,0.07909588515758514,0.26246488094329834,0.06373612582683563,0.2086993306875229,0.10218481719493866
7.45,-0.1553245633840561,0.20675668120384216,0.49258384108543396,0.04475392773747444,0.0694759264588356,0.02679780125617981
7.5,0.05268014967441559,-0.04028797149658203,0.03848639503121376,-0.08123257756233215,-0.031131653115153313,0.045140109956264496
7.55,0.014491690322756767,-0.28521066904067993,-0.3134201765060425,-0.08714358508586884,9.236027835868299e-05,0.12344613671302795
7.6,-0.05202169343829155,0.042587246745824814,-0.32466164231300354,0.014613031409680843,0.1409485638141632,0.10131055861711502
7.65,0.21810628473758698,0.30568796396255493,0.18214735388755798,0.020802024751901627,0.3375145494937897,-0.015934236347675323
7.7,0.5985066890716553,0.34905722737312317,0.0512612946331501,-0.0625866949558258,0.2746255695819855,-0.0840776190161705
7.75,0.45988690853118896,0.2319631278514862,-0.4989410936832428,-0.10263387858867645,0.1931997537612915,0.07528794556856155
7.8,-0.24834442138671875,-0.060551717877388,-0.5836384296417236,-0.004092713817954063,0.3758508563041687,0.22668984532356262
7.85,-0.6195077300071716,-0.16675283014774323,-0.0525582917034626,0.0897338017821312,0.796803891658783,0.17376799881458282
7.9,-0.6212301850318909,-0.25034135580062866,0.5917741060256958,0.11792874336242676,1.0459566116333008,0.036254849284887314
7.95,-0.4443836212158203,-0.34437933564186096,0.9471850991249084,0.13203416764736176,0.9896741509437561,-0.06490042060613632
8.0,-0.16066625714302063,-0.018512610346078873,0.9700767993927002,0.12544816732406616,0.7803627252578735,-0.16553078591823578
8.05,0.5431431531906128,0.6412240266799927,0.7431870102882385,0.13319002091884613,0.49236130714416504,-0.26811501383781433
8.1,1.450992226600647,0.765415370464325,0.5034055709838867,0.21317768096923828,0.07309097796678543,-0.34884655475616455
8.15,2.0722334384918213,0.4141893982887268,0.3303442597389221,0.20970846712589264,-0.20034067332744598,-0.28299862146377563
8.2,2.032634973526001,0.18651102483272552,0.049502693116664886,0.03968987986445427,-0.22810430824756622,-0.04927723854780197
8.25,1.3936673402786255,0.31088539958000183,-0.32587501406669617,-0.17074529826641083,-0.07626862823963165,0.17747288942337036
8.3,0.6936237215995789,0.2500905990600586,-0.21236330270767212,-0.2126081883907318,0.18279139697551727,0.305766761302948
8.35,0.24513739347457886,0.022769935429096222,0.08439557999372482,-0.19999556243419647,0.2647723853588104,0.28942883014678955
8.4,0.1606937199831009,0.0813913568854332,0.15134327113628387,-0.18723222613334656,0.08853757381439209,0.17444157600402832
8.45,0.2005934715270996,0.5764780044555664,-0.24880865216255188,-0.1576250046491623,-0.18177567422389984,0.09825240820646286
8.5,0.24686285853385925,0.5118131637573242,-0.5062685608863831,-0.12958408892154694,-0.2570616602897644,0.10753074288368225
8.55,0.2744237184524536,0.03328697755932808,-0.5975055694580078,-0.09697391837835312,-0.2760780453681946,0.11816508322954178
8.6,0.13264046609401703,-0.18977177143096924,-0.7237446308135986,-0.00505682360380888,-0.33637216687202454,0.11286818981170654
8.65,-0.17309802770614624,-0.18496520817279816,-0.499057799577713,0.07295768707990646,-0.1850065290927887,0.11950303614139557
8.7,-0.4932776987552643,-0.21914102137088776,0.07667117565870285,0.07467629760503769,0.09595853835344315,0.11865437030792236
8.75,-0.5849215388298035,0.058451708406209946,0.35069820284843445,0.014982410706579685,0.20041683316230774,0.07353106141090393
8.8,-0.5278788208961487,0.4028092324733734,0.2607745826244354,-0.030178287997841835,0.11234908550977707,0.01901097595691681
8.85,-0.36172834038734436,0.1587858349084854,-0.007653876673430204,-0.013372237794101238,-0.08605080842971802,-0.05262977257370949
8.9,0.21540585160255432,-0.12483793497085571,-0.3683362901210785,0.066816046833992,-0.3381713628768921,-0.19424542784690857
8.95,0.6869691610336304,-0.06714732199907303,-0.4236808717250824,0.1981963962316513,-0.4544523060321808,-0.275861918926239
9.0,0.6004805564880371,0.08551691472530365,-0.1290941685438156,0.24274243414402008,-0.2239966094493866,-0.187277153134346
9.05,0.3155767619609833,0.1860256791114807,0.40746957063674927,0.13925433158874512,0.20479682087898254,-0.03945457190275192
9.1,0.1615021675825119,0.4187251627445221,0.7447461485862732,-0.00405557407066226,0.3947080075740814,0.03194202855229378
9.15,0.17635993659496307,0.2974015176296234,0.5584703087806702,-0.06275078654289246,0.16553936898708344,0.03321923315525055
9.2,0.408316045999527,-0.11803342401981354,0.0401822105050087,-0.029964571818709373,-0.21333859860897064,-0.03912227973341942
9.25,0.6834087371826172,-0.19609743356704712,-0.22574569284915924,0.060639701783657074,-0.39484694600105286,-0.09751363098621368
9.3,0.5826740860939026,-0.06235315650701523,-0.05657783895730972,0.12847478687763214,-0.29344627261161804,-0.04721732437610626
9.35,0.2688366770744324,0.16165834665298462,0.4212583899497986,0.05705765634775162,0.04089732468128204,0.04871572554111481
9.4,-0.0017736554145812988,0.4587470591068268,0.7581421136856079,-0.1092827171087265,0.27346429228782654,0.13004454970359802
9.45,-0.22335490584373474,0.41287529468536377,0.5085822343826294,-0.22379228472709656,0.12783481180667877,0.18080811202526093
9.5,-0.23677238821983337,-0.10064604878425598,-0.16376079618930817,-0.24330994486808777,-0.20427361130714417,0.14393427968025208
9.55,-0.00923427939414978,-0.2924157381057739,-0.7254995703697205,-0.16112449765205383,-0.4136000871658325,0.010510209016501904
9.6,0.3320882320404053,-0.09224807471036911,-0.8447831869125366,0.017630748450756073,-0.44784292578697205,-0.1082335039973259
9.65,0.3067930042743683,0.3925333023071289,-0.49413472414016724,0.10357040166854858,-0.19290007650852203,-0.0870591402053833
9.7,-0.06489813327789307,0.5739842057228088,0.1243303045630455,0.02089398168027401,0.18211521208286285,0.01393900066614151
9.75,-0.19229894876480103,0.019227059558033943,0.23157565295696259,-0.024525508284568787,0.04948154464364052,0.009427940472960472
9.8,0.3253712058067322,-0.2927914261817932,-0.2180633395910263,0.10338682681322098,-0.5201128125190735,-0.16194447875022888
9.85,0.8684651255607605,0.10924715548753738,-0.4396236538887024,0.25259894132614136,-0.736803412437439,-0.24245330691337585
9.9,0.5452843904495239,0.7866430878639221,-0.18733352422714233,0.19245785474777222,-0.26269298791885376,-0.03832368925213814
9.95,-0.29276445508003235,0.5441447496414185,0.403515487909317,-0.03203556686639786,0.4098626375198364,0.23476259410381317
10.0,-0.40045541524887085,-0.3287591338157654,0.697065532207489,-0.15197822451591492,0.4178883731365204,0.21193869411945343
10.05,0.20569856464862823,-0.3451681137084961,0.19710297882556915,-0.03262816369533539,-0.3004519045352936,-0.045165661722421646
10.1,0.3732522130012512,0.34207722544670105,-0.46147388219833374,0.08087558299303055,-0.6416134834289551,-0.060285862535238266
10.15,-0.286635160446167,0.4273395538330078,-0.540526807308197,-0.026356661692261696,-0.10271050035953522,0.17070941627025604
10.2,-0.5472126603126526,-0.2655029296875,0.15673284232616425,-0.1568312644958496,0.4705910086631775,0.18280191719532013
10.25,-0.02970309928059578,-0.3693380355834961,0.22200210392475128,-0.09697604179382324,0.17029131948947906,-0.043498117476701736
10.3,0.2835175395011902,0.018730103969573975,-0.4761629104614258,0.019545314833521843,-0.32134199142456055,-0.08345159888267517
10.35,-0.1543634831905365,0.3442210555076599,-0.802467942237854,-0.03408069908618927,-0.021548228338360786,0.08827895671129227
10.4,-0.608497142791748,-0.13482384383678436,-0.3393344283103943,-0.15938277542591095,0.6842959523200989,0.17464330792427063
10.45,-0.07731273025274277,-0.41134458780288696,0.0283714197576046,-0.12163050472736359,0.7687889933586121,-0.019229840487241745
10.5,0.6449946761131287,-0.01325516402721405,-0.2827770411968231,0.04370557516813278,0.2999878525733948,-0.1583385020494461
10.55,0.15176954865455627,0.14348307251930237,-0.8076744079589844,0.05393874645233154,0.37571942806243896,0.09672016650438309
10.6,-1.1527297496795654,-0.0012846692698076367,-0.7369078397750854,-0.05515623837709427,1.1734684705734253,0.4536255896091461
10.65,-1.9163343906402588,-0.17363733053207397,0.35147127509117126,0.08583711087703705,1.7364230155944824,0.3494330942630768
10.7,-1.6373788118362427,-0.26611974835395813,1.7448936700820923,0.28900864720344543,1.8107184171676636,-0.06232820451259613
10.75,-0.1837623417377472,-0.12178678065538406,2.5651018619537354,0.25463032722473145,1.5070786476135254,-0.4029804468154907
10.8,1.165313959121704,0.6848042011260986,1.56986665725708,0.0697186216711998,0.6572636365890503,-0.46359673142433167
10.85,1.1581276655197144,1.4480878114700317,-0.2862921357154846,-0.03219377249479294,-0.12516511976718903,-0.21999195218086243
10.9,1.1276404857635498,0.9206275939941406,-0.9286057949066162,0.012910773046314716,-0.1435198336839676,-0.14393456280231476
10.95,1.8279224634170532,0.03356730565428734,-0.8429765701293945,-0.11100201308727264,0.29990214109420776,-0.20530718564987183
11.0,1.9582159519195557,-0.11897388100624084,-0.868349015712738,-0.22116228938102722,0.3541273772716522,-0.09023365378379822
11.05,0.9824217557907104,0.16897952556610107,-0.9851130247116089,-0.11542686820030212,0.03892703354358673,0.08907677978277206
11.1,0.3430115878582001,0.3196248412132263,-0.8248078227043152,-0.026726558804512024,0.06452561169862747,0.09813082218170166
11.15,0.7861784100532532,0.5862846374511719,-0.5989204049110413,-0.011749163269996643,0.22027577459812164,-0.07001332938671112
11.2,1.1025035381317139,0.7158794403076172,-0.42987963557243347,0.09723037481307983,0.10924787819385529,-0.11738428473472595
11.25,0.6749629378318787,0.5306616425514221,-0.07170969247817993,0.199996680021286,0.08825334906578064,0.07733016461133957
11.3,0.21389366686344147,0.16115671396255493,0.42272159457206726,0.16843032836914062,0.2993631362915039,0.30307653546333313
11.35,0.1088285818696022,-0.09007733315229416,0.6223123669624329,0.050047386437654495,0.31567618250846863,0.33896011114120483
11.4,-0.013688169419765472,-0.40978336334228516,0.5021095871925354,-0.032488659024238586,0.105745829641819,0.3157377541065216
11.45,-0.336330771446228,-0.9059277176856995,0.41360563039779663,-0.06748315691947937,-0.04234115779399872,0.3260766267776489
11.5,-0.731239914894104,-0.5975618362426758,0.3908054232597351,-0.12164269387722015,-0.06803487986326218,0.2978660762310028
11.55,-1.0911567211151123,0.7685453295707703,0.17465068399906158,-0.13353231549263,-0.1732592135667801,0.17594687640666962
11.6,-0.6888678669929504,1.23359215259552,-0.1387442648410797,-0.016300618648529053,-0.5032057166099548,-0.09743258357048035
11.65,0.5668676495552063,0.20523354411125183,-0.4494480490684509,0.18378624320030212,-0.9866288304328918,-0.41343849897384644
11.7,1.238510251045227,-0.17945587635040283,-0.7824816703796387,0.34985852241516113,-1.3227869272232056,-0.4620530903339386
11.75,0.34130412340164185,0.23553654551506042,-0.5133647918701172,0.39279550313949585,-0.8954893946647644,-0.02086244337260723
11.8,-1.2076488733291626,-0.3792113661766052,0.9646924734115601,0.18859201669692993,0.32364144921302795,0.5757448077201843
11.85,-1.4808597564697266,-1.0893113613128662,2.4315834045410156,-0.2229916751384735,0.9424424767494202,0.5180972218513489
11.9,-0.12466686964035034,-0.4944465160369873,2.546743154525757,-0.4919801354408264,-0.14384078979492188,-0.2152624875307083
11.95,1.8020987510681152,0.6530277132987976,1.1524022817611694,-0.3965998888015747,-2.1908652782440186,-0.6021558046340942
12.0,1.8987483978271484,1.3813713788986206,-1.8986632823944092,-0.44673001766204834,-2.865762233734131,-0.06216411292552948
12.05,-0.1647779643535614,0.3486354947090149,-1.6637502908706665,-1.4241182804107666,0.27277064323425293,0.6718544960021973
12.1,-1.138641119003296,-0.31784990429878235,1.8128817081451416,-2.9039018154144287,4.144845485687256,0.4696217477321625
12.15,-0.3071329593658447,0.7098487615585327,2.7301218509674072,-3.3025691509246826,4.379916667938232,-0.30913013219833374
12.2,1.1846885681152344,1.7665621042251587,3.079763650894165,-2.4179506301879883,1.8046209812164307,-0.7267637252807617
12.25,0.49261581897735596,3.0345067977905273,3.537759304046631,-1.5572353601455688,-1.3597948551177979,-0.11699750274419785
12.3,-1.4541014432907104,4.89193058013916,2.4196412563323975,-1.852107286453247,-2.9733493328094482,0.596869945526123
12.35,-1.764719843864441,5.710032939910889,0.12025374919176102,-2.9439644813537598,-2.858745574951172,0.5964328050613403
12.4,-1.6754851341247559,5.152556896209717,-2.079188108444214,-3.7024707794189453,-2.4634759426116943,0.586198627948761
12.45,-2.7272300720214844,4.347413063049316,-4.108340740203857,-3.9974324703216553,-2.60945463180542,1.053310751914978
12.5,-2.491171360015869,4.221364974975586,-6.090052604675293,-4.541196346282959,-2.6570494174957275,0.5359598994255066
12.55,2.9771060943603516,2.1857731342315674,-7.968017101287842,-5.446202754974365,-2.6601133346557617,-2.0722897052764893
12.6,8.746829986572266,-5.78688907623291,-6.508810520172119,-5.471290588378906,-2.0788791179656982,-4.239660739898682
12.65,6.1116437911987305,-13.303496360778809,-2.131455659866333,-3.5068159103393555,0.049263689666986465,-2.742924690246582
12.7,1.7027784585952759,-8.25546646118164,-3.8183863162994385,0.3072972893714905,2.7244160175323486,1.7709834575653076
12.75,-9.607779502868652,-3.2377681732177734,-4.917299270629883,2.3162052631378174,4.7483696937561035,8.198286056518555
12.8,-10.402007102966309,-0.0785970538854599,-9.176877975463867,0.5866823196411133,-1.3336890935897827,6.26596212387085
12.85,4.451704025268555,5.843648433685303,-7.757525444030762,-0.05294497311115265,-7.209342956542969,-0.5340988636016846
12.9,10.120043754577637,1.2039072513580322,2.512385606765747,-1.2402966022491455,-4.431236743927002,-0.8930044770240784
12.95,11.042342185974121,-1.301369309425354,5.664316177368164,-1.1948678493499756,-1.3405840396881104,-1.5981919765472412
13.0,10.619789123535156,-6.090931415557861,5.722977638244629,-0.5278702974319458,0.8482876420021057,-2.9429664611816406
13.05,3.8810019493103027,-12.130979537963867,2.162083625793457,1.2003213167190552,3.20009708404541,-4.167165756225586
13.1,-8.982196807861328,-6.365375518798828,-2.9965102672576904,3.824943780899048,4.90851354598999,-3.375483751296997
13.15,-12.88561725616455,3.201554536819458,-4.244222164154053,4.547078609466553,3.275129795074463,0.35762402415275574
13.2,-7.294332981109619,4.945898056030273,-4.1162638664245605,3.046990394592285,0.23820877075195312,2.1084835529327393
13.25,-1.66510808467865,3.7694599628448486,-1.302668809890747,1.3865787982940674,-0.34151676297187805,1.235296607017517
13.3,0.4466368854045868,0.4329462945461273,0.27395471930503845,0.4641041159629822,0.1433936059474945,0.7365244030952454
13.35,0.15593358874320984,0.07021909952163696,0.4468938708305359,0.39997750520706177,0.48175832629203796,0.2629110813140869
13.4,0.9819762706756592,2.074855089187622,-0.30659449100494385,0.4965563118457794,0.0724598839879036,-0.2127351015806198
13.45,1.4473466873168945,2.8736765384674072,-0.5901510715484619,0.4064237177371979,-0.11021551489830017,-0.11202901601791382
13.5,0.5581459999084473,2.239102602005005,-0.4424072802066803,0.2691214382648468,0.07241707295179367,0.3105916976928711
13.55,-0.5081728100776672,1.6547538042068481,-0.8045596480369568,0.1400003433227539,0.1932026594877243,0.43037471175193787
13.6,-2.6734516620635986,-0.026909949257969856,-1.3285174369812012,0.009685635566711426,0.2702043652534485,0.9020872712135315
13.65,-5.169697284698486,-3.2251100540161133,-1.5983949899673462,0.25562793016433716,-0.11588208377361298,2.4241771697998047
13.7,-4.7759175300598145,-6.063454627990723,-2.454685688018799,0.9793165326118469,-1.2743085622787476,3.7740373611450195
13.75,-0.7962641716003418,-2.960278272628784,-3.3172624111175537,1.737536907196045,-2.406543493270874,2.5767898559570312
13.8,2.485426425933838,1.9833049774169922,-1.7300676107406616,1.5621284246444702,-2.0318546295166016,0.2469651848077774
13.85,3.901109457015991,4.106748104095459,0.18215538561344147,0.816588819026947,-0.7583993673324585,-0.8513733148574829
13.9,4.040014743804932,5.381110668182373,0.4664161801338196,0.37128746509552,0.41434887051582336,-0.9716252684593201
13.95,1.887381672859192,5.356569766998291,-0.5382969975471497,-0.18464066088199615,1.6471846103668213,-0.7747235894203186
14.0,-0.7109413146972656,3.237839937210083,-1.2179867029190063,-0.8949964046478271,2.425083637237549,-0.3676295578479767
14.05,-1.7953990697860718,0.16917122900485992,-1.2793841361999512,-1.3734989166259766,2.434598207473755,0.0036587638314813375
14.1,-1.8059923648834229,-2.0727698802948,-0.8704870939254761,-1.3453171253204346,2.204385757446289,0.2742840349674225
14.15,-1.4478257894515991,-3.535820960998535,-0.33190488815307617,-1.0111418962478638,1.8830320835113525,0.4666297137737274
14.2,-1.0763827562332153,-3.668647289276123,-8.632762910565361e-05,-0.5219807624816895,1.4476617574691772,0.35478514432907104
14.25,-0.48068106174468994,-2.4134867191314697,-0.06494313478469849,-0.033758822828531265,1.0191649198532104,0.05199809744954109
14.3,0.10102593898773193,-1.0441886186599731,-0.2910224199295044,0.09832780808210373,0.7669219970703125,-0.2731509208679199
14.35,0.3413616716861725,0.36739540100097656,-0.24575623869895935,-0.003491818904876709,0.6618547439575195,-0.5713036060333252
14.4,0.6872058510780334,1.0811330080032349,-0.2665066719055176,0.029990658164024353,0.3803236484527588,-0.4951110780239105
14.45,1.049440860748291,0.9438696503639221,-0.4515259861946106,0.05510701239109039,0.099667988717556,-0.20743918418884277
14.5,0.8289102911949158,1.0045890808105469,-0.49861007928848267,-0.025761760771274567,0.08020057529211044,-0.04099741578102112
14.55,0.1913786083459854,0.49524787068367004,-0.3265919089317322,-0.058122195303440094,0.06670385599136353,0.17458616197109222
14.6,-0.2968873381614685,-0.09677223116159439,-0.2249370664358139,-0.10150468349456787,-0.08554942905902863,0.21287015080451965
14.65,-0.5432161688804626,-0.3642149567604065,-0.32187893986701965,-0.06113429367542267,-0.27628615498542786,0.1843755841255188
14.7,-0.7103097438812256,-0.33199796080589294,-0.5001699328422546,0.10263948887586594,-0.44167330861091614,0.22015351057052612
14.75,-0.7405073642730713,0.13865940272808075,-0.8947545289993286,0.22919738292694092,-0.5857067108154297,0.177492156624794
14.8,-0.0597396045923233,0.3932217061519623,-1.6575063467025757,0.28149425983428955,-0.6841941475868225,0.15239118039608002
14.85,0.9047378301620483,0.5556695461273193,-2.3038928508758545,0.229514017701149,-0.5490084290504456,0.0961889699101448
14.9,0.8758338689804077,0.26711535453796387,-2.087932825088501,0.12877152860164642,-0.14476394653320312,0.10924685001373291
14.95,0.13735148310661316,-0.7612278461456299,-1.2069964408874512,0.08836308121681213,0.18282192945480347,0.15260076522827148
15.0,-0.44539695978164673,-1.0847903490066528,-0.24343916773796082,0.03692936897277832,0.2928996980190277,-0.13463057577610016
15.05,-0.731158435344696,-0.45670220255851746,0.5634214878082275,-0.019222408533096313,0.27377820014953613,-0.4578452408313751
15.1,-0.46745234727859497,0.09108935296535492,0.7593372464179993,0.06822491437196732,0.11535774171352386,-0.3844922184944153
15.15,0.3728140890598297,0.40684038400650024,0.1458846479654312,0.18183816969394684,-0.14802753925323486,-0.1925971806049347
15.2,0.7324062585830688,0.8348971009254456,-0.26576343178749084,0.14571116864681244,-0.19955945014953613,-0.13212719559669495
15.25,0.006792867090553045,0.9568310976028442,0.04005945101380348,0.0917629525065422,-0.12299075722694397,0.03289056569337845
15.3,-0.4887438714504242,0.40658387541770935,0.112209253013134,0.07865047454833984,-0.2618189752101898,0.20593252778053284
15.35,-0.21556201577186584,-0.3551188111305237,-0.22092635929584503,0.0788412094116211,-0.3865829408168793,0.24755986034870148
15.4,0.033376291394233704,-0.3555355668067932,-0.32270190119743347,0.04011647030711174,-0.2870559096336365,0.12088927626609802
15.45,0.05972357466816902,0.06658265739679337,-0.2200566679239273,-0.03400281444191933,-0.15931572020053864,-0.05613500252366066
15.5,0.021717075258493423,0.12795543670654297,-0.08727793395519257,-0.07307475805282593,-0.09082914888858795,-0.08126448839902878
15.55,0.02362782508134842,0.12025737017393112,-0.16172964870929718,-0.07565749436616898,-0.07328039407730103,-0.0369981974363327
15.6,0.18654122948646545,0.2761945426464081,-0.5396106839179993,-0.05831490457057953,-0.09521234780550003,-0.021053727716207504
15.65,0.3450959324836731,0.05819025635719299,-0.7738187313079834,-0.07163496315479279,-0.06379139423370361,0.004058639518916607
15.7,0.14291079342365265,-0.1368151605129242,-0.5707913041114807,-0.09728894382715225,0.02738170139491558,-0.0057538701221346855
15.75,-0.0013657063245773315,-0.0851326435804367,-0.31749796867370605,-0.08095201104879379,0.06514887511730194,-0.0640735998749733
15.8,0.13955716788768768,0.06557081639766693,-0.16634675860404968,-0.061793845146894455,0.0721186175942421,-0.13101111352443695
15.85,0.1864621788263321,0.14056874811649323,0.0320550762116909,-0.03576230630278587,0.06865806132555008,-0.12462640553712845
15.9,0.12829558551311493,0.13321498036384583,0.11465875059366226,0.005195352248847485,-0.0013997027417644858,-0.06323722749948502
15.95,0.1343454122543335,0.22350028157234192,0.008632953278720379,0.03618188202381134,-0.07076483219861984,-0.017580799758434296
16.0,0.05910959094762802,0.3131418526172638,-0.07783125340938568,0.030534889549016953,-0.09350865334272385,0.026306241750717163
16.05,-0.02088107541203499,0.15128517150878906,-0.17697489261627197,-0.005804426036775112,-0.10990959405899048,0.07692105323076248
16.1,0.16162718832492828,-0.36433038115501404,-0.41829657554626465,-0.07273080945014954,-0.1228572353720665,0.060677919536828995
16.15,0.22524061799049377,-0.7074185013771057,-0.17619343101978302,-0.16347914934158325,-0.05820012092590332,-0.12679451704025269
16.2,0.01738874614238739,-0.032442983239889145,0.5670257806777954,-0.17793425917625427,-0.011724265292286873,-0.40561604499816895
16.25,0.20020774006843567,1.3590404987335205,0.8315925002098083,-0.057419419288635254,-0.18387505412101746,-0.36988598108291626
16.3,0.43370580673217773,1.8782360553741455,0.45615482330322266,0.04726891964673996,-0.47219282388687134,0.04776447266340256
16.35,-0.1475285440683365,1.4941130876541138,-0.07342380285263062,0.17874222993850708,-0.6897624731063843,0.5841516256332397
16.4,-0.7017801403999329,-0.32163915038108826,-0.600482165813446,0.31023111939430237,-0.8439648151397705,1.0760695934295654
16.45,-0.2901800572872162,-1.5454353094100952,-1.0303916931152344,0.34323519468307495,-0.8540505766868591,0.9366474747657776
16.5,0.2501463294029236,-1.3836824893951416,-1.226250410079956,0.301739364862442,-0.5606558322906494,0.4068811535835266
16.55,-0.03317330777645111,-1.0374739170074463,-0.6323354244232178,0.14617817103862762,-0.016155337914824486,-0.06875652074813843
16.6,-0.5060522556304932,-0.20737169682979584,0.3352198302745819,0.005617447197437286,0.39097848534584045,-0.47906696796417236
16.65,0.10438387095928192,1.0097181797027588,0.5712863206863403,-0.009581752121448517,0.35869184136390686,-0.6439516544342041
16.7,0.4652114808559418,1.0511656999588013,0.36835575103759766,0.017025157809257507,0.17969365417957306,-0.3356192708015442
16.75,-0.0932019054889679,0.4418059289455414,0.12597721815109253,0.09078996628522873,0.004587895702570677,0.12211134284734726
16.8,-0.3640925884246826,-0.020407723262906075,-0.42169979214668274,0.17713811993598938,-0.2251451462507248,0.3415345549583435
16.85,-0.09793077409267426,-0.674106776714325,-1.0205931663513184,0.23612046241760254,-0.32288771867752075,0.29731276631355286
16.9,-0.125449076294899,-0.9700195789337158,-0.8846059441566467,0.2311377227306366,-0.07269816100597382,0.012226627208292484
16.95,-0.4101017713546753,-0.6720133423805237,-0.033259518444538116,0.1446322202682495,0.34108954668045044,-0.33842822909355164
17.0,-0.09930609911680222,-0.06784621626138687,0.715162992477417,0.002844385802745819,0.5829898715019226,-0.5989866852760315
17.05,0.24091708660125732,0.6874648928642273,1.0659681558609009,-0.12742948532104492,0.6174623370170593,-0.6491765379905701
17.1,0.0110093355178833,0.9016869068145752,1.1884150505065918,-0.1518188714981079,0.4847014844417572,-0.3982051908969879
17.15,-0.0015224739909172058,1.084280252456665,0.71085125207901,-0.17885269224643707,0.23605965077877045,-0.1832885444164276
17.2,0.23905417323112488,0.8271962404251099,-0.15414439141750336,-0.15390406548976898,-0.019326454028487206,0.07827548682689667
17.25,0.02531515248119831,0.030897093936800957,-0.4273688495159149,-0.08114150166511536,-0.14657965302467346,0.30561789870262146
17.3,-0.21487343311309814,-0.0978432148694992,-0.2825515866279602,0.00872579962015152,-0.2424502670764923,0.3066593408584595
17.35,-0.023830875754356384,0.22296713292598724,-0.3428095877170563,0.1055462658405304,-0.33377236127853394,0.2954460084438324
17.4,0.24170003831386566,0.0474347248673439,-0.7165428400039673,0.11786624044179916,-0.3251173496246338,0.35728487372398376
17.45,0.27176374197006226,-0.7012054324150085,-0.9446994066238403,0.039665982127189636,-0.21447710692882538,0.27350935339927673
17.5,-0.008916079998016357,-1.2182886600494385,-0.6877915263175964,-0.138643279671669,0.0049033756367862225,-0.17070959508419037
17.55,0.805426836013794,-1.5304702520370483,-1.0177443027496338,-0.8184844851493835,0.34121185541152954,-1.2365896701812744
17.6,0.3054145574569702,-2.407111406326294,-0.5004916191101074,-2.53277587890625,1.856931209564209,-3.7972278594970703
17.65,0.8746574521064758,3.5921483039855957,0.2508631944656372,-2.737781047821045,2.5357885360717773,-4.881176471710205
17.7,-1.912133812904358,3.238483190536499,2.2015902996063232,0.06605677306652069,0.8382848501205444,0.23904980719089508
17.75,-2.483039140701294,-0.45116978883743286,1.7945671081542969,1.296259880065918,-1.182631254196167,2.881819248199463
17.8,0.8577610850334167,-0.8946030139923096,-0.8674894571304321,0.6211764812469482,-1.6784952878952026,1.8136905431747437
17.85,1.7727676630020142,-0.8112024068832397,-1.6341484785079956,0.3195081949234009,-0.9147212505340576,1.1421164274215698
17.9,0.6398637890815735,-0.668682336807251,-1.218800663948059,0.15536531805992126,-0.284723162651062,0.39163661003112793
17.95,-0.02252444624900818,-0.2081967294216156,-0.5620735883712769,-0.011177901178598404,0.010784318670630455,-0.2520443797111511
18.0,0.19172848761081696,0.19287684559822083,-0.014989274553954601,-0.019291125237941742,0.1762244701385498,-0.3298916816711426
18.05,0.4391929507255554,0.4731923043727875,0.371751606464386,-0.04976976662874222,0.2542913854122162,-0.303707093000412
18.1,0.18914860486984253,0.34005650877952576,0.5969575047492981,-0.05328966677188873,0.19277344644069672,-0.17975066602230072
18.15,-0.011818507686257362,0.14397913217544556,0.3295602798461914,0.030494030565023422,0.015416320413351059,0.006265897303819656
18.2,0.24915623664855957,0.2207937240600586,-0.16917696595191956,0.06145264953374863,-0.08304204046726227,0.07295513898134232
18.25,0.3381631076335907,0.1750926673412323,-0.31161460280418396,0.04999450221657753,-0.04590606316924095,0.10355156660079956
18.3,0.19061318039894104,-0.006512660998851061,-0.12749426066875458,0.07268721610307693,-0.032766032963991165,0.1393471509218216
18.35,0.07056374102830887,-0.07225323468446732,0.0016865923535078764,0.06342539191246033,-0.0809657871723175,0.09031973779201508
18.4,0.07755506038665771,0.0019979614298790693,0.12304659187793732,0.03609064593911171,-0.11011527478694916,-0.009811632335186005
18.45,0.19136972725391388,0.011862791143357754,0.3121577203273773,0.042671963572502136,-0.1295851320028305,-0.05626203864812851
18.5,0.30005982518196106,0.6081706285476685,0.36634692549705505,0.07729913294315338,-0.15957307815551758,-0.08536722511053085
18.55,0.021734345704317093,0.8718024492263794,0.22901667654514313,0.16424357891082764,-0.2840304672718048,0.10921633988618851
18.6,-0.18455447256565094,0.5117073655128479,-0.2119787633419037,0.21264655888080597,-0.4368433356285095,0.3966110646724701
18.65,0.1934489607810974,-0.29890361428260803,-0.9403145909309387,0.23997724056243896,-0.5280178189277649,0.5883784890174866
18.7,0.4144315719604492,-0.6686232089996338,-1.2789545059204102,0.26447877287864685,-0.3422628343105316,0.5798882246017456
18.75,0.2910485863685608,-0.8173220157623291,-1.172455072402954,0.1417580246925354,0.04600788280367851,0.2739831209182739
18.8,-0.4329185485839844,-1.166113018989563,-0.19798634946346283,-0.0997457206249237,0.5344094634056091,-0.21376731991767883
18.85,-0.328888863325119,0.09740077704191208,0.7556328773498535,-0.17994609475135803,0.7179043889045715,-0.6576648354530334
18.9,0.5263778567314148,1.6940902471542358,1.0733083486557007,-0.09677336364984512,0.4818252623081207,-0.6157541275024414
18.95,0.3163633346557617,1.2257893085479736,1.074965476989746,-0.010118796490132809,0.13556915521621704,-0.11372481286525726
19.0,-0.15099462866783142,-0.06962484866380692,0.48809048533439636,0.09451252222061157,-0.21151429414749146,0.36602699756622314
19.05,-0.10298561304807663,-0.6040230989456177,-0.4101323187351227,0.18240727484226227,-0.3597494959831238,0.5033568739891052
19.1,0.017219804227352142,-0.5883209109306335,-0.9717605710029602,0.15895938873291016,-0.2775246500968933,0.3391372263431549
19.15,0.03134992718696594,-0.3387671709060669,-0.7776248455047607,0.02757211960852146,-0.08549802005290985,0.004390455316752195
19.2,-0.03228873014450073,0.49577048420906067,-0.19228704273700714,-0.03399544581770897,0.03959393501281738,-0.25302058458328247
19.25,-0.15604110062122345,0.4733458459377289,0.2017630636692047,0.013325954787433147,0.036870379000902176,-0.09733670949935913
19.3,-0.18921394646167755,-0.29184627532958984,0.19424490630626678,0.05421856790781021,-0.03536968678236008,0.12551628053188324
19.35,0.17319971323013306,-0.40305909514427185,-0.18682938814163208,0.025407658889889717,-0.043927066028118134,0.07925677299499512
19.4,0.32577675580978394,-0.21757324039936066,-0.3040591776371002,-0.03836413472890854,0.05465532839298248,-0.05953989550471306
19.45,-0.06180611252784729,0.058808352798223495,0.14216504991054535,-0.10568645596504211,0.17286977171897888,-0.1957404762506485
19.5,-0.15026222169399261,0.63752281665802,0.34966108202934265,-0.11413884162902832,0.14213837683200836,-0.2578805088996887
19.55,-0.04812455177307129,0.4938898980617523,0.1842641830444336,0.004701164551079273,-0.034186337143182755,-0.03213764354586601
19.6,0.0700334757566452,-0.0024433471262454987,-0.2730856239795685,0.14101266860961914,-0.21937169134616852,0.23218291997909546
19.65,0.27054277062416077,-0.34367191791534424,-0.6021191477775574,0.16045702993869781,-0.23088759183883667,0.26242464780807495
19.7,0.17619499564170837,-0.5209628343582153,-0.23332160711288452,0.0525985062122345,-0.055826157331466675,0.0693851038813591
19.75,-0.0132976695895195,-0.345790833234787,0.46494048833847046,-0.1140701025724411,0.1540917009115219,-0.2108398824930191
19.8,-0.14673097431659698,0.4947502017021179,0.8748207092285156,-0.17125368118286133,0.1792961210012436,-0.363477885723114
19.85,-0.22431731224060059,1.0144035816192627,0.49669232964515686,-0.03685906529426575,-0.039824750274419785,-0.13422559201717377
19.9,0.024654991924762726,0.4057445526123047,-0.4624751806259155,0.12730371952056885,-0.3199367821216583,0.2580375671386719
19.95,0.2127722203731537,-0.5627471804618835,-0.9485306143760681,0.2098720222711563,-0.4017481505870819,0.41189128160476685
20.0,0.26726582646369934,-0.7302447557449341,-0.6985292434692383,0.16632096469402313,-0.22016100585460663,0.1770043969154358
20.05,0.10777492076158524,-0.38413435220718384,0.12330276519060135,0.011304614134132862,0.09780764579772949,-0.15330131351947784
20.1,-0.01874728500843048,0.27119266986846924,0.7989041805267334,-0.14776639640331268,0.27566665410995483,-0.34058207273483276
20.15,-0.03972075134515762,0.7293817400932312,0.7716594338417053,-0.18457642197608948,0.20274154841899872,-0.2319742739200592
20.2,-0.14055050909519196,0.6298657059669495,0.1740037202835083,-0.09302345663309097,0.0004983408143743873,-0.0014280517352744937
20.25,-0.20090806484222412,0.16203971207141876,-0.4829379916191101,0.07409930974245071,-0.20013484358787537,0.23602113127708435
20.3,0.1791435182094574,-0.4835206866264343,-0.895980715751648,0.20997487008571625,-0.302819162607193,0.3795114755630493
20.35,0.5102471709251404,-0.5102168321609497,-0.6886880993843079,0.15516600012779236,-0.12669816613197327,0.14171317219734192
20.4,0.14191704988479614,-0.26870253682136536,0.09673932194709778,-0.008848777040839195,0.18495716154575348,-0.13301770389080048
20.45,-0.23045402765274048,-0.05448142811655998,0.6818220615386963,-0.13539032638072968,0.31600722670555115,-0.23147645592689514
20.5,-0.04445170238614082,0.6188393831253052,0.64017653465271,-0.20888546109199524,0.24488110840320587,-0.28377747535705566
20.55,-0.23230847716331482,0.6903830766677856,0.2556324303150177,-0.1560368686914444,0.07935027778148651,-0.1400337964296341
20.6,-0.11959753930568695,0.3533449172973633,-0.36817342042922974,0.025247987359762192,-0.15200968086719513,0.09690990298986435
20.65,0.40563249588012695,-0.3703423738479614,-0.7240097522735596,0.1616702675819397,-0.26989197731018066,0.2544870376586914
20.7,0.39714714884757996,-0.366584837436676,-0.3272419571876526,0.13538633286952972,-0.12054337561130524,0.09125494956970215
20.75,0.25759392976760864,0.17082218825817108,0.25939884781837463,0.0023231403902173042,0.09330463409423828,-0.11453800648450851
20.8,0.011705867946147919,0.2430191934108734,0.4983733296394348,-0.11687570810317993,0.2083035558462143,-0.09537504613399506
20.85,-0.041740719228982925,0.1154661700129509,0.278838187456131,-0.2043786346912384,0.17375196516513824,-0.0631747618317604
20.9,-0.21900279819965363,0.34917834401130676,0.008919204585254192,-0.16265834867954254,0.07658180594444275,-0.07462918013334274
20.95,-0.30598464608192444,0.29224780201911926,-0.12393537908792496,0.0010525453835725784,-0.06043640151619911,0.042994193732738495
21.0,0.14224177598953247,-0.28610140085220337,-0.23200230300426483,0.11489950120449066,-0.17664432525634766,0.17419423162937164
21.05,0.40305906534194946,-0.1084757149219513,-0.05197641998529434,0.08423292636871338,-0.07948977500200272,0.028284499421715736
21.1,0.33009442687034607,0.15184883773326874,0.32073548436164856,-0.037645407021045685,0.08686146140098572,-0.08486882597208023
21.15,0.2140251100063324,0.03288940712809563,0.3568122684955597,-0.16957448422908783,0.18832328915596008,-0.07341455668210983
21.2,-0.29309937357902527,0.2827683091163635,0.32415661215782166,-0.24635715782642365,0.16950243711471558,-0.11653831601142883
21.25,-0.5988109707832336,0.2648792862892151,0.1470915675163269,-0.1552990972995758,-0.04839099571108818,-0.09776656329631805
21.3,-0.20389997959136963,0.034290291368961334,-0.23667216300964355,0.056262001395225525,-0.2278229147195816,0.0788610428571701
21.35,0.4293726682662964,-0.18437011539936066,-0.48095303773880005,0.18154506385326385,-0.2787720859050751,0.17784549295902252
21.4,0.6371031403541565,0.10867973417043686,-0.32973194122314453,0.10144414007663727,-0.11509016156196594,0.010450096800923347
21.45,0.7010644674301147,0.3520841598510742,-0.18685771524906158,-0.029565775766968727,0.10059874504804611,-0.059520453214645386
21.5,-0.049467217177152634,-0.19974710047245026,0.15857671201229095,-0.15129905939102173,0.24534872174263,0.04322761297225952
21.55,-0.541839063167572,-0.45061877369880676,0.05830375850200653,-0.16159886121749878,0.15482260286808014,0.12174350023269653
21.6,-0.21479694545269012,-0.07825188338756561,-0.33890166878700256,-0.043424442410469055,-0.009431200101971626,0.1254711002111435
21.65,0.8494792580604553,0.5640077590942383,-0.597026526927948,0.05148179456591606,-0.05838995799422264,0.07312024384737015
21.7,0.39723098278045654,1.2754918336868286,0.06628700345754623,0.09314201027154922,0.010240115225315094,0.15722183883190155
21.75,-0.191890686750412,0.620620846748352,0.360193133354187,0.05366487056016922,-0.10420592129230499,0.31999117136001587
21.8,0.0869642123579979,-0.28675851225852966,-0.4273420572280884,0.05683886632323265,-0.27565300464630127,0.48838695883750916
21.85,0.10006383061408997,-0.6105167865753174,-1.3606551885604858,0.18000921607017517,-0.2563086748123169,0.5983426570892334
21.9,-0.11235755681991577,-0.3486902415752411,-1.5942386388778687,0.21122291684150696,-0.06546703726053238,0.36891496181488037
21.95,0.0037619024515151978,-0.7379180788993835,-0.850621223449707,0.12273360043764114,0.19640392065048218,0.021497538313269615
22.0,-0.14278629422187805,-0.6098651885986328,0.5234981179237366,0.12800607085227966,0.41133829951286316,-0.23358699679374695
22.05,-0.17880934476852417,0.6597998142242432,1.354393482208252,0.16808253526687622,0.317461758852005,-0.37805819511413574
22.1,-0.00145663321018219,0.696906328201294,1.2687827348709106,0.21482163667678833,0.0431470088660717,-0.08824201673269272
22.15,0.08637131750583649,-0.08757776021957397,0.5682415962219238,0.1957717090845108,-0.1519467532634735,0.17152883112430573
22.2,-0.21104660630226135,-0.5417032837867737,0.10155563056468964,0.13198134303092957,-0.1492350846529007,0.17279507219791412
22.25,-0.10189968347549438,0.07709979265928268,-0.13716936111450195,0.05098177492618561,-0.038536667823791504,-0.025442246347665787
22.3,-0.052904583513736725,0.16127875447273254,0.16382504999637604,-0.02035439759492874,0.09882398694753647,-0.0957130491733551
22.35,0.06652297079563141,0.1655302792787552,0.4803524315357208,-0.03875968977808952,0.11599037051200867,-0.13452649116516113
22.4,-0.07503706961870193,0.15794669091701508,0.8069728016853333,-0.004577836953103542,0.055839959532022476,-0.08106591552495956
22.45,-0.11319214105606079,0.15629494190216064,0.8795804381370544,0.014821689575910568,-0.039627883583307266,-0.003089857753366232
22.5,-0.21216872334480286,-0.04733556881546974,0.5019842982292175,-0.004339630715548992,-0.13370053470134735,0.08062540739774704
22.55,-0.035625308752059937,-0.24235349893569946,-0.20151829719543457,-0.05278466269373894,-0.18791140615940094,0.07552788406610489
22.6,0.07083318382501602,0.13579268753528595,-0.514093279838562,-0.09399814158678055,-0.10782086104154587,-0.047580428421497345
22.65,0.031534839421510696,-0.030106589198112488,-0.33680763840675354,-0.09732642769813538,0.013726702891290188,-0.0959288477897644
22.7,0.10195428133010864,0.04628945514559746,0.08153866231441498,-0.037484727799892426,0.04316036403179169,-0.13630138337612152
22.75,0.04309104010462761,0.21104152500629425,0.4311900734901428,-0.003608815371990204,0.020405754446983337,-0.13044609129428864
22.8,0.03149617835879326,0.0642729178071022,0.2681281566619873,0.02217053808271885,-0.05364090949296951,-0.01789061166346073
22.85,0.07842621207237244,0.10194873064756393,-0.18892282247543335,0.002611689269542694,-0.07423609495162964,0.025835122913122177
22.9,0.141963928937912,0.1584281474351883,-0.542432427406311,-0.05237435922026634,-0.013593503274023533,-0.014473297633230686
22.95,0.07395225763320923,-0.024384550750255585,-0.4053386449813843,-0.07845020294189453,0.09459996223449707,-0.07091505825519562
23.0,0.07588735967874527,0.00028895732248201966,-0.04132787138223648,-0.03228094428777695,0.15316659212112427,-0.09519913047552109
23.05,-0.032496001571416855,0.09771066904067993,0.3669974207878113,0.025407500565052032,0.1329992562532425,-0.07386759668588638
23.1,0.10408824682235718,0.2718668580055237,0.3501770794391632,0.05289845168590546,0.04863724857568741,-0.002305059926584363
23.15,0.0742131695151329,0.17671681940555573,0.02196352742612362,0.016989819705486298,-0.012676265090703964,0.06655038148164749
23.2,0.029771573841571808,-0.0468016192317009,-0.41198965907096863,-0.038067594170570374,0.006852425634860992,0.07268424332141876
23.25,0.11122246086597443,-0.06521420925855637,-0.3722119927406311,-0.05695783346891403,0.0704326182603836,-0.02225702442228794
23.3,0.22725090384483337,0.22227002680301666,-0.03742397204041481,-0.02501063048839569,0.12841984629631042,-0.09331415593624115
23.35,-0.0325423963367939,0.19104203581809998,0.5406748652458191,0.02804696187376976,0.11376040428876877,-0.04107585549354553
23.4,-0.08577506244182587,0.13735683262348175,0.5338243842124939,0.05480477586388588,-0.0008114533266052604,0.016888035461306572
23.45,-0.10353755950927734,0.037233367562294006,0.07960715144872665,0.03756853938102722,-0.0838446393609047,0.08885347098112106
23.5,-0.14219997823238373,-0.16366298496723175,-0.5064367055892944,-0.014396054670214653,-0.08748650550842285,0.07841091603040695
23.55,0.04711700975894928,0.058180756866931915,-0.4961055815219879,-0.06930243968963623,0.0037097169551998377,-0.08919208496809006
23.6,0.08800419420003891,0.1347217708826065,-0.029865486547350883,-0.04883294552564621,0.1079522892832756,-0.131850466132164
23.65,0.005545772612094879,0.10973270237445831,0.5283783078193665,0.033169303089380264,0.08268393576145172,-0.04981306940317154
23.7,0.06630883365869522,0.21255788207054138,0.45558544993400574,0.05932370945811272,-0.028268594294786453,0.017549758777022362
23.75,-0.12095778435468674,-0.1847849041223526,-0.006841400172561407,0.025676142424345016,-0.10774163156747818,0.10630234330892563
23.8,-0.17992201447486877,-0.42322078347206116,-0.6541778445243835,-0.008937595412135124,-0.1126842349767685,0.15315811336040497
23.85,0.13785049319267273,-0.2054072916507721,-0.9929691553115845,-0.06264787912368774,0.005330486223101616,0.0030688659753650427
23.9,0.04373597353696823,0.22463704645633698,-0.14734339714050293,-0.1045667827129364,0.2254459261894226,-0.22750380635261536
23.95,0.002576187252998352,0.4413081705570221,0.6475414037704468,-0.028256477788090706,0.24994783103466034,-0.19318881630897522
24.0,0.1407625526189804,0.3571130037307739,0.8407118916511536,0.03816865757107735,0.10845211893320084,-0.06655464321374893
24.05,-0.03837303817272186,0.1321612000465393,0.43113210797309875,0.05221739783883095,-0.02505752258002758,0.0698394924402237
24.1,-0.19690603017807007,-0.3195247948169708,-0.12323781102895737,0.0230662003159523,-0.04238143563270569,0.14487458765506744
24.15,-0.11195598542690277,-0.302161306142807,-0.5919905304908752,-0.06872911006212234,0.03512343391776085,0.04261692985892296
24.2,0.041767701506614685,0.1327466368675232,-0.618157684803009,-0.11656069755554199,0.15279021859169006,-0.11742081493139267
24.25,-0.15274293720722198,0.48063668608665466,0.24202410876750946,-0.07995259761810303,0.23223425447940826,-0.18046808242797852
24.3,0.006562374532222748,0.463297039270401,0.8495897650718689,0.037225015461444855,0.12018126994371414,-0.08108744025230408
24.35,0.05553814768791199,0.3702327311038971,0.9066998362541199,0.09346617013216019,-0.03307531774044037,0.018128572031855583
24.4,-0.08348316699266434,-0.14143748581409454,0.5298726558685303,0.10122103244066238,-0.13940086960792542,0.12877586483955383
24.45,-0.16103842854499817,-0.6497707962989807,-0.016521820798516273,0.07117173075675964,-0.1296345442533493,0.20657674968242645
24.5,-0.33339551091194153,-0.2699509561061859,-0.46272191405296326,-0.034942809492349625,-0.04188237711787224,0.03666556254029274
24.55,-0.3904447555541992,0.6596784591674805,-0.4725724160671234,-0.08593933284282684,0.032423608005046844,-0.16677987575531006
24.6,0.15336158871650696,0.5275306701660156,-0.297046035528183,0.0186871699988842,0.060367416590452194,-0.01094543095678091
24.65,0.021504957228899002,0.5707923173904419,0.4521579146385193,0.11996788531541824,0.11781033128499985,0.08888227492570877
24.7,0.39893385767936707,0.3885556161403656,0.4104619324207306,0.12007317692041397,0.06622816622257233,0.0530908927321434
24.75,0.6024153828620911,-0.32259947061538696,-0.2730594277381897,0.13175739347934723,0.42520126700401306,0.15362459421157837
24.8,0.36746543645858765,-0.5793420076370239,-0.5002326965332031,-0.19266673922538757,0.7286454439163208,-0.13932844996452332
24.85,0.03456132858991623,0.20079320669174194,-0.7983673810958862,-0.3544877767562866,0.6703822016716003,-0.4831337630748749
24.9,-0.08757078647613525,0.9938440322875977,-1.0334662199020386,-0.26417845487594604,0.6246784329414368,-0.41471797227859497
24.95,0.08748515695333481,0.04884801059961319,-1.2359215021133423,-0.3818138837814331,0.7375436425209045,-0.17198142409324646
25.0,0.9109235405921936,-0.26375025510787964,-1.0264302492141724,-0.2717592418193817,1.029176950454712,0.06820958852767944
25.05,0.35951581597328186,-0.9563018083572388,0.004930568393319845,-0.0926196277141571,1.441162347793579,0.3666136860847473
25.1,-0.4322625696659088,0.5522939562797546,0.8970164656639099,-0.06612621247768402,1.2184072732925415,0.17098906636238098
25.15,-0.5305165648460388,2.288173198699951,1.2753818035125732,-0.021754750981926918,0.9437573552131653,0.3224319517612457
25.2,-0.5863618850708008,2.413539409637451,1.1483066082000732,-0.4784122705459595,0.756247341632843,0.4570246636867523
25.25,-0.07334330677986145,0.8832752704620361,1.130942940711975,-2.8961181640625,0.5783955454826355,-0.7175697684288025
25.3,0.5398944020271301,-1.036582112312317,-0.04798290506005287,-6.744948863983154,0.46948111057281494,-3.3868939876556396
25.35,0.9259060621261597,-0.36533862352371216,-2.1467013359069824,-6.591156005859375,1.0894978046417236,-3.998955011367798
25.4,-1.7742305994033813,1.027462124824524,-0.2410079389810562,-1.0443737506866455,1.4688814878463745,-0.9901371002197266
25.45,-3.2741289138793945,1.2729731798171997,-0.7207954525947571,2.8997716903686523,0.7724869847297668,1.6818597316741943
25.5,-2.5743019580841064,-2.1263959407806396,-0.4889448881149292,3.794158697128296,0.3472111225128174,3.1290793418884277
25.55,-0.6358950138092041,-3.899806261062622,-2.166250228881836,2.496709108352661,-0.5118985176086426,2.783766031265259
25.6,0.45015716552734375,-3.153749704360962,-2.9655675888061523,1.0983816385269165,-0.907373309135437,1.286214828491211
25.65,0.45092451572418213,-1.4709382057189941,-3.1463840007781982,0.5715401768684387,-0.6454307436943054,0.06450356543064117
25.7,0.836381196975708,-1.2556300163269043,-2.5364437103271484,0.3713986575603485,-0.3687211871147156,-0.3785962462425232
25.75,1.5575590133666992,-1.754533290863037,-2.2542431354522705,-0.7991703152656555,-0.6075810194015503,-1.5252256393432617
25.8,2.3292243480682373,0.14923729002475739,-2.7223386764526367,-2.638045072555542,-0.2588610053062439,-3.3954453468322754
25.85,1.868506669998169,1.326471209526062,-1.9537317752838135,-2.5396618843078613,1.158991813659668,-3.4250028133392334
25.9,-0.5659840106964111,2.0624823570251465,2.4328196048736572,-0.05551522970199585,2.3500254154205322,-1.6835335493087769
25.95,-1.2110062837600708,1.1479452848434448,5.637448787689209,1.2955067157745361,1.5198360681533813,-0.3900418281555176
26.0,0.1948293149471283,0.5937418341636658,3.2573909759521484,0.4341486096382141,0.15544340014457703,-0.07695555686950684
26.05,1.062418818473816,-0.16245920956134796,1.628738284111023,0.4369249641895294,-0.09295278042554855,0.18129323422908783
26.1,1.1725342273712158,-0.17831313610076904,1.276723027229309,0.23924189805984497,0.18316224217414856,-0.04382193833589554
26.15,1.118320107460022,0.9702179431915283,1.2920197248458862,-0.3272618353366852,0.49622800946235657,-0.41375887393951416
26.2,0.6077290773391724,1.4631178379058838,1.3569071292877197,-0.4119322896003723,0.4004523754119873,-0.2435583472251892
26.25,0.4363202452659607,1.6321871280670166,0.3240946829319,-0.04804566502571106,-0.021916309371590614,0.12336675077676773
26.3,0.41824644804000854,0.391879141330719,-0.0641367956995964,0.4846838712692261,-0.35934799909591675,0.6198592185974121
26.35,0.45779678225517273,-0.9396345019340515,-0.24510711431503296,0.6559509634971619,-0.5764697790145874,0.8052880167961121
26.4,0.31658050417900085,-1.6274902820587158,-0.13540029525756836,0.6859564185142517,-0.5521355271339417,0.6721293926239014
26.45,-0.001170446863397956,-1.7175190448760986,0.03823766112327576,0.849899411201477,-0.43515709042549133,0.4908275306224823
26.5,-0.04300609976053238,-1.5563738346099854,0.03040502592921257,0.9733337759971619,-0.360775351524353,0.31586894392967224
26.55,-0.0266480203717947,-1.314860463142395,0.2035222351551056,1.022124171257019,-0.23370730876922607,0.1342497617006302
26.6,0.16222867369651794,-0.2597932815551758,0.1614590734243393,0.9372051954269409,-0.1501324325799942,-0.1340891420841217
26.65,0.46588394045829773,0.5847416520118713,0.11388297379016876,0.8529751896858215,-0.09300525486469269,-0.20429693162441254
26.7,0.5569274425506592,1.390792965888977,-0.2557864785194397,0.7933766841888428,-0.0561218298971653,-0.10480529069900513
26.75,-0.017290782183408737,1.345143437385559,0.2844425141811371,1.2871999740600586,0.13908565044403076,0.2657875716686249
26.8,0.2562505900859833,2.100968599319458,0.651379406452179,1.309081792831421,0.14800894260406494,0.18118169903755188
26.85,0.18950703740119934,1.4467394351959229,0.5793984532356262,0.8924701809883118,-0.11204660683870316,0.39988577365875244
26.9,-0.1554046869277954,1.4368783235549927,-0.18344461917877197,0.47398990392684937,-0.4327108860015869,0.48200303316116333
26.95,-0.5725007057189941,1.0046358108520508,-1.0141373872756958,0.2033846378326416,-0.49609458446502686,0.721453070640564
27.0,-1.1012777090072632,-0.29045987129211426,-1.9009690284729004,0.10322335362434387,-0.4942142963409424,0.9387558698654175
27.05,-1.4609110355377197,-1.035314917564392,-1.8967175483703613,0.024713419377803802,-0.29959484934806824,0.7880894541740417
27.1,-1.4441765546798706,-1.859605312347412,-1.7056643962860107,0.07600679993629456,-0.2717161476612091,0.609907329082489
27.15,-1.108422875404358,-2.050337314605713,-1.543138027191162,0.05310559272766113,-0.3944922089576721,0.2899489998817444
27.2,-0.9814335107803345,-1.2706378698349,-1.651167869567871,0.11896457523107529,-0.39315932989120483,0.003898584982380271
27.25,-0.8245269656181335,-0.23489299416542053,-1.0924434661865234,0.2159939706325531,-0.19615818560123444,-0.2194519191980362
27.3,-0.5114734172821045,0.7271022796630859,-0.4799349009990692,0.25937139987945557,-0.1328164041042328,-0.3997141122817993
27.35,-0.26047611236572266,-0.031390171498060226,0.16193537414073944,0.30760133266448975,-0.22996912896633148,-0.279697448015213
27.4,0.0737396851181984,-0.1013907790184021,0.6160650849342346,0.3065066635608673,-0.31162676215171814,-0.3552764058113098
27.45,0.4400370717048645,0.2748948037624359,0.6041038036346436,0.41407495737075806,-0.35708919167518616,-0.2939888834953308
27.5,0.4596094787120819,1.2870047092437744,0.8510087132453918,0.41835102438926697,-0.2790069878101349,-0.24599173665046692
27.55,0.5302739143371582,1.8558286428451538,0.9515008926391602,0.28276383876800537,-0.18815721571445465,-0.09149644523859024
27.6,0.482239693403244,0.9020234942436218,0.6629996299743652,0.017370641231536865,-0.21089057624340057,0.19767221808433533
27.65,0.25402534008026123,0.09726434201002121,0.3540051579475403,-0.17871703207492828,-0.1898384541273117,0.35048410296440125
27.7,-0.13523238897323608,-0.14932823181152344,0.047490209341049194,-0.20705865323543549,-0.054978061467409134,0.4087078869342804
27.75,-0.638654351234436,-0.5273876786231995,-0.10517144203186035,-0.24554626643657684,0.1079212948679924,0.36276644468307495
27.8,-0.7829937934875488,-0.4191037118434906,-0.3016008734703064,-0.28135403990745544,0.19531980156898499,0.21267613768577576
27.85,-0.726618766784668,-0.7985460162162781,-0.5602738857269287,-0.23707926273345947,0.21560350060462952,0.1612689197063446
27.9,-0.3542637228965759,-0.9470760226249695,-0.5469560623168945,-0.24512788653373718,0.15797419846057892,0.017313754186034203
27.95,-0.06403757631778717,-0.5132409334182739,-0.6930620670318604,-0.1781894415616989,0.05241016671061516,-0.0925455167889595
28.0,-0.004785433411598206,0.21794408559799194,-0.7155805826187134,0.014225299470126629,0.04004739224910736,-0.06226353347301483
28.05,0.025098003447055817,0.46007630228996277,-0.6434249877929688,0.043774016201496124,0.039549700915813446,-0.07042740285396576
28.1,0.10638155788183212,0.4195690453052521,-0.2159835547208786,0.04731998220086098,0.04454586282372475,-0.10369309782981873
28.15,0.25353944301605225,0.04174995794892311,0.03505924716591835,0.16024301946163177,0.015219831839203835,-0.014020653441548347
28.2,0.3103308081626892,0.005085966549813747,0.2160668820142746,0.19058220088481903,0.0038764704950153828,-0.02282380871474743
28.25,0.19448059797286987,0.10174567252397537,0.45795154571533203,0.14629696309566498,0.08945555984973907,-0.03269677609205246
28.3,0.008770331740379333,0.12798604369163513,0.6368824243545532,0.07224774360656738,0.14241154491901398,0.02300007827579975
28.35,-0.13477420806884766,0.39016830921173096,0.4814966917037964,-0.1011180728673935,0.11148621886968613,-0.026261141523718834
28.4,-0.10243195295333862,0.455023854970932,0.224096417427063,-0.13785505294799805,0.0633748471736908,-0.022684654220938683
28.45,0.05340540409088135,0.19860364496707916,-0.07507634907960892,-0.116133913397789,-0.0172286219894886,0.0044598812237381935
28.5,0.07989378273487091,0.22434045374393463,-0.1641913205385208,-0.0017203162424266338,-0.11542053520679474,0.03848959878087044
28.55,0.050665829330682755,0.25441738963127136,-0.37830978631973267,0.1478155255317688,-0.2127486616373062,0.10692314803600311
28.6,0.008818063884973526,0.044557519257068634,-0.4845665693283081,0.20569485425949097,-0.22970134019851685,0.1332760602235794
28.65,0.05931879207491875,-0.22779855132102966,-0.5078729391098022,0.16935110092163086,-0.11898189038038254,0.07432594150304794
28.7,-0.022242572158575058,-0.24632364511489868,-0.2275162637233734,0.1655028760433197,0.031649522483348846,-0.003183286637067795
28.75,-0.0784844160079956,-0.2073049545288086,0.2804563641548157,0.18448543548583984,0.1459929496049881,-0.049778301268815994
28.8,-0.04124533385038376,-0.04700846970081329,0.4482077658176422,0.16943876445293427,0.13935843110084534,-0.10275644063949585
28.85,0.030194774270057678,0.11686619371175766,0.5860466361045837,0.16212289035320282,0.1259327381849289,-0.0931892991065979
28.9,0.06743501126766205,0.1511269360780716,0.46352559328079224,0.0832686573266983,0.12938646972179413,-0.07976721227169037
28.95,-0.0200081504881382,-0.23770233988761902,0.48715829849243164,-0.019622256979346275,0.1674271523952484,-0.05943974852561951
29.0,-0.09545563161373138,-0.6162395477294922,0.40030592679977417,-0.18670569360256195,0.1600974202156067,-0.10168628394603729
29.05,-0.30958470702171326,-0.40959835052490234,0.3930904269218445,-0.20587262511253357,0.12095888704061508,-0.17567579448223114
29.1,-0.4292331635951996,0.4803524911403656,0.27199792861938477,-0.04619207978248596,-0.027430154383182526,-0.19131262600421906
29.15,-0.09500163048505783,0.39289289712905884,0.005649042781442404,-0.0017040297389030457,-0.26235339045524597,-0.1584385484457016
29.2,0.35651618242263794,0.29847046732902527,-0.4637989401817322,0.015266665257513523,-0.41731587052345276,-0.1422656923532486
29.25,0.6554989218711853,0.07287399470806122,-0.639378547668457,0.18718422949314117,-0.356942743062973,-0.014906356111168861
29.3,0.7341470122337341,0.22186274826526642,-0.5378240942955017,0.11360432952642441,-0.16171064972877502,-0.04283561930060387
29.35,0.36756595969200134,0.07094858586788177,-0.15323197841644287,0.04112495109438896,0.09849204123020172,-0.03918614983558655
29.4,0.009021209552884102,0.25262266397476196,0.18438838422298431,-0.04531312361359596,0.29871317744255066,-0.07930057495832443
29.45,-0.21280032396316528,0.375524640083313,0.36061930656433105,-0.1195082888007164,0.3475020229816437,-0.11560501158237457
29.5,-0.2723156213760376,-0.06403347104787827,0.3266184329986572,-0.19721370935440063,0.2555060088634491,-0.10036300122737885
29.55,0.010158115066587925,-0.49192532896995544,-0.1679471880197525,-0.24568426609039307,0.060300469398498535,-0.08617779612541199
29.6,0.08647315204143524,-0.45780956745147705,-0.3805947005748749,-0.09960587322711945,-0.11021324247121811,-0.03372853249311447
29.65,-0.0690569132566452,0.05077356845140457,-0.5212545990943909,0.09015072137117386,-0.2557191848754883,0.004163687117397785
29.7,-0.1450825333595276,0.707942008972168,-0.34181275963783264,0.1328444480895996,-0.29021137952804565,-0.009063364006578922
29.75,-0.25272950530052185,0.6170931458473206,-0.25111696124076843,0.07946453988552094,-0.305667906999588,0.00934004969894886
29.8,-0.1731361299753189,-0.25268465280532837,-0.2524464726448059,-0.03709745407104492,-0.3106921315193176,0.026484433561563492
29.85,-0.23090259730815887,-0.3794594705104828,-0.1767435073852539,-0.09967347234487534,-0.32688477635383606,-0.03455284982919693
29.9,-0.25643646717071533,0.00784587673842907,-0.05683017149567604,0.014803112484514713,-0.39834439754486084,-0.03267543017864227
29.95,-0.09815864264965057,-0.1291971057653427,0.2842383086681366,0.04012896865606308,-0.493823379278183,-0.09289789199829102
30.0,0.15189805626869202,0.38572803139686584,0.7639979720115662,0.21787799894809723,-0.5395008325576782,-0.1496434211730957
30.05,0.6016674637794495,0.4688397943973541,0.8825638890266418,0.35463789105415344,-0.6260014176368713,-0.0841342955827713
30.1,0.9575799107551575,0.26414501667022705,0.819196343421936,0.35299578309059143,-0.603029191493988,0.052020005881786346
30.15,0.9809598922729492,-0.16597361862659454,0.6759244203567505,0.26859715580940247,-0.38435059785842896,0.18954169750213623
30.2,0.6422001123428345,0.01712995022535324,0.5066996812820435,0.0999908596277237,-0.013894028961658478,0.12634329497814178
30.25,0.0003167837858200073,0.036908235400915146,0.7036291360855103,-0.13426703214645386,0.4116050899028778,0.014740842394530773
30.3,-0.4669346809387207,-0.6373147368431091,0.9143807888031006,-0.3514871299266815,0.6135222911834717,-0.11944787204265594
30.35,-0.32668519020080566,-0.41089245676994324,0.7230632901191711,-0.47300952672958374,0.4746434986591339,-0.31215792894363403
30.4,0.76253342628479,0.7997522354125977,-1.1333905458450317,-0.18849077820777893,-0.16224509477615356,-0.20489344000816345
30.45,0.8661195039749146,1.6591655015945435,-1.3929015398025513,0.19096040725708008,-0.4070870876312256,0.02533012442290783
30.5,0.013367215171456337,0.22765348851680756,-0.34175384044647217,0.22849871218204498,-0.31754541397094727,0.33013859391212463
30.55,-0.19236759841442108,-0.8766700029373169,-0.05171491205692291,0.3083956837654114,-0.4040188789367676,0.4520063102245331
30.6,-0.18753992021083832,-0.5584622025489807,0.09978517144918442,0.22945475578308105,-0.27734869718551636,0.22103670239448547
30.65,-0.3365579843521118,0.23191936314105988,0.2909162938594818,0.07809484004974365,-0.0959353968501091,-0.04182279482483864
30.7,-0.06599035859107971,0.32935434579849243,0.17021997272968292,-0.0757833868265152,0.08643005788326263,-0.1600080281496048
30.75,0.5169352889060974,-0.1105833649635315,-0.32068583369255066,-0.12552212178707123,0.1306774616241455,-0.10195457935333252
30.8,0.6373555064201355,0.058758679777383804,-0.4492592513561249,-0.03200337663292885,0.12908156216144562,-0.04417991638183594
30.85,0.11789213120937347,0.43120962381362915,-0.07494928687810898,0.04971437156200409,0.11684170365333557,0.005718649365007877
30.9,-0.2385994791984558,0.18426328897476196,0.3795458674430847,0.12053434550762177,0.06516949087381363,0.10379817336797714
30.95,-0.20833437144756317,-0.12419982999563217,0.39091458916664124,0.12632904946804047,0.008443965576589108,0.09636268019676208
31.0,0.04779549688100815,-0.1759309619665146,0.2838132083415985,0.09318651258945465,0.01642034761607647,0.036350104957818985
31.05,0.1466601938009262,0.05374911054968834,0.1780654788017273,0.05420071631669998,0.07184448093175888,0.001139564672484994
31.1,0.041391778737306595,0.12229827046394348,0.14215369522571564,0.006861978210508823,0.1220855787396431,-0.02146974392235279
31.15,-0.10248081386089325,-0.018531784415245056,0.12347157299518585,0.00019999896176159382,0.1274184137582779,-0.008778952993452549
31.2,0.020046714693307877,-0.09220599383115768,0.14698748290538788,0.007565765641629696,0.0837024599313736,-0.039981991052627563
31.25,0.06521682441234589,-0.08242794871330261,0.2953287661075592,0.013925271108746529,0.054897986352443695,-0.0711580291390419
31.3,-0.04386265203356743,0.118991918861866,0.4533168077468872,0.01912524551153183,0.03227466717362404,-0.07799483090639114
31.35,0.10728210210800171,0.27576741576194763,0.43321752548217773,-0.011810433119535446,0.009465396404266357,-0.06591689586639404
31.4,0.15496520698070526,-0.014585484750568867,0.12291234731674194,-0.03614337742328644,-0.027822347357869148,0.015972526744008064
31.45,-0.043388452380895615,0.03896619379520416,0.0965111255645752,-0.03296254202723503,-0.026069603860378265,-0.010450438596308231
31.5,0.07249338179826736,0.28591540455818176,0.11737942695617676,-0.021931760013103485,-0.0245549026876688,-0.04668896645307541
31.55,0.1965181529521942,0.3618297874927521,0.05877735838294029,-0.027911942452192307,-0.05003939941525459,0.004413311369717121
31.6,0.15319325029850006,-0.15320590138435364,-0.13882482051849365,-0.05912286043167114,0.0035232845693826675,0.07876031845808029
31.65,-0.19573882222175598,-0.37101081013679504,0.0619773343205452,-0.07005248963832855,0.09583377093076706,0.0022095052991062403
31.7,-0.12597928941249847,0.08538917452096939,0.22999684512615204,-0.044866882264614105,0.08596224337816238,-0.08140350133180618
31.75,0.34424889087677,0.0441131517291069,-0.03882436826825142,-0.02603575959801674,0.01881837286055088,-0.051531899720430374
31.8,0.1777675449848175,0.20621207356452942,0.04790889099240303,-0.018428802490234375,0.03621857613325119,-0.02231554128229618
31.85,-0.07377099990844727,-0.11337471753358841,0.06164226308465004,-0.03173435106873512,0.05686766281723976,0.0232149139046669
31.9,-0.18723973631858826,-0.2370443344116211,0.2689349055290222,-0.0056951954029500484,0.05597607046365738,-0.026493744924664497
31.95,-0.0021401382982730865,0.3764716386795044,0.43839502334594727,0.046502865850925446,-0.018789295107126236,-0.10903074592351913
32.0,0.4451882839202881,0.576846182346344,0.2151360958814621,0.04207754507660866,-0.10498952120542526,-0.047654587775468826
32.05,0.28339776396751404,-0.11139683425426483,-0.20555800199508667,-0.0008723316714167595,-0.07002242654561996,0.09319353848695755
32.1,-0.26206153631210327,-0.24958230555057526,0.12496020644903183,-0.0032580364495515823,0.040066108107566833,0.055653516203165054
32.15,-0.21265530586242676,-0.12337779253721237,0.1867055743932724,0.020673353224992752,0.02246694080531597,-0.019479257985949516
32.2,0.13045720756053925,0.1882639229297638,-0.005556734278798103,0.020357389003038406,-0.02374279871582985,-0.0656881257891655
32.25,0.30979612469673157,0.3902721703052521,-0.09894923865795135,-0.0031216363422572613,0.024067895486950874,-0.04420122131705284
32.3,0.13696585595607758,-0.2755642235279083,-0.04273103550076485,-0.037001725286245346,0.09270837903022766,0.060693781822919846
32.35,-0.281093031167984,-0.31789401173591614,0.08841115981340408,-0.04598897323012352,0.12946189939975739,0.026133708655834198
32.4,-0.21522156894207,0.08285623788833618,0.41959935426712036,-0.03499760851264,0.11281197518110275,-0.1357812136411667
32.45,0.08958646655082703,0.6172763109207153,0.5727494359016418,0.030678750947117805,-0.004337867256253958,-0.15221741795539856
32.5,0.3955400884151459,0.7874452471733093,0.3690734803676605,0.05810847133398056,-0.15748196840286255,0.00024112392566166818
32.55,0.19837376475334167,0.1799612045288086,-0.1374782770872116,0.0008460171520709991,-0.14804653823375702,0.17998048663139343
32.6,-0.3294287919998169,-0.6939889192581177,-0.44118058681488037,-0.05406632274389267,-0.03718312457203865,0.17893485724925995
32.65,-0.45237410068511963,-0.5391388535499573,-0.13430681824684143,-0.05637875199317932,0.0889747142791748,-0.07854291051626205
32.7,0.20365867018699646,-0.04462147131562233,0.0171212088316679,0.0281271543353796,0.05683451145887375,-0.2469053417444229
32.75,0.47068339586257935,0.48749932646751404,0.35291874408721924,0.0823785662651062,0.003710694145411253,-0.20154748857021332
32.8,0.2160252034664154,0.05559736490249634,0.45722728967666626,0.09644027054309845,-0.06730485707521439,0.05088381469249725
32.85,-0.1778261959552765,-0.5177164077758789,0.24434934556484222,0.02506384626030922,-0.07864254713058472,0.10071749240159988
32.9,-0.11103641241788864,0.2403298169374466,0.3976442515850067,-0.005048463121056557,0.005551792681217194,-0.13020940124988556
32.95,0.47888970375061035,0.8276816606521606,0.1998773068189621,-0.008414644747972488,-0.02159239538013935,-0.1368623971939087
33.0,0.3741762936115265,0.4696264863014221,0.00052381691057235,0.0021408582106232643,-0.06669788062572479,0.10294157266616821
33.05,-0.2530239522457123,-0.34724050760269165,-0.19544588029384613,0.0001641102135181427,-0.03607363998889923,0.2306530773639679
33.1,-0.396360844373703,-0.7607651948928833,-0.05074574425816536,-0.02281295694410801,0.04029880091547966,0.07443352043628693
33.15,0.2270379662513733,0.038739196956157684,-0.07560804486274719,-0.03162400424480438,0.0617029070854187,-0.14296866953372955
33.2,0.3477350175380707,0.6848459839820862,0.12948642671108246,-0.005742743611335754,0.08284182101488113,-0.11493252217769623
33.25,0.2417447566986084,0.42354780435562134,0.03695717453956604,-0.05348922312259674,0.087436743080616,0.015568120405077934
33.3,-0.2034413069486618,-0.4361477494239807,0.03646417707204819,-0.05960514396429062,0.11360654979944229,0.16588094830513
33.35,-0.3045613765716553,-0.2460947334766388,-0.026300868019461632,-0.07946277409791946,0.13013900816440582,0.03409558907151222
33.4,-0.1401635706424713,-0.24254418909549713,0.10787104070186615,-0.07861096411943436,0.1489991545677185,-0.08167073875665665
33.45,0.16481195390224457,0.28795725107192993,0.3916611671447754,-0.050329484045505524,0.1230422630906105,-0.18799380958080292
33.5,0.33238863945007324,0.7597772479057312,0.5629579424858093,-0.036683693528175354,0.03723367676138878,-0.14618325233459473
33.55,0.01692623645067215,0.17699439823627472,0.45162346959114075,-0.0009587714448571205,-0.05365545675158501,0.08052890747785568
33.6,-0.24792185425758362,-0.14316079020500183,0.2901224195957184,0.04086954891681671,-0.12496835738420486,0.11342255026102066
33.65,-0.04343065246939659,-0.10774805396795273,-0.0795610249042511,0.03869331628084183,-0.19066858291625977,0.03963601589202881
33.7,0.27929019927978516,0.2961111068725586,-0.2660239636898041,0.014488077722489834,-0.15641778707504272,-0.018263231962919235
33.75,0.035336416214704514,0.031747788190841675,-0.2938799560070038,0.00022558262571692467,-0.06378371268510818,0.04139292240142822
33.8,-0.2200794667005539,-0.4781561493873596,-0.04306532070040703,0.014194261282682419,0.03947755694389343,0.05284305661916733
33.85,0.011499876156449318,0.09728911519050598,0.12247148156166077,-0.0040744757279753685,0.07275353372097015,-0.12235550582408905
33.9,0.2578863501548767,0.4186879098415375,0.2188395857810974,0.005951758939772844,0.06392926722764969,-0.10533235222101212
33.95,0.1907283514738083,0.18245986104011536,0.09656263142824173,0.021395893767476082,-0.0020026799757033587,0.029240308329463005
34.0,-0.15128642320632935,0.14671139419078827,0.2251233160495758,0.032191202044487,-0.008959964849054813,0.07083781808614731
34.05,-0.12974293529987335,-0.16140364110469818,0.2165706753730774,0.06123536080121994,-0.0368526466190815,0.07694458961486816
34.1,0.1738799661397934,0.05043221265077591,0.036189790815114975,0.03687172383069992,-0.03811546787619591,0.012852923013269901
34.15,0.08536301553249359,-0.1273517906665802,-0.12526404857635498,0.008808022364974022,0.004080569837242365,0.0402725413441658
34.2,-0.15804699063301086,-0.05873678997159004,0.12487880140542984,0.01433873176574707,0.06619227677583694,-0.002114976290613413
34.25,0.012879638001322746,0.2264452427625656,0.12689527869224548,0.02499820664525032,0.04797107353806496,-0.05555717647075653
34.3,0.14238056540489197,-0.011059753596782684,0.08872636407613754,-0.005706152878701687,0.03784625977277756,0.0021041210275143385
34.35,-0.021265622228384018,0.010881428606808186,0.031639695167541504,-0.019625455141067505,0.03241593390703201,0.0350000336766243
34.4,-0.03887338563799858,-0.14109613001346588,0.0017493190243840218,-0.058454591780900955,0.08888313174247742,0.010740532539784908
34.45,-0.12745527923107147,0.05111796408891678,0.48920580744743347,-0.05997733026742935,0.14133630692958832,-0.10133180022239685
34.5,0.1208355724811554,0.40153515338897705,0.6172506213188171,-0.02781984582543373,0.025219948962330818,-0.119652159512043
34.55,0.32236212491989136,0.533244252204895,0.34999242424964905,0.010778536088764668,-0.11726953089237213,0.01589691825211048
34.6,0.05675532668828964,-0.17489056289196014,-0.1956326812505722,-0.0062302593141794205,-0.1336071491241455,0.16917352378368378
34.65,-0.41562721133232117,-0.6051235795021057,-0.05614786967635155,-0.003959701396524906,-0.03833381086587906,0.11416467279195786
34.7,-0.16264933347702026,0.031248081475496292,-0.14934411644935608,0.008864283561706543,-0.026612931862473488,-0.08053123205900192
34.75,0.306541383266449,0.25754737854003906,-0.11033918708562851,-0.0264116320759058,-0.0024144246708601713,-0.149193674325943
34.8,0.18741455674171448,0.2609120011329651,0.2478978931903839,-0.021512823179364204,0.043369557708501816,-0.08377944678068161
34.85,-0.1816147267818451,-0.06182191148400307,0.24686665832996368,0.033795226365327835,0.026462648063898087,0.032788779586553574
34.9,-0.0550113171339035,0.1467457413673401,0.39134716987609863,0.004305580165237188,0.008051836863160133,-0.0806613489985466
34.95,0.27038681507110596,0.26114946603775024,0.2599242627620697,0.02282749116420746,-0.09185050427913666,-0.035999469459056854
35.0,0.3564147353172302,0.23755645751953125,-0.15263837575912476,0.028671573847532272,-0.1588907688856125,0.07510719448328018
35.05,-0.09663674980401993,-0.19595150649547577,-0.12550172209739685,0.05733269453048706,-0.09590130299329758,0.17098432779312134
35.1,-0.298290878534317,-0.49286654591560364,0.1521141529083252,0.05793830379843712,-0.02758149430155754,0.08339838683605194
35.15,0.21768006682395935,0.18025974929332733,0.2340375930070877,-0.024499500170350075,-0.0008277951274067163,-0.14171279966831207
35.2,0.2810611128807068,0.5307074189186096,0.16780221462249756,-0.06824485957622528,-0.0021368612069636583,-0.11689122766256332
35.25,0.043295398354530334,0.15816785395145416,0.062283553183078766,-0.029297159984707832,0.004349373746663332,0.02775445207953453
35.3,-0.16538986563682556,-0.1125011295080185,0.21362972259521484,-0.0030367106664925814,0.013897166587412357,0.041399937123060226
35.35,0.042106710374355316,0.2936421036720276,0.359573096036911,-0.009501129388809204,-0.0342089980840683,-0.013238810934126377
35.4,0.6085147261619568,0.32170867919921875,-0.09147975593805313,-0.019036993384361267,-0.12785479426383972,0.05931137129664421
35.45,1.1410624980926514,0.6488971710205078,-0.14627493917942047,0.024738706648349762,-0.18388628959655762,0.21449123322963715
35.5,0.7276121973991394,0.6179762482643127,0.312455952167511,0.11307555437088013,-0.29704734683036804,0.46274057030677795
35.55,-0.17905820906162262,0.9638140201568604,0.7771721482276917,0.15613436698913574,-0.2903163433074951,0.5930591225624084
35.6,-0.9083184003829956,0.08504875004291534,0.4329322874546051,0.14855600893497467,-0.33608436584472656,0.7018459439277649
35.65,-0.9471897482872009,-0.22835539281368256,0.29720741510391235,-0.09253809601068497,-0.2749648094177246,0.3862530589103699
35.7,-0.9247432947158813,-0.5731478333473206,0.05972462147474289,-0.23266175389289856,-0.249760240316391,0.2008049190044403
35.75,-0.769151508808136,-0.696439802646637,0.028575873002409935,-0.3014860451221466,-0.22744253277778625,0.08678294718265533
35.8,-0.39055299758911133,-0.5080671906471252,0.03070610575377941,-0.36053556203842163,-0.27765628695487976,-0.11090432107448578
35.85,-0.14700889587402344,-0.25553226470947266,0.12465280294418335,-0.3367820978164673,-0.4086809456348419,-0.16902299225330353
35.9,0.2406955063343048,-0.1865101009607315,0.00868784636259079,-0.24303993582725525,-0.4681154489517212,-0.11961834877729416
35.95,1.013742208480835,0.3811960220336914,-0.314736008644104,-0.17078731954097748,-0.4301270544528961,-0.14252567291259766
36.0,1.504709243774414,1.3052349090576172,-0.4580267369747162,-0.04765114560723305,-0.31414997577667236,-0.10103673487901688
36.05,0.7366482615470886,0.9698134660720825,-0.05023908242583275,0.052710987627506256,-0.1548171043395996,0.2750541865825653
36.1,0.14069785177707672,0.42590051889419556,0.07008868455886841,0.03941826894879341,-0.1289931982755661,0.4670708477497101
36.15,-0.22131770849227905,0.10594373941421509,0.3529030382633209,-0.013152845203876495,-0.12909184396266937,0.45538902282714844
36.2,-0.4518284797668457,-0.0781240239739418,0.1976834386587143,-0.024453498423099518,-0.14876426756381989,0.3572375774383545
36.25,-0.5328134894371033,-0.1328468769788742,-0.29606127738952637,0.007823064923286438,-0.22265703976154327,0.3336236774921417
36.3,-0.0315118283033371,-0.9250729084014893,-1.1399455070495605,-0.05534953251481056,-0.2928104102611542,0.2519739866256714
36.35,0.2326720952987671,-1.305908441543579,-1.4132304191589355,-0.26037803292274475,-0.03293461725115776,-0.2848290205001831
36.4,0.10477863997220993,-0.5305530428886414,-1.2006131410598755,-0.42642056941986084,0.3949447572231293,-0.8715329766273499
36.45,-0.06568934768438339,0.23606009781360626,-0.6492750644683838,-0.6276997923851013,0.5472675561904907,-1.0685155391693115
36.5,-0.1197495311498642,2.20674729347229,-0.25660449266433716,-0.5862228870391846,0.4099442660808563,-0.7421229481697083
36.55,-0.041494064033031464,2.0349209308624268,-0.041925061494112015,-0.31445685029029846,0.013402744196355343,0.21618704497814178
36.6,0.6301695704460144,0.893600583076477,-0.1056380569934845,-0.8610398173332214,-0.5484570264816284,-0.24852138757705688
36.65,-0.039769694209098816,1.3089449405670166,1.1057404279708862,-2.4401183128356934,-0.8964042663574219,-2.5127651691436768
36.7,0.693022608757019,2.9196503162384033,0.8968202471733093,-4.397406578063965,-1.6903009414672852,-5.057903289794922
36.75,2.347292900085449,1.5873405933380127,0.1940433830022812,-4.08268928527832,-1.7443581819534302,-4.145155429840088
36.8,-0.5970539450645447,1.809277892112732,1.1858490705490112,-0.9653099775314331,-0.29473209381103516,0.10067912191152573
36.85,-1.0682666301727295,1.4296027421951294,0.2830291986465454,-0.3194229006767273,-0.23634935915470123,1.8461308479309082
36.9,0.027599506080150604,-0.4099684953689575,-0.42935997247695923,-1.0849511623382568,-0.5668318271636963,1.419304370880127
36.95,-0.4874346852302551,-3.3305602073669434,-0.22550083696842194,-1.0827581882476807,-0.030032534152269363,1.6344107389450073
37.0,-0.21871738135814667,-5.562277793884277,0.41107144951820374,-0.7948406934738159,0.14060623943805695,1.6130300760269165
37.05,0.1584898680448532,-6.95859432220459,1.7276450395584106,-0.20225684344768524,0.27542799711227417,1.2307668924331665
37.1,-0.13259544968605042,-7.036229610443115,1.648922085762024,0.7503520250320435,0.14936599135398865,0.20235715806484222
37.15,-1.4018757343292236,-6.12314510345459,-0.7564049363136292,2.0031375885009766,0.23611460626125336,-1.18153977394104
37.2,-3.6693015098571777,-3.830650806427002,-4.101745128631592,3.633331298828125,1.0971250534057617,-1.5450042486190796
37.25,-4.158106803894043,2.6764609813690186,-3.720604419708252,4.568760395050049,1.1322919130325317,-1.199779987335205
37.3,-2.6283071041107178,2.9091508388519287,-3.541449785232544,2.8344244956970215,-0.6061354875564575,0.7569127678871155
37.35,0.9067568778991699,3.358128786087036,-2.6780779361724854,1.4748060703277588,-1.5190393924713135,0.5985853672027588
37.4,2.664783239364624,2.490494728088379,-0.7249216437339783,1.3282376527786255,-1.03322172164917,0.208289235830307
37.45,3.0919225215911865,1.8515446186065674,0.11333794891834259,0.9299311637878418,-0.41901564598083496,-0.35001105070114136
37.5,1.9949448108673096,0.4682198464870453,0.3816681504249573,0.6611526012420654,-0.03509633615612984,-0.2931562066078186
37.55,1.187383770942688,0.5249015092849731,0.872925877571106,0.688694417476654,0.2312399297952652,-0.5328595042228699
37.6,1.5615174770355225,1.8273862600326538,1.5381598472595215,0.6224178671836853,0.42274734377861023,-0.6848489046096802
37.65,1.2742502689361572,2.4842677116394043,1.9613131284713745,0.5769453048706055,0.4409218430519104,0.05424884706735611
37.7,0.28744885325431824,2.0905375480651855,2.1163103580474854,0.4481115937232971,0.7160828113555908,0.5684878826141357
37.75,0.4038607180118561,1.5167832374572754,1.7945013046264648,0.055530671030282974,0.943635880947113,0.43809744715690613
37.8,0.1304941177368164,0.6985552310943604,1.3700190782546997,-0.395757794380188,1.257703423500061,0.31310218572616577
37.85,-0.606738805770874,0.546181857585907,0.9215950965881348,-0.6794701814651489,1.6330325603485107,0.15930184721946716
37.9,-1.2986671924591064,0.8971168398857117,0.32699185609817505,-0.7665636539459229,1.8828516006469727,0.07193731516599655
37.95,-1.5234543085098267,0.3810339868068695,-0.03601677715778351,-0.8884419202804565,1.9049994945526123,0.06474756449460983
38.0,-1.1950079202651978,-1.3323556184768677,-0.6340868473052979,-1.0650497674942017,1.5925472974777222,0.16661670804023743
38.05,-0.9809179306030273,-2.7746317386627197,-0.7823295593261719,-0.893795371055603,1.200566291809082,0.2627454400062561
38.1,-0.7621328830718994,-2.6059937477111816,-1.5282191038131714,-0.5033456087112427,0.6487479209899902,0.011019962839782238
38.15,0.2149258852005005,-0.07513651251792908,-2.6588022708892822,-0.44828182458877563,0.07038022577762604,-0.7403943538665771
38.2,2.958862543106079,2.3498427867889404,-3.59488582611084,-0.6922742128372192,-0.17335225641727448,-1.0821497440338135
38.25,3.3796701431274414,2.7759368419647217,-3.0890800952911377,0.6856687068939209,0.2990870475769043,0.8060437440872192
38.3,1.9628524780273438,3.174190044403076,-0.6362072825431824,2.5104963779449463,1.112849473953247,2.6134259700775146
38.35,0.9351969957351685,0.8099396824836731,1.7936580181121826,2.6412291526794434,1.401848554611206,3.154005765914917
38.4,0.5376352071762085,0.434251993894577,1.3411765098571777,1.3517920970916748,0.8446497321128845,2.5408341884613037
38.45,0.1353399157524109,0.7447634935379028,0.7429445385932922,1.1832778453826904,0.4742068350315094,2.4695019721984863
38.5,0.6663064956665039,-1.83237624168396,0.02206464670598507,1.6051158905029297,0.3130055367946625,2.825448513031006
38.55,0.6737304925918579,-2.0852534770965576,-0.5942932367324829,1.2758883237838745,0.15620164573192596,2.179096221923828
38.6,0.5366357564926147,-2.3130226135253906,-1.967652440071106,0.7072263360023499,-0.28912755846977234,1.5306103229522705
38.65,-0.17299197614192963,-0.7096301317214966,-0.3313460052013397,-0.0832739993929863,-0.14412687718868256,0.4785979390144348
38.7,-1.2887825965881348,0.7204039096832275,1.5060971975326538,0.06399217247962952,-0.3289937973022461,0.4423900544643402
38.75,-0.04526330530643463,-0.4248983860015869,-1.4012465476989746,0.6455565690994263,-1.2251152992248535,1.2643629312515259
38.8,1.45607328414917,0.7636753916740417,-3.2751989364624023,0.6612075567245483,-0.9564810991287231,1.4428600072860718
38.85,1.0381993055343628,-0.2541886866092682,-0.8065329790115356,0.5935827493667603,-0.4350629448890686,1.4583066701889038
38.9,0.422448992729187,-0.5912047624588013,-0.6425651907920837,0.6850047707557678,-0.8691534399986267,1.0427900552749634
38.95,1.0824735164642334,-1.2502415180206299,-0.7913047075271606,0.7409939765930176,-1.506476640701294,0.5388684868812561
39.0,1.3064768314361572,0.6166550517082214,-2.645803451538086,0.6797130703926086,-1.7100281715393066,0.21934878826141357
39.05,0.2400757372379303,-0.9450675249099731,-0.14801204204559326,0.08392311632633209,-0.3168313801288605,0.4612034559249878
39.1,-0.9226363301277161,-0.6944484710693359,0.27045437693595886,-0.438140332698822,-0.12549175322055817,-0.23934867978096008
39.15,-0.9258285760879517,-0.5333299040794373,0.8831621408462524,-0.8192152976989746,-0.15273509919643402,-0.6088712215423584
39.2,-0.8100080490112305,0.09854426234960556,0.9626919627189636,-0.936448335647583,-0.34856560826301575,-0.8025540709495544
39.25,0.316320538520813,-0.3073767423629761,1.3077435493469238,-0.7005484700202942,-0.36037516593933105,-0.3463526666164398
39.3,0.701892077922821,-0.8260620832443237,2.0385472774505615,-0.0528779961168766,-0.034158993512392044,-0.021251026540994644
39.35,-0.6999240517616272,0.14621271193027496,0.9366425275802612,0.6023820638656616,-0.30545055866241455,-0.170851469039917
39.4,-0.664100170135498,-0.20729248225688934,0.8271160125732422,0.6538320183753967,-0.6189677715301514,0.037683483213186264
39.45,0.7149969935417175,-1.3121404647827148,1.0944653749465942,0.6251407861709595,-0.46410489082336426,0.15856921672821045
39.5,1.7860831022262573,-2.327535390853882,0.7291944026947021,0.7858660221099854,-0.3238776624202728,0.04884134978055954
39.55,1.4697574377059937,0.7542163729667664,0.7067005634307861,0.6689811944961548,-0.23569194972515106,-0.23095813393592834
39.6,1.7858635187149048,1.1103488206863403,0.3758782744407654,0.4059492349624634,-0.338105708360672,-0.034527551382780075
39.65,1.0679935216903687,0.8885852098464966,0.2464730590581894,0.24731048941612244,-0.4611300826072693,-0.12295522540807724
39.7,-0.35909074544906616,1.558192491531372,-0.4858359396457672,0.10890926420688629,-0.42308127880096436,-0.2980382740497589
39.75,-1.0549893379211426,1.7411015033721924,-0.5212536454200745,-0.20459504425525665,0.3347229063510895,0.13789823651313782
39.8,-1.5936765670776367,1.4694931507110596,0.3704122304916382,-0.43486639857292175,1.2135415077209473,0.8549823760986328
39.85,-1.2158873081207275,1.2474223375320435,-0.6510599851608276,-0.5824766755104065,1.1180498600006104,1.0428543090820312
39.9,0.024916045367717743,0.28627482056617737,-1.0993282794952393,-0.5857337117195129,0.9595465660095215,1.2254143953323364
39.95,0.18764302134513855,-0.46743613481521606,-2.0006144046783447,-0.3471394181251526,0.7290751338005066,1.1216434240341187
40.0,2.10364031791687,-1.3373115062713623,-4.320792198181152,-0.46764078736305237,0.7006226778030396,0.8689051270484924
40.05,1.6786593198776245,-0.15719884634017944,-7.175321102142334,-0.6200950741767883,0.7430160045623779,0.40965643525123596
40.1,0.0483514666557312,-2.5773258209228516,-1.8168902397155762,-0.13817887008190155,0.9880387783050537,0.6717970967292786
40.15,0.2618069052696228,-0.61860591173172,-1.9060289859771729,-0.14137233793735504,0.8447219133377075,-0.41122329235076904
40.2,1.5941522121429443,-0.26905757188796997,-2.124112129211426,-0.2534523606300354,0.9665653705596924,-1.0138359069824219
40.25,1.8436981439590454,0.045549944043159485,-3.1864068508148193,0.1217677965760231,1.285568118095398,-1.084060788154602
40.3,1.1858726739883423,0.3458211421966553,-2.175595283508301,0.051280535757541656,1.7939521074295044,-0.8339621424674988
40.35,-0.24555055797100067,0.5500878691673279,-1.059693694114685,0.308672696352005,2.0527524948120117,-1.078829288482666
40.4,-1.6416399478912354,0.9937602877616882,0.13945987820625305,0.06033527851104736,1.3767902851104736,-1.577593445777893
40.45,-1.748903751373291,0.7833713293075562,1.5998550653457642,-0.2747376263141632,0.6156772375106812,-1.2074404954910278
40.5,-1.3997207880020142,0.24500304460525513,2.0387136936187744,-0.019829541444778442,-0.22867688536643982,-0.5640909671783447
40.55,-1.4677577018737793,0.49190637469291687,1.1522175073623657,0.36258429288864136,-1.026699185371399,-0.2737499177455902
40.6,-1.1832679510116577,0.33913055062294006,0.7593727707862854,0.285869836807251,-1.3967623710632324,-0.05223548039793968
40.65,-0.9292104840278625,-0.23280808329582214,0.4027400016784668,0.10458389669656754,-1.5422555208206177,-0.06389683485031128
40.7,-0.7087594270706177,-0.46439841389656067,0.05112477019429207,0.05538525432348251,-1.5484718084335327,-0.06384941935539246
40.75,-0.31730756163597107,-0.24295906722545624,-0.12321921437978745,0.08617856353521347,-1.3649479150772095,0.006010610144585371
40.8,0.06746695190668106,-0.24532514810562134,-0.2857730984687805,0.061370380222797394,-1.2423958778381348,-0.05403367802500725
40.85,0.48224472999572754,-0.6841031312942505,-0.2864164412021637,0.13294801115989685,-1.2129826545715332,-0.1757633090019226
40.9,0.5222858786582947,-0.0022497300524264574,-0.036824196577072144,0.27005451917648315,-1.0738942623138428,-0.37616899609565735
40.95,0.25626417994499207,1.3880549669265747,0.23998232185840607,0.4566441774368286,-0.8596435785293579,-0.23444803059101105
41.0,0.32124385237693787,1.1827069520950317,0.3085462749004364,0.3752703070640564,-0.8060389161109924,0.09480499476194382
41.05,0.6575977802276611,0.2195291966199875,0.26908549666404724,0.056135017424821854,-0.6987465023994446,0.03565322980284691
41.1,0.9315226078033447,-0.6531830430030823,0.3610171973705292,-0.19894744455814362,-0.4175466299057007,-0.0755060613155365
41.15,0.6199576258659363,-0.2262277603149414,0.3080897033214569,-0.18897174298763275,-0.021973511204123497,-0.1440611630678177
41.2,0.2853335440158844,0.32386213541030884,0.1690845489501953,-0.1415555626153946,0.3725605010986328,-0.08587078005075455
41.25,0.22874262928962708,0.08591465651988983,0.35386398434638977,-0.28769543766975403,0.6879851222038269,-0.14286166429519653
41.3,0.0710492804646492,0.15847404301166534,0.5548924803733826,-0.3378831148147583,0.79795902967453,-0.33694586157798767
41.35,0.15614014863967896,0.37915337085723877,0.5086125731468201,-0.16019520163536072,0.7350212335586548,-0.2667292356491089
41.4,-0.04693000763654709,0.8841707110404968,0.457254558801651,-0.0280500166118145,0.7203260064125061,-0.16658344864845276
41.45,-0.17518837749958038,0.9067031741142273,0.3080240488052368,-0.05478088557720184,0.6618597507476807,-0.04053454473614693
41.5,-0.11664147675037384,0.46486765146255493,-0.040973637253046036,-0.17445199191570282,0.5195090770721436,0.052316438406705856
41.55,-0.18283244967460632,-0.004020737949758768,-0.4172288775444031,-0.26613542437553406,0.4777047634124756,0.06978724896907806
41.6,-0.3021262288093567,-0.19976817071437836,-0.7188073992729187,-0.3841640055179596,0.49066081643104553,0.0022270779591053724
41.65,-0.37729817628860474,-0.2739774286746979,-0.9662666916847229,-0.45544537901878357,0.42764705419540405,-0.022188467904925346
41.7,-0.322692334651947,-0.19720378518104553,-1.1006563901901245,-0.40091633796691895,0.2669540047645569,0.005940081551671028
41.75,0.2678055167198181,-0.439617395401001,-1.4747155904769897,-0.22547370195388794,-0.024483144283294678,0.06605646014213562
41.8,0.6112744212150574,-0.49242329597473145,-1.4892535209655762,-0.07726550847291946,-0.22187012434005737,0.016735296696424484
41.85,0.34595394134521484,-0.22309032082557678,-0.934578537940979,0.09910891205072403,-0.14868536591529846,-0.07651261985301971
41.9,-0.04861241206526756,0.19705866277217865,-0.3984047472476959,0.27130943536758423,-0.09250681102275848,-0.05348128452897072
41.95,-0.08594141900539398,0.23676776885986328,-0.23133189976215363,0.3712977170944214,-0.13054023683071136,0.0678601786494255
42.0,-0.16956695914268494,0.5051451325416565,-0.005120796617120504,0.251498818397522,-0.09922370314598083,-0.021145006641745567
42.05,-0.282869428396225,0.5690241456031799,0.05145690217614174,0.06028656288981438,-0.09842891991138458,-0.07415756583213806
42.1,-0.051965147256851196,0.1475658416748047,-0.18183976411819458,-0.026773497462272644,-0.16702647507190704,0.01940077543258667
42.15,0.2516053318977356,-0.1010332778096199,-0.3921557068824768,-0.03315369784832001,-0.21999305486679077,0.023999720811843872
42.2,0.41352346539497375,0.06876175850629807,-0.5533061027526855,0.031775373965501785,-0.23344604671001434,-0.00934248510748148
42.25,0.3809843957424164,-0.025758815929293633,-0.5373225212097168,0.09776563942432404,-0.18715408444404602,0.020888492465019226
42.3,0.2666797637939453,-0.2866869568824768,-0.2850819528102875,0.11098581552505493,-0.12193144857883453,0.010491169057786465
42.35,0.16297955811023712,-0.35679057240486145,0.013883687555789948,0.14905774593353271,-0.10571279376745224,-0.0014488357119262218
42.4,-0.03238806873559952,0.0984068363904953,0.2634153962135315,0.1733231097459793,-0.08952830731868744,-0.04960130900144577
42.45,-0.16618922352790833,0.3888951539993286,0.4297023117542267,0.15671923756599426,-0.09310902655124664,-0.05734391137957573
42.5,-0.04537094756960869,0.17550188302993774,0.36373472213745117,0.0850910097360611,-0.1273530125617981,-0.06537584215402603
42.55,0.1358514428138733,-0.04477117583155632,0.2198377251625061,0.04610000178217888,-0.13776640594005585,-0.10545207560062408
42.6,0.11843104660511017,0.03192045912146568,0.20621800422668457,0.070405974984169,-0.13396254181861877,-0.11457102745771408
42.65,0.06329083442687988,0.25687316060066223,0.10804550349712372,0.09100637584924698,-0.1764354407787323,-0.10760391503572464
42.7,0.04381157457828522,0.24336722493171692,0.01840340346097946,0.08012409508228302,-0.21457016468048096,-0.08680929988622665
42.75,-0.043214380741119385,0.19079497456550598,0.009196716360747814,0.08836118131875992,-0.22598810493946075,-0.07279440015554428
42.8,-0.15203720331192017,0.1780729442834854,-0.0005341630312614143,0.09640238434076309,-0.24471504986286163,-0.04469675570726395
42.85,-0.034408606588840485,0.027769073843955994,-0.16300781071186066,0.09428577870130539,-0.2844580113887787,0.0015709555009379983
42.9,0.18986469507217407,-0.08302979171276093,-0.30815982818603516,0.0806548222899437,-0.24755871295928955,-0.038452696055173874
42.95,0.27480995655059814,0.056855179369449615,-0.21352940797805786,0.08873438090085983,-0.1109398826956749,-0.11824096739292145
43.0,0.18484967947006226,0.26601794362068176,0.000652112124953419,0.09230242669582367,0.005243547726422548,-0.14415711164474487
43.05,0.053033169358968735,0.34205442667007446,0.1468866914510727,0.07632018625736237,0.022239480167627335,-0.1282721906900406
43.1,0.11099378764629364,0.16354086995124817,0.14494679868221283,0.09027658402919769,-0.043545253574848175,-0.060624249279499054
43.15,0.30999231338500977,0.07831573486328125,0.0034168418496847153,0.12443536520004272,-0.12957488000392914,-0.009349478408694267
43.2,0.3787332773208618,0.04971694573760033,-0.047853294759988785,0.12486795336008072,-0.13776926696300507,0.003472778247669339
43.25,0.34441134333610535,0.07679558545351028,0.012806747108697891,0.09798162430524826,-0.0725792795419693,0.008203387260437012
43.3,0.342279314994812,0.09274768084287643,-0.07550938427448273,0.07820482552051544,-0.008715416304767132,0.023913325741887093
43.35,0.21851305663585663,-0.004700693767517805,-0.2472938746213913,0.0472600944340229,0.06645480543375015,0.008156152442097664
43.4,0.24413618445396423,-0.2266589254140854,-0.5570651292800903,0.065511554479599,0.121151402592659,-0.00769454101100564
43.45,0.31347280740737915,-0.43481558561325073,-0.8605583906173706,0.1092807799577713,0.17202523350715637,-0.11848961561918259
43.5,0.15831375122070312,-0.4449159502983093,-1.0072251558303833,0.18859125673770905,0.22710199654102325,-0.22081635892391205
43.55,-0.020748257637023926,-0.37573355436325073,-1.0941518545150757,0.33602118492126465,0.2175392210483551,-0.18108266592025757
43.6,-0.08149215579032898,-0.6275588870048523,-1.2324382066726685,0.3980090618133545,0.18605750799179077,-0.23098224401474
43.65,-0.26819920539855957,-0.9452135562896729,-1.1806892156600952,0.38698431849479675,0.20904387533664703,-0.4079161584377289
43.7,-0.573284924030304,-0.8957111835479736,-0.8627905249595642,0.47093695402145386,0.2106357365846634,-0.5243723392486572
43.75,-0.6065986156463623,-0.5403491258621216,-0.7328499555587769,0.5669987201690674,0.07381494343280792,-0.6078735589981079
43.8,-0.38475728034973145,-0.4490472376346588,-0.8580076098442078,0.537339448928833,-0.10470874607563019,-0.6821706891059875
43.85,-0.18009626865386963,-0.4320804476737976,-0.9522073268890381,0.46524351835250854,-0.21349425613880157,-0.6847085952758789
43.9,-0.017656415700912476,-0.06600774824619293,-1.0508806705474854,0.48276227712631226,-0.32980862259864807,-0.5777715444564819
43.95,0.1801024228334427,0.2532929480075836,-0.8896065950393677,0.5185490846633911,-0.36974480748176575,-0.4182097613811493
44.0,0.22110040485858917,0.9558926820755005,0.04171657934784889,0.5757349133491516,-0.2616015076637268,-0.33456775546073914
44.05,0.31712597608566284,1.6980422735214233,1.2631950378417969,0.6882827281951904,-0.16723571717739105,-0.23536311089992523
44.1,0.6011596918106079,2.6352057456970215,2.4686858654022217,0.78633052110672,-0.07447024434804916,-0.14964912831783295
44.15,0.9493648409843445,3.4535694122314453,3.489943027496338,0.751065194606781,0.06898047029972076,-0.0993177518248558
44.2,1.3452266454696655,3.3165225982666016,3.959101438522339,0.49280959367752075,0.2518521249294281,-0.06240176409482956
44.25,1.6439673900604248,1.8382574319839478,3.5450499057769775,0.08804318308830261,0.3647961914539337,0.023955004289746284
44.3,1.2519447803497314,0.5107120871543884,3.220102548599243,-0.15526707470417023,0.23632772266864777,0.21342699229717255
44.35,0.6945977210998535,-0.9370010495185852,2.467740535736084,-0.25726810097694397,-0.13453125953674316,0.4852661192417145
44.4,0.09963828325271606,-1.8271570205688477,2.1484968662261963,-0.3863477408885956,-0.31922098994255066,0.44425201416015625
44.45,-0.339613139629364,-1.5996809005737305,2.087686777114868,-0.4145323634147644,-0.5098432302474976,0.35820433497428894
44.5,-0.47213733196258545,-0.4462603032588959,1.813082218170166,-0.3568529784679413,-0.6977173089981079,0.3654780685901642
44.55,-0.43486571311950684,0.9054558873176575,1.4204875230789185,-0.4167138636112213,-0.707558274269104,0.3568348288536072
44.6,-0.08152422308921814,1.1851046085357666,0.6281343102455139,-0.5898950099945068,-0.5706601142883301,0.3540036678314209
44.65,0.2327958345413208,0.7903834581375122,-0.16415776312351227,-0.7279271483421326,-0.26146602630615234,0.273764044046402
44.7,0.24236440658569336,0.4398641586303711,-0.5747711658477783,-0.7088863849639893,0.1275624930858612,0.24513311684131622
44.75,0.18965008854866028,-0.1678534746170044,-0.836357831954956,-0.6487004160881042,0.4289935529232025,0.20846499502658844
44.8,0.31600144505500793,-1.1571753025054932,-0.9215810894966125,-0.6444536447525024,0.5860700011253357,0.0788751021027565
44.85,0.24757760763168335,-1.6104530096054077,-0.6189064979553223,-0.5439825654029846,0.6292628645896912,-0.022822994738817215
44.9,-0.20304861664772034,-0.6293364763259888,-0.4552431106567383,-0.20549245178699493,0.5600206255912781,0.046877577900886536
44.95,-0.4732176959514618,0.4281148612499237,-0.711212694644928,-0.022970158606767654,0.45437031984329224,0.097147136926651
45.0,-0.5451594591140747,0.2956627905368805,-1.0247466564178467,-0.2152201533317566,0.38735952973365784,-0.039502739906311035
45.05,-0.5036725997924805,-0.6077797412872314,-1.3690885305404663,-0.3603311777114868,0.3135972321033478,-0.18365521728992462
45.1,-0.5349315404891968,-1.274847388267517,-1.6036272048950195,-0.22910350561141968,0.18038231134414673,-0.25657224655151367
45.15,-0.46709373593330383,-1.658607006072998,-1.7584857940673828,0.028307273983955383,-0.050556480884552,-0.33018723130226135
45.2,-0.32218942046165466,-1.4510177373886108,-1.8039122819900513,0.3656938970088959,-0.2645508944988251,-0.4323990046977997
45.25,-0.17570245265960693,-0.8268654942512512,-1.7214529514312744,0.6957253813743591,-0.3447619676589966,-0.5566784739494324
45.3,-0.009526610374450684,-0.3557541072368622,-1.4671025276184082,0.8496624827384949,-0.2663445770740509,-0.7040273547172546
45.35,0.09326142072677612,-0.03255094587802887,-1.1048163175582886,0.8955581188201904,-0.14153489470481873,-0.7860990166664124
45.4,0.14689762890338898,0.16007699072360992,-0.9466038942337036,0.8832133412361145,-0.05973886325955391,-0.7357320785522461
45.45,0.25071582198143005,0.923980712890625,-0.8950234055519104,0.9101879000663757,-0.028670458123087883,-0.5970110297203064
45.5,0.38453078269958496,1.4370508193969727,-0.7277851104736328,0.8693791031837463,-0.005048025865107775,-0.42719900608062744
45.55,0.43092018365859985,1.4149352312088013,-0.43845289945602417,0.7256876230239868,0.0337173193693161,-0.3329967260360718
45.6,0.6330458521842957,0.8941060304641724,-0.13693635165691376,0.6135046482086182,0.008333898149430752,-0.2504493296146393
45.65,0.8091745972633362,-0.0028771813958883286,0.560423731803894,0.4876910150051117,0.06256122887134552,-0.28242239356040955
45.7,0.7166798114776611,0.23516105115413666,1.7764657735824585,0.38714665174484253,0.09538239985704422,-0.3385421335697174
45.75,0.5130108594894409,1.5651909112930298,2.7846298217773438,0.4043614864349365,-0.15770065784454346,-0.10261466354131699
45.8,0.3494437634944916,2.0733580589294434,3.063701629638672,0.24322593212127686,-0.3464486002922058,0.13787056505680084
45.85,0.27864572405815125,1.1645150184631348,2.6185343265533447,-0.20782975852489471,-0.26119595766067505,0.07297255098819733
45.9,0.27150261402130127,0.5425189137458801,2.2290241718292236,-0.504729151725769,-0.24140919744968414,0.0008709962712600827
45.95,0.5895600318908691,0.6128543019294739,1.9019265174865723,-0.4961863160133362,-0.41664791107177734,0.14865490794181824
46.0,1.0892419815063477,0.9835990071296692,1.6047043800354004,-0.5038696527481079,-0.41698744893074036,0.2015942633152008
46.05,1.418448567390442,1.4367907047271729,1.2440094947814941,-0.5951611995697021,-0.24299271404743195,0.17629936337471008
46.1,1.343416690826416,0.7687351107597351,0.42773154377937317,-0.7261390686035156,-0.10560078173875809,0.42591071128845215
46.15,0.639126181602478,-0.0989265888929367,-0.17151489853858948,-0.7927220463752747,0.01262013241648674,0.7337672710418701
46.2,-0.18062643706798553,-0.450964093208313,-0.4557136595249176,-0.7497113347053528,0.12330908328294754,0.8456186056137085
46.25,-0.6434279084205627,-0.49624741077423096,-0.5542314052581787,-0.7251502871513367,0.2634173631668091,0.710024893283844
46.3,-0.7532221078872681,-0.589030385017395,-0.7288371324539185,-0.7037456631660461,0.3461568355560303,0.5645745396614075
46.35,-0.669553279876709,-0.6685258746147156,-0.9075714945793152,-0.6677746772766113,0.39312508702278137,0.43907180428504944
46.4,-0.5953783392906189,-0.6998416781425476,-1.0203979015350342,-0.6333171725273132,0.40817415714263916,0.3102565407752991
46.45,-0.5169258117675781,-0.8593218326568604,-1.0732189416885376,-0.5370120406150818,0.3693414330482483,0.2752838432788849
46.5,-0.35399556159973145,-0.9635727405548096,-1.0489290952682495,-0.4287843406200409,0.3120751976966858,0.2395070493221283
46.55,-0.2573099732398987,-0.7718031406402588,-1.061313271522522,-0.32988566160202026,0.2966499626636505,0.18897631764411926
46.6,-0.2993893027305603,-0.29750171303749084,-1.0120795965194702,-0.2513631582260132,0.3744460344314575,0.12542560696601868
46.65,-0.15153250098228455,0.23439686000347137,-0.9023202061653137,-0.2277243584394455,0.441555917263031,0.008433221839368343
46.7,0.10217335820198059,0.41571900248527527,-0.7692063450813293,-0.2365233153104782,0.44845810532569885,-0.05472739040851593
46.75,0.06912273913621902,-0.053275179117918015,-0.538446843624115,-0.2196521908044815,0.4582827091217041,-0.00010981162631651387
46.8,-0.2238965779542923,-0.4335232377052307,-0.14322581887245178,-0.12210052460432053,0.45711198449134827,0.013710451312363148
46.85,-0.5166770815849304,-0.12934204936027527,0.32722461223602295,0.030272241681814194,0.39622965455055237,-0.08586212247610092
46.9,-0.3116549253463745,0.20735560357570648,0.5583715438842773,0.14979924261569977,0.24981039762496948,-0.20258863270282745
46.95,0.18650588393211365,0.28511345386505127,0.7850273251533508,0.1845892071723938,0.10568476468324661,-0.29456594586372375
47.0,0.5533984899520874,0.3074409067630768,1.051662802696228,0.24119833111763,-0.007253152783960104,-0.25818705558776855
47.05,0.676531970500946,0.39702147245407104,1.0556389093399048,0.3176228702068329,-0.1228225827217102,-0.11124945431947708
47.1,0.4338389039039612,0.36767685413360596,0.7763228416442871,0.2707545757293701,-0.17278552055358887,0.014993544667959213
47.15,0.0035322383046150208,0.20366962254047394,0.4411642253398895,0.1925889253616333,-0.11126448959112167,0.10558396577835083
47.2,-0.40129992365837097,0.07679085433483124,0.23304782807826996,0.12395605444908142,-0.004257968161255121,0.061636634171009064
47.25,-0.49185195565223694,-0.30375006794929504,-0.158782958984375,0.02232394367456436,0.023840880021452904,-0.13283194601535797
47.3,-0.28268298506736755,-1.0485565662384033,-0.6918097138404846,0.042437899857759476,0.019268954172730446,-0.30260857939720154
47.35,-0.18739408254623413,-1.1540615558624268,-0.9225209951400757,0.2765349745750427,0.04370911791920662,-0.4711126983165741
47.4,-0.2150179147720337,-0.5734760165214539,-0.7864752411842346,0.6204806566238403,0.033193960785865784,-0.5970388650894165
47.45,-0.1502293348312378,-0.28300005197525024,-0.30180659890174866,0.8029121160507202,-0.014073074795305729,-0.6476340293884277
47.5,0.02281126007437706,0.012759246863424778,0.30760279297828674,0.8156099319458008,-0.09896452724933624,-0.6584072113037109
47.55,0.30325230956077576,1.1525976657867432,0.8226204514503479,0.8779221773147583,-0.2427125722169876,-0.5450342297554016
47.6,0.622683584690094,1.8160375356674194,1.1122260093688965,0.7857228517532349,-0.2757803499698639,-0.3788700997829437
47.65,0.7888780832290649,1.2910711765289307,1.162124514579773,0.44229239225387573,-0.11430022120475769,-0.30763325095176697
47.7,0.7689306139945984,0.6925479769706726,1.0181145668029785,0.13767337799072266,-0.025602901354432106,-0.22626814246177673
47.75,0.7157643437385559,0.5475646257400513,0.6751793026924133,-0.03732816502451897,-0.131013885140419,-0.04725339636206627
47.8,0.5819444060325623,0.6530333161354065,0.30862465500831604,-0.20626863837242126,-0.22769826650619507,0.10542355477809906
47.85,0.38337066769599915,0.6777611374855042,-0.07706626504659653,-0.3613045811653137,-0.2423146367073059,0.20478834211826324
47.9,0.1536855399608612,0.24522875249385834,-0.34562623500823975,-0.48823970556259155,-0.18832053244113922,0.24751973152160645
47.95,-0.12124019116163254,-0.3518991768360138,-0.09784895926713943,-0.566464900970459,-0.12535734474658966,0.19288460910320282
