Time [s],Acc_x [m/s^2],Acc_y [m/s^2],Acc_z [m/s^2],Gyro_x [1/s],Gyro_y [1/s],Gyro_z [1/s]
0.0,-0.005002207588404417,0.17753984034061432,-0.004334555007517338,-0.004158002324402332,-0.01372174546122551,0.00292291771620512
0.05,-0.0011869780719280243,0.17806245386600494,-0.0021428954787552357,-0.00416548689827323,-0.013720624148845673,0.0029175132513046265
0.1,-0.003642071969807148,0.19132617115974426,-0.0015151102561503649,-0.0035355216823518276,-0.009313687682151794,0.006663448642939329
0.15,-0.0356324277818203,0.22245505452156067,-0.027375442907214165,-0.005070372950285673,0.005270263645797968,0.0156050780788064
0.2,-0.04888584092259407,0.18663600087165833,-0.12340548634529114,-0.01806708052754402,0.004824153147637844,0.007948664017021656
0.25,0.010140515863895416,0.1323395073413849,-0.0726407989859581,-0.024678973481059074,-0.004073882941156626,0.00831416342407465
0.3,0.009309601970016956,0.1984272450208664,-0.06835315376520157,-0.019278112798929214,0.010664422065019608,0.01827334612607956
0.35,-0.0035017598420381546,0.23489193618297577,-0.07100920379161835,-0.019176198169589043,0.0110258087515831,0.015526502393186092
0.4,0.011150425300002098,0.19955161213874817,-0.0534488782286644,-0.02391958050429821,0.009923660196363926,0.010405594483017921
0.45,0.005068574100732803,0.16083243489265442,-0.07889343798160553,-0.023063112050294876,-0.004960368387401104,0.002657805336639285
0.5,-0.06796188652515411,0.260654479265213,-0.04476102441549301,-0.009452927857637405,-0.02448287047445774,0.0009518528822809458
0.55,-0.05129099637269974,0.2510662376880646,-0.02917478047311306,-0.0029811174608767033,-0.007838419638574123,0.005599889904260635
0.6,-0.01179249957203865,0.18729020655155182,-0.03633406013250351,-0.0020909670274704695,0.00041064099059440196,0.004580033011734486
0.65,0.020889975130558014,0.16473199427127838,0.005715156905353069,0.0012096732389181852,-0.014229287393391132,0.004279019311070442
0.7,-0.03130004554986954,0.1820058971643448,0.0013757124543190002,0.005813647992908955,-0.010286865755915642,0.012111526913940907
0.75,-0.06407146900892258,0.22898772358894348,-0.004135596565902233,0.005432651843875647,0.0011659545125439763,0.01575551927089691
0.8,-0.07875623553991318,0.20416930317878723,-0.013880196027457714,0.007383100222796202,0.009843067266047001,0.01657039113342762
0.85,-0.05229828506708145,0.1900787651538849,-0.03815889358520508,0.007548613473773003,0.015871388837695122,0.013096952810883522
0.9,-0.048110414296388626,0.2677669823169708,-0.05986754596233368,0.009282833896577358,0.00530001288279891,0.009641073644161224
0.95,-0.0565345324575901,0.29544833302497864,-0.06857403367757797,0.00682090874761343,0.028040017932653427,0.009259087964892387
1.0,-0.04253360256552696,0.2020769566297531,-0.1705368459224701,-0.008013904094696045,0.03498724102973938,-0.001447535352781415
1.05,0.10535012185573578,0.30825433135032654,-0.3712567687034607,-0.06047812104225159,0.003979797009378672,-0.03677075728774071
1.1,0.22769637405872345,0.5252333879470825,-0.6007620096206665,-0.20155926048755646,-0.08939144760370255,-0.1134490892291069
1.15,0.24272558093070984,0.3905411958694458,-0.45638540387153625,-0.3490954041481018,-0.2692418098449707,-0.1939333975315094
1.2,-0.16597796976566315,0.10423564910888672,0.09592924267053604,-0.4114162027835846,-0.4589805006980896,-0.24137502908706665
1.25,-0.5051426887512207,-0.2396136224269867,0.38395455479621887,-0.37766361236572266,-0.35421279072761536,-0.1686146855354309
1.3,-0.3988986611366272,0.03464120998978615,0.37704795598983765,-0.24615350365638733,-0.1545262485742569,-0.07385376840829849
1.35,-0.2202957719564438,0.2785826027393341,0.039308492094278336,-0.1694863736629486,0.07139609754085541,-0.1084417775273323
1.4,0.042919084429740906,0.22715000808238983,-0.15846474468708038,-0.2135888934135437,-0.007144720759242773,-0.12960878014564514
1.45,-0.12142904102802277,0.01350781973451376,0.1716291904449463,-0.2126602828502655,-0.2187548726797104,-0.1422346830368042
1.5,-0.5127929449081421,-0.29687702655792236,0.6838986277580261,-0.12153387069702148,-0.2781330943107605,-0.10994293540716171
1.55,-0.9017361402511597,-0.7741711735725403,1.1295201778411865,-0.00831761583685875,-0.04739229008555412,-0.04388688504695892
1.6,-0.9502326846122742,-0.24882811307907104,0.965502142906189,0.13758863508701324,0.44623878598213196,0.022035788744688034
1.65,-0.4057715833187103,1.0691148042678833,-0.27912527322769165,0.19081704318523407,1.036877155303955,0.09061751514673233
1.7,0.10985395312309265,0.8459256291389465,-1.703442096710205,-0.16414961218833923,1.0888713598251343,0.07649938762187958
1.75,-0.3132210075855255,0.08658047020435333,-1.674729824066162,-0.43206787109375,0.36669275164604187,-0.03421299159526825
1.8,-0.6212742328643799,-0.2005767524242401,-0.680303692817688,-0.29701724648475647,-0.1005370169878006,-0.09907446801662445
1.85,-0.5306607484817505,0.06012825667858124,-0.48433026671409607,-0.13175508379936218,-0.07674852758646011,-0.06622511893510818
1.9,-0.15878796577453613,0.1735706627368927,-0.147306427359581,-0.09735895693302155,-0.12647564709186554,-0.14732544124126434
1.95,-0.28652021288871765,0.7866849899291992,0.9980670213699341,-0.05286142975091934,-0.2956799268722534,-0.32030394673347473
2.0,0.1559087336063385,0.9931926131248474,1.5642930269241333,0.014243260025978088,-0.16627101600170135,-0.46774500608444214
2.05,0.5843600034713745,0.679953396320343,2.050765037536621,0.1380721926689148,0.06086789071559906,-0.379581093788147
2.1,0.6104292273521423,0.061951376497745514,2.50577974319458,0.3030633330345154,0.1444510519504547,-0.23843808472156525
2.15,0.6020758152008057,-0.8527549505233765,2.4917166233062744,0.5497087240219116,0.37336301803588867,-0.11811898648738861
2.2,1.063296914100647,-0.8253434896469116,2.224384069442749,0.7108497619628906,0.5766564607620239,0.0399063341319561
2.25,1.361525535583496,-0.395249605178833,2.0802690982818604,0.8055912256240845,0.6563209891319275,0.1801329106092453
2.3,1.3256921768188477,-0.20439738035202026,1.730353832244873,0.7321718335151672,0.7039814591407776,0.28311803936958313
2.35,1.0981367826461792,-0.35995689034461975,1.4562538862228394,0.5136777758598328,0.680751621723175,0.25029876828193665
2.4,0.7910960912704468,-0.3991300165653229,0.9254990220069885,0.1963333785533905,0.6243969798088074,0.10028301924467087
2.45,0.6866965293884277,0.3537502884864807,0.09327170252799988,-0.12895989418029785,0.651017963886261,-0.0468432642519474
2.5,0.6456581354141235,1.7825570106506348,-1.452530026435852,-0.5513845682144165,0.641345202922821,-0.12680859863758087
2.55,-0.5451622605323792,1.9560332298278809,-2.621814250946045,-1.1186248064041138,0.48557764291763306,0.007256448268890381
2.6,-1.2641124725341797,1.9644064903259277,-2.748037815093994,-1.5991272926330566,0.22445502877235413,0.24827760457992554
2.65,-0.7864511013031006,0.1423550844192505,-1.1739041805267334,-1.620424747467041,-0.11708400398492813,0.4414122402667999
2.7,-0.8739528059959412,-0.5961363911628723,1.5724401473999023,-1.210525393486023,-0.29076632857322693,0.4293156862258911
2.75,-1.2493164539337158,0.1510244607925415,2.7944209575653076,-0.4872087240219116,0.3678469657897949,0.07017982006072998
2.8,-0.5204358100891113,0.019938234239816666,1.8555619716644287,0.09119612723588943,1.4393450021743774,-0.446962833404541
2.85,-0.1319238394498825,0.548114001750946,-0.8738380074501038,0.2943098545074463,2.092045307159424,-0.6825771331787109
2.9,-0.3988041579723358,0.4546024799346924,-1.5740381479263306,0.17601430416107178,1.595510482788086,-0.7587357759475708
2.95,0.20291195809841156,-0.36514008045196533,0.7073922157287598,0.03828693926334381,0.9233336448669434,-0.6902106404304504
3.0,0.9250057935714722,-0.5314611792564392,3.1306350231170654,0.16679103672504425,1.0924965143203735,-0.5391941070556641
3.05,1.5126985311508179,-0.17259635031223297,3.601034641265869,0.2726701498031616,1.8206722736358643,-0.38211581110954285
3.1,1.8731234073638916,-0.10735342651605606,2.3238930702209473,0.23364104330539703,2.5276849269866943,-0.30710548162460327
3.15,2.3520402908325195,-0.25887882709503174,1.4606091976165771,0.1785014271736145,2.886805295944214,-0.35548970103263855
3.2,2.5308289527893066,-0.20240306854248047,0.59285569190979,0.115989089012146,3.125058889389038,-0.4271591901779175
3.25,2.8733203411102295,-0.09789736568927765,-0.5580143332481384,0.05737940967082977,3.379009962081909,-0.5737076997756958
3.3,2.786076784133911,0.02069130726158619,-2.4070451259613037,0.001914888620376587,3.7155721187591553,-0.7488763928413391
3.35,1.3469756841659546,0.24483077228069305,-4.7935285568237305,-0.12268579006195068,4.164296627044678,-0.9236701130867004
3.4,-2.3349802494049072,1.0054166316986084,-5.889382839202881,-0.3142990171909332,4.348201274871826,-0.9261850714683533
3.45,-4.5947794914245605,-0.04565785080194473,-3.7615702152252197,-0.49185091257095337,3.9848291873931885,-0.8578389286994934
3.5,-4.2294816970825195,-0.8493434190750122,-1.564322829246521,-0.6596046686172485,3.2458560466766357,-0.7868691086769104
3.55,-3.173967123031616,-0.29167184233665466,-0.5536236763000488,-0.9191169738769531,2.6258723735809326,-0.874461829662323
3.6,-2.3372745513916016,1.876466155052185,-1.449920654296875,-1.29379403591156,2.3328964710235596,-0.7944098114967346
3.65,-1.0376672744750977,3.8498802185058594,-4.02816104888916,-0.765009880065918,1.9661604166030884,-0.16549983620643616
3.7,-1.4644429683685303,2.6982228755950928,-3.7214767932891846,0.923956036567688,1.336323618888855,0.3695507347583771
3.75,-2.047464609146118,-2.4749958515167236,-0.5819973945617676,1.7832590341567993,0.3226751387119293,0.8025733828544617
3.8,0.8696632385253906,-6.715743541717529,-1.3037947416305542,2.135394334793091,0.20754994451999664,0.07143469899892807
3.85,0.16380135715007782,-5.4134087562561035,0.3001846373081207,0.9012933969497681,2.5665457248687744,-1.022392988204956
3.9,-3.7752132415771484,-0.7770171761512756,2.363959789276123,-0.5067673325538635,3.4122893810272217,-0.3261547088623047
3.95,-5.246954917907715,3.602419853210449,2.15537428855896,-0.36623090505599976,2.0468502044677734,0.8688010573387146
4.0,-5.398237228393555,4.254307746887207,2.4869296550750732,0.9511430263519287,0.8344172835350037,0.9904245138168335
4.05,-3.930957794189453,4.193596839904785,3.8619155883789062,2.2503502368927,0.5227458477020264,0.14913272857666016
4.1,1.3936656713485718,1.426458477973938,0.04199891909956932,1.9467213153839111,0.658198893070221,-0.40911540389060974
4.15,3.835843324661255,2.5367865562438965,-1.6572116613388062,1.7545446157455444,1.1514533758163452,-0.15711508691310883
4.2,3.867640495300293,4.485443115234375,-1.2246989011764526,2.348351001739502,0.8428046703338623,0.578361451625824
4.25,0.326230525970459,-0.3603697717189789,0.6996287107467651,1.9607257843017578,1.2450287342071533,1.2044192552566528
4.3,-2.0032782554626465,-6.9839982986450195,2.7073540687561035,1.2791221141815186,1.4884971380233765,0.826829195022583
4.35,-1.3241639137268066,-10.264814376831055,3.450554609298706,0.5434765219688416,1.364127278327942,-0.0840773805975914
4.4,0.02585017681121826,-8.357693672180176,3.7549171447753906,-0.19401931762695312,1.2517881393432617,-0.5127226710319519
4.45,1.9776242971420288,-0.40322667360305786,6.77553129196167,-0.5724667310714722,0.9377641677856445,-0.7724846601486206
4.5,4.471827507019043,4.18368673324585,9.55733585357666,-0.8660098314285278,0.25869056582450867,-1.3067114353179932
4.55,3.204190492630005,2.5668396949768066,6.771397590637207,-1.0976892709732056,-1.5190412998199463,-2.2458014488220215
4.6,0.8511847257614136,1.7647628784179688,2.5858590602874756,-1.5003471374511719,-3.167264938354492,-2.3832921981811523
4.65,-1.23276686668396,-0.32252100110054016,5.607038974761963,-2.5451600551605225,-2.4262869358062744,-1.183609962463379
4.7,-2.9934287071228027,8.343925476074219,2.8702661991119385,-4.110387325286865,-2.3327648639678955,-0.49452441930770874
4.75,-0.0337824821472168,14.3284912109375,-9.718016624450684,-4.7219696044921875,-3.173497438430786,0.22730955481529236
4.8,1.6642869710922241,7.781228542327881,-11.650022506713867,-3.4942786693573,-1.4579764604568481,-0.025926053524017334
4.85,-1.4045915603637695,0.6282947659492493,-6.497113227844238,-2.446945905685425,-0.9925455451011658,-0.6353638768196106
4.9,0.9014766812324524,-6.920652389526367,-3.1229164600372314,-1.7530004978179932,-2.5192477703094482,0.8606449961662292
4.95,0.946751058101654,-9.351456642150879,0.9685874581336975,-1.325875163078308,-1.9497181177139282,1.389472246170044
5.0,-0.9513205289840698,-4.979300022125244,1.5298610925674438,-1.6482462882995605,-0.6059463620185852,1.619889736175537
5.05,-0.038690607994794846,-1.258536458015442,0.14090010523796082,-2.7628846168518066,-0.08341304957866669,0.797948956489563
5.1,-1.2284765243530273,-0.3910115361213684,1.5869778394699097,-2.246884822845459,0.4400283694267273,-0.7505683302879333
5.15,-4.357877731323242,2.119908094406128,2.1564338207244873,0.2458852082490921,0.5612676739692688,-0.908581018447876
5.2,0.22076232731342316,0.707148551940918,0.6076278686523438,2.130906820297241,-0.1973799169063568,0.1698591113090515
5.25,6.570010185241699,-7.847335338592529,-1.6986740827560425,2.501002788543701,1.0997875928878784,-0.1840195506811142
5.3,8.83212947845459,-4.406588077545166,-6.048730850219727,2.6162028312683105,3.52775502204895,-0.9291806221008301
5.35,5.031121253967285,11.32751178741455,-8.042417526245117,2.937290906906128,5.1308393478393555,0.5271208882331848
5.4,-1.8134183883666992,10.503352165222168,-5.918992042541504,3.0724661350250244,5.118128776550293,2.4029972553253174
5.45,-4.4495720863342285,2.0614774227142334,2.4730801582336426,3.3519797325134277,4.483950138092041,0.7305850982666016
5.5,-4.384775161743164,-8.769593238830566,9.321675300598145,2.5305964946746826,3.2014825344085693,-0.789527177810669
5.55,-1.2589884996414185,-9.19983196258545,1.6411664485931396,1.4618638753890991,1.3492405414581299,-1.8769108057022095
5.6,-0.6669360399246216,-6.042026042938232,2.327651023864746,0.5060641765594482,2.5288937091827393,-1.6427669525146484
5.65,2.8885135650634766,-0.7242621183395386,7.736117362976074,0.4803810119628906,3.285121440887451,-1.3654321432113647
5.7,6.50645637512207,4.6058430671691895,2.563788890838623,0.38478606939315796,1.4709631204605103,-1.9818658828735352
5.75,4.870296001434326,4.22514009475708,-0.1667296439409256,-0.20701199769973755,0.5351877212524414,-2.0474581718444824
5.8,1.635775089263916,0.7839347124099731,0.7310972809791565,-1.214042067527771,0.8040441274642944,-1.1040321588516235
5.85,2.1792943477630615,-3.600494861602783,0.9686266779899597,-2.04072904586792,1.3835399150848389,0.0864453837275505
5.9,2.4853930473327637,3.688429594039917,-0.6134340167045593,-2.127305030822754,1.0517455339431763,1.4944857358932495
5.95,-0.6310456991195679,12.663284301757812,-5.121898174285889,-1.2512778043746948,0.81697016954422,2.2057130336761475
6.0,0.47077232599258423,8.700777053833008,-2.0170233249664307,-0.09509223699569702,1.2840938568115234,1.0171507596969604
6.05,1.2184046506881714,2.81674861907959,1.8372526168823242,-0.014585524797439575,-0.15496505796909332,0.6098480820655823
6.1,-0.9524741768836975,-2.9674055576324463,-0.22862836718559265,-0.09657344222068787,-2.505488395690918,1.4002689123153687
6.15,-0.785786509513855,-5.14369010925293,-2.1395254135131836,0.04386866092681885,-2.4185030460357666,2.0434179306030273
6.2,-2.3219261169433594,-4.424957275390625,-3.907029628753662,0.4323458671569824,-0.3756132125854492,3.104318141937256
6.25,-6.229561805725098,-4.556769847869873,-1.2381590604782104,-0.0064105987548828125,2.382936477661133,3.8066155910491943
6.3,-8.621722221374512,-5.733213424682617,4.936514377593994,-0.8117885589599609,4.187710285186768,1.378110647201538
6.35,-8.612617492675781,-1.2215889692306519,3.0717010498046875,0.03140777349472046,3.031831979751587,-2.678536891937256
6.4,-6.497584819793701,3.765174388885498,-2.66099214553833,0.5383902192115784,2.3633804321289062,-4.339920520782471
6.45,-3.636199712753296,9.707027435302734,-0.6641957759857178,0.46150869131088257,5.406550884246826,-3.402353286743164
6.5,5.401334762573242,12.94294261932373,2.6350841522216797,2.1838629245758057,7.397794723510742,-2.324382781982422
6.55,11.257608413696289,4.250222206115723,-0.3647722601890564,3.1621146202087402,6.70174503326416,-1.8422480821609497
6.6,9.161616325378418,-6.339514255523682,-2.0282135009765625,1.114661455154419,3.2564330101013184,-2.3384463787078857
6.65,2.6436312198638916,-10.907990455627441,-0.34130099415779114,-1.7975796461105347,0.521855354309082,-1.9948762655258179
6.7,-0.25023242831230164,-11.365004539489746,0.1662903130054474,-2.769906520843506,-0.027741365134716034,-1.0153489112854004
6.75,-0.5196934938430786,-9.501068115234375,0.5019819140434265,-1.6371821165084839,0.5296286344528198,0.5891540050506592
6.8,2.438509464263916,-0.506753146648407,1.761305332183838,0.548957884311676,1.812148094177246,2.154984474182129
6.85,5.931213855743408,9.152545928955078,-0.045245833694934845,1.3698899745941162,2.9964962005615234,2.416195869445801
6.9,0.5094934701919556,13.847821235656738,-0.900276780128479,-0.5836108922958374,1.4440505504608154,1.5434422492980957
6.95,-4.174880027770996,12.721077919006348,1.3171393871307373,-1.83597731590271,-0.4758993983268738,0.6344748139381409
7.0,0.7982778549194336,1.9735034704208374,-0.30029916763305664,0.2863481342792511,1.6763173341751099,0.06882849335670471
7.05,3.0045156478881836,-6.975967884063721,-4.324619293212891,1.8338416814804077,2.930509567260742,0.12221896648406982
7.1,1.7318811416625977,-10.19831657409668,-3.6735117435455322,1.2946255207061768,0.262167751789093,0.20135149359703064
7.15,0.28925013542175293,-9.043753623962402,-0.5011835694313049,0.8548082113265991,-2.269775629043579,0.019447553902864456
7.2,2.830099105834961,-0.24709637463092804,3.3091297149658203,1.2671022415161133,-2.2699644565582275,-0.05926932021975517
7.25,0.06220817565917969,9.327637672424316,5.518871307373047,1.8420206308364868,0.06766301393508911,0.6476856470108032
7.3,-5.602453231811523,9.220364570617676,2.2607131004333496,0.878257691860199,2.9270167350769043,2.7026963233947754
7.35,-3.0579347610473633,2.411463737487793,0.7396353483200073,-0.8113660216331482,2.1077797412872314,1.80239737033844
7.4,-1.301695466041565,-2.814887046813965,1.9919029474258423,-1.8419510126113892,0.5298154950141907,-0.3860524296760559
7.45,-0.11920490860939026,-1.82404363155365,0.961491584777832,-2.0243897438049316,1.126079797744751,-0.9063936471939087
7.5,1.9366110563278198,1.8923667669296265,-0.5652880072593689,-1.529880166053772,1.6525918245315552,-1.9619293212890625
7.55,1.0306057929992676,4.782176494598389,-0.9157522916793823,-0.5543919205665588,2.2295022010803223,-2.0855398178100586
7.6,1.0233676433563232,2.4745259284973145,-1.952294111251831,0.6957359313964844,2.9591004848480225,-1.3854328393936157
7.65,0.4935770630836487,-2.039728879928589,-3.143864154815674,1.1919456720352173,2.5802066326141357,-0.41922467947006226
7.7,-1.5787346363067627,-6.769240856170654,-2.2711403369903564,0.8703463077545166,1.1313401460647583,0.3262808918952942
7.75,-1.0319809913635254,-6.716911792755127,-2.6072068214416504,0.5084570646286011,0.01055633183568716,0.631553590297699
7.8,1.2397487163543701,-0.8192099928855896,-1.3784512281417847,0.5222290754318237,-1.1137878894805908,0.2900984585285187
7.85,1.1592942476272583,5.792839527130127,0.4003227949142456,0.8654211759567261,-1.476776123046875,0.015687359496951103
7.9,-0.3469953238964081,5.234619617462158,1.2746527194976807,0.8682218790054321,-1.1437965631484985,0.8778725862503052
7.95,-1.9881436824798584,-0.0404856875538826,1.9325753450393677,0.7701278924942017,-0.9251761436462402,1.420230507850647
8.0,-1.6699875593185425,-1.5684159994125366,0.6825547814369202,0.9731017351150513,-0.7722073197364807,0.5733169317245483
8.05,-0.5198235511779785,1.5506470203399658,-0.3472634553909302,0.9233361482620239,-0.28857067227363586,-0.651898205280304
8.1,-0.0848812460899353,2.4503626823425293,-1.1081628799438477,0.3708573281764984,-0.18304334580898285,-0.6339004635810852
8.15,0.560716450214386,-0.4966343939304352,-1.1173286437988281,-0.30151018500328064,-0.9552247524261475,-0.13211891055107117
8.2,-0.17810583114624023,-1.8803333044052124,0.6164223551750183,-0.31098538637161255,-1.273576259613037,-0.19155196845531464
8.25,0.5269228219985962,0.05976777523756027,-0.2040194720029831,0.05407053232192993,-0.3247571587562561,-0.3857017457485199
8.3,1.2838926315307617,1.2405483722686768,-0.4229227900505066,0.16131113469600677,0.141725093126297,-0.3247092664241791
8.35,0.4646325707435608,-0.24294789135456085,2.5234899520874023,-0.08655083179473877,-1.0191713571548462,0.03178020566701889
8.4,-1.4116878509521484,-2.115056037902832,5.301262855529785,-0.19205191731452942,-1.5626027584075928,0.21267029643058777
8.45,-2.0514020919799805,-1.2484242916107178,4.793009281158447,0.5560788512229919,0.6789175868034363,0.4433707594871521
8.5,0.8138285875320435,1.7461682558059692,1.774085283279419,1.2257674932479858,3.6106555461883545,0.29263582825660706
8.55,1.677112102508545,3.4247922897338867,-4.0973615646362305,0.6942444443702698,4.217726707458496,-0.10061214864253998
8.6,-0.5797879695892334,2.1692864894866943,-3.9265050888061523,0.1907535344362259,2.3320209980010986,-0.38007476925849915
8.65,-0.5574115514755249,-0.3776455819606781,-0.04184494912624359,0.2745099663734436,1.0008022785186768,-0.7261269688606262
8.7,-0.007996469736099243,-0.84894859790802,-0.237543985247612,0.6973053216934204,1.5008409023284912,-0.9333418011665344
8.75,0.051158882677555084,0.0933266133069992,-0.30188271403312683,0.9037121534347534,1.5824190378189087,-1.1224433183670044
8.8,-0.14259493350982666,0.4521685540676117,-0.18892741203308105,0.7561125159263611,0.8936982154846191,-0.9904413819313049
8.85,-0.06084755063056946,-0.5808228254318237,-1.4611287117004395,0.3476279675960541,-0.0991402268409729,-0.4941873848438263
8.9,0.5358359217643738,-1.9960590600967407,-1.08859384059906,-0.18999436497688293,-1.3307671546936035,-0.08077264577150345
8.95,1.1749812364578247,-1.5948336124420166,0.17508845031261444,-0.4798613488674164,-1.7500215768814087,0.10367890447378159
9.0,0.5353829264640808,-0.5736076235771179,1.0241000652313232,-0.6051353812217712,-1.1386218070983887,0.6388247609138489
9.05,-0.25306636095046997,0.7846078276634216,1.2145925760269165,-0.6072270274162292,-0.08429192751646042,1.4891905784606934
9.1,-0.8408969640731812,1.5304538011550903,0.7463474869728088,-0.5709301233291626,0.6343103647232056,2.0402987003326416
9.15,-1.82087242603302,1.3775254487991333,-0.7784079909324646,-0.6724638342857361,0.6395758986473083,1.9481604099273682
9.2,-2.499704599380493,1.425960659980774,-1.195265293121338,-0.7218407988548279,-0.02330564334988594,1.174771785736084
9.25,-1.8160651922225952,1.2035341262817383,0.07146397233009338,-0.4042317271232605,-0.7787560224533081,0.10400602221488953
9.3,-0.7030906677246094,0.43666356801986694,0.8194789290428162,-0.09839768707752228,-1.251246452331543,-0.45040363073349
9.35,-0.19512267410755157,-0.4712182581424713,0.7571444511413574,0.18071238696575165,-1.2853329181671143,-0.5328222513198853
9.4,0.8636589050292969,-0.11231524497270584,0.7397516965866089,0.6038780808448792,-0.819899320602417,-0.582935631275177
9.45,0.7968356609344482,1.4892845153808594,1.1916707754135132,0.6278835535049438,-0.12773697078227997,-0.5609949231147766
9.5,-0.29696735739707947,2.0169308185577393,0.5299353003501892,-0.0673416331410408,-0.021389685571193695,-0.29005178809165955
9.55,-0.8677698373794556,0.4332447648048401,-0.36667758226394653,-0.5227876901626587,-0.2786845266819,-0.10363925248384476
9.6,-1.3684827089309692,-1.055099606513977,-0.7618007063865662,-0.2026984542608261,-0.16389405727386475,-0.06936347484588623
9.65,-1.5450325012207031,-0.9062967300415039,-1.7474569082260132,0.2860085666179657,-0.07777649909257889,-0.08583854883909225
9.7,-1.6229140758514404,0.05128492787480354,-1.656150221824646,0.6521662473678589,-0.613356351852417,-0.3224206268787384
9.75,-1.331003189086914,0.4332657754421234,-0.5926958918571472,0.9108135104179382,-1.3107672929763794,-0.5031626224517822
9.8,-0.37004148960113525,-0.05008605867624283,0.13641728460788727,0.9066174030303955,-1.827600359916687,-0.36276328563690186
9.85,0.8559718728065491,-1.4343167543411255,0.443580687046051,0.688243567943573,-2.168205499649048,-0.07051481306552887
9.9,0.6892704367637634,-2.14947247505188,0.887096107006073,0.26117125153541565,-2.405463695526123,0.11165855079889297
9.95,-1.5725843906402588,-0.32427528500556946,1.5037437677383423,-0.19307245314121246,-2.3774569034576416,-0.03093373402953148
10.0,-3.3235270977020264,2.7067556381225586,1.7095986604690552,-0.2681591510772705,-1.7884076833724976,-0.21779900789260864
10.05,-1.0517187118530273,4.251283168792725,0.9237958788871765,-0.016074202954769135,-0.8053141236305237,-0.38659706711769104
10.1,0.457954466342926,2.21440052986145,-0.09209687262773514,0.30826741456985474,-0.5415226817131042,-0.3926331400871277
10.15,-0.22041550278663635,-0.34518903493881226,-0.7750431895256042,0.6877277493476868,-0.6234714984893799,-0.2162034958600998
10.2,0.09368173032999039,-0.7791071534156799,-0.521600604057312,1.1262685060501099,-0.5268129706382751,-0.06765345484018326
10.25,1.490243911743164,-0.11046318709850311,0.7667456865310669,1.4194389581680298,-0.5117440223693848,0.030625220388174057
10.3,2.174079418182373,-0.034095924347639084,2.056448459625244,1.1889822483062744,-0.6691399812698364,0.03645253926515579
10.35,0.914541482925415,-0.9507469534873962,2.64011549949646,0.5344251394271851,-1.1984912157058716,0.08430614322423935
10.4,-0.47302865982055664,-1.397813081741333,0.9389035105705261,0.21312879025936127,-1.2223196029663086,0.633597195148468
10.45,0.6756847500801086,-0.8550530076026917,-0.43773317337036133,0.51650071144104,-0.23648522794246674,1.8054348230361938
10.5,0.807613730430603,0.22965146601200104,0.3489914834499359,0.9028425216674805,-0.30292344093322754,1.4897048473358154
10.55,0.13642916083335876,1.86707603931427,1.171699047088623,0.5028806328773499,-0.7490854859352112,0.0492740236222744
10.6,0.5012180805206299,3.1140122413635254,-0.4736923575401306,0.10316074639558792,-0.7551040053367615,-0.631382167339325
10.65,1.0100817680358887,2.394071102142334,-1.3674447536468506,0.29257386922836304,-0.6056275963783264,-0.5404303073883057
10.7,2.2378287315368652,-0.11716542392969131,-0.6167132258415222,0.5646579265594482,-0.17351418733596802,-0.22694160044193268
10.75,2.1828296184539795,-1.8656352758407593,1.9179093837738037,0.652880847454071,-0.4641391634941101,-0.5294806361198425
10.8,-1.5072619915008545,-3.4400391578674316,4.321788787841797,0.5193241834640503,-1.37492036819458,-1.4807049036026
10.85,-5.05855655670166,-2.136129379272461,4.31591272354126,-0.6296262741088867,-0.9034387469291687,-0.867304801940918
10.9,-3.2368953227996826,0.5827232003211975,2.9606475830078125,-1.2624554634094238,1.0697238445281982,0.9295380115509033
10.95,-0.4355618357658386,3.014106035232544,2.375422239303589,-0.630595326423645,2.460339069366455,1.2463051080703735
11.0,2.0720787048339844,4.091911792755127,1.20390784740448,0.5997976660728455,2.5981247425079346,0.04512082785367966
11.05,3.3099560737609863,1.216468095779419,0.46794548630714417,1.3431980609893799,1.5295403003692627,-1.7258148193359375
11.1,3.4686005115509033,-2.319352149963379,-0.6316356658935547,0.9254099726676941,0.6083799004554749,-2.970215082168579
11.15,1.564706563949585,-3.791440725326538,-1.8524487018585205,-0.11982154846191406,0.2850066125392914,-2.625398874282837
11.2,-0.7167060375213623,-4.487392425537109,-1.4394865036010742,-0.7263001203536987,0.49210789799690247,-0.7234669327735901
11.25,-1.399154782295227,-2.4301064014434814,0.0047394027933478355,-0.6766622066497803,0.9719743132591248,1.6010103225708008
11.3,-2.0882456302642822,1.6778651475906372,0.7164639234542847,-0.011207163333892822,1.846828579902649,3.253328323364258
11.35,-0.952285885810852,5.240954875946045,-1.008820652961731,0.14993691444396973,2.713386058807373,3.1804370880126953
11.4,-0.9722010493278503,5.566409111022949,-3.0705478191375732,-0.011343955993652344,1.787010908126831,1.5886356830596924
11.45,-2.3329720497131348,2.4594509601593018,-1.5003422498703003,0.13778343796730042,-0.0010260625276714563,-0.2645939290523529
11.5,-2.6237714290618896,-0.24694941937923431,0.8052904605865479,0.40034157037734985,-0.4569932818412781,-0.9720320105552673
11.55,-1.0893515348434448,-1.7453397512435913,0.30353546142578125,0.7016668319702148,0.11547893285751343,-0.822422206401825
11.6,-0.45471900701522827,-1.9184762239456177,-0.8047459125518799,0.8564234972000122,0.6761536598205566,-0.11778023093938828
11.65,-1.2425960302352905,-1.0815678834915161,-0.8812522888183594,0.2478814423084259,0.597554624080658,0.20683296024799347
11.7,-1.0814862251281738,0.19324596226215363,-0.7961170673370361,-0.3524963855743408,0.415459543466568,0.3829728662967682
11.75,-0.8641298413276672,0.7557727694511414,-0.8522323369979858,-0.2545695900917053,0.3285011947154999,0.5363155007362366
11.8,-2.083369493484497,0.23054204881191254,0.6889973878860474,-0.12983864545822144,0.23648247122764587,0.31632769107818604
11.85,-1.4822359085083008,1.3987513780593872,-0.291494220495224,-0.29369568824768066,0.6664324998855591,0.35457703471183777
11.9,-0.4842904508113861,2.359923839569092,-1.753405213356018,-0.46903103590011597,0.48938873410224915,-0.13528691232204437
11.95,-1.1148176193237305,-0.177095428109169,-0.3378944396972656,-0.1368001103401184,-0.5285958647727966,-0.8960477113723755
12.0,-1.9553512334823608,-1.055344820022583,-0.002826939569786191,0.1441342830657959,-0.8793361783027649,-0.7046822905540466
12.05,-2.085909843444824,-4.114617824554443,-0.8007704019546509,0.941997230052948,0.006565691903233528,0.3029102385044098
12.1,-1.1324952840805054,-1.8506280183792114,-1.5419726371765137,0.43844014406204224,-0.08502914011478424,0.9628906846046448
12.15,0.18073071539402008,1.4123032093048096,-1.177575945854187,-0.3819374740123749,-0.521332323551178,0.8319079875946045
12.2,0.34759312868118286,1.5084947347640991,-0.6224697232246399,-0.9375775456428528,-1.2352794408798218,0.09101015329360962
12.25,-0.0795564129948616,0.7617388963699341,0.1998426765203476,-1.2153904438018799,-1.660049557685852,-0.2654742896556854
12.3,0.07908288389444351,1.0331727266311646,0.21970313787460327,-1.3200457096099854,-1.4624117612838745,-0.32955485582351685
12.35,-1.2130800485610962,1.5159770250320435,0.24301894009113312,-0.9893556833267212,-0.9612494707107544,-0.41897517442703247
12.4,-0.6080302596092224,1.0791022777557373,2.8926048278808594,-0.8700775504112244,-0.7770575881004333,-0.8963712453842163
12.45,0.06242823600769043,-0.005571830552071333,3.9995553493499756,-0.9825111031532288,-0.7762026190757751,-0.9216880202293396
12.5,-0.0723576545715332,-3.7306735515594482,5.832266807556152,-1.0717540979385376,-0.6219027638435364,-0.4891936182975769
12.55,-2.0816783905029297,-3.0881760120391846,5.718331813812256,-1.790310025215149,-0.5239734649658203,-0.19453120231628418
12.6,-0.5923911333084106,-0.47164011001586914,3.421896457672119,-1.8482692241668701,0.9279372692108154,0.3008553385734558
12.65,2.568845510482788,1.3699848651885986,-0.3406752943992615,-1.4450973272323608,1.9975084066390991,0.3412559926509857
12.7,4.798224925994873,2.0656402111053467,-3.481813669204712,-1.1478261947631836,1.3784432411193848,0.005699804052710533
12.75,3.8666791915893555,4.321702003479004,-2.690333127975464,-0.7907073497772217,-0.18737252056598663,-0.09331064671278
12.8,1.3923120498657227,3.6035382747650146,-1.6437208652496338,-0.5247378945350647,-1.094851016998291,0.06398679316043854
12.85,-0.09379369020462036,-0.3811195492744446,-2.067119836807251,-0.6426340937614441,-1.6400359869003296,0.003705195616930723
12.9,-1.6694713830947876,-2.1596968173980713,-0.5095714330673218,-0.5886272192001343,-3.02384090423584,-0.594069242477417
12.95,-5.165297985076904,0.05564558878540993,1.3991632461547852,0.27168503403663635,-3.510056257247925,-1.0827816724777222
13.0,-4.69483757019043,1.192976713180542,1.0964146852493286,1.3541204929351807,-1.116881012916565,-0.3419627547264099
13.05,-0.08172382414340973,0.8797962069511414,-0.6426563858985901,1.0748586654663086,1.0700327157974243,1.0332412719726562
13.1,0.3616012930870056,-0.1041276752948761,-1.796513557434082,0.43646183609962463,0.1969437152147293,1.5502820014953613
13.15,-0.6333507895469666,-1.668929100036621,-2.2992067337036133,0.4799885153770447,-1.1149303913116455,1.2213201522827148
13.2,0.31643325090408325,-0.6964815258979797,-1.6924817562103271,0.8441197276115417,-1.4357725381851196,0.7516135573387146
13.25,-0.06269976496696472,0.595525860786438,-0.7016093730926514,1.1340314149856567,-1.7353954315185547,0.11604627221822739
13.3,-0.41877591609954834,0.10502725094556808,-0.4834083318710327,0.8735272884368896,-1.662812352180481,-0.30837759375572205
13.35,0.14753171801567078,-0.11392407864332199,0.35091301798820496,0.1942588984966278,-1.215466022491455,-0.5344081521034241
13.4,0.07367759943008423,-1.0025131702423096,0.6070170402526855,-0.33762359619140625,-0.6247864365577698,-0.5885147452354431
13.45,-0.8847179412841797,-1.225281000137329,1.0037702322006226,-0.4078308045864105,-0.29388487339019775,-0.7917752265930176
13.5,-3.2371397018432617,-0.2304319441318512,1.9864059686660767,-0.2463439404964447,0.16872411966323853,-0.7793915867805481
13.55,-2.8355228900909424,1.9137122631072998,2.9635865688323975,-0.485695481300354,1.2074849605560303,-0.7232017517089844
13.6,-0.9323123097419739,2.2989683151245117,2.059404134750366,-0.7368772625923157,2.200124740600586,-0.5900105237960815
13.65,1.4646090269088745,0.5619869828224182,0.27108854055404663,-0.5354503393173218,2.780597448348999,-0.36038342118263245
13.7,2.715156078338623,-0.9913367033004761,-1.212040901184082,-0.09369289129972458,2.483604907989502,-0.151014044880867
13.75,1.8906834125518799,-0.7759780287742615,-0.9687103033065796,0.30844423174858093,1.465856671333313,-0.1510513424873352
13.8,1.3506120443344116,0.6458254456520081,0.19158346951007843,0.5523720383644104,0.7863808274269104,-0.14103461802005768
13.85,1.6620385646820068,1.117631196975708,-0.288545697927475,0.5619222521781921,0.6166787147521973,0.05777563899755478
13.9,1.273383617401123,0.25905531644821167,-0.859820544719696,0.5064801573753357,0.3014223575592041,0.23177535831928253
13.95,0.7859556674957275,-0.2188510149717331,-0.6442157030105591,0.5906174182891846,-0.04143143817782402,0.2716732919216156
14.0,0.1865588128566742,0.18230441212654114,-0.09679026156663895,0.6989721655845642,-0.19956108927726746,0.2183527946472168
14.05,-0.5383895635604858,0.7959901094436646,-0.14274919033050537,0.7367743849754333,-0.2490735650062561,0.19976089894771576
14.1,-0.2866019904613495,0.9889470934867859,-0.46647560596466064,0.8054209351539612,-0.1943683624267578,0.28447073698043823
14.15,0.39082425832748413,0.46798911690711975,-0.6563819050788879,0.9073574542999268,-0.21773119270801544,0.3162778317928314
14.2,0.7090821862220764,-0.05113500729203224,-0.3028750419616699,0.9486716389656067,-0.4936247766017914,0.20629078149795532
14.25,0.29979899525642395,0.1533994823694229,0.12426605820655823,0.981186032295227,-0.7218955159187317,0.10704442858695984
14.3,-0.5310707688331604,0.5115327835083008,0.15049083530902863,0.7435007691383362,-0.6530673503875732,0.08978357166051865
14.35,-0.2877119779586792,-0.02345367893576622,-0.4072384238243103,0.19320420920848846,-0.49877655506134033,0.19076476991176605
14.4,0.27005550265312195,-1.7532044649124146,-0.6444972157478333,-0.2478536069393158,-0.6149010062217712,0.053559377789497375
14.45,1.300459384918213,-1.1502904891967773,-0.481555312871933,-0.5307570099830627,-0.9626080393791199,-0.25208377838134766
14.5,0.2255176156759262,-0.24627505242824554,0.7583016753196716,-0.486401230096817,-1.3632065057754517,-0.5153177380561829
14.55,-1.6128157377243042,-0.8265765905380249,1.4709303379058838,-0.8308044075965881,-1.305922269821167,-0.464436799287796
14.6,-1.6638412475585938,-0.7651866674423218,1.654299259185791,-1.6640565395355225,-0.576615035533905,-0.40820127725601196
14.65,-2.1260037422180176,-0.44469091296195984,0.5407292246818542,-2.113755702972412,-0.13969066739082336,-0.5183401107788086
14.7,-1.7886685132980347,0.7240020036697388,-1.2562686204910278,-1.9589362144470215,0.7729408740997314,-0.2918208837509155
14.75,2.7110934257507324,1.8833701610565186,-2.836779832839966,-1.2948262691497803,1.8218257427215576,-0.15941587090492249
14.8,2.9702353477478027,2.133599042892456,-3.148887872695923,-0.4451104700565338,1.0021318197250366,-0.28906258940696716
14.85,-0.8776779174804688,3.0271286964416504,-1.257469892501831,0.06416032463312149,-0.3560715317726135,-0.490332692861557
14.9,-1.2380503416061401,1.439987301826477,-0.08976662158966064,0.49358460307121277,-0.1409917026758194,-0.24321578443050385
14.95,0.1868363916873932,-0.8074970841407776,-0.3424442708492279,0.7729958295822144,0.1850932240486145,0.083199642598629
15.0,1.0160534381866455,-1.720255970954895,-0.29302024841308594,0.8215979337692261,-0.015414864756166935,0.06728121638298035
15.05,0.3191542625427246,-0.37594518065452576,0.3242339789867401,0.6555868983268738,-0.39108800888061523,-0.22217021882534027
15.1,-0.019747763872146606,1.5210020542144775,-0.4681262671947479,0.3486136198043823,-0.4964178502559662,-0.49195602536201477
15.15,-1.1208727359771729,1.1532937288284302,-0.37902867794036865,0.20727556943893433,-0.7602453231811523,-0.5545530319213867
15.2,-2.3970892429351807,-0.23561494052410126,0.32186612486839294,0.36058729887008667,-0.5693843364715576,-0.3173286020755768
15.25,-0.5498247146606445,-1.2543919086456299,0.5591982007026672,0.42365142703056335,0.28809645771980286,0.1648225337266922
15.3,0.4590338468551636,-1.4316169023513794,-0.353911429643631,0.227727472782135,0.457523912191391,0.3536851406097412
15.35,-0.628034234046936,0.082242950797081,0.003985176794230938,0.17888478934764862,0.2855145335197449,0.5117549300193787
15.4,-0.15494248270988464,0.8059626221656799,0.3413453996181488,0.29078447818756104,0.27331674098968506,0.3651081919670105
15.45,-0.29262852668762207,0.2037200629711151,0.4599311053752899,0.030012138187885284,0.0903116911649704,-0.078705795109272
15.5,-0.8121779561042786,-0.3400002717971802,0.4282137453556061,-0.23911625146865845,-0.06745943427085876,-0.40337318181991577
15.55,-0.505444347858429,-1.3541289567947388,0.3440694808959961,-0.05150802806019783,0.45881929993629456,-0.22127005457878113
15.6,-0.9532443284988403,0.3331412672996521,0.47937050461769104,-0.25945034623146057,0.8284666538238525,-0.11847209930419922
15.65,0.8672093749046326,1.8796018362045288,-1.0008652210235596,-0.21984821557998657,1.2959760427474976,0.06318585574626923
15.7,4.069460868835449,1.7762964963912964,-3.7407877445220947,0.31786254048347473,1.0639499425888062,0.4363447427749634
15.75,4.282660484313965,1.4146419763565063,-2.7212302684783936,1.2661727666854858,-0.2933950424194336,1.1138572692871094
15.8,1.8886380195617676,0.8403187990188599,0.8668438196182251,1.8250830173492432,-1.7480195760726929,1.7631211280822754
15.85,-2.388362407684326,1.2297486066818237,1.4575499296188354,1.453385829925537,-2.769606113433838,1.5560928583145142
15.9,-1.039585828781128,-0.29295358061790466,0.2561950385570526,1.4199230670928955,-2.2899534702301025,0.5606160759925842
15.95,-0.5242288112640381,-1.9208060503005981,-0.7806984782218933,1.1848578453063965,-2.011979818344116,-0.3497770130634308
16.0,-5.435247898101807,-4.856581211090088,-1.2845282554626465,0.733906090259552,-1.8691214323043823,-1.2532639503479004
16.05,1.663476586341858,-1.9305078983306885,0.8417350053787231,-0.6261780858039856,1.0252469778060913,-0.02646654099225998
16.1,-3.148714780807495,-1.887657880783081,3.079789638519287,-2.037789821624756,2.2776124477386475,2.4442436695098877
16.15,-9.401790618896484,5.028718948364258,-0.7484525442123413,-2.6366262435913086,2.9429588317871094,1.9953323602676392
16.2,-2.637211322784424,7.593969345092773,-0.6901761293411255,-0.6115360260009766,4.232977390289307,-1.6386483907699585
16.25,5.8310699462890625,7.226551532745361,-3.379578113555908,-0.6340843439102173,3.395327091217041,-4.340753078460693
16.3,9.300895690917969,0.46019816398620605,-2.657034397125244,-1.897964596748352,-0.09480700641870499,-6.049411296844482
16.35,3.029308557510376,-5.690782070159912,0.5801728367805481,-3.745302200317383,-3.0993642807006836,-5.528663635253906
16.4,2.8330271244049072,-3.721208333969116,2.083117961883545,-3.9148812294006348,-2.9894614219665527,-3.5513994693756104
16.45,2.284874200820923,-5.755018711090088,3.1570827960968018,-1.9477717876434326,-1.818774700164795,-0.8504955172538757
16.5,-3.604611873626709,-0.420857697725296,0.7186368107795715,-1.0535635948181152,-1.0327640771865845,0.2697419822216034
16.55,-1.988033413887024,5.347540378570557,-0.381473571062088,-0.036945492029190063,-0.3874497711658478,0.44175398349761963
16.6,2.405392646789551,0.6104128956794739,-1.3738662004470825,1.2211793661117554,0.5042542815208435,0.2363559752702713
16.65,3.99808669090271,-1.0437716245651245,-1.2286162376403809,1.2777867317199707,-0.2908743917942047,-0.29849523305892944
16.7,3.390836238861084,-4.305353164672852,0.3442732095718384,1.0501279830932617,-1.2707558870315552,-0.18133458495140076
16.75,-0.4604737162590027,-1.6452410221099854,0.21158839762210846,0.17545458674430847,-1.983641266822815,-0.3506588637828827
16.8,0.07859177887439728,-0.8780500292778015,0.6536871790885925,0.03584321588277817,-1.4138461351394653,-0.4101713001728058
16.85,-1.5052103996276855,1.3949042558670044,-0.8856884241104126,0.11625030636787415,-1.0760810375213623,-0.18795469403266907
16.9,0.08023417741060257,-0.19879435002803802,-0.39335259795188904,0.6435810923576355,-0.26188692450523376,0.5989993810653687
16.95,0.9184231758117676,2.6133511066436768,-0.38126277923583984,0.009623736143112183,0.03736896067857742,0.9813817739486694
17.0,0.8011531829833984,2.5410349369049072,0.9600829482078552,-0.45625585317611694,-0.156290203332901,0.9465674161911011
17.05,-0.014896512031555176,2.769359588623047,2.7705705165863037,-0.9829174876213074,-1.207015037536621,0.2112119197845459
17.1,-2.685822010040283,1.4910259246826172,0.2730828523635864,-0.7045778036117554,-1.613661527633667,0.3350315988063812
17.15,-0.829704999923706,-1.6415047645568848,1.735175371170044,-0.6862761974334717,-0.801422119140625,0.6227805614471436
17.2,0.19334450364112854,3.527247190475464,-1.9958080053329468,0.5038703083992004,0.7193853259086609,2.4283382892608643
17.25,4.308902263641357,-4.07894229888916,-0.7160569429397583,1.3804211616516113,0.3793257176876068,6.3327484130859375
17.3,-0.6813619136810303,6.83793830871582,-1.7139562368392944,0.18427729606628418,-0.45424792170524597,7.452904224395752
17.35,-1.9998570680618286,4.8747334480285645,0.5259943604469299,0.19461965560913086,0.050834547728300095,5.138606548309326
17.4,-5.145443439483643,0.19670571386814117,-0.5437947511672974,1.3924808502197266,-0.9144448637962341,2.611191749572754
17.45,-6.726640224456787,-6.521815776824951,-5.120124340057373,1.514487624168396,0.22496192157268524,1.9486312866210938
17.5,-0.6789230108261108,-2.4511492252349854,-0.5673391222953796,-1.1608432531356812,1.7374159097671509,3.337035655975342
17.55,4.5205559730529785,6.623205184936523,2.165466070175171,-0.7670654654502869,1.256946086883545,2.261335611343384
17.6,-3.048362970352173,-0.3067294657230377,0.09398319572210312,1.4080519676208496,0.02628178335726261,-1.8752856254577637
17.65,-7.736112594604492,-2.5910000801086426,-1.470308780670166,1.5861738920211792,0.7072903513908386,-2.9765985012054443
17.7,-7.124423503875732,-2.4580190181732178,1.092748761177063,0.4122408628463745,2.9623653888702393,-1.661458969116211
17.75,-12.670560836791992,-5.628653526306152,9.926473617553711,-0.3431997299194336,5.337428569793701,0.41952669620513916
17.8,5.553659439086914,-0.14184506237506866,12.533904075622559,-0.9846590757369995,8.043136596679688,2.769681692123413
17.85,6.369121551513672,3.3473961353302,5.1449761390686035,-0.834212064743042,7.682149887084961,0.5310462713241577
17.9,6.962380886077881,-1.6908411979675293,4.3795166015625,-2.494114875793457,6.772984027862549,-0.42790400981903076
17.95,10.188676834106445,-0.48866933584213257,-5.82181453704834,-0.6849650144577026,6.4087066650390625,1.09632408618927
18.0,5.4214019775390625,-3.141239643096924,-7.359923839569092,1.2665927410125732,5.4705491065979,1.0324771404266357
18.05,-0.905059814453125,-2.1053035259246826,-13.526394844055176,3.0984935760498047,4.578050136566162,0.6869361996650696
18.1,-7.907789707183838,3.860649824142456,-13.349555969238281,2.4922935962677,1.4560927152633667,1.5065865516662598
18.15,-3.941892385482788,5.9741363525390625,-6.224087238311768,1.2301996946334839,-2.5977907180786133,0.21328139305114746
18.2,-2.6215100288391113,10.766502380371094,-0.9996780157089233,1.186682105064392,-3.535919427871704,-1.2515594959259033
18.25,5.653295516967773,4.945621013641357,8.422595024108887,-0.4093421697616577,-4.533537864685059,-2.886636972427368
18.3,2.622556447982788,-3.445204019546509,7.596777439117432,-1.882920265197754,-2.735037326812744,-3.6867644786834717
18.35,-1.3235797882080078,-0.28512024879455566,1.4279050827026367,-0.7702422738075256,-0.2510540187358856,-2.2086730003356934
18.4,2.091700792312622,4.217148303985596,-7.635598182678223,-0.9260303974151611,0.4418051242828369,-1.5391935110092163
18.45,-3.6526708602905273,-0.41647496819496155,-12.799603462219238,0.6445844769477844,-0.09155090153217316,-1.775614857673645
18.5,-8.78680419921875,-15.370068550109863,12.704411506652832,-1.1639963388442993,-1.3053944110870361,-2.432837724685669
18.55,-3.4715631008148193,5.33267068862915,-7.67203426361084,2.87458872795105,0.5114607810974121,2.206043243408203
18.6,-2.5017285346984863,5.72166633605957,-6.102993965148926,-0.42075416445732117,-0.062128327786922455,0.5038397312164307
18.65,-0.43063288927078247,-3.5577588081359863,3.676957130432129,-2.99845027923584,-1.0295737981796265,-1.7677066326141357
18.7,-2.5598604679107666,-5.965184688568115,10.722114562988281,-2.72660756111145,1.5661109685897827,-1.0026521682739258
18.75,8.031819343566895,-6.369091510772705,13.369132041931152,1.0545927286148071,4.170430660247803,0.3172309696674347
18.8,13.48554515838623,1.9079477787017822,-4.238610744476318,2.9941585063934326,7.455183506011963,0.6099483370780945
18.85,8.692955017089844,1.2607648372650146,-10.348285675048828,0.8825957775115967,8.434585571289062,0.5250400304794312
18.9,9.573101997375488,3.7191593647003174,-12.004989624023438,-0.4969024956226349,8.09936809539795,2.7100534439086914
18.95,-0.4395303726196289,0.9954245090484619,-17.466508865356445,1.679189682006836,8.148276329040527,1.9668564796447754
19.0,-4.9746599197387695,-2.6026806831359863,-15.853089332580566,1.932453989982605,6.804189205169678,1.3056706190109253
19.05,-12.748826026916504,-4.319741725921631,-6.772768497467041,2.1228859424591064,5.9729228019714355,0.09857466071844101
19.1,-15.784570693969727,-0.48201560974121094,2.58333158493042,2.388231039047241,5.700592041015625,-2.0911900997161865
19.15,-4.556103229522705,8.619224548339844,14.353161811828613,1.9068951606750488,4.479364395141602,-3.445040702819824
19.2,-0.03189349174499512,-2.1196725368499756,8.683671951293945,-0.4147793650627136,2.4856629371643066,-1.7294389009475708
19.25,0.7188656330108643,16.808603286743164,8.202856063842773,-1.9079678058624268,1.0363337993621826,-0.37088268995285034
19.3,-6.031017303466797,19.439252853393555,-6.309706211090088,-4.315394878387451,0.04270884767174721,4.952279567718506
19.35,-16.974016189575195,8.166666984558105,-10.859451293945312,-5.904057502746582,1.7143224477767944,6.841262340545654
19.4,-20.180387496948242,-10.552705764770508,-3.875869035720825,-5.379457473754883,2.385406017303467,7.738905906677246
19.45,-13.80214786529541,-21.528682708740234,12.177441596984863,1.170750379562378,5.341733932495117,8.521047592163086
19.5,11.099093437194824,-14.041473388671875,23.60611343383789,2.578740119934082,12.168041229248047,5.367105960845947
19.55,12.702005386352539,-5.574668884277344,-4.895349025726318,1.4657179117202759,9.99189281463623,1.9921066761016846
19.6,14.679154396057129,3.6151857376098633,0.17022892832756042,-1.8322975635528564,2.738008737564087,2.8452565670013428
19.65,6.439896106719971,3.0851683616638184,2.6752946376800537,-1.3842917680740356,-0.22957339882850647,1.6149370670318604
19.7,1.2051630020141602,0.04877360537648201,1.8214137554168701,-0.4489245116710663,-0.9620215892791748,-0.08220916241407394
19.75,-2.8348793983459473,-0.46545642614364624,2.1013448238372803,-0.28380754590034485,-0.8710811138153076,-0.6346706748008728
19.8,-0.39224866032600403,0.906549334526062,2.093492031097412,-0.6888111233711243,-0.44853904843330383,-0.03059428557753563
19.85,-0.041818439960479736,0.6648442149162292,2.851742744445801,-0.33453309535980225,0.21925483644008636,-0.7167044878005981
19.9,-2.3204922676086426,-0.36426833271980286,-0.6437614560127258,0.1495886892080307,-0.11916688829660416,-0.904688835144043
19.95,-0.7755962610244751,-0.3912269175052643,0.49434250593185425,-0.5635617971420288,-0.9237555265426636,-0.03803170472383499
20.0,1.6851897239685059,-2.4714996814727783,-0.11696476489305496,-0.8492984175682068,-1.2016291618347168,0.20238931477069855
20.05,-0.4755392074584961,-10.653273582458496,-4.396758556365967,-1.9478405714035034,-1.406722903251648,-0.9177441000938416
20.1,-9.963152885437012,-22.083478927612305,9.723148345947266,-5.667639255523682,-1.3879293203353882,-1.975424885749817
20.15,-12.160940170288086,1.1002840995788574,8.9810209274292,-8.815323829650879,2.7825982570648193,-5.55307674407959
20.2,-9.835745811462402,30.851852416992188,-0.22249461710453033,-8.848240852355957,1.5353723764419556,-9.903926849365234
20.25,12.322460174560547,9.455164909362793,-4.7903642654418945,-4.657871246337891,1.553849458694458,-5.403195381164551
20.3,-3.994753122329712,9.09073543548584,7.598086357116699,-2.6159324645996094,-0.3195228576660156,-2.5773801803588867
20.35,5.091525077819824,1.4979320764541626,-2.351905584335327,-0.8997783660888672,1.6084785461425781,-0.8546372056007385
20.4,3.49682354927063,-3.1166059970855713,-4.31654691696167,-0.42301762104034424,1.5139127969741821,0.659206211566925
20.45,-1.9512637853622437,1.3727912902832031,0.15696339309215546,-0.44855305552482605,-0.03754333779215813,0.033167850226163864
20.5,-3.810135841369629,1.972409963607788,3.224841356277466,-0.012362614274024963,0.21100515127182007,-0.4453916549682617
20.55,-0.9195985198020935,3.430079936981201,0.638254702091217,-0.03261654078960419,1.5253628492355347,-0.5826468467712402
20.6,0.5974807739257812,2.190099000930786,-0.013136490248143673,-0.1530522257089615,2.3355400562286377,-0.7376344799995422
20.65,1.6808600425720215,-0.8264227509498596,0.03674127534031868,-0.2106117308139801,2.627678632736206,-0.6544516682624817
20.7,0.8280424475669861,-2.6893956661224365,-0.493680864572525,0.238480806350708,3.2438642978668213,-0.25067242980003357
20.75,1.36505126953125,-4.74613094329834,-2.4334168434143066,1.0129348039627075,3.7131550312042236,-0.4565194547176361
20.8,0.7303264141082764,-2.4713101387023926,-1.9848172664642334,1.4591132402420044,3.1743640899658203,-1.0636937618255615
20.85,1.5480477809906006,1.8508660793304443,-3.3707823753356934,1.4534518718719482,2.743468999862671,-1.0674079656600952
20.9,0.20545083284378052,2.815690517425537,-2.321850538253784,0.613368809223175,1.252184271812439,-0.15416407585144043
20.95,-0.5513253211975098,-2.6045806407928467,3.7045466899871826,-0.061433643102645874,-0.4140967130661011,0.7136421799659729
21.0,-0.783275306224823,-4.548280715942383,0.2915928065776825,0.5303177833557129,0.1838693767786026,1.2967479228973389
21.05,0.5431057214736938,4.757262706756592,-0.3649810552597046,0.5224272012710571,0.44458311796188354,1.5195120573043823
21.1,-1.18375563621521,5.516737461090088,0.05497550219297409,-0.304810494184494,-0.5308511257171631,1.2751723527908325
21.15,-2.5229897499084473,2.184725522994995,2.9472362995147705,-1.0277637243270874,-1.6343895196914673,0.8464996814727783
21.2,-1.903752088546753,-1.6509137153625488,1.8639707565307617,-0.5372512340545654,-0.5101467370986938,0.4332394599914551
21.25,-2.9459595680236816,-2.8683526515960693,-0.6434758305549622,0.19255095720291138,0.8764817118644714,-0.032526787370443344
21.3,-3.3754124641418457,-0.5045673847198486,0.543673574924469,0.5718649625778198,1.828770637512207,-1.0924668312072754
21.35,-1.222708821296692,1.4257785081863403,0.008441295474767685,0.8907791972160339,2.881042957305908,-2.3433358669281006
21.4,1.324104905128479,8.461676597595215,-9.697433471679688,0.7493517398834229,2.7823266983032227,-1.8049356937408447
21.45,2.520073175430298,-8.939600944519043,-8.05117130279541,-1.654709815979004,-1.2839367389678955,0.6969016790390015
21.5,-0.9580107927322388,-9.894791603088379,-1.6047017574310303,-1.9777045249938965,-5.030190944671631,3.4913039207458496
21.55,4.447583198547363,-2.8387014865875244,0.5305941700935364,0.42950087785720825,-4.969238758087158,2.3876938819885254
21.6,-10.1524658203125,11.593647956848145,6.057857036590576,1.1734519004821777,-3.7500603199005127,2.2236289978027344
21.65,-4.105095386505127,6.07402229309082,0.0940578281879425,-0.4304790496826172,-3.6870694160461426,-0.7509186863899231
21.7,-2.2175676822662354,3.079676866531372,1.0417004823684692,0.28115314245224,-3.2565009593963623,-1.4888743162155151
21.75,-2.2776448726654053,-0.0719473659992218,1.4570711851119995,1.7028790712356567,0.7134620547294617,-0.23786357045173645
21.8,0.24841085076332092,-1.715383529663086,-1.6869441270828247,2.2902002334594727,1.8895900249481201,-0.0547257736325264
21.85,2.438269853591919,1.2835190296173096,-0.5937312245368958,2.021420955657959,-0.438405305147171,-0.7044752836227417
21.9,0.9241796731948853,0.9075617790222168,5.191505432128906,2.0838544368743896,-1.6668429374694824,-2.4201161861419678
21.95,-1.7602941989898682,-2.197192430496216,6.692436218261719,1.5609525442123413,0.6127117872238159,-1.0375452041625977
22.0,2.243959903717041,-3.375654935836792,-4.951154708862305,0.3275887370109558,2.94075870513916,2.5501387119293213
22.05,-0.6105483770370483,-8.92101001739502,-1.715846300125122,-2.179683208465576,-0.92607182264328,0.0766075924038887
22.1,0.07274067401885986,-6.020877361297607,5.962947368621826,-2.5012569427490234,-0.3737053871154785,0.4521721601486206
22.15,-4.0794830322265625,9.122506141662598,5.999077320098877,-2.3674468994140625,1.2331939935684204,0.6770408749580383
22.2,-4.253504276275635,5.269792079925537,6.414426326751709,-1.1716235876083374,2.8120853900909424,-0.23107227683067322
22.25,2.0154759883880615,2.537031888961792,-2.9861042499542236,-0.8608261346817017,4.58185338973999,-0.5128352046012878
22.3,1.4531168937683105,-0.22735103964805603,-1.1101696491241455,0.49153369665145874,3.694619655609131,-0.8545265793800354
22.35,-0.3979480266571045,-5.639066219329834,-7.540013313293457,1.084449052810669,3.8349099159240723,-1.812532901763916
22.4,1.1244604587554932,0.3057915270328522,-12.9471435546875,0.2761145234107971,1.438436508178711,-2.54756760597229
22.45,1.9619853496551514,1.6972776651382446,-2.4792933464050293,-0.9436915516853333,-1.4990203380584717,-0.39244452118873596
22.5,2.4543023109436035,-5.17855167388916,-4.828541278839111,-1.1507294178009033,-2.4909002780914307,1.3832756280899048
22.55,5.186724662780762,-2.010075092315674,0.4223034381866455,-0.44424787163734436,-5.64063835144043,2.8115954399108887
22.6,0.5841689109802246,5.984899520874023,4.920422077178955,0.8889291882514954,-5.33954381942749,3.530388593673706
22.65,4.718790054321289,10.805585861206055,2.8086888790130615,2.437770366668701,-3.860567569732666,2.1725761890411377
22.7,-8.272294998168945,4.439503192901611,4.604609966278076,1.833353042602539,-5.841983318328857,-1.3400260210037231
22.75,-4.1459503173828125,6.660754680633545,2.864314556121826,1.720884919166565,-2.5210883617401123,-0.19081787765026093
22.8,-5.966991424560547,1.4320539236068726,4.013900279998779,3.062933921813965,0.21702100336551666,0.06395968794822693
22.85,-1.4204399585723877,-0.1050875261425972,1.507267713546753,3.2133095264434814,2.235112428665161,0.7227219939231873
22.9,-0.15919816493988037,-2.2553372383117676,1.5512751340866089,4.591302394866943,1.9121410846710205,1.151883840560913
22.95,0.6002403497695923,0.07163065671920776,6.9011383056640625,6.295539379119873,1.4798223972320557,0.8937743306159973
23.0,3.1185734272003174,3.31294846534729,3.690048933029175,7.64450216293335,1.1242698431015015,0.49333837628364563
23.05,-0.3212662935256958,0.3826029598712921,6.151188373565674,2.8815338611602783,1.105237364768982,-3.5108065605163574
23.1,-5.132662773132324,-11.813323020935059,0.9033994674682617,3.2191905975341797,1.037883996963501,-1.689350962638855
23.15,0.8323477506637573,-8.551234245300293,0.882356584072113,3.9685633182525635,1.825738549232483,-0.5905356407165527
23.2,-2.917442798614502,-0.588494062423706,-3.502140998840332,2.0156915187835693,3.311603307723999,0.24547015130519867
23.25,1.3198814392089844,2.03852915763855,-2.696427583694458,-0.5099794864654541,2.4242749214172363,1.9203531742095947
23.3,0.8973580598831177,-2.4141838550567627,-0.3190113306045532,-0.26352182030677795,1.4747241735458374,1.0794246196746826
23.35,0.0735885500907898,-5.16664457321167,-1.893056869506836,0.7515620589256287,-0.24098965525627136,1.7203330993652344
23.4,2.8249449729919434,-8.089865684509277,-3.020538806915283,-0.05266308784484863,-0.5252133011817932,1.6647504568099976
23.45,0.04313969612121582,-3.2766940593719482,-5.691222190856934,-0.6229424476623535,-0.2505740225315094,1.7548857927322388
23.5,-3.2492995262145996,0.8938317894935608,-4.702825546264648,-1.1903551816940308,-0.44941481947898865,1.3376421928405762
23.55,8.475101470947266,3.019183874130249,-7.505766868591309,-2.730405330657959,-2.1063430309295654,3.02397084236145
23.6,8.697142601013184,-5.943027019500732,-1.9612178802490234,-7.78134822845459,-5.887661457061768,1.357652187347412
23.65,-12.179032325744629,12.454862594604492,5.883025169372559,-5.676734924316406,-7.265042304992676,3.4539918899536133
23.7,-4.954797267913818,17.380796432495117,-4.566328048706055,-1.8667161464691162,-2.9078965187072754,2.1092917919158936
23.75,-0.14516544342041016,5.424806118011475,7.384305000305176,1.0093209743499756,-1.2982367277145386,-2.737258195877075
23.8,0.966280460357666,1.0634422302246094,9.253273010253906,0.76674485206604,-1.5019432306289673,-2.6444666385650635
23.85,-0.9761344194412231,-2.737243890762329,3.934584140777588,-0.9656949043273926,-1.053481936454773,-1.6830605268478394
23.9,-2.657296657562256,-1.7718560695648193,2.7718684673309326,-0.9699581861495972,-1.23873770236969,-0.07872879505157471
23.95,2.4757561683654785,-2.723008871078491,0.13450923562049866,0.9981686472892761,-0.7913897633552551,0.3978436589241028
24.0,3.3379390239715576,-1.1325126886367798,5.335860252380371,2.8911733627319336,-0.49997279047966003,-1.8421285152435303
24.05,-0.01349642127752304,-9.405834197998047,-0.16478660702705383,3.5264625549316406,-0.6985358595848083,-2.2143967151641846
24.1,-17.53104019165039,-12.764124870300293,-1.9373465776443481,-3.7925448417663574,-1.6951066255569458,-2.2610340118408203
24.15,-14.287127494812012,-0.861732542514801,2.9349870681762695,-6.124527931213379,1.3468573093414307,-0.44027477502822876
24.2,10.120020866394043,5.126842498779297,14.832161903381348,-6.930373191833496,8.24229907989502,3.539372444152832
24.25,3.625279664993286,12.684042930603027,-2.5111165046691895,-3.720121145248413,3.3223307132720947,-2.213226795196533
24.3,-7.176660537719727,14.750300407409668,0.4709068834781647,-1.3674641847610474,2.5045018196105957,-2.048438787460327
24.35,2.436723470687866,5.603305816650391,-5.264274597167969,1.0242984294891357,5.096863269805908,-2.4300084114074707
24.4,4.388463973999023,-0.025769643485546112,-11.405841827392578,2.188636302947998,2.5648343563079834,-2.150484561920166
24.45,3.6768035888671875,-6.077151298522949,-6.756822109222412,2.9478211402893066,-0.738578200340271,-2.0077004432678223
24.5,4.402992248535156,-8.88540267944336,-5.457895278930664,3.2224504947662354,-3.8375585079193115,-0.9097505807876587
24.55,8.844744682312012,3.5304527282714844,23.844472885131836,4.360404968261719,-6.26969575881958,0.3499964475631714
24.6,-3.2775182723999023,6.537441730499268,11.119277000427246,3.3530776500701904,-4.552020072937012,1.4363068342208862
24.65,1.7942700386047363,-2.8415369987487793,15.47083568572998,2.109935760498047,-6.285300254821777,-0.24176400899887085
24.7,-25.48095703125,-6.414851665496826,-0.14958365261554718,3.106151819229126,-5.741157054901123,-4.495150566101074
24.75,-5.412795066833496,-6.026644229888916,1.4994226694107056,-0.6836287379264832,-1.279532790184021,2.726160764694214
24.8,-1.055766224861145,5.756820201873779,-0.5624510645866394,-1.0188827514648438,-0.1629159152507782,2.8822295665740967
24.85,-1.7107045650482178,1.8376686573028564,-0.5022343397140503,0.7910165786743164,0.0859944149851799,-0.6465738415718079
24.9,0.43918055295944214,-1.2161954641342163,2.1839349269866943,0.39513474702835083,0.1752014309167862,-0.3384820520877838
24.95,1.4771419763565063,-3.81510591506958,0.11935339123010635,-0.2272520363330841,0.3413771092891693,0.9180647730827332
25.0,1.4391201734542847,-5.555834770202637,-2.5061285495758057,0.21894659101963043,0.3417576551437378,0.28053024411201477
25.05,-4.841930389404297,-5.553591251373291,-2.5198402404785156,0.5289670825004578,-0.31944262981414795,-0.1965208351612091
25.1,-1.9807474613189697,0.01719525270164013,3.2152137756347656,-2.40623140335083,-0.212776780128479,1.7039130926132202
25.15,0.3487652540206909,9.661754608154297,-1.6889368295669556,-3.612948179244995,-0.7212925553321838,0.46628955006599426
25.2,2.345885753631592,3.1559934616088867,4.291600227355957,-1.8445857763290405,-1.802409291267395,-1.015041708946228
25.25,-5.270623207092285,-5.106059551239014,1.079323410987854,0.39327239990234375,-1.5944998264312744,-1.7221115827560425
25.3,-0.9623452425003052,2.0363781452178955,-0.15101361274719238,-0.39693179726600647,-0.18494263291358948,-0.43041089177131653
25.35,-2.294736862182617,1.9545726776123047,1.3936066627502441,-0.12948793172836304,-0.5053067207336426,-0.17004479467868805
25.4,-2.5142645835876465,1.1190234422683716,-0.6782537698745728,-0.36805570125579834,-0.5308750867843628,-0.3786489963531494
25.45,-1.664058804512024,-0.6483230590820312,-1.286396861076355,-0.4411084055900574,-0.8197534084320068,-0.9944578409194946
25.5,0.25488099455833435,-3.6243815422058105,-0.636326253414154,0.18002662062644958,-0.6307553648948669,-0.8425668478012085
25.55,-4.362565994262695,0.7300828695297241,4.429166316986084,1.3988373279571533,-0.5583495497703552,-0.5378502011299133
25.6,-6.726291656494141,4.929203033447266,3.5205159187316895,1.6412960290908813,0.6407546997070312,1.1078078746795654
25.65,-0.5277227163314819,1.1520254611968994,6.684129238128662,0.1455116868019104,1.3049510717391968,1.8418357372283936
25.7,1.528948426246643,-2.7680718898773193,1.0407766103744507,-0.40628373622894287,0.9160417914390564,0.6246961951255798
25.75,0.41645553708076477,-9.28760051727295,-2.3923723697662354,0.17403441667556763,1.2919353246688843,0.38103750348091125
25.8,1.8216580152511597,-0.03726659715175629,-0.595017671585083,-1.2328691482543945,2.027000904083252,0.8269950151443481
25.85,5.096217632293701,3.6684346199035645,1.5498557090759277,-0.862672746181488,2.194586992263794,1.3201210498809814
25.9,0.8542371988296509,3.808814287185669,1.7221680879592896,-0.4049367904663086,1.5565526485443115,0.4084056615829468
25.95,0.9033249616622925,0.7658227682113647,-1.8725135326385498,-0.789014458656311,1.3134630918502808,0.6483516693115234
26.0,1.148874282836914,-1.8060351610183716,-0.8486777544021606,-0.9843083620071411,0.9253663420677185,0.30626073479652405
26.05,1.6313071250915527,-6.1376824378967285,-2.7724390029907227,-0.5218520164489746,0.5277535915374756,0.06825966387987137
26.1,3.6361026763916016,-0.8831562995910645,-3.765556812286377,-0.6137820482254028,0.4537809491157532,0.4312383830547333
26.15,0.22164824604988098,7.259904861450195,0.016499200835824013,-0.9715458750724792,-0.17570877075195312,0.15469564497470856
26.2,-3.288435935974121,6.444026470184326,3.0495035648345947,-1.1356325149536133,-2.1883704662323,-0.48608845472335815
26.25,-0.7226372957229614,5.256973743438721,0.02150755189359188,-0.758276104927063,-1.8358081579208374,-0.4706757068634033
26.3,-0.8339548707008362,0.3413640558719635,-1.2602646350860596,0.3723035454750061,-2.172652006149292,-0.6313361525535583
26.35,-3.142376661300659,0.028791291639208794,0.16653811931610107,0.8519484996795654,-1.484493374824524,-0.7498363256454468
26.4,-4.227047443389893,-1.471050500869751,-0.7911643385887146,1.0918371677398682,-0.7986111044883728,-0.5183066129684448
26.45,-2.647239923477173,-1.6270880699157715,1.241586685180664,0.683622419834137,-0.7892178297042847,-0.6776269674301147
26.5,-3.2922658920288086,-1.7343257665634155,0.07604613155126572,0.2942124009132385,-0.7579885721206665,-0.38519051671028137
26.55,-2.5318403244018555,-1.2374147176742554,1.1348966360092163,-0.4372072219848633,-0.6050254702568054,-0.32067540287971497
26.6,-2.0581696033477783,-2.8264613151550293,0.618618905544281,-0.38089123368263245,-0.40496397018432617,-0.19930095970630646
26.65,-3.382059097290039,1.7048879861831665,3.6178064346313477,0.2897675633430481,-0.02553602121770382,0.04667987674474716
26.7,-3.8116605281829834,2.9484803676605225,1.8154805898666382,1.3752042055130005,0.48362305760383606,-0.08983239531517029
26.75,-2.3547329902648926,2.6942296028137207,4.871570110321045,0.5235918760299683,0.7102423310279846,-0.9089104533195496
26.8,-0.9878441691398621,-0.5724701285362244,2.949587106704712,0.1957414299249649,2.0882787704467773,-0.1943942755460739
26.85,3.98254132270813,-2.2984912395477295,0.9026171565055847,0.21908678114414215,3.2720203399658203,0.7053810954093933
26.9,6.117807865142822,0.16175031661987305,-2.004812002182007,0.4661276936531067,3.1670963764190674,0.7098028063774109
26.95,3.7417831420898438,-0.646369457244873,-3.307041645050049,0.5088591575622559,2.000859022140503,-0.1364159882068634
27.0,2.4955639839172363,-1.5895204544067383,-1.3472750186920166,0.18330791592597961,1.3573336601257324,0.09558893740177155
27.05,0.9789556860923767,-1.4908876419067383,-0.19604098796844482,-0.046889640390872955,1.2317677736282349,0.2914491891860962
27.1,0.017906025052070618,-2.1372082233428955,-0.8749285936355591,-0.19321849942207336,1.2244541645050049,0.10639017075300217
27.15,-0.3576139211654663,-1.6330084800720215,2.413999557495117,-0.3960520029067993,1.5071015357971191,-0.12229049950838089
27.2,1.029611349105835,2.8220579624176025,8.072922706604004,-0.3335443139076233,1.9961286783218384,-0.6678196787834167
27.25,-5.004817008972168,3.7881662845611572,9.331338882446289,-1.0017954111099243,2.1943161487579346,0.3795650005340576
27.3,1.2885642051696777,6.398598670959473,7.4972405433654785,-0.9105268120765686,3.69244647026062,0.5935472846031189
27.35,4.666758060455322,3.64251446723938,2.642462730407715,-1.1756398677825928,4.678605556488037,0.3018564283847809
27.4,6.08258056640625,-2.492880344390869,-4.785729885101318,-1.724480152130127,4.389532566070557,-0.256885290145874
27.45,3.0031352043151855,-6.138182640075684,-5.163259029388428,-2.240694522857666,3.5470035076141357,-0.004031401127576828
27.5,0.2636847496032715,-3.766099214553833,-6.786884307861328,-1.6489577293395996,4.2168145179748535,1.1119779348373413
27.55,-2.9466733932495117,-0.29525503516197205,-6.508566856384277,-0.3983527421951294,5.0522613525390625,1.1493487358093262
27.6,-2.3287715911865234,3.9348134994506836,-4.6696624755859375,-0.10169665515422821,4.111571311950684,0.8465282917022705
27.65,-1.157748818397522,-0.21839109063148499,-3.4969799518585205,-0.21435430645942688,3.679347276687622,0.7474902272224426
27.7,-2.692051410675049,-4.178194046020508,-3.088263511657715,-0.011938855051994324,4.041977882385254,0.16868911683559418
27.75,-5.766360282897949,-2.2818706035614014,-1.0889036655426025,-0.29895302653312683,4.338785171508789,-0.8015316128730774
27.8,1.1629844903945923,6.2685112953186035,-3.274393081665039,-0.2789389193058014,2.1309938430786133,-0.4636661112308502
27.85,7.136107444763184,7.782845497131348,-4.861990928649902,-0.2781234085559845,2.0309548377990723,-0.16075512766838074
27.9,-1.606813907623291,-0.03473507612943649,-5.741142272949219,-0.31972867250442505,4.623447418212891,0.1497291922569275
27.95,-5.380747318267822,-1.1254098415374756,-4.877945899963379,-1.0417014360427856,5.337658882141113,0.716718316078186
28.0,-6.1686110496521,-1.3186917304992676,0.749196469783783,-1.367930293083191,6.0255608558654785,2.035696506500244
28.05,-4.614391326904297,-0.29281970858573914,4.115470886230469,0.04000222682952881,5.451679706573486,1.8550273180007935
28.1,-6.303908348083496,-2.8996500968933105,7.8920440673828125,2.464204788208008,3.8116753101348877,1.7225919961929321
28.15,-2.326688289642334,-1.4886298179626465,1.8819140195846558,3.614750862121582,2.5998473167419434,-0.6899093985557556
28.2,-3.5448760986328125,1.7265318632125854,1.7789435386657715,1.8451018333435059,3.5604588985443115,-1.8085393905639648
28.25,-0.686398446559906,-0.38375797867774963,2.5095832347869873,0.593839168548584,3.9047622680664062,-0.6694216728210449
28.3,0.01732635498046875,-0.4664302468299866,4.100743770599365,0.8949897289276123,2.9454545974731445,-0.9822903871536255
28.35,-0.5300140380859375,1.3913487195968628,1.5449429750442505,0.8945353627204895,1.8669233322143555,-1.4173500537872314
28.4,0.6970582008361816,0.31034645438194275,1.78531813621521,0.4314503073692322,1.8215819597244263,-0.6862064599990845
28.45,1.5278981924057007,0.5433319807052612,1.9574252367019653,0.08980520814657211,1.7070441246032715,0.02562766708433628
28.5,1.9294904470443726,0.22686856985092163,1.352409839630127,0.04569169133901596,1.1295968294143677,0.37703773379325867
28.55,1.4343048334121704,0.4011545181274414,1.03997004032135,0.09600729495286942,0.5783095955848694,0.3400985896587372
28.6,1.0638492107391357,0.3214387595653534,0.7904337048530579,0.1535041332244873,0.1531865894794464,0.3577474057674408
28.65,0.15601694583892822,-0.6358548998832703,1.0159907341003418,0.22221243381500244,-0.28531792759895325,0.38809728622436523
28.7,-0.8641471266746521,0.04266451299190521,-0.14029192924499512,0.04874459654092789,-0.5201705694198608,0.3985865116119385
28.75,-0.6417275071144104,-0.2777997553348541,0.7351324558258057,-0.00719490647315979,-0.2286163866519928,0.5710058808326721
28.8,-0.7821857929229736,-0.9600584506988525,0.7145510911941528,-0.030218221247196198,-0.36663708090782166,0.4246828556060791
28.85,-1.291332721710205,-0.5932084918022156,0.8198471665382385,-0.1742265522480011,-0.6063767075538635,0.23046061396598816
28.9,-1.163038969039917,-0.5040103793144226,0.5900600552558899,-0.4483014941215515,-0.42683351039886475,0.2164030373096466
28.95,-0.31747865676879883,-0.25383004546165466,0.3808232843875885,-0.714794933795929,-0.1501900553703308,0.032484184950590134
29.0,0.3426876366138458,0.2682247757911682,-0.14953237771987915,-0.7857348918914795,-0.21686865389347076,-0.221065953373909
29.05,0.44576698541641235,0.29241466522216797,0.5287265181541443,-0.6411489844322205,-0.20147742331027985,-0.44888678193092346
29.1,1.080802083015442,-0.26835811138153076,-0.8815470933914185,-0.5736851096153259,-0.4016944468021393,-0.33251988887786865
29.15,0.6385552287101746,0.7261887192726135,0.046952590346336365,-0.5939081311225891,-0.4633084535598755,-0.24858403205871582
29.2,0.27031153440475464,1.4687501192092896,0.11202237010002136,-0.4525044858455658,-0.4338482618331909,-0.04286833852529526
29.25,1.0093649625778198,1.2280685901641846,-1.1439197063446045,-0.282947301864624,-0.4347822070121765,0.15341021120548248
29.3,0.7692465782165527,-0.10098850727081299,1.118295431137085,-0.05869843810796738,-0.5097677707672119,0.25235509872436523
29.35,0.5520914196968079,-0.08759119361639023,0.2899043560028076,0.008973903954029083,-0.8065405488014221,0.1497681885957718
29.4,0.32798898220062256,-0.11113646626472473,0.242522731423378,-0.000154934823513031,-0.944152295589447,0.04130052402615547
29.45,-0.0034375041723251343,-0.48555293679237366,0.807864248752594,-0.0793994665145874,-0.9526056051254272,0.01672256924211979
29.5,0.8197807669639587,0.311064749956131,0.35973498225212097,-0.2841750979423523,-0.8849539756774902,-0.019565444439649582
29.55,0.4412764012813568,0.13529188930988312,1.7300212383270264,-0.4330654442310333,-1.0520787239074707,0.14831425249576569
29.6,0.1622583121061325,0.7966756820678711,0.8679440021514893,-0.40942713618278503,-1.4595335721969604,0.08051250129938126
29.65,-0.2279263436794281,0.10689439624547958,0.9097260236740112,-0.31519147753715515,-1.8717164993286133,0.1887253075838089
29.7,-0.36294248700141907,0.17155542969703674,0.83184415102005,-0.4444829225540161,-1.969846487045288,0.18464133143424988
29.75,-0.22262819111347198,-0.07577236741781235,0.5495284199714661,-0.4431494474411011,-2.0898215770721436,0.12339533865451813
29.8,-0.6486318707466125,-0.15781407058238983,-0.010845785029232502,-0.24203075468540192,-2.3035953044891357,0.06552626937627792
29.85,-0.8098927736282349,-0.42368417978286743,-0.23742268979549408,-0.1338922679424286,-2.427396535873413,0.09412898123264313
29.9,-0.17920124530792236,-0.10606372356414795,-1.2302982807159424,-0.03975367546081543,-2.2947258949279785,-0.06827220320701599
29.95,-0.13053858280181885,-0.5091818571090698,-1.3271145820617676,-0.058494873344898224,-1.846920371055603,-0.08803728222846985
30.0,-0.006711289286613464,-0.5300111770629883,-0.6326029896736145,-0.15296132862567902,-1.3522814512252808,-0.15852920711040497
30.05,-0.18190810084342957,0.2688302993774414,0.16552814841270447,-0.24406561255455017,-1.1862528324127197,-0.0842888355255127
30.1,-0.11230184882879257,0.21943096816539764,-0.1717652529478073,-0.20489495992660522,-1.2980849742889404,0.08635062724351883
30.15,-0.03598149120807648,0.19038113951683044,-0.4593214988708496,-0.12317202985286713,-1.3127970695495605,0.09800826758146286
30.2,0.34160399436950684,0.4377824068069458,-0.31129762530326843,-0.05681223049759865,-1.0276886224746704,0.14383362233638763
30.25,-0.4711304306983948,-0.009791401214897633,0.07044902443885803,-0.043889231979846954,-0.6398407816886902,0.09540130198001862
30.3,-0.08747049421072006,0.08402825146913528,-0.010832826606929302,-0.007932891137897968,-0.5734032988548279,0.03811301663517952
30.35,-0.6187556982040405,-0.04215054214000702,0.15771740674972534,-0.03197762370109558,-0.5785451531410217,0.07327938079833984
30.4,-0.03954266756772995,0.06855013221502304,-0.11946948617696762,-0.056500282138586044,-0.5752419829368591,-0.013832935132086277
30.45,-0.259268194437027,0.18796539306640625,0.12078917771577835,-0.15544602274894714,-0.36618366837501526,-0.10515890270471573
30.5,-0.26291337609291077,0.4020577073097229,0.015118625946342945,-0.20739611983299255,-0.35391584038734436,-0.07538396865129471
30.55,-0.23128804564476013,0.6804361939430237,-0.1408197432756424,-0.20425066351890564,-0.526683509349823,-0.02395624853670597
30.6,0.39882931113243103,0.97662752866745,-0.2835027575492859,-0.18468189239501953,-0.5282260179519653,-0.04261024668812752
30.65,-0.1018095538020134,0.6889181137084961,0.2585800290107727,-0.143671914935112,-0.24282251298427582,-0.04347426816821098
30.7,-0.13991914689540863,0.09711648523807526,-0.0432722233235836,-0.13789981603622437,-0.11225933581590652,-0.0705140084028244
30.75,-0.5971269607543945,0.8534918427467346,0.5002081394195557,-0.031288594007492065,-0.18639500439167023,0.03270002081990242
30.8,0.6076873540878296,1.1876164674758911,0.22808584570884705,-0.020622167736291885,-0.39360511302948,0.22585967183113098
30.85,0.1670544147491455,0.7816802859306335,-0.32390156388282776,-0.034218475222587585,-0.1911151111125946,0.3298955261707306
30.9,0.49543896317481995,-0.4544934630393982,-0.9117535352706909,-0.08122696727514267,0.19866886734962463,0.31739240884780884
30.95,1.2314039468765259,-0.6159875392913818,-2.0995681285858154,-0.20933771133422852,0.7371706366539001,0.4044642150402069
31.0,-0.8053776621818542,1.1305876970291138,0.14990878105163574,-0.5589513778686523,2.592874765396118,0.20914024114608765
31.05,-0.6452952027320862,-0.6056609749794006,4.02194881439209,-0.9899516701698303,3.7749531269073486,0.003105329582467675
31.1,-1.1448429822921753,0.970980703830719,8.212737083435059,-0.035842414945364,1.9452095031738281,0.059380918741226196
31.15,1.8322162628173828,1.9613866806030273,2.3439438343048096,1.2636699676513672,-1.2148586511611938,0.0706464946269989
31.2,0.2585369348526001,2.2158684730529785,-1.1044905185699463,1.5262773036956787,-2.2841238975524902,-0.40298211574554443
31.25,0.8886322975158691,1.5572582483291626,-3.006681203842163,0.9557340741157532,-1.743459701538086,-1.0284276008605957
31.3,-0.37822240591049194,0.5444347858428955,-1.6353014707565308,0.5032962560653687,-0.46773067116737366,-1.1229196786880493
31.35,0.2565571367740631,-0.5506505370140076,-0.8025127649307251,0.4774717688560486,0.16560930013656616,-0.6573503017425537
31.4,1.4682753086090088,-1.2811861038208008,-0.9397087693214417,0.32548487186431885,0.6402093172073364,-0.19221916794776917
31.45,0.2172907590866089,-1.7259447574615479,-0.06506071984767914,0.06884147226810455,1.3012183904647827,0.17524570226669312
31.5,-1.171358346939087,-2.0144333839416504,1.4129693508148193,-0.0938512533903122,1.6229833364486694,0.2728879153728485
31.55,-2.718862771987915,-1.146323800086975,3.652040481567383,-0.24305444955825806,1.2651433944702148,0.15754434466362
31.6,-3.4839744567871094,-0.1349332630634308,5.086581707000732,-0.39155808091163635,0.17590674757957458,-0.1206892654299736
31.65,-1.3345578908920288,-0.40779709815979004,1.196522831916809,-0.262997567653656,-1.3763296604156494,-0.23920108377933502
31.7,-0.049411922693252563,-0.027905303984880447,-1.4163976907730103,0.14433951675891876,-1.9509865045547485,-0.021309884265065193
31.75,0.11616790294647217,0.09772710502147675,-2.2452683448791504,0.2639666199684143,-1.0687717199325562,-0.01156377512961626
31.8,4.690492153167725,0.2022920846939087,-3.282867193222046,0.2856707274913788,-0.20305784046649933,0.35844165086746216
31.85,4.558249473571777,-1.0497965812683105,-3.1155261993408203,0.3754292130470276,1.274153709411621,0.855521559715271
31.9,0.6172237396240234,-2.7736682891845703,-1.0084896087646484,0.6587964296340942,2.029420852661133,1.437722086906433
31.95,-0.35575708746910095,-0.6863816380500793,2.1190648078918457,1.2159672975540161,2.446790933609009,1.5495184659957886
32.0,2.6222951412200928,0.4338556230068207,4.627068996429443,1.8067513704299927,2.3004002571105957,2.1529438495635986
32.05,1.3751354217529297,1.805944561958313,9.681196212768555,2.514972448348999,1.744247317314148,2.763399839401245
32.1,-6.129790306091309,-5.497251510620117,9.481348991394043,3.2437620162963867,0.04815729334950447,2.495704174041748
32.15,-3.835578441619873,0.33304041624069214,-2.4287352561950684,3.9475255012512207,-1.6692308187484741,-0.26698312163352966
32.2,-2.7884774208068848,4.688642978668213,-10.028756141662598,1.9630076885223389,-1.2757762670516968,-1.82656991481781
32.25,-3.468851327896118,6.423150062561035,-8.197046279907227,-0.5898650884628296,0.9485293626785278,-2.7560837268829346
32.3,-2.978834629058838,9.793642044067383,-2.3151204586029053,-1.6122815608978271,1.912408709526062,-3.3084282875061035
32.35,-1.0313236713409424,9.35669231414795,-4.776508808135986,-3.3190207481384277,4.515784740447998,-1.8910094499588013
32.4,2.5980887413024902,11.986149787902832,-3.288398265838623,-2.4989802837371826,7.397022247314453,-0.01636473834514618
32.45,-6.735907554626465,-2.013345241546631,3.7286083698272705,0.34599941968917847,7.385616302490234,3.1237213611602783
32.5,-8.192098617553711,-10.575676918029785,7.408356189727783,2.695132255554199,4.730485439300537,2.2624683380126953
32.55,-3.4348974227905273,-4.678829669952393,5.595546722412109,1.3988325595855713,3.8814265727996826,-0.27926331758499146
32.6,-1.0221233367919922,-5.807758331298828,4.787515640258789,0.7037438750267029,3.4829776287078857,-1.4116976261138916
32.65,3.2715249061584473,-9.460443496704102,6.040498733520508,0.005395174026489258,4.007251262664795,-1.1407991647720337
32.7,5.312036514282227,-8.634648323059082,1.8964420557022095,-0.6034177541732788,3.735793113708496,-0.29925546050071716
32.75,6.4511518478393555,-4.659084320068359,-1.2048330307006836,-1.0930062532424927,2.824557065963745,0.4740425944328308
32.8,4.871252059936523,-0.681654691696167,-0.7873261570930481,-1.2339043617248535,1.251110315322876,0.4910871684551239
32.85,3.4269189834594727,1.890942096710205,-1.2691830396652222,-1.0031368732452393,0.03198070451617241,0.8186507225036621
32.9,2.2245965003967285,2.8972725868225098,-1.1094032526016235,-0.4934878349304199,-0.4559952914714813,1.2897419929504395
32.95,-0.02819487452507019,3.083921194076538,-1.5023727416992188,0.011648178100585938,-0.7641571164131165,1.4859570264816284
33.0,0.1504485309123993,2.7180590629577637,-1.516080379486084,0.5608657598495483,-0.6727535724639893,1.5761362314224243
33.05,1.744961142539978,2.4390854835510254,-0.9922637939453125,1.1805381774902344,-0.3973552882671356,1.8414394855499268
33.1,5.794159889221191,2.5909149646759033,2.3427605628967285,1.5504045486450195,-0.6055276989936829,2.4074394702911377
33.15,6.26450252532959,2.0883822441101074,7.728291034698486,1.3799787759780884,-1.62303626537323,3.3551394939422607
33.2,-1.368143081665039,-0.760654628276825,8.36028003692627,0.36780738830566406,-2.678046941757202,4.641360759735107
33.25,-4.16684627532959,3.885004758834839,5.578801155090332,-0.9649568796157837,-3.267580986022949,4.045761585235596
33.3,-2.266295909881592,6.084602355957031,-1.986492395401001,0.05421283841133118,-4.060369968414307,1.4659781455993652
33.35,-7.453277111053467,-0.6414234042167664,-9.452567100524902,1.8269925117492676,-3.095414161682129,1.482164740562439
33.4,-4.818227767944336,-2.6033360958099365,-2.0595946311950684,0.19061803817749023,0.7778688669204712,1.9889448881149292
33.45,-1.8651692867279053,-2.170762777328491,3.2262003421783447,-1.1662297248840332,1.8045822381973267,1.8357737064361572
33.5,-1.4405194520950317,-2.3810436725616455,-0.3876694440841675,0.2776782810688019,0.6821190714836121,0.9117934107780457
33.55,-1.358138084411621,-3.7847418785095215,-0.7008041739463806,0.560522198677063,0.5453870892524719,0.24888873100280762
33.6,-0.7967309951782227,-2.5136044025421143,-1.0173288583755493,-0.18352502584457397,0.552623987197876,0.15800067782402039
33.65,0.12988412380218506,-0.4168539047241211,-0.5293242335319519,-0.7605867981910706,0.46322429180145264,0.06429778039455414
33.7,0.28525876998901367,-1.051667332649231,0.5421359539031982,-0.7386364936828613,0.30784690380096436,-0.1671660840511322
33.75,0.4513538181781769,-1.4070178270339966,0.09568608552217484,-0.6651520729064941,0.08902399986982346,-0.479206383228302
33.8,1.1823217868804932,-0.21121881902217865,0.0591265894472599,-0.5201252698898315,-0.09770002216100693,-0.7193494439125061
33.85,1.4826970100402832,0.5032968521118164,0.7842850685119629,-0.16302305459976196,-0.40147632360458374,-1.0239359140396118
33.9,1.5824553966522217,0.3026694059371948,1.732179045677185,0.21166346967220306,-0.7019689083099365,-1.2378233671188354
33.95,1.4827430248260498,-0.49301084876060486,2.7026238441467285,0.42878228425979614,-1.1033554077148438,-1.1909735202789307
34.0,0.7084329128265381,1.0983035564422607,2.900139808654785,0.7345929145812988,-1.8806489706039429,-1.2709659337997437
34.05,-0.6461641788482666,0.9034775495529175,1.8753011226654053,1.054002046585083,-2.5445563793182373,-1.3194981813430786
34.1,-0.708835244178772,-1.3345606327056885,1.0264723300933838,1.0890272855758667,-2.8428022861480713,-1.1965214014053345
34.15,-0.7693514823913574,-1.4867039918899536,-0.742340624332428,1.152373194694519,-2.898331880569458,-1.1126246452331543
34.2,-0.02107587456703186,-4.324672222137451,-0.9719383120536804,0.4359748661518097,-2.2299108505249023,-1.0007978677749634
34.25,-0.35719987750053406,-4.1946258544921875,0.7937050461769104,-0.8350661993026733,-1.4463454484939575,-1.3913089036941528
34.3,-4.561975955963135,2.2872519493103027,-3.541778564453125,-1.3623875379562378,-1.070688009262085,-1.1848406791687012
34.35,-7.009982585906982,6.846195697784424,-4.697312355041504,-0.7338461875915527,-0.05535861849784851,-0.9346904754638672
34.4,1.8742563724517822,6.899254322052002,-2.3488705158233643,0.9242532849311829,-0.5681878924369812,-1.9377998113632202
34.45,3.1075377464294434,3.5624144077301025,-5.324638843536377,1.6976654529571533,-0.6784642338752747,-0.7764120101928711
34.5,-1.4202446937561035,1.6014622449874878,-5.68018102645874,1.4399465322494507,1.318036675453186,0.23841173946857452
34.55,-4.467362880706787,0.03689700365066528,-3.9866387844085693,1.440079689025879,3.2368545532226562,0.41014936566352844
34.6,-7.724218368530273,-0.5226816534996033,0.6044315695762634,1.4937539100646973,4.766517162322998,0.7379310131072998
34.65,-7.096676826477051,-0.34244534373283386,5.249520778656006,1.5681581497192383,5.3496222496032715,0.8935402035713196
34.7,-1.403679370880127,-1.208802342414856,7.606096267700195,1.3931684494018555,5.813999652862549,1.0610439777374268
34.75,2.099020481109619,-1.5017365217208862,6.2745256423950195,1.1911108493804932,5.318592071533203,0.7670597434043884
34.8,0.628004789352417,-0.9900967478752136,4.5496110916137695,0.8269124627113342,4.53324031829834,0.2877824604511261
34.85,1.7930189371109009,-0.9495140314102173,4.7052388191223145,0.3932986259460449,4.503185749053955,0.38608384132385254
34.9,4.349796772003174,-1.2631866931915283,2.499340772628784,-0.02279425784945488,4.1429829597473145,-0.03625611960887909
34.95,3.8728344440460205,-0.18581591546535492,1.9936633110046387,-0.6585773825645447,3.402132987976074,-0.6216892004013062
35.0,4.196920394897461,0.43092748522758484,0.18949395418167114,-0.8704118728637695,3.2045228481292725,-0.6856034994125366
35.05,3.294738292694092,-0.4106491208076477,-0.9497131109237671,-0.894645631313324,3.0398120880126953,-0.673678457736969
35.1,2.5947375297546387,0.26717013120651245,-0.48922160267829895,-0.8544448614120483,2.902475118637085,-0.457492470741272
35.15,3.304002285003662,0.06277985870838165,-2.5314831733703613,-0.5178197622299194,3.013566255569458,-0.3432910144329071
35.2,2.6766233444213867,-1.9596257209777832,-5.244530200958252,-0.27231770753860474,2.5960023403167725,-0.2050195187330246
35.25,1.7875890731811523,-6.274058818817139,-9.686758041381836,-0.19388601183891296,1.5857927799224854,0.0983857810497284
35.3,2.908047676086426,-9.81859302520752,-15.020103454589844,-0.4047281742095947,-0.32060688734054565,1.1963939666748047
35.35,9.195246696472168,1.8100136518478394,-10.547926902770996,0.003064274787902832,-3.3742921352386475,2.8962619304656982
35.4,6.765024185180664,12.992703437805176,5.378090858459473,1.858020305633545,-6.679649353027344,3.054527521133423
35.45,-8.001222610473633,6.272400379180908,9.56788444519043,2.572498321533203,-7.341094970703125,1.6124991178512573
35.5,-3.1563634872436523,3.343775987625122,0.1404152512550354,2.6358344554901123,-1.8703542947769165,0.9816061854362488
35.55,2.202671527862549,2.706897020339966,0.05257448926568031,3.174164295196533,0.8976668119430542,2.96163272857666
35.6,-2.9567556381225586,0.37623292207717896,1.1328778266906738,2.5956308841705322,-1.6970046758651733,1.2548000812530518
35.65,-3.4588093757629395,-0.36791011691093445,4.456630229949951,2.4300119876861572,-1.2691537141799927,-0.8683423399925232
35.7,-1.8124572038650513,-3.301487445831299,7.061415195465088,2.5173988342285156,0.6389883756637573,0.5294272303581238
35.75,0.8186509609222412,-7.691169261932373,0.3060125410556793,1.3538140058517456,1.183564305305481,2.0494492053985596
35.8,-0.4667850732803345,0.6494861841201782,-4.564899444580078,0.1459345519542694,0.9640034437179565,1.7013684511184692
35.85,-3.61694073677063,9.64491081237793,1.0854130983352661,0.5689170360565186,0.8428082466125488,1.5046333074569702
35.9,-5.2150115966796875,4.173320293426514,6.34464693069458,0.48213526606559753,1.9954148530960083,1.0102424621582031
35.95,-1.3874492645263672,0.6219466924667358,4.986639499664307,-1.5308198928833008,3.4294841289520264,-0.9213593602180481
36.0,3.150749444961548,-4.812386989593506,-1.4232679605484009,-1.8168318271636963,2.8793067932128906,-2.489861249923706
36.05,-1.8427865505218506,-13.221738815307617,1.3229031562805176,-1.0906622409820557,2.6021230220794678,-1.1606180667877197
36.1,3.0837087631225586,-4.126706600189209,0.5637012124061584,-0.09372420608997345,3.542043685913086,0.5906105041503906
36.15,5.5176801681518555,5.2888898849487305,-4.013485908508301,-0.7919846773147583,2.7614119052886963,0.24778436124324799
36.2,-0.8994057774543762,-2.702009677886963,1.4570653438568115,-2.025731086730957,0.8357080817222595,-0.9587142467498779
36.25,-0.9130704402923584,0.5482513904571533,-1.8837265968322754,-1.4146618843078613,1.2194157838821411,0.265299916267395
36.3,-0.597385585308075,1.751285195350647,-2.918839693069458,-0.8607548475265503,1.0674091577529907,0.2045852541923523
36.35,0.4114852547645569,0.3657364845275879,-3.615200996398926,-0.16619059443473816,0.4977850914001465,-0.33698222041130066
36.4,-0.24489682912826538,-2.713038206100464,-3.3999416828155518,0.04460784047842026,-0.7314889430999756,-0.45054304599761963
36.45,-0.29728955030441284,-6.567623615264893,-1.0356301069259644,-0.8661792278289795,-1.9954800605773926,0.26608166098594666
36.5,3.4693777561187744,-1.1513506174087524,-3.199367046356201,-0.13078701496124268,-2.0285539627075195,1.5239964723587036
36.55,4.171451091766357,9.583646774291992,-2.5853726863861084,0.6337900161743164,-2.811964511871338,1.9948856830596924
36.6,0.0010509490966796875,8.844078063964844,2.4371376037597656,0.1944284737110138,-5.023815631866455,0.2734338343143463
36.65,-5.348570823669434,0.9339774250984192,4.786081790924072,0.5145853757858276,-5.584450721740723,-0.9135255813598633
36.7,-8.581668853759766,-2.1105544567108154,5.287219524383545,0.09587696939706802,-4.283278942108154,-0.5206130146980286
36.75,-6.044131278991699,-5.08230447769165,3.3225486278533936,-0.5265282392501831,-0.8850468397140503,0.7946823239326477
36.8,-0.1159510686993599,-4.990730285644531,-0.24918439984321594,-0.5588418841362,0.9266901016235352,1.189271330833435
36.85,0.6975871324539185,1.1889861822128296,-1.419323444366455,0.2958681583404541,0.40035268664360046,0.8397448658943176
36.9,0.6968438625335693,10.683694839477539,-1.0660221576690674,-0.13451744616031647,0.36081773042678833,0.8413943648338318
36.95,1.0671021938323975,8.272590637207031,-0.8716936707496643,-0.4848904013633728,-0.41077420115470886,-0.491360604763031
37.0,-4.021656513214111,-0.5671352744102478,1.9169533252716064,0.09859442710876465,-1.4310213327407837,-1.7553437948226929
37.05,-5.996753692626953,-1.72120201587677,4.927463531494141,0.08700376749038696,0.4379516541957855,-1.7459791898727417
37.1,0.666132926940918,-1.1549631357192993,3.8580281734466553,-0.021399736404418945,3.880154609680176,-1.450046420097351
37.15,4.9472784996032715,-1.427140235900879,0.8673450350761414,-0.6922187209129333,4.468455791473389,-1.0933603048324585
37.2,3.245537042617798,-2.2196855545043945,2.386317253112793,-1.73099684715271,2.864563226699829,-0.8835163116455078
37.25,0.5104346871376038,-2.140547752380371,1.9247359037399292,-2.0309581756591797,2.2038094997406006,-0.09364339709281921
37.3,-1.6502771377563477,-2.648902177810669,-0.1150347888469696,-1.7875759601593018,2.463921308517456,0.2978849411010742
37.35,0.06194639205932617,-6.055386066436768,3.057243824005127,-0.8581997156143188,2.7574856281280518,-0.426753968000412
37.4,2.9830687046051025,3.8927555084228516,-2.338547945022583,-0.49502310156822205,3.5334155559539795,-0.4627147614955902
37.45,0.2204887866973877,10.775629997253418,-6.094859600067139,-0.9116522073745728,2.544598340988159,-0.04433639347553253
37.5,-1.2739065885543823,0.7010082602500916,-3.4922122955322266,-0.5289609432220459,0.6038870215415955,-0.19361509382724762
37.55,0.6028822660446167,-2.7949135303497314,-7.797435760498047,1.7583271265029907,0.4708731174468994,-0.8525577187538147
37.6,0.5228487253189087,1.606484293937683,-4.921504974365234,2.8141422271728516,-0.8304021954536438,-0.7664677500724792
37.65,-0.5906539559364319,2.212207555770874,3.066539764404297,2.4475035667419434,-1.7616181373596191,-1.0748295783996582
37.7,-2.0969793796539307,-2.4386022090911865,3.2017173767089844,3.1988701820373535,-0.10716810077428818,-0.9113638997077942
37.75,-1.879078984260559,-1.5817453861236572,-0.6409441232681274,2.659313678741455,0.6681662797927856,0.16824570298194885
37.8,-1.9386870861053467,-0.018930763006210327,2.1605124473571777,1.085538625717163,-0.18938247859477997,0.23965230584144592
37.85,-1.3219423294067383,-0.6520664691925049,0.9491155743598938,0.3850458562374115,-0.00487781735137105,0.09362511336803436
37.9,-1.1938939094543457,-1.4863080978393555,-0.9961817860603333,0.2934282720088959,0.43673133850097656,0.08455102890729904
37.95,-1.2123969793319702,0.12658216059207916,-0.45675376057624817,-0.1295061707496643,0.2651103436946869,0.188664972782135
38.0,0.35903608798980713,1.3927282094955444,-1.7460219860076904,-0.5742146968841553,0.2606102228164673,0.2903762757778168
38.05,2.481815814971924,0.5169747471809387,-1.1665215492248535,-0.6373693943023682,-0.07862081378698349,0.20105767250061035
38.1,2.897510528564453,-0.10685136169195175,-1.007479190826416,-0.5135158896446228,-0.3531646132469177,0.3428720533847809
38.15,1.3841218948364258,-1.0787543058395386,-1.921223759651184,-0.4962405562400818,-0.534919023513794,0.38852667808532715
38.2,-0.45744237303733826,-2.144373893737793,-1.233436942100525,-0.44006168842315674,-0.8418249487876892,0.17268024384975433
38.25,-0.8025420904159546,-0.9267416000366211,-1.1854385137557983,-0.2737942337989807,-0.7599408030509949,0.13940492272377014
38.3,-0.1615046113729477,0.2643643319606781,-0.6375877261161804,-0.08922722935676575,-0.4997788965702057,0.08473718911409378
38.35,-0.36471322178840637,-0.3126603066921234,0.3575609028339386,0.18607941269874573,-0.12871390581130981,0.1030212789773941
38.4,-1.0566558837890625,0.6628636717796326,0.7774311900138855,0.5744521617889404,0.24784763157367706,0.4172689616680145
38.45,-1.6600871086120605,2.402475357055664,1.4903805255889893,0.4649279713630676,0.16733318567276,0.5535444021224976
38.5,-1.7936707735061646,3.7456045150756836,2.609928846359253,0.09011462330818176,-0.03475677967071533,0.335599809885025
38.55,-1.015009880065918,5.085698127746582,2.865537166595459,-0.03791205585002899,0.20923039317131042,0.04453771188855171
38.6,0.9969264268875122,5.929625034332275,1.776086449623108,-0.3658267557621002,0.5436521768569946,0.22447752952575684
38.65,2.265289545059204,2.2756617069244385,-0.05711456015706062,-0.6240545511245728,0.4974473714828491,0.3818889558315277
38.7,1.4715251922607422,-3.4103713035583496,0.2544279098510742,-0.1571802943944931,0.20829688012599945,0.04185856133699417
38.75,0.23250268399715424,-3.605255126953125,-0.2268131673336029,0.5423055291175842,0.24753402173519135,-0.11609908938407898
38.8,-0.39684176445007324,-0.7847203016281128,-1.9976856708526611,0.48050859570503235,0.13477350771427155,0.0005483048153109848
38.85,-2.514756202697754,-1.1765834093093872,-0.5395879745483398,-0.09778565168380737,-0.41477322578430176,-0.04153870791196823
38.9,-4.302760124206543,-1.4843162298202515,0.7513956427574158,-0.4820619225502014,-0.4670514464378357,0.15151435136795044
38.95,-3.9186668395996094,0.44882291555404663,-0.34169965982437134,-0.5556745529174805,0.009860498830676079,0.4787665605545044
39.0,-3.07279372215271,1.4419879913330078,-0.21883642673492432,-0.5294009447097778,0.11170497536659241,0.4184705913066864
39.05,-2.3185877799987793,0.6177816390991211,-0.0407060831785202,-0.7427019476890564,0.039472248405218124,0.19556301832199097
39.1,-1.3071849346160889,1.1147453784942627,-1.2978618144989014,-0.6375961303710938,0.30221647024154663,-0.027555517852306366
39.15,0.8413408994674683,1.712011694908142,-0.9032814502716064,-0.22841790318489075,0.40640467405319214,-0.49368947744369507
39.2,2.864368200302124,-0.4567946195602417,-0.46242767572402954,0.05213157832622528,0.08654991537332535,-0.6839202642440796
39.25,2.2530903816223145,-3.32399320602417,-0.01643024943768978,0.9253661036491394,-0.509604275226593,-0.5268998742103577
39.3,0.3612179756164551,-4.777444362640381,0.3311212658882141,2.1921699047088623,-0.8675683736801147,-0.4005582928657532
39.35,-0.2673484683036804,2.4654295444488525,-0.5952668786048889,2.3103692531585693,-1.0736722946166992,0.1984158605337143
39.4,0.17115765810012817,6.629354476928711,0.08485465496778488,-0.02502441592514515,-1.854583501815796,-5.359044735087082e-05
39.45,0.27995237708091736,1.9444838762283325,0.8567308187484741,-1.6966155767440796,-2.3397724628448486,-0.4819648265838623
39.5,-0.9824427962303162,-0.1462431252002716,-0.13254407048225403,-1.589648962020874,-2.1178572177886963,-0.057581596076488495
39.55,-2.489837169647217,0.2240278422832489,-2.343575954437256,-1.3573346138000488,-1.8848954439163208,-0.1356041133403778
39.6,6.4313507080078125,-3.6993467807769775,-7.17848014831543,-1.1017510890960693,-2.4559056758880615,-1.5591014623641968
39.65,14.210124969482422,-6.717727184295654,-0.38543832302093506,-0.8421787619590759,-5.219247341156006,-1.469386339187622
39.7,-5.488394260406494,-2.1622822284698486,13.534745216369629,-1.0187313556671143,-9.160263061523438,-1.1385149955749512
39.75,-18.56068992614746,1.174018383026123,7.30881404876709,-1.8408700227737427,-5.388510704040527,0.3237501382827759
39.8,-5.121071815490723,4.5898895263671875,2.225355625152588,-2.736760377883911,2.350020408630371,0.7324934601783752
39.85,4.296534538269043,4.754574775695801,-2.452779769897461,-1.94521164894104,2.868403196334839,-1.2908848524093628
39.9,2.91745662689209,1.246350646018982,-0.5814383029937744,-0.9207908511161804,-0.7716947793960571,-2.7338695526123047
39.95,-2.985274314880371,0.7157609462738037,1.7554744482040405,-0.5760926604270935,-2.4661190509796143,-2.381808280944824
40.0,-3.0890820026397705,0.23790046572685242,1.5689877271652222,-0.2604711353778839,-0.6338467001914978,-1.5767691135406494
40.05,0.8220567107200623,-0.5798856616020203,1.2683552503585815,0.2813299596309662,0.9822937250137329,-1.112128496170044
40.1,0.8335148096084595,-0.39110198616981506,0.9176799058914185,0.03632345795631409,0.4827636778354645,-0.8600855469703674
40.15,0.35244813561439514,-0.672150731086731,0.8123929500579834,-0.2931617200374603,0.10674463957548141,-0.6730365753173828
40.2,0.19792741537094116,-1.0087271928787231,0.37425559759140015,-0.40529823303222656,0.14182502031326294,-0.39895084500312805
40.25,-0.03360501304268837,-0.020928367972373962,-0.15128079056739807,-0.47331589460372925,0.1089189425110817,-0.10448506474494934
40.3,0.5952452421188354,0.24974733591079712,-0.02766050398349762,-0.3983209729194641,0.1084590032696724,0.0643671452999115
40.35,0.20871785283088684,0.5468349456787109,0.37537088990211487,-0.41973933577537537,-0.13049818575382233,0.21359480917453766
40.4,-0.7978209853172302,0.35115137696266174,0.7620024085044861,-0.34986716508865356,-0.1345059871673584,0.39840686321258545
40.45,-0.41036659479141235,-0.1363126039505005,0.754855215549469,-0.31249305605888367,-0.03953689709305763,0.5778729915618896
40.5,0.2329317033290863,0.5422192215919495,0.016342777758836746,-0.3907807469367981,-0.09993696212768555,0.7035908102989197
40.55,-0.6117737293243408,1.3049603700637817,0.13592621684074402,-0.17554230988025665,-0.27908557653427124,0.7863525152206421
40.6,-1.484299898147583,1.0156337022781372,0.008365845307707787,0.08614926040172577,-0.4715243875980377,0.656096875667572
40.65,-1.5377857685089111,0.6221122741699219,0.018533634021878242,0.15781861543655396,-0.8357794284820557,0.16809512674808502
40.7,-2.2839810848236084,-0.4464990496635437,0.2310178279876709,0.2307850867509842,-0.9988418817520142,-0.31247323751449585
40.75,-2.3358473777770996,-0.2720966935157776,-0.5015074610710144,0.342829167842865,-0.4007010757923126,-0.47423508763313293
40.8,0.10951544344425201,0.1531115472316742,-0.6198351383209229,0.45352888107299805,0.6659483909606934,-0.4057207405567169
40.85,0.765357494354248,-1.1191350221633911,0.24257490038871765,0.35438376665115356,0.5978317856788635,-0.28027158975601196
40.9,-0.7360957264900208,-1.0947506427764893,0.5513665676116943,0.04134224355220795,-0.23098818957805634,-0.24095986783504486
40.95,-0.9711964726448059,-0.20307449996471405,-0.19374750554561615,0.1572342813014984,0.01838272251188755,-0.14272482693195343
41.0,0.32918161153793335,-0.48025888204574585,-0.9695470333099365,0.40328261256217957,0.688227653503418,-0.02540474198758602
41.05,0.04575745761394501,-0.6124524474143982,-0.9457010626792908,-0.029974661767482758,0.08888299763202667,0.002909994451329112
41.1,-1.0932689905166626,-0.5706129670143127,-0.42655253410339355,-0.4481791853904724,-0.32159605622291565,-0.05567562207579613
41.15,-0.6209701895713806,-0.37499624490737915,-0.014698863960802555,-0.3299768269062042,-0.03236053138971329,-0.07733780890703201
41.2,0.28168803453445435,-1.0793373584747314,1.185117244720459,-0.3380339741706848,-0.040682386606931686,-0.03458781912922859
41.25,-0.5506145358085632,-0.2399761974811554,1.8201042413711548,-0.5523983240127563,-0.37431830167770386,0.14825357496738434
41.3,0.06207886338233948,1.3214435577392578,1.2824535369873047,-0.4670068621635437,0.10666552931070328,0.4071793854236603
41.35,0.9582015872001648,1.2629996538162231,0.3338436186313629,-0.3794004023075104,0.29579871892929077,0.517553985118866
41.4,-0.04678778722882271,1.2345725297927856,0.17854918539524078,-0.35234713554382324,-0.2947643995285034,0.5781258940696716
41.45,-0.5412523746490479,0.9084044098854065,0.5764991044998169,-0.04795558750629425,-0.6475979089736938,0.5582329034805298
41.5,-1.4435341358184814,0.6778191924095154,0.7416983246803284,0.10118008404970169,-0.9386429190635681,0.405444473028183
41.55,-3.564077138900757,1.5376672744750977,0.7870930433273315,0.09766470640897751,-1.359036922454834,0.04546737298369408
41.6,-4.3636603355407715,1.363930583000183,0.9896935820579529,0.3160419464111328,-0.8756387233734131,-0.37856152653694153
41.65,-3.3268866539001465,1.2972010374069214,0.9735307097434998,0.48302868008613586,0.709415078163147,-0.6303947567939758
41.7,-3.300079345703125,2.4920578002929688,0.15441472828388214,0.3334925174713135,2.337693452835083,-0.6824946403503418
41.75,-2.0505990982055664,1.400501012802124,2.62784481048584,0.5838151574134827,3.0368967056274414,-0.8615785241127014
41.8,-0.8838052749633789,-0.5971658229827881,5.228817462921143,0.8498135805130005,3.3954849243164062,-0.9837692379951477
41.85,2.6859583854675293,-4.55541467666626,5.401297092437744,1.6560025215148926,4.385280609130859,-1.058302879333496
41.9,7.126381874084473,-8.352537155151367,-3.453643321990967,2.979037284851074,5.412962436676025,-0.93567955493927
41.95,3.4015872478485107,-2.8208978176116943,-11.920493125915527,3.5985653400421143,4.708322525024414,0.3577980101108551
42.0,-0.2556419372558594,4.1329731941223145,-9.757096290588379,3.3558385372161865,1.4475816488265991,0.9837347269058228
42.05,-1.1800769567489624,7.8453850746154785,-2.9330482482910156,2.7461869716644287,-1.0654202699661255,-0.5544583201408386
42.1,-3.7681052684783936,9.139487266540527,4.312407493591309,2.171464204788208,-0.5035300254821777,-1.9357737302780151
42.15,0.5085579752922058,4.190529823303223,2.2631640434265137,3.2592380046844482,3.1130034923553467,-1.4256614446640015
42.2,5.380124568939209,1.7607314586639404,-1.9165918827056885,3.084604024887085,2.6504602432250977,-1.4409717321395874
42.25,4.28717041015625,0.8565830588340759,-1.2184051275253296,1.6962976455688477,0.17539262771606445,-2.4133176803588867
42.3,2.016375780105591,-0.9508276581764221,0.3368115723133087,0.3511888384819031,-1.370646595954895,-3.42797589302063
42.35,0.8220932483673096,-2.3961305618286133,2.583332061767578,0.051711201667785645,-1.3195098638534546,-3.738348960876465
42.4,0.5514106154441833,-3.0614020824432373,2.8161165714263916,1.1261951923370361,-0.43737080693244934,-3.023247480392456
42.45,0.16342397034168243,-1.7189620733261108,0.7748367786407471,1.7371511459350586,0.03470278158783913,-1.9679152965545654
42.5,0.8444814085960388,-0.6640977263450623,-0.9481076598167419,1.0107148885726929,0.44237038493156433,-1.7184101343154907
42.55,0.19960567355155945,-0.6814870834350586,-0.37178751826286316,0.051326632499694824,0.8682873249053955,-2.1526925563812256
42.6,-0.31838783621788025,-1.028152585029602,0.018211163580417633,-0.13536733388900757,1.1338928937911987,-2.502288579940796
42.65,-0.8727932572364807,-1.3941909074783325,-0.2280513495206833,0.07441556453704834,1.2978852987289429,-2.3105885982513428
42.7,-0.7067258358001709,-1.718766450881958,-0.5162261724472046,0.3964628577232361,1.2393770217895508,-2.0096547603607178
42.75,-1.6080763339996338,-1.3990050554275513,-0.8850693106651306,0.4526279866695404,1.0689104795455933,-1.765859603881836
42.8,-2.0813891887664795,-1.5287067890167236,-0.6795244216918945,0.4239114224910736,0.7295964956283569,-1.439624547958374
42.85,-1.7638050317764282,-2.068016290664673,-1.2481961250305176,0.3552408814430237,0.10863173753023148,-1.0902210474014282
42.9,-1.9020500183105469,-0.2621268033981323,-1.9645507335662842,0.13466587662696838,-0.8705714344978333,-0.30784255266189575
42.95,-0.14434358477592468,1.3525925874710083,-0.26911628246307373,-0.16580067574977875,-1.8073527812957764,0.6325236558914185
43.0,0.9818002581596375,1.709636926651001,0.32219398021698,-0.04398682713508606,-2.642758369445801,1.0667721033096313
43.05,1.5322070121765137,1.5066139698028564,0.8454404473304749,-0.02372950315475464,-2.786172866821289,1.0285876989364624
43.1,1.679930329322815,1.3024492263793945,1.28127920627594,-0.37265050411224365,-1.8830550909042358,0.736383318901062
43.15,0.19069412350654602,1.6168004274368286,0.8410573601722717,-0.6809349656105042,-0.6483815312385559,-0.058468449860811234
43.2,-0.4723764657974243,-0.0015994519926607609,1.0428951978683472,-0.8037747740745544,0.17815901339054108,-0.5699586272239685
43.25,-0.7356412410736084,-1.8785457611083984,1.4197032451629639,-0.5733240246772766,0.3976345360279083,-0.5158249735832214
43.3,-0.4554905295372009,-1.4670116901397705,0.47010910511016846,-0.02001876011490822,0.4478832483291626,-0.09930650144815445
43.35,0.2869127094745636,-0.6442556381225586,-0.6664575934410095,0.3551764190196991,0.674134373664856,0.09804587066173553
43.4,0.6784443855285645,-0.7072115540504456,0.42277517914772034,0.3340674340724945,0.7242920994758606,0.03319970518350601
43.45,0.6450298428535461,-0.563233494758606,0.516832709312439,0.41718119382858276,0.6977802515029907,-0.039058323949575424
43.5,0.15098924934864044,-0.09177115559577942,0.24276964366436005,0.39166152477264404,0.9224724769592285,-0.2111380696296692
43.55,-0.7200413942337036,0.25638383626937866,0.528030276298523,0.3119910955429077,1.3382312059402466,-0.48780062794685364
43.6,-1.0802266597747803,0.7219172120094299,-0.15884387493133545,0.40511763095855713,1.468194603919983,-0.36533111333847046
43.65,-0.42161357402801514,0.2972784638404846,-0.4477585554122925,0.5243463516235352,1.2563079595565796,-0.3184654414653778
43.7,0.5331224203109741,-1.3141897916793823,-1.826742172241211,0.5393056869506836,0.7472067475318909,-0.5746031999588013
43.75,0.10547339916229248,-2.042181968688965,-1.5154106616973877,0.4051245450973511,0.0804673284292221,-0.5827372670173645
43.8,-1.1474329233169556,-1.6497670412063599,-1.2239234447479248,0.04632299020886421,-0.3725360035896301,-0.3196588456630707
43.85,-2.3726646900177,-0.6631690263748169,-0.51022869348526,-0.21202892065048218,-0.4975835382938385,0.24438965320587158
43.9,-1.522517204284668,-1.6385903358459473,1.6684309244155884,-0.14012378454208374,-1.1581814289093018,1.2789517641067505
43.95,0.5634649991989136,-4.84922981262207,1.6088639497756958,1.375117540359497,-2.364995002746582,2.7423293590545654
44.0,6.977330207824707,-9.988502502441406,3.165648937225342,2.8477859497070312,-2.030268907546997,4.492973327636719
44.05,18.421682357788086,-3.8753228187561035,6.741914749145508,3.129356861114502,1.8473327159881592,7.655519962310791
44.1,20.279447555541992,12.9625244140625,-0.8619311451911926,1.6646099090576172,5.075502872467041,8.970874786376953
44.15,9.056408882141113,16.069347381591797,-9.963874816894531,0.1672685146331787,6.538566589355469,8.730646133422852
44.2,-7.416055679321289,7.4902472496032715,-14.229604721069336,-0.4396554231643677,6.580356597900391,6.621865272521973
44.25,-10.987619400024414,-2.0377280712127686,-7.9677863121032715,-0.009449124336242676,3.7988736629486084,6.32195520401001
44.3,-5.724516868591309,-3.2897303104400635,-3.7892990112304688,2.855681896209717,3.097268581390381,4.517235279083252
44.35,-5.4304280281066895,1.6062300205230713,-2.1294174194335938,2.6906909942626953,5.859130382537842,0.9835380911827087
44.4,-12.264205932617188,2.0289106369018555,5.838059902191162,-0.18260948359966278,8.638708114624023,0.18064795434474945
44.45,-3.6295461654663086,0.92827969789505,9.70897388458252,-0.3869330585002899,6.729186058044434,0.7526594996452332
44.5,0.7806622982025146,0.6703464984893799,6.894171237945557,0.652867317199707,2.7631826400756836,0.8295360207557678
44.55,-0.32841360569000244,-0.9534957408905029,4.895496845245361,0.3461991250514984,0.8311413526535034,1.2221554517745972
44.6,-1.2547624111175537,-3.104665756225586,3.5598440170288086,-0.5653696060180664,0.5680168867111206,1.148337483406067
44.65,-1.4735268354415894,-3.291243553161621,3.853149652481079,-1.2824236154556274,1.1597905158996582,0.2250063419342041
44.7,-0.4989438056945801,-1.5603998899459839,4.7081193923950195,-1.9213752746582031,1.5667805671691895,-0.722041666507721
44.75,2.488983154296875,0.8830192685127258,3.4048566818237305,-2.4556989669799805,1.6477209329605103,-1.3836092948913574
44.8,2.331301689147949,0.6338320970535278,0.14879925549030304,-1.435603380203247,0.14831231534481049,-1.5118781328201294
44.85,1.01703941822052,1.9784232378005981,0.9680647850036621,0.4129176139831543,-1.598265528678894,-1.0341689586639404
44.9,0.5340425968170166,-0.01180060300976038,-1.232741117477417,0.5368865728378296,-1.685642123222351,-0.6805582046508789
44.95,1.8473494052886963,1.7199816703796387,-1.093264102935791,0.9167048931121826,-1.2081412076950073,-0.7711465358734131
45.0,0.056894123554229736,-0.2685626149177551,2.396860122680664,1.4321553707122803,-1.3541446924209595,-0.03954513743519783
45.05,0.0729435533285141,2.2975637912750244,-0.9208106398582458,2.205235242843628,-2.821791648864746,-0.20029418170452118
45.1,0.8394560217857361,3.84350848197937,-1.3760567903518677,1.6671383380889893,-1.8836344480514526,-0.019516341388225555
45.15,-0.3305104076862335,-0.6187640428543091,0.29301130771636963,0.4104193449020386,0.36819279193878174,0.6331589818000793
45.2,0.33707427978515625,-0.8508782982826233,3.8673489093780518,0.0020062923431396484,1.0579931735992432,0.5831500291824341
45.25,-0.21449166536331177,-1.019486904144287,2.587967872619629,0.16647431254386902,-0.08813416212797165,0.3036351203918457
45.3,0.3103218972682953,0.18183231353759766,0.2519962191581726,0.2348768413066864,-0.7091588377952576,-0.0770798772573471
45.35,0.44337350130081177,0.46636298298835754,0.39114442467689514,0.03846888989210129,-0.35547521710395813,-0.07536239922046661
45.4,0.013830751180648804,0.30231085419654846,0.9979492425918579,0.023731805384159088,-0.2814907133579254,-0.1155276745557785
45.45,-0.10005566477775574,0.6564321517944336,0.6341285109519958,0.0776858702301979,-0.39198747277259827,-0.29375123977661133
45.5,0.27786535024642944,0.06451982259750366,0.6940456628799438,-0.06653839349746704,0.010167133994400501,-0.3735276758670807
45.55,2.2370405197143555,-0.32679566740989685,1.2862937450408936,-0.2367592751979828,0.49889227747917175,-0.37361112236976624
45.6,0.8215171694755554,-0.6960700750350952,2.7265748977661133,-0.13706587255001068,-0.03363610431551933,-0.23562541604042053
45.65,-0.21222922205924988,0.7728119492530823,0.3860979974269867,0.16564428806304932,-1.5341897010803223,-0.17243850231170654
45.7,-0.10598325729370117,0.8008617162704468,-2.0393784046173096,0.13686256110668182,-1.4512156248092651,-0.05870884284377098
45.75,0.887286365032196,-0.24133555591106415,-2.6829636096954346,0.11199768632650375,-0.49808838963508606,0.0691177248954773
45.8,-1.004582166671753,0.5655420422554016,1.9440466165542603,0.15111346542835236,0.35513946413993835,0.509035587310791
45.85,-0.6772034764289856,0.11809413880109787,2.505608320236206,-0.12559136748313904,0.2787868082523346,0.5754910111427307
45.9,-1.1976726055145264,0.6841237545013428,1.9085785150527954,-0.3485530614852905,-0.3577434718608856,0.28637197613716125
45.95,-0.30965256690979004,1.0100222826004028,-0.5279015898704529,-0.2947083115577698,-0.8485566973686218,-0.39432454109191895
46.0,-0.7521193027496338,-0.8860203623771667,-3.688605785369873,-0.18884222209453583,-0.8917626738548279,-0.5221983790397644
46.05,-1.0072948932647705,-0.918668806552887,-8.851180076599121,0.5824978351593018,-0.3343769609928131,-0.35015150904655457
46.1,-4.519529342651367,2.454192876815796,-6.061384677886963,-0.2865200936794281,3.5494637489318848,0.1555682271718979
46.15,-2.7940120697021484,-0.13523946702480316,5.986581802368164,-1.3596842288970947,6.936183452606201,0.7809672355651855
46.2,3.4119112491607666,5.852524757385254,-3.0069570541381836,-1.5729241371154785,4.352351665496826,0.7123835682868958
46.25,-5.063824653625488,4.330695152282715,-5.916730880737305,0.3981372117996216,3.6544301509857178,2.3922293186187744
46.3,0.09209275245666504,0.18771152198314667,10.140283584594727,1.3945338726043701,5.9962944984436035,2.337205410003662
46.35,5.153324127197266,-4.018558025360107,3.1115174293518066,2.105976104736328,3.2459654808044434,1.4340630769729614
46.4,2.891084671020508,0.8553098440170288,-0.8436928987503052,1.9455540180206299,2.11979079246521,0.28553709387779236
46.45,4.835757732391357,-6.646383762359619,4.12404727935791,1.219396948814392,2.408844232559204,0.7852372527122498
46.5,3.9064841270446777,-7.41757345199585,3.448911666870117,0.45341378450393677,0.9127407670021057,-1.7530039548873901
46.55,-3.3032824993133545,-0.48163899779319763,-0.8692975640296936,-0.7242472171783447,0.5621235966682434,-2.2288217544555664
46.6,-0.21177953481674194,0.14585468173027039,2.369241714477539,-1.424767017364502,2.3502190113067627,0.36435648798942566
46.65,4.049441337585449,0.38403698801994324,2.1357603073120117,-1.366957426071167,3.135103702545166,1.5263293981552124
46.7,1.9009820222854614,0.7462950348854065,0.580520510673523,-1.5150001049041748,1.5983048677444458,0.16967056691646576
46.75,1.9714205265045166,1.5607609748840332,-0.993257462978363,-1.3408584594726562,1.4524815082550049,0.23161450028419495
46.8,4.143704414367676,0.8263822197914124,-2.2334179878234863,-0.9338181614875793,1.37046217918396,0.08810903877019882
46.85,3.3287181854248047,0.8805364370346069,-0.8028950691223145,-0.11945930868387222,0.3188033699989319,-0.29432880878448486
46.9,1.6674140691757202,-1.0110894441604614,0.25188690423965454,0.3002621531486511,-0.41500017046928406,-0.04836621880531311
46.95,-0.8150498867034912,1.9430384635925293,-2.428209066390991,0.306957483291626,-0.7904070019721985,-0.039710164070129395
47.0,0.11610108613967896,0.11672624945640564,-2.660994291305542,0.7632858157157898,-0.626160204410553,0.2507328391075134
47.05,1.833526611328125,1.654557704925537,-1.1998504400253296,0.9720955491065979,-0.2726040184497833,0.6133813261985779
47.1,1.7267706394195557,4.667863368988037,-0.18619830906391144,0.970679521560669,-0.22145868837833405,0.941640317440033
47.15,-1.2192926406860352,9.333921432495117,-0.05644930899143219,1.6599208116531372,-0.6676107048988342,1.0673860311508179
47.2,-4.341285228729248,3.544692039489746,3.2871158123016357,2.912214756011963,0.00861970242112875,1.6767693758010864
47.25,-3.6174864768981934,-0.9592731595039368,4.626561164855957,2.418940305709839,0.39428073167800903,1.7171669006347656
47.3,-1.2498795986175537,-8.554369926452637,2.9393832683563232,1.8106075525283813,0.26220574975013733,0.28040239214897156
47.35,-4.6826395988464355,-2.96384596824646,1.5916495323181152,0.35594993829727173,0.48417627811431885,-1.102305293083191
47.4,1.3326598405838013,-0.3239871859550476,1.7801518440246582,-0.2998408079147339,2.067305326461792,1.240626335144043
47.45,6.691394805908203,-1.2793517112731934,-2.6753599643707275,-0.4234545826911926,2.481795310974121,2.1004245281219482
47.5,0.8158032894134521,-1.058882713317871,-0.6842106580734253,-0.6667616367340088,0.7125718593597412,0.5569035410881042
47.55,1.6302659511566162,-1.0013381242752075,0.5974820256233215,-0.5806934833526611,0.5925518870353699,0.7191609740257263
47.6,0.5498901605606079,-0.19899094104766846,0.9886611700057983,-0.8365113735198975,0.5163576006889343,0.7208349704742432
47.65,1.1370640993118286,-0.8421118855476379,1.6827436685562134,-0.956463098526001,0.4736686944961548,0.7313822507858276
47.7,2.1673617362976074,-0.8578498363494873,-2.311838388442993,-1.661834716796875,-0.3050941824913025,-0.44047781825065613
47.75,-1.0797085762023926,2.638526439666748,-1.6743072271347046,-1.384556770324707,-1.1881964206695557,-1.206189751625061
47.8,2.9847910404205322,4.385686874389648,-1.5531986951828003,-0.08004899322986603,-0.19348791241645813,0.3276381194591522
47.85,0.6517390012741089,4.304249286651611,0.9721927642822266,0.6980813145637512,-1.3714865446090698,0.0609525702893734
47.9,-2.362163782119751,-0.29797089099884033,0.011159145273268223,1.0215044021606445,-1.9439254999160767,-0.7732914686203003
47.95,-1.797567367553711,-3.6676526069641113,-0.41085758805274963,1.3119488954544067,-1.0981084108352661,-0.9219714999198914
48.0,-3.032541275024414,-2.597355604171753,-0.9151013493537903,1.7824677228927612,-0.49915340542793274,-0.011861028149724007
48.05,-0.6071791052818298,-1.2084811925888062,1.6682263612747192,1.6189910173416138,0.7411853671073914,1.6710203886032104
48.1,3.6191372871398926,5.160630702972412,0.2364553064107895,1.2720412015914917,1.5070427656173706,2.111745595932007
48.15,2.00986385345459,4.305263042449951,1.2542998790740967,0.9581653475761414,0.8105520009994507,0.441805362701416
48.2,-7.195236682891846,-0.43089088797569275,3.9554390907287598,-0.29081422090530396,-0.22690194845199585,-1.9020094871520996
48.25,2.994030475616455,1.9434775114059448,4.260297775268555,-2.2693471908569336,0.3020189106464386,-0.31726548075675964
48.3,-5.1302103996276855,3.7157833576202393,0.4795348346233368,-2.230692148208618,-0.7694957852363586,-0.8354657292366028
48.35,-1.2193785905838013,4.350996971130371,-3.0936686992645264,-1.1006842851638794,-0.38125085830688477,0.26161596179008484
48.4,1.4652403593063354,1.056805968284607,-1.9831041097640991,0.39473557472229004,-0.39109182357788086,0.06235235929489136
48.45,-1.516002893447876,-3.4948532581329346,-2.9894015789031982,0.834406316280365,-0.24824237823486328,-0.08860380947589874
48.5,-0.25468921661376953,0.5150061845779419,-0.35956326127052307,0.6372424364089966,1.0460352897644043,0.8984287977218628
48.55,2.6211001873016357,-0.0274199265986681,-0.17653995752334595,0.23700815439224243,1.0038738250732422,0.7543201446533203
48.6,2.0410869121551514,-0.39278867840766907,-1.6497764587402344,0.6467771530151367,0.3219156563282013,-0.25591644644737244
