Time [s],Acc_x [m/s^2],Acc_y [m/s^2],Acc_z [m/s^2],Gyro_x [1/s],Gyro_y [1/s],Gyro_z [1/s]
0.0,0.05004718899726868,0.05877208709716797,0.0942491814494133,0.0004906314425170422,-0.027761079370975494,0.02279645949602127
0.05,-0.0051227230578660965,0.05002880468964577,0.04614118114113808,-0.00926908664405346,-0.03090054541826248,0.016866423189640045
0.1,-0.04714835062623024,0.09699726849794388,0.03829038515686989,0.0028580317739397287,-0.04089494049549103,0.00805352907627821
0.15,-0.12028366327285767,0.04199599847197533,0.03612518310546875,-0.007960731163620949,-0.027401775121688843,0.010820931755006313
0.2,-0.10159485787153244,0.026766780763864517,-0.03236163780093193,-0.015854544937610626,-0.018728891387581825,-0.01075257919728756
0.25,-0.05020635575056076,0.045237548649311066,-0.05464198812842369,-0.011037570424377918,-0.012581593357026577,-0.01654675602912903
0.3,-0.05944651737809181,0.0031566661782562733,-0.052464570850133896,-0.0027009935583919287,-0.01091008074581623,-0.01026144064962864
0.35,0.011757079511880875,0.0680999830365181,-0.018119176849722862,0.007146886084228754,-0.01710326597094536,-0.022013327106833458
0.4,0.0009231857256963849,0.1264181286096573,-0.0012483723694458604,-0.00011361716315150261,-0.0053414832800626755,-0.013896123506128788
0.45,-0.03063162975013256,0.12559892237186432,-0.03385177627205849,-0.003550032852217555,-0.0012554809218272567,-0.005328226834535599
0.5,0.019362352788448334,0.1171417385339737,-0.013816430233418941,0.008772376924753189,-0.013146626763045788,-0.009287211112678051
0.55,-0.0041122580878436565,0.10972882062196732,0.03659059852361679,0.005482817534357309,-0.009299431927502155,0.007341708987951279
0.6,-0.05504050478339195,0.10931016504764557,-0.019401924684643745,-0.012168403714895248,0.0056668431498110294,0.013963133096694946
0.65,-0.04079729691147804,0.11951925605535507,-0.06372770667076111,-0.008388902992010117,0.008347414433956146,0.004714552313089371
0.7,-0.038230374455451965,0.08402825146913528,-0.030270788818597794,0.0034502753987908363,0.011758294887840748,0.0053794002160429955
0.75,0.00187337351962924,0.1103382259607315,0.00787337776273489,0.016262900084257126,0.004904158879071474,-0.003407105104997754
0.8,0.02489633299410343,0.1425619274377823,0.0260258037596941,0.014750197529792786,0.0061635966412723064,-0.003988048527389765
0.85,0.017734469845891,0.14142419397830963,0.014271274209022522,0.006863891612738371,0.007995900698006153,0.00236313184723258
0.9,-0.0179999228566885,0.10647869855165482,0.03806481882929802,0.01892814040184021,-0.010432261973619461,0.0003214870812371373
0.95,-0.0404856838285923,-0.03415967896580696,0.10234301537275314,0.02225610986351967,-0.0374552384018898,0.01127269584685564
1.0,-0.0948171317577362,-0.04761126637458801,0.17069946229457855,-0.008501583710312843,-0.04058545455336571,0.012467682361602783
1.05,-0.298129677772522,0.004867515992373228,0.2306598722934723,-0.07388094067573547,0.005765520501881838,0.007587048225104809
1.1,-0.4244500994682312,-0.07144932448863983,0.18506011366844177,-0.20967888832092285,0.1087341234087944,-0.02626734785735607
1.15,-0.20855824649333954,-0.007792470045387745,-0.10198577493429184,-0.3026234805583954,0.12597326934337616,-0.12705768644809723
1.2,0.05753500387072563,0.09133630245923996,-0.3482966125011444,-0.23564469814300537,0.03628331422805786,-0.15931808948516846
1.25,0.05873702093958855,0.19216924905776978,-0.2735663652420044,-0.10391394048929214,-0.009715611115098,-0.08887046575546265
1.3,0.0814647227525711,0.36316683888435364,-0.06434843689203262,-0.02411511167883873,0.014053079299628735,-0.04654426500201225
1.35,0.13301150500774384,0.32613661885261536,0.06986133009195328,-0.059371285140514374,0.10737039893865585,-0.01730429381132126
1.4,0.008135992102324963,0.1628418117761612,-0.05786459520459175,-0.17415431141853333,0.21841786801815033,0.013029319234192371
1.45,-0.14531977474689484,0.03751853108406067,-0.2707383334636688,-0.21261924505233765,0.24641713500022888,0.020352080464363098
1.5,-0.289463609457016,-0.14270971715450287,-0.28909847140312195,-0.1405714452266693,0.22422575950622559,0.050282545387744904
1.55,-0.4145182967185974,-0.07635879516601562,-0.2100306749343872,-0.04113781452178955,0.15735748410224915,0.082186758518219
1.6,-0.3756037652492523,0.3112984001636505,-0.04379356652498245,0.0066811516880989075,0.08752282708883286,0.06391339004039764
1.65,-0.23972488939762115,0.26719188690185547,0.06446400284767151,-0.0544874407351017,0.0797557458281517,0.05423407256603241
1.7,-0.12776263058185577,0.07467939704656601,-0.17297127842903137,-0.2119118869304657,0.09888875484466553,0.054215267300605774
1.75,-0.18260698020458221,0.3858243227005005,-0.49741682410240173,-0.2738536298274994,0.05945812538266182,0.06689141690731049
1.8,-0.2199026644229889,0.49773797392845154,-0.4249510169029236,0.0039345622062683105,-0.17451953887939453,0.1871483027935028
1.85,0.06988600641489029,0.3519192039966583,-0.07435282319784164,0.5012829303741455,-0.5005165934562683,0.3379542827606201
1.9,0.09038575738668442,0.3867855370044708,0.3385988771915436,0.7965295314788818,-0.4902300536632538,0.49628809094429016
1.95,-0.24615362286567688,0.26997271180152893,1.013442039489746,0.6967724561691284,-0.03929801285266876,0.5674947500228882
2.0,-0.1798374354839325,-0.07639904320240021,1.5577902793884277,0.39700719714164734,0.34161117672920227,0.3609585464000702
2.05,0.3984149992465973,-0.2643453776836395,1.5772314071655273,0.09010736644268036,0.4357219934463501,0.039567381143569946
2.1,1.15041983127594,-0.2489873170852661,1.115174412727356,-0.121195949614048,0.4130965769290924,-0.12862536311149597
2.15,1.2911254167556763,-0.0871143639087677,0.6130038499832153,-0.21472026407718658,0.4590469300746918,-0.071661077439785
2.2,1.0313867330551147,-0.2636699974536896,0.22575576603412628,-0.17731492221355438,0.4972917437553406,0.041037023067474365
2.25,1.0355525016784668,-0.6172866821289062,-0.2023877650499344,-0.06984482705593109,0.4906596541404724,0.014721044339239597
2.3,0.9977147579193115,-1.0031099319458008,-0.5454980731010437,0.0480155348777771,0.5922069549560547,-0.014132536947727203
2.35,0.5267975330352783,-1.2435541152954102,-0.6345773935317993,0.15846312046051025,0.8224924206733704,0.056833524256944656
2.4,-0.6607875823974609,-0.5906439423561096,-0.16402368247509003,0.183099165558815,1.1231290102005005,0.16807231307029724
2.45,-2.0153162479400635,0.055286262184381485,0.6538622975349426,0.2190452367067337,1.276391625404358,0.21505595743656158
2.5,-2.724198341369629,1.0127962827682495,1.2856382131576538,0.22501763701438904,1.1525930166244507,0.033139877021312714
2.55,-2.796560764312744,1.847701072692871,1.4793504476547241,-0.010140717029571533,0.9241302013397217,-0.19388601183891296
2.6,-2.0669422149658203,0.5526989698410034,0.8183517456054688,-0.299602210521698,0.7322902083396912,-0.3162432610988617
2.65,-0.49684908986091614,-0.7269678711891174,-0.05638919770717621,-0.5239344239234924,0.771399974822998,-0.5099416971206665
2.7,1.456128478050232,-0.26089656352996826,-0.9181137681007385,-0.9171084761619568,1.1238763332366943,-0.7099363803863525
2.75,2.350062847137451,0.5693525671958923,-2.134690999984741,-1.2583009004592896,1.538347840309143,-0.4569912850856781
2.8,1.5346412658691406,1.0086475610733032,-3.084990978240967,-1.1393520832061768,1.6627116203308105,0.11476495116949081
2.85,0.16350096464157104,0.9428735375404358,-3.486825466156006,-0.6438637375831604,1.3788862228393555,0.46513500809669495
2.9,-0.9160431623458862,0.7730669379234314,-2.886202096939087,0.156112939119339,0.9743229746818542,0.5722265243530273
2.95,-1.2046666145324707,1.1297532320022583,-0.8628499507904053,1.1583468914031982,0.6464145183563232,0.6311826109886169
3.0,-1.2971187829971313,1.4321526288986206,1.2022756338119507,1.9713008403778076,0.5351330041885376,0.7949129939079285
3.05,-1.5001782178878784,0.6234118342399597,2.739919424057007,2.1846535205841064,0.5943533182144165,1.0245754718780518
3.1,-1.2706722021102905,-0.38507509231567383,3.1485750675201416,1.8827037811279297,0.5795192718505859,1.0098363161087036
3.15,-0.9027485847473145,-0.2200520634651184,2.050886869430542,1.186434268951416,0.7818301320075989,0.8871852159500122
3.2,-1.1393191814422607,0.5016011595726013,0.8749194145202637,0.39763668179512024,1.2379374504089355,1.0556509494781494
3.25,-2.1976006031036377,0.5779646635055542,0.6212741732597351,0.13340851664543152,1.4660444259643555,1.3390039205551147
3.3,-3.4211177825927734,0.3815811574459076,0.6109493374824524,0.47996535897254944,1.1080679893493652,1.1356048583984375
3.35,-4.230489730834961,0.3064373731613159,-0.21151967346668243,0.7796647548675537,0.7505717277526855,0.37956133484840393
3.4,-4.231560230255127,-0.19478991627693176,-1.4001296758651733,0.675114095211029,1.0844640731811523,-0.24953840672969818
3.45,-3.0793538093566895,0.7500029802322388,-1.2106584310531616,0.7062962055206299,1.5762648582458496,-0.8726612329483032
3.5,-0.1645965278148651,3.2328667640686035,-0.5832794308662415,1.0319994688034058,1.794913649559021,-1.8090777397155762
3.55,3.4852488040924072,5.330355167388916,0.3307949900627136,1.0492334365844727,2.2960119247436523,-2.145685911178589
3.6,6.365795612335205,2.6010210514068604,2.4002320766448975,1.3334879875183105,3.1697418689727783,-1.3021745681762695
3.65,7.222342014312744,-3.6785295009613037,3.6284584999084473,1.6340711116790771,3.441161870956421,0.09088815003633499
3.7,4.741105556488037,-6.768734931945801,2.6001107692718506,0.6940829157829285,1.9228633642196655,0.8654356598854065
3.75,-0.6576754450798035,-5.8116326332092285,0.5756406784057617,-0.6704225540161133,-0.019284812733530998,0.7746118307113647
3.8,-4.412557601928711,-4.6102447509765625,0.700420618057251,-0.6192251443862915,-0.30620893836021423,1.0796120166778564
3.85,-6.435479164123535,-3.257323741912842,5.3561553955078125,0.12490501999855042,0.26890307664871216,1.2653377056121826
3.9,-5.78702449798584,-2.971625328063965,12.178004264831543,0.6363160014152527,1.5793356895446777,1.1999211311340332
3.95,-3.1772680282592773,0.4845006465911865,17.896404266357422,-0.59458988904953,3.0507400035858154,0.4487585723400116
4.0,1.2139830589294434,11.602306365966797,18.954965591430664,-3.952388048171997,4.4843268394470215,-0.5537294149398804
4.05,9.157180786132812,22.058088302612305,9.797314643859863,-5.954724311828613,6.212242126464844,-1.4431703090667725
4.1,16.805082321166992,23.461647033691406,-6.612774848937988,-5.927799701690674,7.090001583099365,-2.896955728530884
4.15,18.982776641845703,10.006869316101074,-21.182010650634766,-4.694843769073486,7.30941915512085,-4.555139541625977
4.2,10.36998462677002,-8.782034873962402,-21.19719696044922,-3.728992462158203,5.812172889709473,-4.95831823348999
4.25,2.652399778366089,-16.705242156982422,-10.956036567687988,-3.0103049278259277,3.9341657161712646,-2.435126781463623
4.3,0.596183180809021,-15.851709365844727,-3.7151942253112793,-1.6105400323867798,3.2058258056640625,-0.38292041420936584
4.35,-1.96663498878479,-13.902277946472168,-3.290008306503296,-0.3620395064353943,3.412431001663208,-1.708551049232483
4.4,-7.2215576171875,-14.42734146118164,-5.401173114776611,0.10264647006988525,3.197866439819336,-4.270213603973389
4.45,-14.691997528076172,-16.13730812072754,-7.4333648681640625,0.9563713669776917,2.5929434299468994,-4.62843132019043
4.5,-19.189804077148438,-10.296045303344727,-12.893665313720703,3.823287010192871,1.326745629310608,-3.221083164215088
4.55,-17.695066452026367,7.287446022033691,-14.305327415466309,6.491378307342529,-0.8494296669960022,-4.287559509277344
4.6,-11.453352928161621,23.691354751586914,-4.946757793426514,7.821357250213623,-1.182724952697754,-6.2333550453186035
4.65,1.8483742475509644,26.25418472290039,0.2989652454853058,6.010828971862793,-4.013542652130127,-4.603166580200195
4.7,15.259204864501953,16.70042610168457,0.0541478656232357,1.7246172428131104,-6.238606929779053,-4.5872321128845215
4.75,22.095592498779297,4.53116512298584,2.1814990043640137,-0.22328221797943115,-7.921650409698486,-5.288496971130371
4.8,18.151376724243164,-8.722651481628418,8.8969087600708,-2.8392114639282227,-9.90304946899414,-6.315373420715332
4.85,5.558347702026367,-12.001480102539062,10.566413879394531,-3.18991756439209,-8.926263809204102,-6.025931358337402
4.9,-0.06719756126403809,-8.40135383605957,10.272655487060547,-1.944786548614502,-6.745777130126953,-4.300421237945557
4.95,-3.495807647705078,-7.109688758850098,12.90206527709961,0.5025875568389893,-4.9893479347229,-2.769848585128784
5.0,-7.655148506164551,-12.055816650390625,14.31403923034668,1.7381185293197632,-4.424990177154541,-1.3322283029556274
5.05,-11.393508911132812,-12.057188987731934,15.369603157043457,-0.3416050374507904,-2.9097983837127686,-0.7612001895904541
5.1,-11.543643951416016,-4.837396144866943,20.058597564697266,-4.207638263702393,1.076332449913025,2.274369955062866
5.15,-4.40180778503418,5.706356525421143,22.1064510345459,-6.599094390869141,6.124567031860352,5.278513431549072
5.2,3.307535409927368,16.493507385253906,11.769590377807617,-6.955686569213867,8.703545570373535,3.5166430473327637
5.25,3.8178045749664307,19.24324607849121,3.200482130050659,-6.549500465393066,5.520440578460693,-0.11718431860208511
5.3,7.079511642456055,23.670297622680664,-3.0340359210968018,-6.397565841674805,2.2540335655212402,-1.1161911487579346
5.35,16.08497428894043,14.76300048828125,-16.868070602416992,-5.97782564163208,4.322754383087158,-2.228330135345459
5.4,15.130411148071289,-4.499141216278076,-18.412464141845703,-4.610981464385986,5.812526226043701,-3.406845808029175
5.45,8.801314353942871,-7.1129069328308105,-10.238296508789062,-2.619256019592285,5.539102077484131,-2.2751457691192627
5.5,2.1073787212371826,-4.084560394287109,-8.720866203308105,-2.035637140274048,5.786410808563232,-1.7624906301498413
5.55,-4.518788814544678,-7.924558639526367,-7.383145809173584,-3.3409016132354736,5.267986297607422,-1.7876726388931274
5.6,-7.848207950592041,-12.729991912841797,-2.327890396118164,-3.4326486587524414,3.8476176261901855,-1.5051929950714111
5.65,-11.149822235107422,-16.814062118530273,2.4722740650177,-2.3244638442993164,2.7690987586975098,-2.704610824584961
5.7,-14.055349349975586,-18.0789737701416,-0.08635170757770538,0.17697668075561523,1.301020622253418,-3.051314353942871
5.75,-15.967253684997559,-8.950417518615723,-7.529056549072266,2.583998680114746,-0.44909119606018066,-3.724496841430664
5.8,-16.386648178100586,5.2030720710754395,-5.43815279006958,2.0439186096191406,0.7530660629272461,-6.6938018798828125
5.85,-13.98234748840332,16.70494270324707,1.3699203729629517,2.1222238540649414,2.2412149906158447,-7.194034576416016
5.9,-4.649089813232422,20.592741012573242,2.048720359802246,2.5602283477783203,-1.1409382820129395,-5.107964992523193
5.95,5.848546981811523,13.824027061462402,2.024653911590576,1.5030357837677002,-3.654470682144165,-3.8424136638641357
6.0,6.536143779754639,4.477777481079102,4.3440351486206055,0.9558800458908081,-2.633504629135132,-3.1300837993621826
6.05,3.519864559173584,-0.6198466420173645,3.452329635620117,-0.4759552478790283,-3.1329503059387207,-2.136763572692871
6.1,5.701485633850098,-5.552844524383545,4.063440322875977,-2.7553842067718506,-4.135645389556885,-2.0168886184692383
6.15,9.00117015838623,-9.322613716125488,9.414201736450195,-1.9651572704315186,-2.5731592178344727,-3.009796142578125
6.2,14.386079788208008,-12.70461368560791,13.143741607666016,0.39524704217910767,-0.5489094853401184,-3.0387141704559326
6.25,19.458845138549805,-14.785493850708008,9.23149299621582,0.4769286513328552,1.0642673969268799,-1.306105613708496
6.3,23.438087463378906,-5.160482406616211,3.853515148162842,0.17101222276687622,1.6758899688720703,2.3780596256256104
6.35,18.765626907348633,14.118812561035156,-1.3444358110427856,1.2277052402496338,2.936797618865967,5.941073894500732
6.4,2.0786292552948,33.46799087524414,-8.559550285339355,-0.12843692302703857,3.77008318901062,6.814589023590088
6.45,-17.509225845336914,29.498144149780273,-18.75766944885254,-2.0959365367889404,0.13031959533691406,7.571994781494141
6.5,-26.193532943725586,12.600982666015625,-17.18031120300293,0.3469247817993164,-0.014178282581269741,8.322074890136719
6.55,-27.76270294189453,-8.234333038330078,-5.374958515167236,-0.714591383934021,3.761843681335449,6.729122161865234
6.6,-16.570072174072266,-24.740747451782227,3.14868426322937,-1.4483399391174316,2.73652982711792,5.059083461761475
6.65,-7.6630048751831055,-27.45346450805664,4.9474968910217285,-0.44041359424591064,1.1594293117523193,2.908535957336426
6.7,-5.072984218597412,-22.879507064819336,3.8683738708496094,-0.9816209077835083,-0.09200748801231384,0.643591046333313
6.75,-9.385037422180176,-13.427149772644043,1.8543453216552734,-1.1953753232955933,-0.5328308343887329,-1.7985678911209106
6.8,-15.638830184936523,10.170164108276367,-4.593895435333252,-0.8374102115631104,0.025843745097517967,-5.390068531036377
6.85,-5.4198150634765625,29.40289306640625,-9.810911178588867,-1.1489850282669067,2.554227113723755,-6.5916242599487305
6.9,2.8257265090942383,21.197046279907227,-3.6187260150909424,-1.2502827644348145,7.902501583099365,-3.8643457889556885
6.95,10.409809112548828,3.3648593425750732,9.111817359924316,0.670504629611969,10.11553955078125,-1.9037041664123535
7.0,12.851542472839355,-9.021430015563965,9.790675163269043,1.5288376808166504,4.353324890136719,-1.9748666286468506
7.05,7.734988212585449,-10.624650955200195,3.0864944458007812,0.9872874617576599,-1.6435524225234985,-2.371399402618408
7.1,4.8695220947265625,-8.033785820007324,2.1771788597106934,0.7502940893173218,-1.494182825088501,-1.0457684993743896
7.15,-1.3706402778625488,0.6837822198867798,11.497925758361816,-0.11594498157501221,-0.6733957529067993,1.6003066301345825
7.2,-18.95438003540039,11.497318267822266,12.882704734802246,-2.206759452819824,-5.32129430770874,3.812944173812866
7.25,-14.944884300231934,3.251335859298706,-7.791721820831299,-1.9601070880889893,-10.841523170471191,4.049037456512451
7.3,4.499879837036133,-3.9892525672912598,-10.022331237792969,-1.6065268516540527,-6.145137786865234,-0.904276430606842
7.35,2.6178176403045654,-3.990372657775879,-7.189136505126953,-1.188584566116333,3.7305831909179688,-8.136368751525879
7.4,1.0181922912597656,0.3042632043361664,-0.1149146780371666,-1.2480616569519043,7.794589519500732,-8.615578651428223
7.45,2.239794969558716,4.728351593017578,-1.4699879884719849,-2.2558460235595703,5.111727714538574,-2.9416370391845703
7.5,-5.669031620025635,6.943905353546143,-4.2983479499816895,-1.3468283414840698,1.5341664552688599,4.506707191467285
7.55,-10.192201614379883,-1.2406188249588013,-3.0984761714935303,1.9776971340179443,-0.9304372668266296,8.442867279052734
7.6,-0.45060765743255615,-10.831202507019043,-5.109046459197998,3.4114959239959717,-1.9115455150604248,5.552687168121338
7.65,2.4039034843444824,-10.983840942382812,-4.993220806121826,1.4632452726364136,-1.22234046459198,-2.0306646823883057
7.7,-0.5042151212692261,-3.3229293823242188,-3.7835419178009033,0.1101541519165039,0.6534092426300049,-6.966067790985107
7.75,-0.053307175636291504,4.439617156982422,-2.8402247428894043,0.2777745723724365,2.239328145980835,-5.392223834991455
7.8,-4.931741714477539,9.731864929199219,-0.14480340480804443,0.8331511616706848,2.4240286350250244,0.9954177141189575
7.85,-7.60854434967041,1.8739326000213623,2.0665104389190674,2.262740135192871,0.8820359110832214,6.20410680770874
7.9,-1.1264246702194214,-8.797741889953613,-1.015865683555603,3.2437210083007812,0.29333484172821045,4.305138111114502
7.95,-2.7145419120788574,-3.671741247177124,0.6356803774833679,1.323175072669983,2.3153507709503174,-2.351468801498413
8.0,0.0062406063079833984,5.8130693435668945,5.905673980712891,-1.1697262525558472,4.058313369750977,-5.462926864624023
8.05,3.150122880935669,4.431628227233887,4.3974409103393555,-1.3391468524932861,2.3727335929870605,-3.024947166442871
8.1,1.7867354154586792,0.02203456312417984,1.308340311050415,-0.48769327998161316,-0.27199968695640564,0.44708386063575745
8.15,0.947967529296875,-2.6420557498931885,0.041352901607751846,0.1362532079219818,-0.8639858961105347,1.4522697925567627
8.2,0.6538794040679932,-0.7912943363189697,1.0845211744308472,-0.204526886343956,-0.16081424057483673,0.6584501266479492
8.25,0.02761983871459961,1.2912663221359253,1.8194164037704468,-1.0175206661224365,-0.31893548369407654,0.226707324385643
8.3,-1.3133172988891602,1.995017647743225,-3.3335490226745605,-1.7623720169067383,-2.143580436706543,-0.021924758329987526
8.35,0.16695618629455566,0.8665012121200562,-10.108296394348145,-1.493199110031128,-3.0933432579040527,-0.3094717562198639
8.4,1.600705623626709,1.7831242084503174,-7.542095184326172,1.2710374593734741,-2.820181369781494,0.2725318670272827
8.45,2.6877825260162354,6.803228855133057,-3.4295058250427246,4.214161396026611,-3.9243197441101074,2.02915096282959
8.5,-0.45082494616508484,4.194778919219971,1.262317180633545,3.8227806091308594,-2.4320764541625977,4.303374767303467
8.55,-0.6257908940315247,-2.9520983695983887,2.645263671875,1.2302602529525757,0.08228801190853119,4.704250335693359
8.6,0.9949562549591064,-4.149684906005859,2.1053218841552734,-0.6922259330749512,0.9751976132392883,3.257913112640381
8.65,0.017130911350250244,-2.717258930206299,1.807905673980713,-1.7403106689453125,0.9577459096908569,2.119797706604004
8.7,-2.4345171451568604,0.2714250683784485,0.9690237641334534,-1.990910291671753,0.5608789324760437,1.4895195960998535
8.75,-7.19566011428833,0.015551521442830563,-1.959303855895996,-1.4159879684448242,-0.5237641334533691,0.7003207206726074
8.8,-6.21871280670166,-5.049026012420654,-1.445466160774231,-1.0065256357192993,-0.6038503050804138,0.6917953491210938
8.85,-4.012105464935303,-4.532029151916504,-0.6154423952102661,-0.4175838828086853,-0.699151873588562,-0.29892656207084656
8.9,-3.66287899017334,-0.2716875672340393,-0.9320792555809021,0.39120519161224365,-0.6914924383163452,-1.33172607421875
8.95,-2.248728036880493,2.353236436843872,0.048736922442913055,0.5041658878326416,-0.015817955136299133,-1.5027790069580078
9.0,0.11981382966041565,3.034254550933838,0.9589786529541016,0.21525229513645172,0.8039774298667908,-1.1810256242752075
9.05,2.863323926925659,1.563965082168579,0.8940517902374268,-0.5873847007751465,1.682152271270752,-0.5877591371536255
9.1,4.197925090789795,0.2651681900024414,1.5582823753356934,-1.420683741569519,1.9387054443359375,-0.40343379974365234
9.15,2.2461905479431152,0.5624209046363831,0.7026581764221191,-1.1067363023757935,0.055625997483730316,-0.504754900932312
9.2,-0.5407235026359558,1.168631911277771,-2.2026214599609375,-0.06792455911636353,-2.018695831298828,-0.41511309146881104
9.25,-0.8880032300949097,0.3946402370929718,-2.05281400680542,0.43704745173454285,-1.4532307386398315,0.11443938314914703
9.3,0.3921983540058136,0.38109150528907776,-2.7633066177368164,0.8437392115592957,-0.9673774242401123,0.36303427815437317
9.35,0.8667481541633606,3.3025686740875244,-5.419188976287842,2.636199712753296,-2.2209432125091553,0.5276058316230774
9.4,0.6621204614639282,8.322720527648926,-5.426548004150391,4.6612138748168945,-2.609037399291992,0.9463347792625427
9.45,-0.9863426089286804,7.510181427001953,-0.4039730727672577,4.367458343505859,-0.49766454100608826,1.764064073562622
9.5,-1.7021634578704834,3.741365671157837,2.451531410217285,3.044684886932373,0.8365839123725891,2.378516674041748
9.55,-2.0214884281158447,-0.4543229341506958,-0.0389254055917263,2.0948774814605713,0.5205898880958557,2.4933624267578125
9.6,-4.031494140625,-3.7101852893829346,-2.497415781021118,1.4612054824829102,1.4448708295822144,0.9300438761711121
9.65,-7.623414039611816,-5.602606773376465,-0.6778362989425659,0.36431410908699036,4.164732933044434,-1.3022396564483643
9.7,-6.216948986053467,-6.62640380859375,2.062427282333374,-1.1266710758209229,5.808084964752197,-1.6681060791015625
9.75,-2.1702146530151367,-7.906217098236084,1.6940656900405884,-2.5384111404418945,5.089681148529053,0.028129249811172485
9.8,0.44688788056373596,-7.558757305145264,1.8275048732757568,-2.6916160583496094,3.4522016048431396,1.5596297979354858
9.85,2.5415287017822266,-5.057591438293457,2.8053057193756104,-2.2838351726531982,1.7440764904022217,1.7301523685455322
9.9,3.345221519470215,-0.003438331186771393,3.968107223510742,-1.91239333152771,0.048132237046957016,2.015012502670288
9.95,1.3999046087265015,2.62011981010437,3.8872594833374023,-1.0371158123016357,-1.5624778270721436,2.6301865577697754
10.0,0.2766266465187073,0.8989665508270264,3.209716320037842,0.08785861730575562,-2.3965654373168945,1.9545665979385376
10.05,0.766285240650177,2.1136322021484375,1.2761276960372925,0.2399405688047409,-2.6472814083099365,-0.12022265791893005
10.1,2.5334372520446777,5.037232875823975,-0.6501629948616028,-0.7081376910209656,-2.5286898612976074,-1.0588327646255493
10.15,1.842773675918579,5.7595534324646,-1.297102451324463,-0.3501063585281372,-2.338794469833374,0.2677501440048218
10.2,-0.8681942820549011,3.5010201930999756,-1.9569910764694214,0.9169718623161316,-2.4682211875915527,2.2996227741241455
10.25,-1.2819650173187256,0.471855491399765,-2.7480053901672363,1.821061611175537,-2.2936737537384033,2.692608118057251
10.3,-0.31695157289505005,-1.9216270446777344,-2.448521375656128,2.2652719020843506,-1.37775719165802,1.7743593454360962
10.35,0.5223102569580078,-3.8037126064300537,-0.9882053136825562,1.4297783374786377,-0.34838545322418213,1.2890863418579102
10.4,-0.0938807800412178,-3.751093864440918,-0.3269324004650116,-0.11530175805091858,-0.1206623986363411,0.22769507765769958
10.45,-1.9871186017990112,2.442969799041748,-2.7741923332214355,-0.5620585680007935,-0.1411503553390503,-1.822835922241211
10.5,-0.7351922988891602,3.3407928943634033,-5.724123477935791,-0.46951016783714294,0.4441121816635132,-1.0225296020507812
10.55,-2.235714912414551,3.6090643405914307,-7.200078964233398,0.5121898651123047,2.333491563796997,-0.36536848545074463
10.6,-3.643181324005127,5.217859268188477,-6.028965473175049,0.9134246706962585,4.051785945892334,-0.001165189896710217
10.65,-3.4592196941375732,4.26124906539917,-2.5814549922943115,1.8297255039215088,4.6089043617248535,1.0624514818191528
10.7,-2.3662874698638916,-1.409119963645935,1.0113366842269897,2.2597405910491943,4.622601509094238,1.709431529045105
10.75,-0.28550422191619873,-8.61095905303955,2.497053623199463,-0.03231459856033325,4.567302227020264,1.684335708618164
10.8,3.1777992248535156,-11.638127326965332,5.218958854675293,-3.7484097480773926,4.034156799316406,1.659844160079956
10.85,7.300518035888672,-5.4889817237854,5.916557788848877,-4.925531387329102,2.1943001747131348,1.8065234422683716
10.9,6.860518932342529,2.31954288482666,3.879091262817383,-2.450145721435547,-0.11236532032489777,1.7570921182632446
10.95,3.4443233013153076,6.247020244598389,3.627162218093872,1.9623589515686035,-1.4674474000930786,1.6095898151397705
11.0,0.08569097518920898,6.059371471405029,3.7001750469207764,4.735684394836426,-1.5838003158569336,0.5738974809646606
11.05,-1.8070282936096191,4.3687238693237305,3.3881003856658936,4.8058552742004395,-1.0354558229446411,-1.2721275091171265
11.1,-1.8503057956695557,3.0216474533081055,2.9952845573425293,4.0500078201293945,0.06309685111045837,-2.413475751876831
11.15,-1.150830864906311,1.9600549936294556,4.3079729080200195,3.3382177352905273,1.509041666984558,-2.3128113746643066
11.2,-0.9003620147705078,0.8305062055587769,1.5013322830200195,3.1025748252868652,2.0812859535217285,-1.44266676902771
11.25,-1.609461784362793,-0.6530914306640625,-1.0236526727676392,1.7908673286437988,2.773655652999878,-0.3958400785923004
11.3,-1.4634476900100708,-3.4990696907043457,-0.39279788732528687,-1.1177033185958862,3.7445578575134277,1.2155102491378784
11.35,0.45036301016807556,-6.641779899597168,-0.6318392157554626,-3.6673624515533447,3.5422699451446533,3.697324514389038
11.4,1.2092978954315186,-5.28427791595459,-0.6906904578208923,-4.855627059936523,2.648231029510498,5.115117073059082
11.45,1.6762356758117676,-2.541271924972534,-3.0179295539855957,-3.059112787246704,1.2619863748550415,5.012430191040039
11.5,2.0940394401550293,1.4494261741638184,-2.398019313812256,0.2859498858451843,-0.29388296604156494,1.9200180768966675
11.55,1.432214379310608,1.1293632984161377,-0.3104429841041565,2.485438823699951,-1.2241365909576416,-1.3807761669158936
11.6,1.4987808465957642,-0.5551318526268005,-0.40844017267227173,1.1406937837600708,-0.8559320569038391,-2.1891345977783203
11.65,1.9237940311431885,1.487520456314087,-0.18222159147262573,-0.8687035441398621,-0.19159862399101257,-3.0576014518737793
11.7,2.9171814918518066,6.5366363525390625,1.241632342338562,-0.5949921607971191,-0.13152173161506653,-3.3337831497192383
11.75,2.3137121200561523,8.200370788574219,3.579415798187256,1.3165616989135742,-1.0129716396331787,-3.4710397720336914
11.8,-0.011765837669372559,2.7473180294036865,3.1556758880615234,3.7457656860351562,-1.4089813232421875,-4.54718542098999
11.85,-2.4278769493103027,-3.8165831565856934,-0.19259421527385712,5.50718355178833,-0.8449417948722839,-4.0216474533081055
11.9,-4.82499361038208,-5.972471714019775,-4.5603532791137695,4.632715225219727,-0.22513063251972198,-1.1523557901382446
11.95,-2.5761518478393555,-10.048040390014648,-5.379302501678467,0.3479427695274353,0.569433331489563,2.897982597351074
12.0,3.8738908767700195,-7.162054061889648,1.9719358682632446,-3.771907329559326,0.6523401141166687,4.005029678344727
12.05,3.6017870903015137,-0.628536581993103,3.7526817321777344,-3.290475845336914,-1.1252961158752441,2.0981831550598145
12.1,2.0103726387023926,-0.5541220903396606,1.4182744026184082,-1.378862738609314,-2.252441167831421,0.3493025600910187
12.15,2.306509017944336,-2.3624346256256104,1.3445963859558105,-0.5916852951049805,-2.8426573276519775,-0.6635223627090454
12.2,2.3304851055145264,-4.364071369171143,2.8626596927642822,-0.22527587413787842,-4.219236850738525,0.20254671573638916
12.25,0.48009657859802246,-3.148756980895996,4.7965312004089355,-0.7484085559844971,-5.131735324859619,1.482561469078064
12.3,-2.3102633953094482,0.5104830265045166,6.003820896148682,-2.129230499267578,-4.38333797454834,1.4430776834487915
12.35,-3.8582699298858643,2.262967586517334,5.4628682136535645,-2.9214892387390137,-3.3886594772338867,-0.036813974380493164
12.4,-4.109354019165039,3.1943671703338623,4.1317138671875,-3.006575345993042,-3.122818946838379,-1.4547984600067139
12.45,-2.8831729888916016,3.8249542713165283,1.989530086517334,-2.957759380340576,-3.302253484725952,-2.5558979511260986
12.5,-0.6231727600097656,3.795863628387451,-0.07884511351585388,-2.7809901237487793,-2.971989154815674,-2.632991313934326
12.55,0.9134824275970459,2.3056576251983643,-0.35271209478378296,-3.1465578079223633,-2.1513092517852783,-1.868826150894165
12.6,0.5435439944267273,1.0591317415237427,-0.04877449944615364,-3.623246431350708,-2.114102602005005,-1.9231007099151611
12.65,-1.5965783596038818,3.1327130794525146,-2.465813636779785,-3.5955724716186523,-3.304227113723755,-3.3341615200042725
12.7,-0.3758244514465332,5.140951633453369,-6.996194362640381,-2.7456717491149902,-4.6095075607299805,-3.5847177505493164
12.75,2.856095314025879,1.8990832567214966,-6.34175443649292,-1.563570261001587,-3.772899866104126,-2.031794548034668
12.8,2.6701152324676514,-1.6466271877288818,-2.707796812057495,-0.6077040433883667,-1.5615144968032837,-1.028159260749817
12.85,0.36206257343292236,-0.7389650344848633,-0.24862581491470337,-0.2911038100719452,-0.257518470287323,-0.4702475368976593
12.9,-1.581125020980835,0.7892276644706726,-1.0696223974227905,-0.8520894050598145,-0.014285773038864136,0.34083786606788635
12.95,-3.321650981903076,1.0739253759384155,-3.0274736881256104,-1.495666265487671,0.350652813911438,0.4857838451862335
13.0,-2.3462538719177246,-1.2437580823898315,-2.8749921321868896,-1.141849398612976,-0.09293957054615021,0.17722608149051666
13.05,0.7735077142715454,-3.426409959793091,-2.406795024871826,-0.019881486892700195,-1.7380917072296143,-0.5160205960273743
13.1,2.9774575233459473,-2.8989145755767822,-2.8168513774871826,0.9094976782798767,-3.049410104751587,-1.0792845487594604
13.15,4.27722692489624,-0.7953305840492249,-3.103860855102539,1.175769329071045,-2.9220123291015625,-0.2954103350639343
13.2,3.2363486289978027,1.9049127101898193,-2.78983473777771,0.7962733507156372,-1.9142224788665771,1.55386483669281
13.25,1.2402187585830688,2.93886137008667,-1.6797175407409668,0.2769746780395508,-1.1541332006454468,2.9431984424591064
13.3,0.5556941032409668,2.4525749683380127,-0.026271995157003403,0.28400540351867676,0.0026281774044036865,2.392906665802002
13.35,-0.4543595016002655,0.7521398663520813,2.6403603553771973,0.7044404745101929,2.059880495071411,0.2052464336156845
13.4,-1.3767163753509521,0.013237194158136845,6.0654191970825195,1.0395069122314453,2.7435789108276367,-1.559486746788025
13.45,-0.13746142387390137,1.913053035736084,5.974369525909424,0.7663553953170776,1.013463020324707,-1.8083175420761108
13.5,0.43552112579345703,2.779492139816284,3.356487989425659,-0.1880226880311966,-0.6822541356086731,-0.44699734449386597
13.55,0.1078554093837738,0.35205546021461487,1.1557316780090332,-1.101986050605774,-1.410161018371582,1.1505330801010132
13.6,0.9373430013656616,-1.7729790210723877,0.10598421841859818,-1.3048808574676514,-1.5528018474578857,1.4120142459869385
13.65,1.4548405408859253,-1.6972037553787231,-0.08701696991920471,-1.040268898010254,-1.1190918684005737,0.9056195020675659
13.7,1.394650936126709,-0.6930655241012573,-0.9121742844581604,-1.0588984489440918,-0.9546531438827515,0.583903431892395
13.75,1.8931827545166016,-0.013972937129437923,-1.953525424003601,-1.1619534492492676,-1.2578333616256714,0.8482335209846497
13.8,2.9875686168670654,-0.2657429873943329,-1.5312974452972412,-0.9106850028038025,-1.2682675123214722,1.0792689323425293
13.85,3.762251377105713,0.22380371391773224,-0.22592493891716003,-0.22413291037082672,-0.7465019226074219,1.0115023851394653
13.9,2.8734254837036133,1.259867787361145,0.7027110457420349,0.11317288875579834,0.03550785407423973,1.1190928220748901
13.95,1.1143994331359863,1.6765280961990356,1.244062900543213,-0.09511193633079529,0.4293666481971741,1.5561834573745728
14.0,0.3147338926792145,1.977223515510559,1.5965152978897095,-0.19344404339790344,0.12371785193681717,2.010256767272949
14.05,0.14979374408721924,2.253990411758423,0.9011508822441101,0.10581886768341064,-0.6406970024108887,2.5285418033599854
14.1,0.8678393959999084,3.0575308799743652,-0.36548376083374023,0.010608315467834473,-0.9182234406471252,2.927445888519287
14.15,-0.5732486248016357,1.8833993673324585,-1.369186282157898,-1.033060073852539,-0.06897962093353271,2.6658012866973877
14.2,-2.9293367862701416,0.28997722268104553,-1.8822054862976074,-1.9376630783081055,0.5371719002723694,2.545114040374756
14.25,-4.830923080444336,0.42807018756866455,-2.0634663105010986,-2.4614968299865723,0.5158039331436157,2.5432941913604736
14.3,-1.878368616104126,-6.058534622192383,-1.8925657272338867,-1.9593355655670166,0.20301553606987,1.8799597024917603
14.35,-0.31782200932502747,-8.088183403015137,-0.9961708784103394,-0.0814066231250763,0.5920601487159729,0.2571110129356384
14.4,-2.392357349395752,-7.567684650421143,-0.8606853485107422,0.43900495767593384,1.0782476663589478,-1.435238242149353
14.45,-5.557289123535156,-6.539196968078613,-1.0432045459747314,0.12990552186965942,1.069295883178711,-2.2962453365325928
14.5,-7.73380184173584,-4.164148807525635,-1.828188419342041,0.14697706699371338,0.7533294558525085,-2.9741339683532715
14.55,-8.35053539276123,-1.503382921218872,-2.8780927658081055,1.156312346458435,0.5444036722183228,-4.108094215393066
14.6,-5.652029514312744,2.265916109085083,-1.8112369775772095,2.7176926136016846,0.18031108379364014,-5.108379364013672
14.65,-1.9362744092941284,5.117372035980225,0.3685213029384613,3.295461654663086,0.12397468090057373,-5.936560153961182
14.7,3.047327756881714,7.468675136566162,3.0749902725219727,3.144930124282837,0.419105589389801,-6.182464599609375
14.75,8.035889625549316,6.4873175621032715,4.95542049407959,2.6523680686950684,0.46337011456489563,-5.584222793579102
14.8,11.291532516479492,3.541215419769287,4.500021457672119,1.3576868772506714,-0.3308079242706299,-3.7737114429473877
14.85,10.009921073913574,1.2305527925491333,3.7404611110687256,-0.2746437191963196,-1.237047553062439,-0.8085598349571228
14.9,6.434970378875732,-0.7860891819000244,3.0832173824310303,-1.4583079814910889,-2.0051748752593994,1.8877456188201904
14.95,5.038597583770752,-1.697479486465454,1.733910083770752,-2.0203468799591064,-1.9859644174575806,2.7746684551239014
15.0,4.743142127990723,0.12171769887208939,-0.4228496253490448,-2.239997386932373,-0.623914897441864,2.3599298000335693
15.05,2.312966823577881,2.3500077724456787,-3.6830289363861084,-2.462576150894165,0.9384573101997375,1.9262069463729858
15.1,-0.8682218790054321,2.116260290145874,-4.804872512817383,-2.3406527042388916,0.625785231590271,2.399076223373413
15.15,-0.029800236225128174,1.3193974494934082,-2.9698269367218018,-0.8688246607780457,-0.8574531078338623,3.957343816757202
15.2,-0.429546594619751,2.281998872756958,-0.8518257141113281,0.7114895582199097,0.8766920566558838,4.3328633308410645
15.25,-5.860043525695801,-1.3233180046081543,1.3436572551727295,0.23277336359024048,3.774561643600464,3.1859488487243652
15.3,-7.199601650238037,-5.185245037078857,2.7743937969207764,0.25824397802352905,2.3479342460632324,2.232321262359619
15.35,-4.913308143615723,-4.295628547668457,1.0092867612838745,1.0386862754821777,-0.35357359051704407,1.2174606323242188
15.4,-3.083892345428467,-2.1720130443573,-0.4940301477909088,0.7183501720428467,-0.9842577576637268,0.009164554998278618
15.45,-1.7705864906311035,-2.2215468883514404,-1.1586077213287354,0.05423399806022644,-0.23276853561401367,-1.0800647735595703
15.5,4.154722690582275,1.2435202598571777,-1.562852144241333,0.16129305958747864,0.41599708795547485,-2.059535026550293
15.55,11.337916374206543,8.323426246643066,-2.5969784259796143,0.44693803787231445,2.1928250789642334,-2.2064290046691895
15.6,10.860336303710938,13.63375473022461,-4.6735029220581055,0.7064260840415955,2.6269657611846924,-0.01604858599603176
15.65,-0.15249550342559814,13.72450065612793,-6.377254486083984,1.703979253768921,-0.6807677745819092,3.6698663234710693
15.7,-11.846765518188477,2.671323776245117,-10.568614959716797,3.4663589000701904,-4.929518222808838,5.631121635437012
15.75,-15.21511459350586,3.5192131996154785,-12.218267440795898,8.624910354614258,-5.996937274932861,4.252716064453125
15.8,-21.769859313964844,0.9763755202293396,-5.503374099731445,8.582685470581055,-0.06754451245069504,2.4215378761291504
15.85,-20.668254852294922,-5.496471881866455,16.822473526000977,5.409869194030762,6.970067977905273,2.104168176651001
15.9,4.400773048400879,-10.001092910766602,30.2244815826416,2.041383981704712,10.29445743560791,2.5360257625579834
15.95,12.819958686828613,-8.04334831237793,12.479998588562012,2.0365567207336426,5.065938472747803,1.1276640892028809
16.0,7.187882900238037,-9.1687650680542,4.159076690673828,5.360130786895752,-0.5565415620803833,-1.9434378147125244
16.05,0.3413132429122925,-6.907993316650391,-1.3561691045761108,5.400691032409668,-1.7693238258361816,1.4657386541366577
16.1,3.223292112350464,-9.614315032958984,8.838541030883789,4.010800361633301,4.035700798034668,10.709508895874023
16.15,33.38063430786133,-4.033421039581299,4.74547815322876,-2.174013137817383,7.824218273162842,19.959728240966797
16.2,26.1944522857666,20.464937210083008,3.1597988605499268,-4.592577934265137,-2.6163887977600098,17.137287139892578
16.25,0.9201521873474121,12.251269340515137,16.90595245361328,1.9420366287231445,-12.70768928527832,10.830225944519043
16.3,-16.015499114990234,-8.059654235839844,5.329043388366699,5.814506530761719,-13.644367218017578,6.797462463378906
16.35,-12.929219245910645,-10.904195785522461,-9.554900169372559,-2.6637179851531982,-9.471699714660645,1.715315341949463
16.4,-9.993330955505371,-2.3194336891174316,-17.00937271118164,-1.5949077606201172,-3.1375725269317627,-3.6639018058776855
16.45,2.907517433166504,-3.829867124557495,-12.499395370483398,1.0596799850463867,0.26190701127052307,-1.2482424974441528
16.5,6.523787498474121,-2.7631750106811523,-4.807868957519531,0.20121333003044128,0.6045831441879272,0.08644243329763412
16.55,3.4283435344696045,-0.6135203242301941,-2.052502155303955,0.18209457397460938,0.6568965315818787,-0.16856727004051208
16.6,3.0018198490142822,-2.085198402404785,-1.8425371646881104,0.7164472937583923,1.0083767175674438,0.05429941788315773
16.65,-0.04947012662887573,0.1141313686966896,-3.2692668437957764,1.897131085395813,1.1882524490356445,-0.4378736913204193
16.7,1.7792515754699707,-0.2429378628730774,-1.1425580978393555,0.8446951508522034,1.4185506105422974,-0.07708536833524704
16.75,3.7480380535125732,-1.7753411531448364,-0.08561048656702042,0.7903720736503601,1.4718064069747925,0.12084133923053741
16.8,7.767566204071045,-3.196368932723999,4.822079181671143,0.2827947437763214,1.7769705057144165,-0.01059964019805193
16.85,11.238117218017578,-1.9324803352355957,6.14583683013916,0.16576185822486877,1.2182893753051758,-0.8844695687294006
16.9,7.004517555236816,1.7127685546875,4.544185161590576,-0.08309188485145569,-1.3598660230636597,-0.8913834095001221
16.95,-3.3671557903289795,2.8072361946105957,-2.5395119190216064,0.23872214555740356,-5.0489583015441895,1.454779028892517
17.0,-2.6398284435272217,0.3247441351413727,-8.039185523986816,1.6983190774917603,-4.431361198425293,2.1719765663146973
17.05,-0.08953416347503662,1.3976209163665771,-5.563865661621094,1.623382329940796,-0.814585268497467,0.39797839522361755
17.1,0.2515713572502136,-0.7832285761833191,-3.385162353515625,0.15306606888771057,0.6321143507957458,0.39049649238586426
17.15,0.16323304176330566,-3.2627322673797607,-2.792008399963379,-0.3906973600387573,1.3513325452804565,0.11974482238292694
17.2,0.5042168498039246,-0.9042388796806335,0.49220460653305054,-1.424395203590393,2.0863633155822754,-0.532273530960083
17.25,1.16023588180542,-0.0012721068924292922,-0.4297988712787628,-2.091209650039673,1.8156806230545044,-0.4216991662979126
17.3,3.342886209487915,-2.437133312225342,-0.3515792489051819,-1.70489501953125,1.7493003606796265,-0.24550530314445496
17.35,6.597098350524902,-4.339273452758789,0.7319863438606262,-1.0844184160232544,1.391477108001709,-0.6821721196174622
17.4,5.486188888549805,-0.5668770670890808,-1.0783649682998657,-1.9405622482299805,0.4011389911174774,-1.378300428390503
17.45,4.787015914916992,3.0578794479370117,-3.1339547634124756,-2.8907458782196045,0.14001818001270294,-0.9658187627792358
17.5,4.022127628326416,1.0121393203735352,-5.977300643920898,-1.3253461122512817,-0.13147206604480743,-0.4510820806026459
17.55,2.7193055152893066,-2.397648572921753,-6.967806339263916,0.25985634326934814,-0.14521007239818573,-0.4556296765804291
17.6,1.6498478651046753,-4.961427211761475,-10.92383861541748,1.8367921113967896,-0.12665410339832306,-0.9146696329116821
17.65,1.5671393871307373,-2.515321731567383,-6.581379413604736,3.3792617321014404,0.30085402727127075,-1.2861958742141724
17.7,2.1117162704467773,1.3507472276687622,0.3995380103588104,4.922175884246826,-0.46616271138191223,-0.5493230223655701
17.75,2.096997022628784,-0.2572880685329437,1.0816733837127686,4.951739311218262,-2.016136884689331,1.4137158393859863
17.8,0.11725777387619019,-2.218456506729126,-0.07142286747694016,3.643465042114258,-2.2478928565979004,1.6778020858764648
17.85,-3.080836534500122,-3.899778127670288,0.8289796113967896,1.9843508005142212,-2.6546974182128906,-0.8442228436470032
17.9,-10.04835033416748,-0.3114909827709198,-3.730515480041504,3.4951252937316895,-4.77689266204834,-4.874099254608154
17.95,-24.616565704345703,3.773003101348877,-9.085210800170898,5.102410316467285,-6.810810089111328,-6.406289577484131
18.0,-22.724214553833008,16.396671295166016,-16.123823165893555,5.328524589538574,-6.548525810241699,-8.43017578125
18.05,-7.007304668426514,30.027740478515625,-0.930822491645813,6.339837074279785,-1.439564824104309,-8.340846061706543
18.1,19.036165237426758,29.745195388793945,19.760066986083984,7.3231048583984375,2.2718803882598877,-6.877265930175781
18.15,38.12762451171875,3.739677667617798,21.980628967285156,8.72645378112793,4.035555362701416,-2.8378989696502686
18.2,31.296323776245117,-15.493577003479004,16.736881256103516,10.66015338897705,-0.998401939868927,4.1661906242370605
18.25,-9.316221237182617,-21.747648239135742,22.169099807739258,8.219588279724121,-12.094246864318848,9.802279472351074
18.3,-29.440937042236328,-7.293276309967041,-22.063919067382812,3.261570453643799,-13.785325050354004,5.545965671539307
18.35,-13.338120460510254,3.911982297897339,-5.649705410003662,-0.01152491569519043,5.340137004852295,7.637792110443115
18.4,-2.409715175628662,-68.70887756347656,22.594741821289062,-0.6386032104492188,5.375934600830078,25.54425621032715
18.45,39.50349044799805,-22.556537628173828,-4.814220428466797,3.2447667121887207,6.255161762237549,20.498310089111328
18.5,4.727571487426758,-0.4378979504108429,-13.105466842651367,0.7628824710845947,2.76104474067688,5.745244026184082
18.55,2.2962658405303955,-3.8649141788482666,-6.061507701873779,-0.5952488780021667,0.4815687835216522,0.13500967621803284
18.6,0.34219908714294434,-4.889090538024902,-8.893701553344727,-0.3245808184146881,0.3374312222003937,-0.23079319298267365
18.65,3.5928871631622314,2.2106711864471436,-10.461029052734375,-2.250894784927368,-0.4532507359981537,-3.658997058868408
18.7,9.8479642868042,-5.648107051849365,-5.5738654136657715,0.16686391830444336,-4.233489036560059,-10.751996994018555
18.75,-10.353723526000977,-3.43369197845459,-4.2270708084106445,2.5746326446533203,-5.825189590454102,-11.694154739379883
18.8,-0.15313267707824707,-1.2201131582260132,-5.726829528808594,2.9625041484832764,-2.7005228996276855,-1.0228495597839355
18.85,14.082759857177734,-6.442785739898682,-2.658496856689453,-0.8953762650489807,-1.5808377265930176,3.6935267448425293
18.9,15.128366470336914,-7.591919898986816,4.943938732147217,-4.361869812011719,-2.025620937347412,2.0818116664886475
18.95,11.959263801574707,-10.058547019958496,11.628586769104004,-7.085721015930176,-1.1773208379745483,0.17761263251304626
19.0,9.661684036254883,-4.455820560455322,28.2540225982666,-11.18691635131836,-2.540661096572876,-4.075884819030762
19.05,4.207694053649902,12.671945571899414,23.936359405517578,-11.695399284362793,-5.597060203552246,-3.187235116958618
19.1,8.482671737670898,23.491756439208984,25.372406005859375,-6.540101528167725,4.013522148132324,0.8863052129745483
19.15,54.33613204956055,60.844242095947266,15.818304061889648,-10.088303565979004,14.190698623657227,-3.926262617111206
19.2,62.51588439941406,61.46821594238281,-65.53998565673828,-16.48637580871582,18.880935668945312,-2.0447311401367188
19.25,-16.373668670654297,4.277005195617676,-99.08629608154297,-16.354049682617188,17.968687057495117,-2.298739433288574
19.3,-54.75072479248047,-35.30649185180664,-35.96221923828125,-19.19776153564453,10.195084571838379,-7.6751251220703125
19.35,-20.30997085571289,-39.637229919433594,26.281036376953125,-21.152751922607422,1.8427115678787231,-1.9324686527252197
19.4,-21.96936798095703,-8.971297264099121,12.446455001831055,-11.596179008483887,-4.625367164611816,1.4295333623886108
19.45,-0.3077964782714844,-26.704139709472656,-6.586314678192139,-5.033527851104736,-12.771831512451172,14.269730567932129
19.5,-10.960643768310547,-12.443976402282715,-30.077178955078125,2.7906453609466553,-0.3577444553375244,7.913624286651611
19.55,-4.542545318603516,-6.529210090637207,-10.098154067993164,0.7933900356292725,3.140425443649292,3.2899012565612793
19.6,3.755011796951294,-2.7661664485931396,4.452743053436279,-0.24480780959129333,1.7437301874160767,1.854591727256775
19.65,0.9388318061828613,-2.650517463684082,6.013197898864746,-0.5853996872901917,1.646498203277588,0.7125062942504883
19.7,1.0709121227264404,-2.044001817703247,8.638221740722656,-0.9561930298805237,2.6828012466430664,0.0632689893245697
19.75,6.775932788848877,-3.0764029026031494,11.69186782836914,-1.080754041671753,1.969316005706787,-0.30809804797172546
19.8,4.317260265350342,-4.748295783996582,6.965961456298828,-0.8267638683319092,2.805408000946045,-1.1156891584396362
19.85,3.1405723094940186,-4.501489639282227,5.383299827575684,-0.7534979581832886,3.0142674446105957,-0.8106578588485718
19.9,4.231643199920654,-7.156384468078613,7.1206207275390625,-0.29846054315567017,2.2648401260375977,0.16723327338695526
19.95,7.34323787689209,-13.508662223815918,6.267631530761719,0.8018394708633423,3.5069491863250732,1.6002271175384521
20.0,8.001396179199219,-27.030704498291016,-3.052441120147705,4.123037338256836,5.339052677154541,5.965284824371338
20.05,14.20375919342041,-10.386186599731445,-22.90692138671875,11.552460670471191,0.8090356588363647,9.711698532104492
20.1,26.457008361816406,-48.28839111328125,-23.836008071899414,0.7026053667068481,-2.2944047451019287,-7.135132312774658
20.15,-114.1585922241211,-82.13832092285156,-1.1538454294204712,-8.813714981079102,9.823395729064941,-30.93197250366211
20.2,-61.63356018066406,56.702091217041016,29.739532470703125,-3.1590356826782227,6.763104438781738,-25.301517486572266
20.25,12.016731262207031,33.15286636352539,16.40055274963379,-0.8084516525268555,0.3545050323009491,-11.42033863067627
20.3,16.708051681518555,9.785350799560547,6.915757179260254,-0.9093126058578491,-0.4288269579410553,-5.249721527099609
20.35,9.174372673034668,2.0843868255615234,5.509006023406982,-0.635672926902771,2.5555310249328613,-1.727667212486267
20.4,4.80316162109375,2.8834168910980225,5.366164684295654,-0.16301566362380981,2.0483365058898926,-0.9030247926712036
20.45,3.902653455734253,3.833034038543701,1.6754672527313232,-0.3701306879520416,-0.59923255443573,-0.29950791597366333
20.5,2.1075074672698975,3.49039888381958,0.04056824371218681,-0.3854133188724518,-0.3056693375110626,0.47864529490470886
20.55,-1.853052020072937,2.496286392211914,0.7441348433494568,-0.19125410914421082,0.4429408311843872,1.3089611530303955
20.6,-3.1429755687713623,-0.5406878590583801,0.8553718328475952,-0.07728725671768188,-0.13450148701667786,1.5232203006744385
20.65,-1.238147258758545,-2.9962501525878906,1.2003895044326782,0.3210994601249695,-0.32472214102745056,0.7999963164329529
20.7,0.16506266593933105,-2.3384034633636475,3.863584041595459,0.8348885178565979,0.27348238229751587,0.2763861417770386
20.75,-2.079127788543701,-2.301621675491333,6.9364142417907715,0.6741867661476135,0.6162028908729553,0.806842565536499
20.8,-6.254566192626953,-0.6974937319755554,7.184787750244141,-0.013197720050811768,-0.0015968254301697016,1.7025012969970703
20.85,-7.6168532371521,-1.9594454765319824,3.448239326477051,-0.5695778131484985,-1.056296944618225,1.904369831085205
20.9,-2.1143503189086914,-2.367455244064331,0.27558809518814087,0.0985722541809082,-1.8167893886566162,0.5653136372566223
20.95,2.3940036296844482,1.0043392181396484,1.9624251127243042,0.9344269037246704,0.023870037868618965,-0.8785186409950256
21.0,-1.1725038290023804,3.824462890625,4.527531147003174,-0.07691889256238937,2.2041678428649902,0.36986562609672546
21.05,-5.224152565002441,0.7823137640953064,3.979641914367676,-1.0242809057235718,1.595096230506897,2.7549118995666504
21.1,-2.337812900543213,-3.302750587463379,4.03892707824707,0.170911967754364,1.4138431549072266,3.137190580368042
21.15,4.468931198120117,1.9172004461288452,9.008334159851074,1.3517374992370605,2.667071580886841,1.658349871635437
21.2,0.3201870918273926,-7.740035533905029,13.89702320098877,-1.3266386985778809,0.9962051510810852,3.124634265899658
21.25,12.141555786132812,-19.871234893798828,-13.637566566467285,2.02351713180542,-7.783199787139893,4.613193511962891
21.3,-7.290555477142334,-11.37164306640625,-0.09982344508171082,0.14260195195674896,-1.4584518671035767,0.7143834829330444
21.35,-15.945930480957031,-4.380404949188232,10.878460884094238,-3.5702788829803467,2.5694730281829834,-1.6418582201004028
21.4,-6.12270450592041,-4.830554962158203,4.546359539031982,-2.634787082672119,0.07395876199007034,-2.8901987075805664
21.45,1.1056153774261475,-1.6563713550567627,0.7939543128013611,-1.0706462860107422,-1.3204939365386963,-4.493473052978516
21.5,0.22952979803085327,3.58949875831604,2.7351486682891846,-0.22438889741897583,-0.7880457043647766,-3.162177324295044
21.55,-1.3459099531173706,3.4546492099761963,2.028501272201538,-0.5751572251319885,-0.879379153251648,-0.7676213979721069
21.6,-1.6511647701263428,1.2424553632736206,1.899330973625183,-0.6130834221839905,-0.6275800466537476,-0.3037118911743164
21.65,0.7487554550170898,-0.950634241104126,1.2354811429977417,-0.38198789954185486,-0.5832726955413818,-1.5111678838729858
21.7,2.5685412883758545,-2.669276475906372,0.5135524868965149,-0.16574758291244507,-0.47777819633483887,-2.501939296722412
21.75,2.4150736331939697,-2.8491499423980713,0.6826862096786499,0.34811335802078247,-1.2222472429275513,-1.8068524599075317
21.8,-0.4996689558029175,2.053579807281494,-1.4591436386108398,0.15448932349681854,-2.969914436340332,0.5892413258552551
21.85,-3.5682835578918457,6.333714008331299,-5.017504692077637,-1.424123764038086,-3.579897403717041,3.585005760192871
21.9,0.290995717048645,-3.0021705627441406,-3.2000362873077393,-1.971698522567749,-0.7034932374954224,1.9129884243011475
21.95,2.8934710025787354,-1.7968486547470093,2.1400697231292725,1.9722161293029785,1.637148141860962,-2.3434653282165527
22.0,5.915441036224365,-1.4462569952011108,3.8493998050689697,3.508410930633545,0.11312391608953476,-1.4824275970458984
22.05,7.215575218200684,1.9396566152572632,1.7876404523849487,2.3586883544921875,-0.830579400062561,0.2316599041223526
22.1,4.0630316734313965,8.334718704223633,-1.5539237260818481,0.5515650510787964,1.5656031370162964,0.5496262907981873
22.15,-1.6069031953811646,7.442265033721924,-2.5751395225524902,-0.569509744644165,3.08052659034729,2.094388246536255
22.2,-5.065710067749023,4.998547554016113,3.1623735427856445,0.46918725967407227,2.2903358936309814,3.8701767921447754
22.25,4.835381984710693,1.8841408491134644,4.505914211273193,0.867253303527832,0.4522678852081299,2.4994287490844727
22.3,2.701430559158325,-1.3065695762634277,3.622760534286499,1.4154200553894043,-1.8523362874984741,2.608292579650879
22.35,-12.643524169921875,-3.370823383331299,11.355900764465332,-0.12046286463737488,2.285041332244873,1.8831300735473633
22.4,-13.525657653808594,-14.340306282043457,16.258960723876953,-2.9945878982543945,3.3380849361419678,0.45813196897506714
22.45,-8.142882347106934,-12.816338539123535,7.96816873550415,-1.668206810951233,-0.2848722040653229,-1.6047520637512207
22.5,-1.6192989349365234,-6.743556499481201,1.8818198442459106,-0.8916366100311279,-1.3656195402145386,-2.9337518215179443
22.55,-3.016888380050659,1.2760796546936035,4.108291149139404,-0.9676739573478699,-0.6119341254234314,-2.276228427886963
22.6,-4.942403793334961,5.256158828735352,2.1704487800598145,-1.2437905073165894,-1.3937779664993286,-0.4843737483024597
22.65,-2.501168727874756,0.7281380891799927,-1.2266446352005005,-1.2649526596069336,-2.0582804679870605,0.004603311885148287
22.7,-0.8153042793273926,0.24389426410198212,2.603379964828491,0.29610857367515564,-1.2450772523880005,-1.9896516799926758
22.75,0.9890745878219604,-1.4755797386169434,3.6267378330230713,0.6683306694030762,-1.6703181266784668,-2.456946849822998
22.8,2.325742721557617,-6.243322849273682,0.7115312218666077,-0.0499105304479599,-4.338328838348389,-0.36382943391799927
22.85,6.6475830078125,1.6919267177581787,-1.6817580461502075,0.7008061408996582,-6.756679534912109,1.8502496480941772
22.9,2.191107749938965,9.770066261291504,-7.732735633850098,-1.1025738716125488,-5.47491979598999,2.507054567337036
22.95,7.02884578704834,10.683908462524414,-13.602203369140625,-4.202733516693115,-5.473839282989502,1.5165895223617554
23.0,16.65907859802246,0.36340653896331787,-13.785460472106934,-2.518287420272827,-5.319080829620361,-1.6020311117172241
23.05,22.1461181640625,1.7653663158416748,-4.830110549926758,1.4613333940505981,-3.107259750366211,1.1537432670593262
23.1,7.235825538635254,17.433258056640625,-12.636634826660156,5.162652015686035,5.218830585479736,3.740338087081909
23.15,-17.655176162719727,32.39927673339844,1.0614153146743774,5.769176483154297,7.589989185333252,5.212821960449219
23.2,-29.833580017089844,19.08469581604004,21.080554962158203,4.333438873291016,6.821639060974121,6.384187698364258
23.25,-25.735254287719727,-2.253330945968628,24.358129501342773,2.5165982246398926,4.347627639770508,7.244512557983398
23.3,-16.77460479736328,-10.315725326538086,21.08628273010254,2.910731554031372,2.0984222888946533,5.943108558654785
23.35,-14.815096855163574,-14.660857200622559,21.017576217651367,3.40946888923645,1.8837140798568726,5.574721336364746
23.4,-17.784135818481445,-27.866168975830078,28.715364456176758,5.414271354675293,2.063234806060791,6.528468608856201
23.45,4.346591949462891,-57.609474182128906,19.824176788330078,10.764599800109863,4.4125847816467285,10.147942543029785
23.5,47.06675720214844,-41.54787826538086,-16.311620712280273,12.916065216064453,6.010414123535156,13.898189544677734
23.55,22.54865074157715,8.753255844116211,-26.058616638183594,10.760957717895508,3.1831471920013428,4.936183452606201
23.6,1.6496291160583496,19.848079681396484,-19.37771224975586,5.687468528747559,5.10557222366333,-2.5186855792999268
23.65,3.4053127765655518,8.745132446289062,-12.819950103759766,-0.15821433067321777,-0.01681768335402012,-7.5201640129089355
23.7,4.061169147491455,-4.927162170410156,-2.8673043251037598,-6.551254749298096,-3.401251792907715,-6.1100754737854
23.75,9.260625839233398,-15.633245468139648,1.6816350221633911,-10.123979568481445,-3.8822357654571533,-4.3659987449646
23.8,-3.764075994491577,-17.0814266204834,20.218778610229492,-9.098419189453125,-1.3239644765853882,-7.395219802856445
23.85,-10.215327262878418,-10.660006523132324,17.766157150268555,-6.806921482086182,-3.6209170818328857,-8.117109298706055
23.9,-17.049287796020508,4.339672088623047,13.574151992797852,-5.948341369628906,-4.253180980682373,-9.449010848999023
23.95,-15.538516998291016,13.601289749145508,6.858536720275879,-5.805950164794922,-4.201535701751709,-10.232674598693848
24.0,-7.035870552062988,25.696731567382812,-3.5934526920318604,-3.416463851928711,-5.1988525390625,-12.240334510803223
24.05,5.878931045532227,6.0838212966918945,-7.1700286865234375,-2.6316823959350586,-6.364727973937988,-6.952686309814453
24.1,-3.313123941421509,-1.8399033546447754,-3.5350234508514404,-0.4801618456840515,-3.9233920574188232,-1.554310917854309
24.15,1.7827982902526855,7.486795425415039,-0.7625971436500549,0.7885016202926636,-7.665173053741455,0.17108465731143951
24.2,10.696585655212402,6.173186302185059,4.985378742218018,-3.4556257724761963,-13.846566200256348,0.5749473571777344
24.25,9.731407165527344,-2.5994513034820557,10.586763381958008,-4.711954116821289,-11.160818099975586,-0.9780296087265015
24.3,2.586371421813965,11.511025428771973,6.10279655456543,-3.879148006439209,-4.0268874168396,2.6315860748291016
24.35,11.715636253356934,9.66703987121582,-14.617645263671875,-3.8778932094573975,0.7751948237419128,2.1589717864990234
24.4,9.990169525146484,9.964852333068848,-19.800750732421875,-1.6006020307540894,0.382394015789032,4.133040904998779
24.45,-3.261842727661133,10.333394050598145,-24.350021362304688,-0.4845935106277466,3.1468775272369385,6.502128601074219
24.5,-35.795352935791016,6.120680809020996,-10.87062931060791,-0.35468506813049316,11.357682228088379,8.893532752990723
24.55,-21.65873146057129,2.1295006275177,42.19371032714844,1.682103157043457,15.416581153869629,9.975279808044434
24.6,-5.61462926864624,-13.036399841308594,27.139461517333984,2.2398629188537598,7.879955291748047,5.275744438171387
24.65,4.090024948120117,-14.765791893005371,20.95769500732422,2.053062915802002,3.4860336780548096,1.2838945388793945
24.7,4.429529190063477,-8.637054443359375,13.64426040649414,0.9986221790313721,1.3113930225372314,-0.18315629661083221
24.75,2.0668766498565674,-5.430093765258789,8.287914276123047,0.8520501852035522,0.7572404742240906,-0.5194609761238098
24.8,2.596755027770996,-5.335888862609863,5.79166316986084,0.7013037204742432,0.6898865699768066,-0.5001415610313416
24.85,4.499355316162109,-2.3770525455474854,5.394965648651123,-0.25978410243988037,0.5756211876869202,-0.16912175714969635
24.9,-4.5602335929870605,6.643063545227051,6.547048568725586,0.5127044916152954,0.5787061452865601,-0.5707086324691772
24.95,-8.78392219543457,-3.244236707687378,14.953546524047852,3.4683213233947754,1.0225887298583984,0.4521762728691101
25.0,-0.11303122341632843,-16.596128463745117,1.0347306728363037,4.614793300628662,1.119625210762024,0.3772508203983307
25.05,5.036047458648682,-4.443955421447754,5.09398889541626,1.6961382627487183,1.3384889364242554,0.746882975101471
25.1,-6.791289806365967,35.485382080078125,2.0369739532470703,1.0009311437606812,0.419117271900177,-0.2838500440120697
25.15,-1.3093955516815186,33.25543212890625,-12.688952445983887,1.2140825986862183,-0.9020077586174011,0.09314463287591934
25.2,-4.086035251617432,8.963308334350586,-2.7473771572113037,0.4455103874206543,-0.5914760828018188,1.0034019947052002
25.25,-3.743147850036621,-0.26958203315734863,0.5775901675224304,0.353694349527359,-0.8023023009300232,1.6082953214645386
25.3,-1.2522811889648438,-2.6323180198669434,1.5196278095245361,0.8394378423690796,-0.23597654700279236,1.4935290813446045
25.35,-0.49514734745025635,-1.960614800453186,2.4438486099243164,0.36755242943763733,-0.5143985748291016,0.7132636308670044
25.4,-0.18828153610229492,-1.42898690700531,2.064586639404297,0.6506850719451904,-0.4525127410888672,0.5132558941841125
25.45,-3.9397332668304443,-5.979856014251709,2.285531759262085,1.4318253993988037,-0.020348047837615013,0.6575049757957458
25.5,-4.544698715209961,-5.438015937805176,-3.996464967727661,1.3663135766983032,-1.0313899517059326,0.6919277906417847
25.55,-0.6941227912902832,-3.1601738929748535,-4.414902210235596,1.7508670091629028,0.8042896389961243,1.0284769535064697
25.6,-0.42585670948028564,-0.20429588854312897,-2.2561872005462646,0.6760280132293701,1.8540011644363403,0.01786409690976143
25.65,-11.312410354614258,3.688103437423706,17.792367935180664,-0.012809708714485168,3.476854085922241,-0.8418497443199158
25.7,-2.804088830947876,1.3643132448196411,15.443346977233887,1.3413729667663574,3.758037805557251,-0.5586015582084656
25.75,-1.3823809623718262,2.846602201461792,12.355533599853516,-0.23031459748744965,-1.7651939392089844,0.5583028197288513
25.8,-0.8126616477966309,1.894007921218872,8.000175476074219,-1.677113652229309,-0.3684195578098297,0.13368289172649384
25.85,1.428604245185852,1.7970480918884277,6.301261901855469,-0.8668934106826782,0.5248889327049255,0.4812335968017578
25.9,-1.8882936239242554,-2.8193106651306152,1.5813419818878174,0.3998355269432068,-0.5503097176551819,0.8639161586761475
25.95,-2.2292113304138184,-3.1033082008361816,3.2956087589263916,-0.3514265716075897,0.07986121624708176,0.13394945859909058
26.0,0.328837513923645,-0.9479557871818542,4.8079047203063965,-0.353320449590683,0.534396231174469,-0.10139843821525574
26.05,-2.640993118286133,0.6120570302009583,5.309366226196289,0.5571691393852234,-1.4362438917160034,0.7334219813346863
26.1,-0.3338313698768616,0.32051903009414673,3.830495595932007,0.17197835445404053,-0.8337963819503784,0.9962087273597717
26.15,-0.1793895661830902,-3.6378657817840576,1.8933067321777344,0.34754449129104614,-0.5480431914329529,1.7469345331192017
26.2,-6.29294490814209,3.7749574184417725,4.849268436431885,-1.1734868288040161,-2.282693386077881,0.3249211311340332
26.25,-1.7768008708953857,2.395641326904297,1.0123869180679321,0.13012750446796417,-1.4597080945968628,0.6920523643493652
26.3,1.1649967432022095,-0.3635806441307068,-0.2783685326576233,0.47412174940109253,-1.8792439699172974,1.883296251296997
26.35,0.8891156315803528,-1.9527567625045776,-2.6773245334625244,-0.053153276443481445,-3.8702595233917236,1.431478500366211
26.4,1.5889291763305664,-3.997373104095459,-0.44647905230522156,-1.3004919290542603,-4.155110836029053,-1.6186413764953613
26.45,-5.5621843338012695,-3.46787166595459,3.1083595752716064,-3.084395170211792,-6.657061576843262,-3.808758020401001
26.5,-8.498638153076172,3.9162395000457764,-3.850363254547119,-4.107731342315674,-8.437175750732422,-4.1633477210998535
26.55,-3.47951340675354,3.309558153152466,0.3776512145996094,-3.6446444988250732,-3.4624552726745605,-0.7405073046684265
26.6,-4.746035099029541,0.3691854476928711,-1.3759799003601074,-0.19401656091213226,1.7339941263198853,1.100061058998108
26.65,-3.229426860809326,1.8820464611053467,3.502216100692749,2.1210763454437256,4.864972114562988,0.6611373424530029
26.7,-2.8588063716888428,0.2224999964237213,6.252219200134277,1.8838872909545898,3.9337081909179688,0.883392333984375
26.75,-0.6049761772155762,-0.41073763370513916,4.47255802154541,1.4823631048202515,2.5408644676208496,-0.09725983440876007
26.8,3.465785503387451,0.8201404809951782,5.225121974945068,0.5887868404388428,2.232043743133545,-1.197013258934021
26.85,3.6003706455230713,-1.5779110193252563,4.122410774230957,-0.21954356133937836,1.213321328163147,-0.4950602054595947
26.9,2.5121092796325684,-0.5693522095680237,0.7592155337333679,-1.0543673038482666,1.6276267766952515,-0.1745280623435974
26.95,1.719281792640686,-1.913554310798645,-0.44828757643699646,-0.9112483263015747,2.5928235054016113,-0.20983363687992096
27.0,-0.48341041803359985,-3.9295334815979004,0.5976474285125732,-0.33141767978668213,2.6080329418182373,0.5651538968086243
27.05,-1.6389822959899902,-2.489090919494629,0.7572712302207947,0.2959732115268707,2.0310521125793457,1.1755775213241577
27.1,-6.553289890289307,-2.080528497695923,2.304082155227661,1.410524606704712,1.7691473960876465,0.9049529433250427
27.15,-6.005927562713623,1.3604986667633057,4.725672245025635,1.0904552936553955,2.851029872894287,-0.2878176271915436
27.2,-5.258607864379883,1.8732110261917114,7.6984639167785645,1.0028927326202393,5.4528398513793945,-0.4741324782371521
27.25,-0.9694052934646606,0.0515814945101738,6.945947170257568,0.03909522294998169,7.812004089355469,-0.39906030893325806
27.3,-0.14941364526748657,-1.7807537317276,2.564770460128784,-0.18930625915527344,6.795571804046631,0.06278257817029953
27.35,0.013972640037536621,-3.7669265270233154,2.3507208824157715,-0.4274284243583679,6.058777809143066,0.43985798954963684
27.4,2.940659284591675,-3.8629071712493896,2.5056076049804688,-0.5186403393745422,3.3785200119018555,1.4093729257583618
27.45,4.590101718902588,2.4213955402374268,1.0773638486862183,-1.2613193988800049,2.063345193862915,3.2020583152770996
27.5,2.647791862487793,1.3605318069458008,1.8389147520065308,-0.5786048173904419,2.8814494609832764,2.7939839363098145
27.55,1.681207299232483,4.553340911865234,-2.8624210357666016,-0.3296474814414978,4.1222028732299805,2.319911479949951
27.6,4.385387420654297,2.11435866355896,4.900867462158203,1.1855645179748535,2.3507044315338135,1.0294137001037598
27.65,-0.07708710432052612,2.887486457824707,2.791163682937622,1.1064953804016113,2.3392999172210693,-0.25369760394096375
27.7,2.3086907863616943,-2.0747458934783936,1.2110923528671265,-1.1202654838562012,2.734283447265625,-0.9595945477485657
27.75,-4.9355082511901855,4.540716171264648,-3.932194232940674,-1.7010715007781982,3.830134391784668,-0.25346696376800537
27.8,-0.03329993784427643,-0.8790848255157471,0.8756786584854126,-0.4448811411857605,2.6794512271881104,-1.8427214622497559
27.85,0.7175793647766113,-2.406442165374756,1.8267277479171753,1.731081485748291,3.5186970233917236,-1.3821768760681152
27.9,-8.125158309936523,-8.71928882598877,-2.6640005111694336,3.143373727798462,4.94741153717041,-3.787332534790039
27.95,-4.900071620941162,-1.566493272781372,-1.6304991245269775,3.7115273475646973,1.60721755027771,-5.690321445465088
28.0,-0.08507110178470612,-1.752700924873352,-0.7325699925422668,0.9910870790481567,1.035141944885254,-7.457013130187988
28.05,-0.22235995531082153,-4.233787536621094,-2.4106082916259766,0.35377824306488037,1.9964789152145386,-6.100000858306885
28.1,-1.3782761096954346,-3.9017174243927,-2.2232532501220703,2.5555965900421143,1.198689579963684,-4.341298580169678
28.15,-0.3156837224960327,-0.2922425866127014,-3.839561700820923,4.37463903427124,0.3829217851161957,-2.9762067794799805
28.2,2.1884260177612305,3.3014039993286133,-2.931309223175049,5.272144794464111,-1.0477436780929565,-1.272539734840393
28.25,2.9919981956481934,4.269484519958496,-2.153266191482544,5.2388129234313965,-0.8833707571029663,-0.06764685362577438
28.3,0.8585209846496582,7.122096538543701,3.7493574619293213,5.823494911193848,-1.6486378908157349,2.0794155597686768
28.35,-0.3419891595840454,7.176976203918457,6.688214302062988,4.524654388427734,-3.203026056289673,2.012824058532715
28.4,-0.07786715030670166,4.608940124511719,4.626222610473633,3.0114378929138184,-3.6553103923797607,1.0019829273223877
28.45,-3.528959274291992,1.378129243850708,5.5837016105651855,1.8999013900756836,-4.032840251922607,-0.3386053144931793
28.5,-2.826137065887451,-2.606400966644287,6.146027565002441,0.7953987121582031,-2.131575107574463,-1.7534962892532349
28.55,-5.751406192779541,-2.915273666381836,3.309518814086914,0.7335368990898132,-0.23054242134094238,-0.06510443985462189
28.6,-0.40165185928344727,-1.511609435081482,1.114464521408081,0.48275235295295715,1.0818368196487427,0.7368454337120056
28.65,-1.255281925201416,-2.025574207305908,2.201603889465332,0.3659847676753998,0.7456807494163513,0.9730073809623718
28.7,-2.431317090988159,-0.9856113195419312,1.4065021276474,-0.38310208916664124,1.051942229270935,0.7991092205047607
28.75,-2.4847285747528076,-0.56244295835495,0.4474141597747803,-0.5786095261573792,1.0573173761367798,0.5977861285209656
28.8,-1.9190046787261963,-0.9702008366584778,0.7427926063537598,-0.6436313390731812,0.6780401468276978,0.27290239930152893
28.85,-0.35316014289855957,0.24185071885585785,1.2272695302963257,-0.8772399425506592,0.6563250422477722,0.29328611493110657
28.9,0.052702516317367554,-0.5573570132255554,1.1371241807937622,-1.1331872940063477,0.867766797542572,0.3921672999858856
28.95,0.42498815059661865,-1.4589647054672241,1.9386879205703735,-1.4498143196105957,1.1040191650390625,0.48058179020881653
29.0,-0.41293978691101074,-1.3727954626083374,1.6682841777801514,-2.1367809772491455,1.051120638847351,0.8113374710083008
29.05,-0.7048802375793457,0.37989890575408936,1.2181987762451172,-2.4661433696746826,0.855981707572937,0.968849241733551
29.1,-0.3308084309101105,0.7357682585716248,0.8418589234352112,-2.495116949081421,0.9249958992004395,1.131021499633789
29.15,-0.59905606508255,-0.09041502326726913,-0.08165577054023743,-2.256645679473877,1.0812071561813354,1.1985608339309692
29.2,-1.117402195930481,0.05377194285392761,-0.04068445414304733,-1.6321473121643066,1.3531092405319214,1.0995475053787231
29.25,-0.7300161719322205,-0.3797808885574341,0.3345668315887451,-1.2074137926101685,1.6003202199935913,0.5973381996154785
29.3,-0.8784617185592651,-0.3027297258377075,0.4295884072780609,-0.9829839468002319,1.6606391668319702,0.34234941005706787
29.35,-1.257925271987915,-1.0089064836502075,0.010968978516757488,-0.5796017050743103,1.7206486463546753,-0.20874235033988953
29.4,-1.3559716939926147,-0.34532368183135986,0.28930795192718506,-0.5971176624298096,1.5376449823379517,-0.4727821946144104
29.45,-0.4300467371940613,-0.7746832370758057,0.639823317527771,-0.6293784379959106,1.609867811203003,-0.6930508017539978
29.5,-0.38150307536125183,-0.9120476245880127,0.8331122398376465,-0.2513212561607361,1.4362307786941528,-0.4729134738445282
29.55,-1.1163049936294556,-0.1932460516691208,0.8199601769447327,0.07354409247636795,1.2937744855880737,-0.626921534538269
29.6,-1.192495584487915,-0.7720234990119934,1.0605050325393677,0.0009693354368209839,1.3138759136199951,-0.7565914988517761
29.65,-1.1690270900726318,0.11548120528459549,1.1902320384979248,0.01330593228340149,1.1505249738693237,-0.8196897506713867
29.7,-1.0963571071624756,-0.582187831401825,0.8602133989334106,-0.35114121437072754,1.0879137516021729,-0.977580189704895
29.75,-0.7258387804031372,-0.986853837966919,0.8297117948532104,-0.2027837187051773,0.8408207297325134,-0.8799565434455872
29.8,-0.9546394348144531,-0.7384282946586609,0.7322091460227966,-0.147867813706398,0.7144810557365417,-0.8611871600151062
29.85,-0.6204835176467896,-0.8593810200691223,1.3361146450042725,-0.027256757020950317,0.613775372505188,-0.8727294206619263
29.9,-0.918278694152832,-0.23645618557929993,1.7999587059020996,-0.09329640865325928,0.7286751866340637,-0.8996085524559021
29.95,-1.0586249828338623,-0.8230031132698059,0.9977269172668457,-0.5112367868423462,0.8643869161605835,-1.0498512983322144
30.0,-1.7001274824142456,-0.14027899503707886,0.8226261138916016,-0.8790844678878784,1.2775366306304932,-1.3406599760055542
30.05,-2.441617965698242,-0.23725618422031403,0.11336979269981384,-0.976104736328125,1.1645523309707642,-1.393533706665039
30.1,-2.0565643310546875,-0.3261825442314148,0.5253768563270569,-0.6697589159011841,1.0019611120224,-1.457776427268982
30.15,-1.0863862037658691,0.38441553711891174,0.8122965693473816,-0.2751437723636627,0.3331686854362488,-1.4295612573623657
30.2,-0.9682542085647583,0.3854789733886719,0.22852395474910736,-0.2006383240222931,-0.16967348754405975,-1.0438989400863647
30.25,0.35688480734825134,0.37421607971191406,0.4338134527206421,0.09402818977832794,-0.7564713358879089,-0.9638738632202148
30.3,-0.12967562675476074,0.3684520423412323,0.5083466172218323,-0.07985483109951019,-0.6978723406791687,-0.8453280925750732
30.35,-0.7248234152793884,0.2836647033691406,0.06250704079866409,-0.1771056205034256,-0.5762009024620056,-0.8515841364860535
30.4,-0.32149380445480347,1.308110237121582,0.5735849738121033,-0.04812261462211609,-1.0192382335662842,-0.9743900299072266
30.45,0.5644855499267578,1.0353528261184692,0.11984732002019882,-0.5307740569114685,-0.9343282580375671,-0.9057055711746216
30.5,0.79408198595047,1.4225884675979614,0.6328217387199402,-0.6575078964233398,-0.8284733295440674,-0.7144719958305359
30.55,0.7677690386772156,0.41590020060539246,1.067270278930664,-1.2068310976028442,-1.2405729293823242,-0.39442986249923706
30.6,0.6293493509292603,0.2609434127807617,0.49013951420783997,-1.3932867050170898,-1.3026394844055176,-0.057331632822752
30.65,-0.18133889138698578,0.8170929551124573,0.5887733697891235,-1.5478078126907349,-1.5541120767593384,0.05340011790394783
30.7,0.7382739186286926,0.7747334241867065,2.0508310794830322,-1.7343946695327759,-1.0846256017684937,-0.160014346241951
30.75,-0.14093711972236633,1.6566306352615356,0.5525397062301636,-1.635283350944519,-0.10641851276159286,-0.19262687861919403
30.8,-0.5642725229263306,0.19071391224861145,-0.23418670892715454,-1.1235337257385254,0.1636555939912796,-0.6077831983566284
30.85,0.7395655512809753,0.004095045849680901,0.518770694732666,-0.7627386450767517,-0.469400018453598,-0.5311372876167297
30.9,1.6771395206451416,-0.5422810912132263,-0.6287885308265686,-0.6210212707519531,-0.4957789480686188,0.1380266696214676
30.95,2.4563021659851074,-0.759182333946228,-5.372780799865723,-0.8718673586845398,-0.4265693724155426,0.5198195576667786
31.0,4.488103866577148,-0.03287247568368912,-4.350185394287109,-1.408486247062683,-0.9993507862091064,0.302613228559494
31.05,2.3839592933654785,-3.1518008708953857,7.19315242767334,-3.073057174682617,-0.8548049330711365,-0.715042233467102
31.1,-7.126308917999268,2.7658350467681885,-3.0605177879333496,-0.06492970883846283,1.4157878160476685,-0.7990981340408325
31.15,-1.0680508613586426,1.543338418006897,-3.6483006477355957,0.2627367079257965,-0.1892157793045044,-0.09871343523263931
31.2,1.016974925994873,1.990573525428772,-2.8197999000549316,0.11119282245635986,0.16314572095870972,-0.06594903022050858
31.25,-1.3959887027740479,-1.5308908224105835,0.2927972972393036,0.44642800092697144,0.43860068917274475,-0.7563527822494507
31.3,-3.412538766860962,-0.49271780252456665,-1.0444073677062988,1.2869017124176025,0.3496170938014984,-1.068347454071045
31.35,-3.1492342948913574,0.12063224613666534,-1.5521492958068848,1.7165513038635254,-0.6013022661209106,-1.1352843046188354
31.4,0.21781128644943237,-1.7155030965805054,0.888131856918335,1.2896697521209717,-2.1774344444274902,-0.8141981363296509
31.45,3.9742441177368164,-5.969168186187744,3.3166844844818115,-0.056531935930252075,-2.552600383758545,-0.5035870671272278
31.5,3.6640067100524902,-4.4833502769470215,5.394207000732422,-0.8448792099952698,-1.6867825984954834,0.009091616608202457
31.55,2.731679916381836,-2.4314534664154053,4.365683078765869,-1.2240830659866333,-1.2573827505111694,0.4690680503845215
31.6,0.26976853609085083,-0.7747454643249512,3.143907070159912,-0.9228928685188293,0.051807552576065063,1.02359938621521
31.65,0.6400128602981567,-0.08444134145975113,1.5047478675842285,-0.4808616042137146,1.3793123960494995,1.381744384765625
31.7,2.1380867958068848,1.2150537967681885,-0.5007702112197876,-0.2187114804983139,2.320901870727539,1.5056501626968384
31.75,-1.233788013458252,2.2895596027374268,-1.0389070510864258,-0.5238400101661682,2.727001190185547,1.501184105873108
31.8,-0.8157777786254883,2.9711527824401855,-3.3022091388702393,-1.3251198530197144,3.1228535175323486,1.7299208641052246
31.85,-3.574786901473999,2.859194278717041,-2.345928907394409,-1.1735587120056152,1.9167683124542236,1.1918021440505981
31.9,-2.6170008182525635,1.832913875579834,-3.3452298641204834,-0.6195825338363647,0.17005886137485504,0.5978569388389587
31.95,-1.5126363039016724,0.4381229281425476,-1.6380561590194702,-1.330797791481018,-0.5799682140350342,1.0676296949386597
32.0,4.843794822692871,3.710019588470459,0.9130874276161194,-1.2942529916763306,-0.5524567365646362,1.0136784315109253
32.05,6.733039379119873,1.0718754529953003,3.8808653354644775,-1.9351654052734375,-0.19725844264030457,-0.5441979169845581
32.1,-0.4087855815887451,4.487550258636475,-0.87201327085495,-0.3108810782432556,-0.01180064957588911,-0.8571121692657471
32.15,-0.5331981778144836,-3.5776467323303223,3.174320697784424,-1.2723348140716553,0.7815269827842712,0.9340612888336182
32.2,1.7054297924041748,-3.419598340988159,6.725294589996338,-0.28658634424209595,1.4822701215744019,1.3873871564865112
32.25,3.1036407947540283,5.441115856170654,3.020347833633423,2.4890317916870117,2.4781482219696045,-0.8332484364509583
32.3,-4.241650581359863,7.448101997375488,-9.704655647277832,3.7881102561950684,4.873737335205078,-4.796676158905029
32.35,0.6774058938026428,-1.677582025527954,0.5651800036430359,4.31878137588501,-1.0480685234069824,-4.425349235534668
32.4,-2.8824687004089355,-0.4777604341506958,7.7424211502075195,5.045602798461914,-1.7845593690872192,-1.7302683591842651
32.45,-1.5580863952636719,-1.8016042709350586,5.416743278503418,4.252133369445801,0.356058806180954,-1.511206030845642
32.5,2.964247226715088,-4.351136684417725,3.759368896484375,2.7345218658447266,0.8169569373130798,-1.471079707145691
32.55,1.0708513259887695,-4.004201889038086,1.4269301891326904,0.11199362576007843,1.5474963188171387,0.23873792588710785
32.6,-1.3737366199493408,-3.0081374645233154,-2.187746524810791,-3.5789859294891357,0.04969881474971771,1.7666552066802979
32.65,-0.820611834526062,-4.334508419036865,-4.709316730499268,-5.326421737670898,-1.609333872795105,2.7190520763397217
32.7,-2.6362555027008057,-5.0175933837890625,-6.75852632522583,-4.094894886016846,-1.0210156440734863,1.9829756021499634
32.75,-1.8299190998077393,-3.5237789154052734,-5.130069732666016,-1.689582109451294,-1.5952942371368408,1.5437791347503662
32.8,-0.7168940305709839,-1.523316502571106,-1.6550425291061401,0.050706833600997925,-1.5958307981491089,1.594002366065979
32.85,-3.0902085304260254,0.15552137792110443,-0.7362399101257324,1.5344552993774414,0.2034701108932495,0.8723773956298828
32.9,-4.326789855957031,0.6140488386154175,0.019709425047039986,1.3468575477600098,0.8865393400192261,0.29856032133102417
32.95,-2.770902633666992,-0.37726712226867676,0.5085147023200989,0.3470521569252014,0.022061185911297798,0.21628974378108978
33.0,-0.7869912385940552,-1.4716103076934814,1.1646387577056885,0.783564031124115,-0.7039042711257935,0.4376995265483856
33.05,-0.6008737087249756,-1.1026930809020996,2.6400599479675293,1.8400202989578247,-0.9575221538543701,0.8963546752929688
33.1,1.4774173498153687,-0.6100136637687683,5.762763023376465,1.4093542098999023,-2.316701650619507,0.8463451266288757
33.15,4.639289379119873,10.514328002929688,1.010583758354187,-1.3859643936157227,-1.8709170818328857,-0.6370532512664795
33.2,4.4370574951171875,2.928128480911255,-6.545029163360596,-4.744157791137695,-0.6572126746177673,-2.625173568725586
33.25,1.0403945446014404,-3.5397074222564697,-2.020434856414795,-2.8382887840270996,-0.958515465259552,-0.3951096534729004
33.3,-6.834665298461914,-0.28320029377937317,-2.214099645614624,0.27528148889541626,0.74151211977005,1.3208768367767334
33.35,-6.864872932434082,0.15122631192207336,-4.448245048522949,0.4005162715911865,-0.6067162156105042,0.6905577182769775
33.4,-0.876296877861023,1.2352699041366577,-2.4795494079589844,0.5604367256164551,-4.53357458114624,0.8102236986160278
33.45,0.749148964881897,1.5532658100128174,0.7227957844734192,1.1430684328079224,-4.5820183753967285,0.17263785004615784
33.5,1.0667728185653687,0.6396312713623047,0.789246678352356,0.613982081413269,-3.4357428550720215,-0.6680052876472473
33.55,2.433279514312744,-0.02751077339053154,1.8908945322036743,0.16663922369480133,-2.933816909790039,-1.2616267204284668
33.6,3.0971202850341797,0.02409745752811432,0.9247961044311523,-0.22607126832008362,-2.643085479736328,-1.315524697303772
33.65,2.503916025161743,-0.7107433080673218,3.2124788761138916,-0.7039599418640137,-3.625744342803955,-1.2417874336242676
33.7,-0.035654664039611816,-0.13446663320064545,3.754055976867676,-0.6001015901565552,-3.17632794380188,-0.8810686469078064
33.75,-0.4024869203567505,-0.022686321288347244,2.5696463584899902,-0.31305786967277527,-2.080901622772217,-1.022557020187378
33.8,-0.4317816495895386,-0.4912143051624298,3.5814921855926514,-0.5826899409294128,-1.7925081253051758,-1.329210638999939
33.85,-0.30570924282073975,1.2309978008270264,2.708902359008789,-0.5056569576263428,-0.4587833881378174,-1.0826940536499023
33.9,0.5280393362045288,2.049605369567871,1.701721429824829,0.35126975178718567,0.8400132656097412,-1.2710795402526855
33.95,1.3784706592559814,0.5342597365379333,1.4651988744735718,0.31405195593833923,0.5925741195678711,-2.2257866859436035
34.0,1.5663317441940308,-0.7038471698760986,1.8676382303237915,-0.12913089990615845,0.5716458559036255,-2.111297607421875
34.05,2.983229875564575,0.441162109375,1.5762689113616943,0.011959314346313477,0.6648040413856506,-1.0049725770950317
34.1,9.951290130615234,-6.6374287605285645,-2.744236946105957,1.0670297145843506,-0.7843076586723328,-1.7874308824539185
34.15,40.69256591796875,-5.603995323181152,41.17107391357422,-1.4656158685684204,-2.9777491092681885,-4.727428913116455
34.2,24.99184799194336,-12.290809631347656,31.169218063354492,2.8199281692504883,0.733881950378418,0.1253129541873932
34.25,24.046646118164062,6.280688762664795,13.927111625671387,3.5962181091308594,5.966098785400391,6.271118640899658
34.3,15.227959632873535,18.659564971923828,-4.4392409324646,1.2797718048095703,9.769229888916016,5.131535053253174
34.35,-16.87577247619629,19.680025100708008,-30.148080825805664,2.548823833465576,13.429218292236328,2.7782509326934814
34.4,-29.438997268676758,-3.6682305335998535,-9.816162109375,-1.7327907085418701,7.638725280761719,0.20294000208377838
34.45,-13.111939430236816,-0.4929230809211731,-2.248279571533203,1.0135244131088257,1.294819951057434,-1.8894284963607788
34.5,-6.191844463348389,-0.5451071858406067,-0.055625028908252716,0.821045994758606,1.231135606765747,-3.9876253604888916
34.55,2.6715426445007324,-0.19905953109264374,0.9539952278137207,0.3704547882080078,1.0844184160232544,-4.152253150939941
34.6,5.825334072113037,-1.7233487367630005,0.7112041711807251,0.0635882019996643,0.07550859451293945,-2.977191925048828
34.65,6.834141731262207,-1.0426204204559326,-0.31265854835510254,0.06374287605285645,-0.8335205316543579,-1.7832077741622925
34.7,5.642827033996582,-1.4706008434295654,-1.0220304727554321,-0.6058650612831116,-1.4263250827789307,-0.3740149140357971
34.75,4.801960468292236,-1.3676133155822754,-3.6786739826202393,-0.6231676340103149,-1.5445568561553955,-0.6089444756507874
34.8,6.542112350463867,-3.3388671875,-2.3705227375030518,-0.561828076839447,-1.665084719657898,0.08675958961248398
34.85,4.377201080322266,-0.9101390242576599,0.10256946831941605,1.6194294691085815,-0.10158153623342514,-0.035145353525877
34.9,3.2714056968688965,-0.13964778184890747,3.446972608566284,3.717001438140869,0.5359461903572083,-0.8244553208351135
34.95,5.541959285736084,0.7094828486442566,4.781356334686279,3.281257390975952,1.3420264720916748,-0.37327051162719727
35.0,2.9972312450408936,2.0000956058502197,1.3830097913742065,1.3221625089645386,2.5851542949676514,0.7949631810188293
35.05,0.19440025091171265,3.0738675594329834,-2.3656764030456543,-0.2415468692779541,2.29641056060791,2.5203728675842285
35.1,-1.2945858240127563,-1.6031348705291748,-4.882396697998047,-0.7769850492477417,1.2783868312835693,2.4569091796875
35.15,1.1362111568450928,-0.0587952584028244,-5.43515682220459,0.4751880168914795,0.4249870479106903,1.748605728149414
35.2,-0.09929776191711426,-0.6884809732437134,-3.440309524536133,0.4076153635978699,1.1736727952957153,2.0390777587890625
35.25,-2.9685559272766113,2.834249973297119,-2.7370240688323975,-0.16602283716201782,2.659339427947998,2.0327131748199463
35.3,-9.004443168640137,6.9748382568359375,-1.4424189329147339,-1.3025543689727783,5.27819299697876,1.219550371170044
35.35,-15.601978302001953,4.5212554931640625,14.818646430969238,-1.1689867973327637,6.901368141174316,-0.14600014686584473
35.4,-7.96104097366333,-2.0641887187957764,21.188140869140625,-0.5231658220291138,3.03670597076416,-0.6878010034561157
35.45,-3.8410003185272217,-2.7305822372436523,9.584689140319824,-0.8171103000640869,-1.4542597532272339,-1.8329757452011108
35.5,-2.088207721710205,-3.52475905418396,1.6912966966629028,-0.5444116592407227,-2.2568397521972656,-1.2670758962631226
35.55,-1.298098087310791,-3.7119202613830566,2.7207369804382324,0.2112196832895279,-1.3450148105621338,-0.8190348744392395
35.6,-2.0187253952026367,-1.0287725925445557,0.1728115677833557,0.5174397230148315,-1.6568902730941772,-0.9732983112335205
35.65,-0.9873939156532288,-3.005042314529419,-2.3698747158050537,1.480711579322815,-3.7710916996002197,-0.23275841772556305
35.7,10.71851921081543,2.7484543323516846,-4.293585300445557,2.94323468208313,-6.000042915344238,0.6102713942527771
35.75,11.636564254760742,5.189676284790039,-0.30578359961509705,1.694007158279419,-4.33994197845459,2.319239616394043
35.8,10.404617309570312,4.992382526397705,-3.1163768768310547,0.18297314643859863,-6.443249225616455,4.2190775871276855
35.85,6.879415512084961,8.002683639526367,1.0155115127563477,0.1980046033859253,-8.934493064880371,5.2328877449035645
35.9,4.823362350463867,5.41841983795166,6.625955104827881,-2.412276268005371,-8.742241859436035,5.094377040863037
35.95,-5.239375114440918,7.156697750091553,0.5822080969810486,-5.635254859924316,-2.202610492706299,3.462852954864502
36.0,-7.984415531158447,-5.237027168273926,-6.973708629608154,-10.679895401000977,2.1092522144317627,0.8254711627960205
36.05,-11.406990051269531,-2.11360239982605,1.0678341388702393,-7.7700114250183105,4.2803449630737305,-0.11276144534349442
36.1,-7.911819934844971,-7.587100982666016,1.8619155883789062,-3.851186513900757,2.382066249847412,0.8865146040916443
36.15,-4.7439866065979,-7.288810729980469,2.8408560752868652,-1.2544643878936768,1.4163464307785034,0.7185013890266418
36.2,-3.0404844284057617,-5.9934587478637695,2.992114782333374,-0.025273554027080536,1.1244194507598877,0.41341859102249146
36.25,6.128098487854004,-5.270962715148926,4.08124303817749,1.8212426900863647,-0.5056238174438477,0.6730220913887024
36.3,-11.355751037597656,-4.063848495483398,-29.077762603759766,12.991507530212402,-4.647219657897949,-1.491883397102356
36.35,-0.3325139284133911,30.698360443115234,-4.912073612213135,24.323078155517578,-5.637132167816162,-3.2051141262054443
36.4,-22.495018005371094,30.44611167907715,5.396411418914795,12.89216423034668,11.633964538574219,2.4077837467193604
36.45,-31.597240447998047,17.403417587280273,19.661348342895508,8.92150592803955,9.477959632873535,9.929073333740234
36.5,3.2023696899414062,-10.516838073730469,36.15657424926758,12.58753776550293,9.83054256439209,6.740794658660889
36.55,18.680883407592773,-29.631139755249023,15.631760597229004,10.694906234741211,8.836044311523438,9.661020278930664
36.6,15.910405158996582,-16.424570083618164,-5.96250057220459,7.369173526763916,4.2959723472595215,7.408508777618408
36.65,14.97943115234375,-0.8007023334503174,-10.481154441833496,1.2368906736373901,3.9453132152557373,1.5533767938613892
36.7,11.224194526672363,-3.347245216369629,-8.335054397583008,0.44285041093826294,0.3286111354827881,-0.6144264936447144
36.75,-8.304011344909668,2.5402333736419678,1.7787281274795532,2.047776699066162,-0.975671112537384,0.9371328949928284
36.8,1.6579198837280273,2.8981053829193115,-3.287163257598877,2.76389741897583,0.2587098479270935,1.2934391498565674
36.85,4.096557140350342,8.195724487304688,2.839995861053467,2.0622048377990723,0.6554234027862549,0.5243012309074402
36.9,4.226889133453369,1.5063403844833374,0.6252143979072571,-0.3613968789577484,0.24267709255218506,-0.8262664079666138
36.95,14.609073638916016,6.435309886932373,-6.633009433746338,-3.8773281574249268,0.2296210676431656,-1.186187744140625
37.0,16.46070671081543,-1.7348028421401978,-0.1079547181725502,-0.5856335163116455,-4.67452335357666,-1.9852501153945923
37.05,4.760270595550537,-6.570981502532959,14.424548149108887,0.23187214136123657,-12.194424629211426,-2.5403239727020264
37.1,-5.316281795501709,-8.892971992492676,4.937103748321533,2.2621283531188965,-14.35420036315918,-2.0460588932037354
37.15,-8.015789985656738,1.0063225030899048,-6.488457679748535,2.559986114501953,-10.792470932006836,-2.662949323654175
37.2,-2.8312156200408936,-1.1019002199172974,-1.4332752227783203,-1.550117015838623,-4.727743625640869,1.5962624549865723
37.25,2.787782669067383,-5.20302677154541,0.9281916618347168,-2.837902307510376,-1.8738718032836914,2.123593807220459
37.3,8.742258071899414,-7.810990810394287,2.464980125427246,-1.914569616317749,-2.4919419288635254,2.4205002784729004
37.35,-2.5439867973327637,-16.325693130493164,-12.406256675720215,-0.9771044254302979,-7.011905670166016,-1.9053925275802612
37.4,-8.966867446899414,25.34439468383789,-66.0252914428711,7.675224304199219,-11.255818367004395,-20.9706974029541
37.45,-36.58076095581055,8.123221397399902,-19.69866180419922,-0.8588042259216309,9.218240737915039,-1.7449891567230225
37.5,-35.2181510925293,-5.660732746124268,20.580665588378906,5.433912754058838,19.11302947998047,-3.1884102821350098
37.55,16.833805084228516,9.77963638305664,22.883724212646484,-1.6650665998458862,22.916101455688477,-6.684436321258545
37.6,20.800125122070312,3.2882041931152344,2.3353443145751953,-1.5903578996658325,10.649630546569824,-5.787702560424805
37.65,14.315134048461914,-5.417095184326172,1.2469258308410645,-1.4827806949615479,3.1310009956359863,-1.9797660112380981
37.7,9.565476417541504,-7.980823040008545,2.714571237564087,-1.5939486026763916,-0.006117473356425762,-1.467031478881836
37.75,6.887372016906738,-6.808618068695068,-1.741573452949524,-2.3802602291107178,-1.7417359352111816,-0.6008367538452148
37.8,0.4023208022117615,-5.301161766052246,-0.7820783853530884,-0.5947357416152954,-1.616341471672058,-0.48323383927345276
37.85,3.0322914123535156,-3.6086337566375732,-4.167822360992432,-1.554153323173523,-0.02271677926182747,-1.9049451351165771
37.9,2.7767510414123535,0.5519919991493225,-3.084099531173706,-1.525234580039978,-1.990715503692627,-0.252658873796463
37.95,0.9161661267280579,1.1323940753936768,-0.9121071100234985,0.37834984064102173,-1.3605151176452637,-0.12056417763233185
38.0,2.9750728607177734,-1.4933478832244873,-1.663771390914917,0.37629154324531555,0.5144835710525513,-1.1009055376052856
38.05,3.6866917610168457,-2.0141637325286865,-3.3002665042877197,-0.5151412487030029,0.3003958463668823,-0.42999401688575745
38.1,-0.7165749073028564,1.6687089204788208,0.6091837286949158,-0.4572431147098541,-1.2051880359649658,0.6462575197219849
38.15,1.1326711177825928,0.3593656122684479,-0.7016935348510742,-0.5525866746902466,0.3379879891872406,-0.38831305503845215
38.2,1.8111892938613892,0.4797651767730713,-0.9309808015823364,-0.5847539901733398,0.6610361337661743,-0.6813338994979858
38.25,2.01182222366333,-0.17345686256885529,-1.9386202096939087,-0.5930035710334778,0.2827005386352539,-0.5248834490776062
38.3,1.0545134544372559,-0.6485832333564758,-1.643968105316162,0.33688884973526,0.27839359641075134,-0.36564597487449646
38.35,1.3005353212356567,-2.077500820159912,-1.2419790029525757,0.05620218813419342,0.9134928584098816,-0.6517189145088196
38.4,0.982189953327179,-3.089181661605835,-2.217708110809326,-0.17545169591903687,0.7431000471115112,-0.5062397718429565
38.45,-0.12850213050842285,1.4253002405166626,-4.426642417907715,-0.446184366941452,0.12679503858089447,0.37275230884552
38.5,0.2624838054180145,3.3751533031463623,-1.7614314556121826,0.12737376987934113,-0.617831826210022,0.7811737060546875
38.55,-0.12408125400543213,4.404345512390137,2.440004825592041,-0.9473779797554016,-0.4303087592124939,-0.0016574196051806211
38.6,2.267160654067993,1.6566777229309082,-1.3025625944137573,-0.7012184858322144,0.8028321862220764,0.11581514030694962
38.65,0.7898646593093872,1.5557866096496582,-1.4058690071105957,0.5147618055343628,0.08582812547683716,1.258157730102539
38.7,1.3581125736236572,-4.105463981628418,-1.7462481260299683,0.62252277135849,-0.47530457377433777,0.260951429605484
38.75,-0.45356979966163635,-3.1373775005340576,2.2622244358062744,0.3625401258468628,-0.9310349225997925,0.8180455565452576
38.8,-0.928112804889679,-0.050075463950634,-0.9413667321205139,-0.9842842817306519,-0.01589723862707615,0.31622061133384705
38.85,-1.0585877895355225,2.3308539390563965,-2.8564658164978027,-0.0020528212189674377,1.2566145658493042,-0.24682487547397614
38.9,1.8821604251861572,-1.3638644218444824,-4.207589626312256,0.07049816846847534,0.9497493505477905,-1.0872820615768433
38.95,1.1787467002868652,-2.0545225143432617,-1.7935552597045898,0.016818296164274216,-0.3091416656970978,-0.23142719268798828
39.0,1.7419246435165405,2.632344961166382,-3.382105827331543,0.2501337230205536,-0.04193589463829994,0.32228678464889526
39.05,1.9698964357376099,2.4222240447998047,-5.415123462677002,1.5985997915267944,1.2485665082931519,-0.2788880169391632
39.1,2.5419440269470215,2.032914638519287,-1.107285499572754,2.414161205291748,-0.4549933075904846,0.01858014240860939
39.15,-0.7760207056999207,-3.8516392707824707,4.196281433105469,-0.18301638960838318,-2.316032648086548,-1.066853642463684
39.2,0.7570605278015137,-3.1557412147521973,3.9353060722351074,0.10948805510997772,0.36892497539520264,-0.24853305518627167
39.25,0.4757063388824463,1.276033878326416,5.199193000793457,2.7317264080047607,-1.292667031288147,1.1384145021438599
39.3,1.8095589876174927,0.7640161514282227,1.8345674276351929,1.3656305074691772,-2.3854548931121826,-0.4091210663318634
39.35,4.54958438873291,-1.8595000505447388,-3.3708269596099854,0.15350845456123352,-0.7499774098396301,-1.1169143915176392
39.4,4.395821571350098,-1.2973840236663818,-1.297008752822876,2.121234655380249,-2.920107126235962,0.3411894738674164
39.45,7.790928840637207,-2.331862211227417,7.3861823081970215,5.9241437911987305,-7.935637474060059,3.8067879676818848
39.5,-7.069482326507568,-19.77593231201172,3.8472070693969727,6.9992899894714355,-14.344205856323242,3.16432523727417
39.55,-2.5022706985473633,-16.406232833862305,-5.556605815887451,2.4836032390594482,-10.868582725524902,2.196845769882202
39.6,-4.514582633972168,-0.5107086300849915,4.652953624725342,-8.049111366271973,-5.797998905181885,1.995166540145874
39.65,-4.702955722808838,10.01594352722168,12.611175537109375,-14.475625991821289,-1.1383320093154907,3.3035976886749268
39.7,-1.544602394104004,14.87073802947998,2.3749091625213623,-11.220129013061523,1.464228630065918,1.3361458778381348
39.75,-2.1873044967651367,8.489068984985352,-3.6026577949523926,-6.187927722930908,0.9580424427986145,0.4546087980270386
39.8,-5.569801330566406,0.8437779545783997,-3.39453125,-4.835958003997803,-0.07949735224246979,-1.539393663406372
39.85,-6.632803916931152,1.6154087781906128,-7.76301383972168,-5.031350135803223,-1.738081693649292,-3.3529164791107178
39.9,-2.874628782272339,0.6049330234527588,-2.2922427654266357,-2.7604143619537354,0.21751800179481506,-3.442707061767578
39.95,-2.261280059814453,-0.7301278114318848,-5.3669562339782715,-2.5776476860046387,-0.9781025052070618,-3.590808153152466
40.0,0.16382527351379395,-0.7504925727844238,-4.840706825256348,-1.996928334236145,-1.4993171691894531,-3.2799630165100098
40.05,-0.5294021368026733,0.2916308641433716,-1.041178584098816,-1.7083545923233032,-0.9231557250022888,-2.6484439373016357
40.1,2.3572745323181152,-0.13157519698143005,-2.679865837097168,-1.8897364139556885,-0.4683395326137543,-2.389704465866089
40.15,0.9068109393119812,1.2233364582061768,-0.7041957974433899,-0.882445216178894,0.797389805316925,-1.02335524559021
40.2,0.4641629457473755,-0.2865000069141388,0.23640599846839905,-0.6486608982086182,1.5962656736373901,-0.5723907351493835
40.25,-0.18859267234802246,0.8026422262191772,-1.880921483039856,-0.5381006598472595,1.509010910987854,-0.1865651160478592
40.3,1.1454441547393799,0.37986308336257935,-1.6842703819274902,-0.0760725736618042,1.1719781160354614,0.116242915391922
40.35,1.0720081329345703,-0.6533344984054565,-0.9331369996070862,0.21607983112335205,1.3914669752120972,0.3775528073310852
40.4,-0.20640212297439575,0.3136638104915619,-2.5677058696746826,0.3615076541900635,1.197938323020935,0.7012903690338135
40.45,-1.1019577980041504,0.7045947313308716,-1.033118724822998,0.6778573393821716,0.9636973738670349,0.7160385847091675
40.5,-1.4220311641693115,0.9270011782646179,-1.0678983926773071,0.7744319438934326,0.39518988132476807,0.663550078868866
40.55,-2.7278475761413574,-0.4117376506328583,0.37373512983322144,1.051574945449829,0.3432455062866211,0.6464769244194031
40.6,-1.8722925186157227,0.36645326018333435,-1.2517300844192505,1.1319509744644165,0.19337274134159088,0.5343332290649414
40.65,-2.2168145179748535,-0.2728874683380127,1.1196906566619873,1.626620888710022,0.314972847700119,0.4802660644054413
40.7,-0.32094186544418335,-2.134927272796631,2.8605918884277344,1.1602610349655151,-0.6138293743133545,-0.3661488890647888
40.75,-2.096022605895996,-3.968731164932251,4.996584415435791,0.4611228406429291,-1.1388859748840332,-0.565157949924469
40.8,1.2426518201828003,0.01773993670940399,-5.065919399261475,-0.7434548735618591,-2.00654673576355,-0.812298059463501
40.85,-1.2480740547180176,-0.523454487323761,-2.3388025760650635,0.33556318283081055,-1.9730122089385986,0.23770424723625183
40.9,-4.875061511993408,0.026676809415221214,1.1902023553848267,-0.7451175451278687,-1.5865164995193481,-1.026085376739502
40.95,-1.6581151485443115,2.2148373126983643,-0.7967295050621033,-1.9547704458236694,-1.613189935684204,-2.7633087635040283
41.0,2.0060055255889893,0.620912492275238,1.7316778898239136,-1.3116227388381958,-0.23068581521511078,-1.882091760635376
41.05,5.17140007019043,-0.648922860622406,0.469617635011673,-1.3309470415115356,0.29713791608810425,-1.1010762453079224
41.1,0.7665402889251709,0.7966570258140564,-2.2668182849884033,-1.3746020793914795,0.5052087306976318,-0.1878076195716858
41.15,1.100059986114502,-0.009385013952851295,-0.4598049223423004,-0.5958346724510193,0.9752086997032166,-0.003291501896455884
41.2,1.4715795516967773,0.18927493691444397,-0.5745949149131775,-0.05814162641763687,1.2947187423706055,0.5687472820281982
41.25,-0.34625789523124695,0.19748976826667786,-0.16187617182731628,0.2811414301395416,1.265628695487976,0.6358670592308044
41.3,1.0958740711212158,1.612552285194397,-3.1391613483428955,0.4147453308105469,1.1155927181243896,0.714748203754425
41.35,-2.256200075149536,0.4470910429954529,0.3419991731643677,1.3673369884490967,1.7638121843338013,1.3088834285736084
41.4,-2.1499204635620117,1.300948143005371,-0.03679182007908821,1.223620057106018,1.5703660249710083,0.9335961937904358
41.45,-1.6290154457092285,0.24487590789794922,-0.29524561762809753,1.2694566249847412,1.4913464784622192,0.3744730055332184
41.5,-2.960812568664551,0.7515689730644226,-1.358303427696228,1.5292420387268066,1.499019742012024,0.4564420282840729
41.55,-3.048835039138794,-0.7879658937454224,-0.8156436681747437,2.0206992626190186,1.8711153268814087,0.6087844967842102
41.6,-5.2301225662231445,-1.8325246572494507,-0.24322675168514252,2.0752055644989014,1.5241872072219849,0.34612688422203064
41.65,-2.9173665046691895,-1.7877566814422607,-4.954715728759766,1.4288873672485352,1.2533636093139648,-0.6647681593894958
41.7,3.0874295234680176,10.524803161621094,-14.271492004394531,2.473893165588379,0.5622245073318481,-2.3106958866119385
41.75,12.490793228149414,16.10320472717285,7.157132148742676,11.312318801879883,-1.2358570098876953,-2.113917112350464
41.8,9.568805694580078,-17.270648956298828,9.927330017089844,18.51643943786621,-10.191818237304688,-4.282631874084473
41.85,-1.9475255012512207,-3.9751944541931152,-0.6604453325271606,11.518814086914062,-6.448236465454102,-3.1693575382232666
41.9,-1.261886477470398,-2.046999931335449,5.283202648162842,4.306323051452637,-0.6976776719093323,0.5963374376296997
41.95,2.9341413974761963,-5.722959041595459,1.1978275775909424,2.4766464233398438,0.9388297200202942,5.660315990447998
42.0,16.062206268310547,8.016403198242188,5.313660621643066,-1.3390321731567383,-0.855336606502533,8.306655883789062
42.05,2.9325380325317383,9.886502265930176,6.761598110198975,-1.3989896774291992,-7.581272602081299,4.971654891967773
42.1,-9.190510749816895,4.750375747680664,7.539448261260986,-2.071948528289795,-11.323620796203613,2.64128041267395
42.15,-13.186500549316406,1.4733916521072388,3.859790086746216,-2.2604146003723145,-10.605080604553223,0.06598878651857376
42.2,-16.595943450927734,-0.26189541816711426,-3.554220199584961,1.4317989349365234,-4.487604141235352,-0.26937928795814514
42.25,-9.442401885986328,-3.4594759941101074,-4.04224157333374,2.4785807132720947,-0.9246061444282532,2.48382568359375
42.3,-5.8889312744140625,-3.117431163787842,-5.476373195648193,2.8177077770233154,-0.0851355493068695,1.6568424701690674
42.35,-3.0301501750946045,-2.9578652381896973,-7.3722004890441895,2.765223503112793,0.7988825440406799,1.4073187112808228
42.4,-1.4571130275726318,-3.570674180984497,-3.3072595596313477,1.7887133359909058,1.2415910959243774,1.3388129472732544
42.45,-0.515861988067627,-3.8593590259552,-1.2344462871551514,1.0766514539718628,1.2391918897628784,0.6253727078437805
42.5,-2.4199395179748535,-2.3444056510925293,1.682131052017212,0.24806028604507446,0.08941938728094101,0.10261935740709305
42.55,-2.727755069732666,-3.8367137908935547,2.566084384918213,0.6584637761116028,0.09650657325983047,1.310382604598999
42.6,-3.498276948928833,-5.161190986633301,2.6054885387420654,1.0935258865356445,0.9229682087898254,1.864599585533142
42.65,-2.3458900451660156,-4.467784404754639,2.266782760620117,1.8205721378326416,2.85709547996521,3.0070838928222656
42.7,-0.7747150659561157,-5.834417819976807,0.9300994873046875,2.377345323562622,4.10929012298584,4.900148391723633
42.75,-0.1261231005191803,-0.19049449265003204,-0.7395248413085938,2.5689735412597656,3.538640022277832,5.235874176025391
42.8,-2.2378861904144287,0.19111619889736176,0.6721930503845215,2.004523754119873,2.4627535343170166,4.238783836364746
42.85,7.928184986114502,9.243818283081055,2.456531047821045,3.481748580932617,1.0571060180664062,4.16718864440918
42.9,7.12240743637085,5.789796352386475,2.96938157081604,2.0131993293762207,1.8052271604537964,1.3892043828964233
42.95,0.34549716114997864,1.8131687641143799,0.07622577250003815,1.3655564785003662,1.5338292121887207,-0.460367351770401
43.0,-1.4760055541992188,-1.4238642454147339,-2.7291009426116943,0.0021110475063323975,1.0534206628799438,-1.1038457155227661
43.05,2.278651714324951,3.621988296508789,-4.304975509643555,-1.5371840000152588,-1.137046456336975,-2.937455177307129
43.1,0.568688154220581,-5.867333889007568,-3.1547536849975586,-4.465897083282471,-2.7367043495178223,-5.176686763763428
43.15,4.828182220458984,-1.9535361528396606,0.8645066022872925,-3.296839475631714,-4.355103015899658,-4.8288445472717285
43.2,0.699750542640686,-3.829476833343506,-0.3041960597038269,-2.4536631107330322,-2.3116674423217773,-3.318481206893921
43.25,0.34845080971717834,-2.0094282627105713,-0.601233720779419,-0.9903998970985413,-2.041369915008545,-2.2397189140319824
43.3,-1.0601170063018799,-1.2546329498291016,-1.1354477405548096,-0.9349359273910522,-1.0787261724472046,-1.776511311531067
43.35,-1.9491703510284424,-2.045771837234497,-0.010759009048342705,-0.8831480145454407,-0.9104576110839844,-1.6460576057434082
43.4,-2.430229425430298,-1.5421613454818726,0.6945939660072327,-0.766720175743103,-0.4650266766548157,-1.297021746635437
43.45,-2.8200438022613525,-1.826520323753357,0.3717588782310486,-0.6204161643981934,-0.17467088997364044,-1.0155588388442993
43.5,-3.2616186141967773,-0.5962174534797668,1.1935958862304688,-0.5797662138938904,0.1870311200618744,-0.6953275799751282
43.55,-3.3340096473693848,0.5029686689376831,0.2055872082710266,-0.7755991220474243,1.115314245223999,-0.2949792742729187
43.6,-5.366608619689941,1.3471946716308594,-0.6874507069587708,-1.2430721521377563,1.710537075996399,0.13596519827842712
43.65,-4.002610683441162,0.7537222504615784,-0.6504219770431519,-2.8263001441955566,2.623556137084961,0.9982277154922485
43.7,-1.917324423789978,0.06667955219745636,2.8677151203155518,-4.893327713012695,4.556145191192627,1.6459245681762695
43.75,4.380016326904297,1.707415223121643,6.664769649505615,-4.44425630569458,6.431590557098389,1.8699601888656616
43.8,13.2110595703125,-3.6792666912078857,2.0477135181427,-0.8370693922042847,8.631266593933105,0.49550533294677734
43.85,6.983227252960205,-10.864656448364258,-18.65211296081543,4.137386798858643,12.681574821472168,-2.2991018295288086
43.9,-12.82058334350586,-13.689340591430664,-36.7268180847168,6.520040035247803,20.828126907348633,-4.6063103675842285
43.95,-38.31444549560547,-3.8573250770568848,-12.966002464294434,6.920404434204102,23.245927810668945,-10.72665023803711
44.0,-17.173147201538086,31.060991287231445,15.401346206665039,-6.036153793334961,9.576581954956055,-10.507573127746582
44.05,-11.8905611038208,-8.540704727172852,20.85017204284668,-4.956819534301758,3.916250467300415,5.812833786010742
44.1,9.235610008239746,-2.462019205093384,35.544960021972656,-4.979556083679199,12.409382820129395,3.9838430881500244
44.15,13.110957145690918,-2.4560940265655518,20.171926498413086,-1.7879035472869873,9.634632110595703,6.187776565551758
44.2,15.39819049835205,-0.1946418285369873,2.8096923828125,2.3420627117156982,8.224639892578125,5.193887710571289
44.25,12.776077270507812,2.0284149646759033,-4.565575122833252,3.469430923461914,7.355236530303955,4.388189315795898
44.3,7.547821521759033,6.406058311462402,-6.4110636711120605,4.187827110290527,6.7498955726623535,3.1356210708618164
44.35,3.725882053375244,5.936351299285889,-0.7078980207443237,6.364168643951416,8.734763145446777,1.078029990196228
44.4,10.782339096069336,-0.8065011501312256,-7.715382099151611,9.116814613342285,14.284368515014648,-1.4131499528884888
44.45,-1.2295784950256348,6.000040054321289,-16.591625213623047,8.918962478637695,18.220134735107422,-4.8688740730285645
44.5,-14.309428215026855,13.602470397949219,0.317859411239624,1.6851880550384521,16.466812133789062,-3.607814311981201
44.55,-9.914108276367188,6.362823009490967,1.7121633291244507,-0.6826319098472595,5.533170700073242,2.1262261867523193
44.6,-6.090350151062012,-6.708772659301758,-0.47281157970428467,-3.0290727615356445,0.6153960824012756,4.313474178314209
44.65,-0.4989708662033081,-13.0718994140625,0.6902103424072266,1.780519723892212,0.36008119583129883,8.990437507629395
44.7,2.725558042526245,-15.219446182250977,1.287034511566162,5.4983320236206055,3.2562005519866943,12.669279098510742
44.75,5.33660888671875,-21.559701919555664,-2.646519899368286,9.015803337097168,2.9154551029205322,13.666047096252441
44.8,-6.208705902099609,2.7856013774871826,-39.7904052734375,17.03969383239746,-7.688139915466309,3.929563045501709
44.85,0.40275144577026367,10.478168487548828,-15.580451011657715,15.158267974853516,-6.589737892150879,-9.642446517944336
44.9,9.793953895568848,3.306605339050293,-0.40639954805374146,8.512438774108887,-2.8788349628448486,-14.363656997680664
44.95,7.130632400512695,-6.359158039093018,-11.49907112121582,4.697953224182129,7.594690322875977,-11.584917068481445
45.0,-10.018575668334961,4.885207653045654,-11.771677017211914,10.315263748168945,13.173721313476562,-4.042079925537109
45.05,-18.980392456054688,13.048258781433105,9.34150505065918,13.63718318939209,9.237201690673828,3.229332208633423
45.1,-5.224545478820801,6.885799407958984,-0.10438655316829681,6.9937615394592285,0.30300015211105347,4.366998672485352
45.15,5.182737350463867,-2.556462049484253,-6.099806308746338,-0.4173218011856079,1.7284141778945923,0.2023521065711975
45.2,-1.8113240003585815,-2.3575022220611572,-4.028019428253174,-0.2945689558982849,1.0289644002914429,-0.07588890939950943
45.25,-3.933887243270874,-2.0169591903686523,-3.998810052871704,-0.0070827556774020195,0.46398067474365234,0.033773262053728104
45.3,-1.6554094552993774,-0.5057349801063538,-4.808889865875244,-0.19804444909095764,0.20109272003173828,-0.36919474601745605
45.35,-1.2138677835464478,-0.6674924492835999,-4.581173419952393,-0.3862181007862091,0.41460171341896057,-0.6684902906417847
45.4,-2.5796566009521484,0.10949642956256866,-3.398460865020752,-0.771726131439209,0.5650610327720642,-0.800688624382019
45.45,-1.4651985168457031,-1.6221952438354492,-2.5470168590545654,-1.1733427047729492,1.3107848167419434,-1.3866485357284546
45.5,-1.9295789003372192,-2.7169406414031982,-4.192833423614502,-1.0552135705947876,1.5859814882278442,-1.311821460723877
45.55,-1.7989624738693237,-1.0709550380706787,-4.109703063964844,-0.20737771689891815,1.0558195114135742,-0.6337167620658875
45.6,-1.4247816801071167,-0.8027787804603577,-5.230818271636963,-0.0723966658115387,0.052957139909267426,-0.165732279419899
45.65,0.5027245283126831,-1.4157090187072754,-5.1278977394104,0.11914173513650894,-1.3949984312057495,0.19883376359939575
45.7,-2.1051557064056396,-1.6583187580108643,-0.8755090832710266,0.9009782075881958,-1.8623226881027222,1.0481951236724854
45.75,-2.8362603187561035,-0.07119555026292801,-1.445541262626648,0.2460126280784607,-1.6875269412994385,0.7399842739105225
45.8,-2.2132818698883057,0.2190696746110916,-2.1917519569396973,-0.011284247040748596,-0.4823191165924072,0.2564229369163513
45.85,-3.2324306964874268,2.667797565460205,-4.068154811859131,-0.4805973172187805,-0.24573954939842224,0.05503246188163757
45.9,-4.667295455932617,-0.2356649488210678,-4.957274913787842,-1.3709769248962402,-0.34710195660591125,-0.01436970941722393
45.95,-3.597926139831543,2.5172908306121826,2.799189567565918,-1.8376634120941162,-0.9234291315078735,0.5042288303375244
46.0,-9.516711235046387,26.251253128051758,7.199876308441162,-6.095873832702637,-3.0989134311676025,2.084627628326416
46.05,-9.96103572845459,2.7829394340515137,-21.36848258972168,-15.20398235321045,-8.511035919189453,2.1487321853637695
46.1,8.321106910705566,-11.18270206451416,-15.434890747070312,-14.140737533569336,-9.551478385925293,8.063873291015625
46.15,7.405758857727051,-7.639756679534912,5.695998191833496,-11.642704010009766,-6.162575721740723,1.3401062488555908
46.2,3.718844413757324,-13.3716402053833,5.679317951202393,-8.77684497833252,-3.127458095550537,-4.378000259399414
46.25,-2.8934340476989746,-7.871151924133301,4.729647159576416,-4.382061004638672,-3.0401906967163086,-3.4506921768188477
46.3,-5.566908359527588,-5.007962703704834,14.633418083190918,3.0454840660095215,-5.741543769836426,-1.0131516456604004
46.35,-9.731945037841797,-31.412105560302734,-2.6060686111450195,16.79168128967285,-9.98121452331543,-2.3784854412078857
46.4,-3.727169990539551,-7.0025954246521,-32.81739807128906,22.015005111694336,-10.370916366577148,-6.989781379699707
46.45,-4.088253498077393,8.496297836303711,-16.957111358642578,13.404985427856445,-2.425793409347534,-2.226438045501709
46.5,4.909609317779541,1.4445940256118774,-10.368224143981934,8.535703659057617,-1.8640313148498535,4.514387607574463
46.55,8.699636459350586,4.184250354766846,-3.687039852142334,5.528564453125,-3.0323989391326904,8.876714706420898
46.6,1.9927910566329956,6.909761428833008,2.6769895553588867,2.2468111515045166,-4.624088764190674,9.719743728637695
46.65,-1.6579536199569702,1.6510308980941772,-1.0777969360351562,-0.45279431343078613,-5.9376301765441895,8.729900360107422
46.7,-5.290647029876709,1.171523094177246,-0.8450982570648193,-1.361405849456787,-6.883733749389648,6.75364875793457
46.75,-9.963926315307617,14.44424819946289,-10.922494888305664,-4.774769306182861,-9.788347244262695,0.8710719347000122
46.8,12.978200912475586,-0.6254781484603882,-9.66595458984375,-9.560722351074219,-13.63923168182373,-9.654001235961914
46.85,5.750967502593994,7.275707721710205,14.648149490356445,-9.05514907836914,-6.53696870803833,-3.940547227859497
46.9,-7.795553207397461,-3.733628988265991,-17.526330947875977,-5.499980926513672,5.334161758422852,-5.595033168792725
46.95,-6.13369607925415,-1.511628270149231,-2.5956571102142334,-6.76066255569458,1.8460084199905396,-1.4301296472549438
47.0,-2.57206654548645,3.748021364212036,1.1581621170043945,-5.124889373779297,1.8659008741378784,0.9199525117874146
47.05,-1.8116873502731323,3.0020344257354736,1.9849178791046143,-5.60806131362915,0.8159950971603394,0.5089020729064941
47.1,-0.987411618232727,5.644431114196777,5.5074143409729,-3.1306536197662354,-3.147463083267212,0.9480416178703308
47.15,-3.378593921661377,-5.8040618896484375,5.961114406585693,5.385130882263184,-8.377537727355957,-0.38968154788017273
47.2,-17.295604705810547,-18.17320442199707,-7.567476749420166,10.357406616210938,-13.17992877960205,-4.282495021820068
47.25,-12.610383987426758,-6.930351257324219,-11.897612571716309,9.542702674865723,-9.946621894836426,-5.3321099281311035
47.3,-6.976592063903809,-5.499073505401611,-10.841292381286621,7.540778160095215,-5.877667427062988,-3.335106372833252
47.35,0.3552734851837158,-5.848550319671631,-7.3619489669799805,6.635882377624512,-2.7427334785461426,-0.17503951489925385
47.4,-0.981352686882019,-0.6834825873374939,-5.35336446762085,6.110836029052734,-0.4544118344783783,2.3643360137939453
47.45,-2.715083599090576,-5.720668792724609,-6.3370537757873535,4.771440029144287,0.8584346771240234,4.472558975219727
47.5,1.4234956502914429,1.501774787902832,-5.4920759201049805,5.47586727142334,1.1986169815063477,6.833535194396973
47.55,-0.4304838180541992,1.8271886110305786,-7.529041290283203,4.489476203918457,0.8324278593063354,9.614730834960938
47.6,-6.476840019226074,0.6487982869148254,-4.099470138549805,4.401151180267334,1.3494036197662354,9.9259614944458
47.65,-8.928117752075195,-0.035803887993097305,-2.172889232635498,2.6166491508483887,-1.2448320388793945,10.040497779846191
47.7,-13.554905891418457,-0.7421488165855408,-9.564257621765137,0.9495341777801514,-7.842586040496826,10.246698379516602
47.75,5.455855846405029,2.2684714794158936,-10.89901351928711,-1.9700701236724854,-15.548480987548828,6.84512186050415
47.8,5.6521711349487305,17.282655715942383,2.723390817642212,-3.339322566986084,-10.918825149536133,5.80661153793335
47.85,-0.19729900360107422,-9.036528587341309,2.57610821723938,-8.718647956848145,-6.1296234130859375,-2.576413154602051
47.9,-1.6445831060409546,-2.822448968887329,10.75373363494873,-6.958865165710449,-6.430427551269531,-1.5879110097885132
47.95,-1.470334529876709,-3.3826098442077637,7.648718357086182,0.9113101959228516,-6.187588691711426,-1.4397786855697632
48.0,-8.1687650680542,-10.870929718017578,3.4074013233184814,7.882485389709473,-11.216937065124512,-2.486207962036133
48.05,-17.11090087890625,-12.602824211120605,-5.86598014831543,11.389410018920898,-15.13580322265625,-3.272921085357666
48.1,11.123598098754883,-12.002634048461914,-24.87685775756836,14.196823120117188,-6.935410499572754,-3.3099112510681152
48.15,9.331174850463867,23.919605255126953,-48.92926788330078,16.799043655395508,9.617006301879883,0.9866998195648193
48.2,-22.433582305908203,25.092914581298828,-5.230284690856934,15.432474136352539,16.207468032836914,7.363409042358398
48.25,-21.558942794799805,4.553864479064941,13.401677131652832,11.975972175598145,10.563785552978516,10.453489303588867
48.3,-15.747339248657227,-13.607428550720215,1.7157461643218994,10.890798568725586,1.3479185104370117,12.263992309570312
48.35,0.04582929611206055,-21.4566650390625,-13.214335441589355,4.917901515960693,-8.143549919128418,14.169458389282227
48.4,9.256891250610352,-2.3253140449523926,-4.020893573760986,0.5841546058654785,-6.968173027038574,14.127105712890625
48.45,5.193226337432861,4.239789962768555,-1.3588348627090454,-2.445448875427246,-8.297301292419434,7.556013584136963
48.5,5.382259368896484,5.417563438415527,-2.9113223552703857,1.4915529489517212,-9.230074882507324,1.0116900205612183
48.55,-3.3765296936035156,-2.4334633350372314,6.378795146942139,9.089631080627441,-12.407682418823242,-0.4059382379055023
48.6,-5.942680835723877,-6.086670398712158,-2.26749587059021,8.423696517944336,-10.924392700195312,0.49876412749290466
48.65,-0.050480544567108154,-5.3802385330200195,-2.319906234741211,5.774781703948975,-7.524836540222168,-0.44104835391044617
48.7,2.012397289276123,-6.871208667755127,-5.454545021057129,6.980778217315674,-5.493967056274414,-2.4182708263397217
48.75,3.1122384071350098,-10.19647216796875,-12.708765983581543,9.40091323852539,0.9482407569885254,-3.8697493076324463
48.8,2.0837395191192627,-1.2397944927215576,-18.931358337402344,9.511421203613281,5.6079840660095215,-2.4550812244415283
48.85,-2.0966672897338867,3.2484583854675293,-17.259862899780273,7.547086715698242,7.700619697570801,-0.12744879722595215
48.9,-9.403690338134766,4.073012828826904,-9.428309440612793,6.21324348449707,8.88422679901123,2.94439697265625
48.95,-12.847562789916992,-2.039334297180176,2.4964823722839355,7.162519454956055,7.915130138397217,8.037187576293945
49.0,-2.682060718536377,-27.855396270751953,-6.704526424407959,10.00752067565918,2.9748246669769287,16.20433807373047
49.05,-0.21462059020996094,1.3011962175369263,-16.23604393005371,9.839366912841797,1.4465032815933228,11.412907600402832
49.1,-7.908807277679443,-7.324678421020508,-9.387322425842285,-1.818169116973877,-1.5736514329910278,4.871108531951904
49.15,-8.531636238098145,-10.423846244812012,-8.957362174987793,-4.499728202819824,-3.51523494720459,5.299067497253418
