Time [s],Acc_x [m/s^2],Acc_y [m/s^2],Acc_z [m/s^2],Gyro_x [1/s],Gyro_y [1/s],Gyro_z [1/s]
0.0,0.019042667001485825,0.10036565363407135,0.035257283598184586,0.010197221301496029,-0.0084988446906209,0.006565452553331852
0.05,-0.021836772561073303,0.03013039380311966,-0.038354288786649704,0.001754414988681674,-0.013185172341763973,0.009785783477127552
0.1,0.02139252796769142,0.07387162744998932,-0.027803504839539528,0.0026185824535787106,-0.012601437978446484,0.012358799576759338
0.15,0.028570465743541718,0.05219842121005058,-0.018254440277814865,0.003769026370719075,-0.01586369052529335,0.012778404168784618
0.2,-0.026361946016550064,0.03420068323612213,-0.09349587559700012,-0.0031591951847076416,-0.02639549784362316,0.007054779678583145
0.25,-0.0036115702241659164,0.09562017768621445,-0.07873320579528809,-0.002666142303496599,-0.019673699513077736,-0.0009319320670329034
0.3,0.011467164382338524,0.06695175915956497,-0.02338794618844986,-0.009846831671893597,0.0009962506592273712,-0.00405562249943614
0.35,-0.032831866294145584,0.08813954144716263,-0.023641470819711685,-0.008042911998927593,-0.00378180923871696,-0.011506650596857071
0.4,-0.07456505298614502,0.1276731640100479,-0.06766393035650253,0.0017801737412810326,-0.019756300374865532,-0.018493518233299255
0.45,-0.07874471694231033,0.1040210947394371,-0.09585492312908173,-0.0033961832523345947,-0.010971163399517536,-0.01731683313846588
0.5,-0.047344256192445755,0.0961456447839737,-0.004112773109227419,-0.010485643520951271,0.018604882061481476,-0.011968892067670822
0.55,-0.006840973161160946,0.0754699781537056,0.026525311172008514,-0.00012909038923680782,0.008947042748332024,-0.009443354792892933
0.6,0.02214532531797886,0.08951093256473541,-0.08772025257349014,0.006443927064538002,-0.019944649189710617,-0.008600511588156223
0.65,0.044770337641239166,0.13600924611091614,-0.07263313233852386,0.0009380981791764498,0.0001511017617303878,-0.002173125743865967
0.7,-0.0016520400531589985,0.12189866602420807,0.0006480790325440466,0.00043300550896674395,0.01589825749397278,0.003450747113674879
0.75,-0.03870392218232155,0.10377980768680573,-0.012526918202638626,0.007880814373493195,-0.005299705080688,-0.002920874860137701
0.8,-0.012279199436306953,0.0953674465417862,0.015371670946478844,0.017374128103256226,-0.01720033958554268,-0.0085689015686512
0.85,-0.020576823502779007,0.07671643048524857,-0.01474171131849289,0.019846223294734955,-0.025163434445858,-0.008949005976319313
0.9,-0.006503492593765259,0.09510805457830429,-0.03977999836206436,0.018807806074619293,-0.018661849200725555,-0.01044006273150444
0.95,0.01597084105014801,0.06586075574159622,-0.0032804079819470644,0.02014683187007904,-0.009393344633281231,-0.0072126565501093864
1.0,-0.011008216068148613,0.0289545189589262,-0.0788593515753746,0.014904564246535301,-0.03522128239274025,-0.008027695119380951
1.05,0.02134164422750473,0.030909571796655655,-0.2463095784187317,-0.0028246731963008642,-0.055835824459791183,-0.011979041621088982
1.1,0.03924708068370819,0.08981234580278397,-0.5027365684509277,-0.09664203226566315,-0.003781838109716773,-0.021358167752623558
1.15,-0.00701412558555603,0.3035317659378052,-0.6591333150863647,-0.27271026372909546,0.144513338804245,-0.04607965424656868
1.2,-0.08073686808347702,0.16253092885017395,-0.10340245813131332,-0.3684656023979187,0.3964868187904358,-0.01774035021662712
1.25,-0.18438954651355743,-0.16537675261497498,0.5647528171539307,-0.33085498213768005,0.43619629740715027,-0.018598003312945366
1.3,-0.17196696996688843,0.0019444857025519013,0.4269961416721344,-0.24215620756149292,0.17422723770141602,-0.09248681366443634
1.35,-0.011595555581152439,0.2735166847705841,-0.05261753872036934,-0.20391805469989777,0.0008555286331102252,-0.10507091134786606
1.4,0.035438090562820435,0.2445898801088333,-0.3391703963279724,-0.28781428933143616,0.06708455830812454,-0.07891617715358734
1.45,-0.05866021662950516,0.15047459304332733,-0.2991809546947479,-0.34845948219299316,0.24867720901966095,-0.06158646568655968
1.5,-0.16616246104240417,0.08511924743652344,-0.008779757656157017,-0.31183791160583496,0.3460361063480377,-0.021331200376152992
1.55,-0.17212316393852234,-0.15671829879283905,0.24897608160972595,-0.283140629529953,0.31460437178611755,0.0017110644839704037
1.6,-0.16223406791687012,-0.24786192178726196,0.17636972665786743,-0.25327062606811523,0.11754868179559708,-0.04261398687958717
1.65,-0.2525751292705536,0.03987982124090195,-0.2504355013370514,-0.20497426390647888,-0.1561940312385559,-0.056968748569488525
1.7,-0.3531607389450073,0.2160712629556656,-1.0437225103378296,-0.2729720175266266,-0.28964605927467346,-0.04960470646619797
1.75,-0.4314538240432739,0.13433755934238434,-1.1857812404632568,-0.40446630120277405,0.015576200559735298,-0.06850827485322952
1.8,-0.5529647469520569,0.05303189903497696,0.08746645599603653,-0.3716236650943756,0.5181906819343567,0.026187662035226822
1.85,-0.5811159014701843,0.29007038474082947,1.3036174774169922,-0.16161009669303894,0.5396244525909424,0.12294606119394302
1.9,-0.38339972496032715,0.27538856863975525,1.3624017238616943,0.02652854472398758,0.12455958127975464,0.13302043080329895
1.95,0.11224710941314697,-0.02534877322614193,0.9398794174194336,0.059260204434394836,-0.16652531921863556,0.11581681668758392
2.0,0.5707244277000427,0.4554472267627716,0.450830340385437,0.06276482343673706,-0.22870801389217377,0.09011553227901459
2.05,0.9748189449310303,0.7595559358596802,0.24038952589035034,0.1286788433790207,-0.14594732224941254,0.09722904860973358
2.1,1.2378674745559692,0.4839573800563812,0.24855996668338776,0.19679534435272217,0.045801177620887756,0.08265160769224167
2.15,1.1334024667739868,0.006965626496821642,0.4740939140319824,0.2727017104625702,0.22095108032226562,0.06992756575345993
2.2,1.0811493396759033,-0.4546290636062622,0.8603255748748779,0.3745499551296234,0.3151594400405884,0.09444473683834076
2.25,1.1779423952102661,-0.3467579782009125,0.9102502465248108,0.4848090410232544,0.2891259491443634,0.13184039294719696
2.3,1.3146018981933594,-0.4230194687843323,0.551573634147644,0.5834273099899292,0.19488433003425598,0.1023821160197258
2.35,1.2962976694107056,-0.8315516114234924,-0.09551452100276947,0.5882300138473511,0.27895626425743103,0.01939273253083229
2.4,1.2375229597091675,-1.2861661911010742,-0.35474029183387756,0.4321531057357788,0.6352897882461548,-0.017552178353071213
2.45,0.8410050868988037,-1.2452030181884766,-0.5177603363990784,0.1800198256969452,0.9309422969818115,-0.03762591630220413
2.5,-0.31292736530303955,-0.20947259664535522,-0.8547050356864929,-0.0899723470211029,1.1487200260162354,-0.010386008769273758
2.55,-1.511667013168335,1.0645676851272583,-0.607398509979248,-0.360691100358963,1.4095364809036255,-0.11527059972286224
2.6,-2.262432098388672,1.986145257949829,-0.28939875960350037,-0.5362715721130371,1.4814505577087402,-0.21515503525733948
2.65,-1.4533692598342896,1.7922203540802002,-0.03984414413571358,-0.619892418384552,1.1419731378555298,-0.30392777919769287
2.7,0.03602758049964905,0.4305345118045807,-0.7607696056365967,-0.7409663200378418,0.21367794275283813,-0.5960410237312317
2.75,-0.36716413497924805,-0.47655174136161804,-3.0044970512390137,-0.8946949243545532,-0.1566191017627716,-0.6452767848968506
2.8,-1.5079548358917236,-0.753002941608429,-3.0593507289886475,-0.965190052986145,0.9750683307647705,-0.36631375551223755
2.85,-1.2343647480010986,-0.31262874603271484,-0.62253338098526,-0.8129717111587524,2.2100038528442383,-0.20290377736091614
2.9,-0.05676409602165222,0.5674008727073669,1.0965495109558105,-0.5783547163009644,2.374951124191284,-0.1792813092470169
2.95,0.35349828004837036,0.5584076642990112,1.5038894414901733,-0.32609495520591736,1.7854775190353394,-0.07670193910598755
3.0,-0.1523984670639038,0.31408393383026123,1.1171538829803467,-0.10791555792093277,1.1809415817260742,0.007368903607130051
3.05,-1.0703331232070923,0.6128329634666443,0.44594165682792664,0.1095055490732193,0.9610155820846558,0.06181678920984268
3.1,-1.327592134475708,0.6096886992454529,0.6924390196800232,0.44376716017723083,1.027916669845581,0.0766049325466156
3.15,-1.2755018472671509,0.246606707572937,0.9093424677848816,0.5189837217330933,1.1306333541870117,0.02422763966023922
3.2,-1.971328616142273,0.11090738326311111,0.9640111923217773,0.37558799982070923,1.3141536712646484,0.026241717860102654
3.25,-2.3181543350219727,-0.08413439244031906,1.6732385158538818,0.3361113667488098,1.7811483144760132,0.16219653189182281
3.3,-1.13161039352417,-0.12578900158405304,2.142923355102539,0.35183775424957275,2.4173038005828857,0.28423187136650085
3.35,0.7134084105491638,0.37630167603492737,1.5297739505767822,0.41412419080734253,2.7899246215820312,0.2391834706068039
3.4,0.4484187364578247,1.3464909791946411,-0.04262816905975342,0.43977680802345276,2.5583221912384033,0.0699201375246048
3.45,-0.18277128040790558,1.3147270679473877,-0.7897236943244934,0.35895252227783203,2.6141796112060547,-0.11960530281066895
3.5,1.329755187034607,-0.07037440687417984,-0.33641138672828674,0.4321414828300476,3.071658134460449,-0.3471813499927521
3.55,2.9069840908050537,-0.20778264105319977,-0.13099297881126404,0.6650702953338623,2.934206485748291,-0.6903024911880493
3.6,3.3132681846618652,1.5580639839172363,-1.1017167568206787,0.9695941805839539,2.4274306297302246,-0.9959902763366699
3.65,2.4946932792663574,3.052387237548828,-2.726923942565918,1.1591514348983765,1.892235517501831,-0.9588041305541992
3.7,-0.0773017406463623,2.5417046546936035,-1.4544063806533813,1.0254242420196533,1.2345576286315918,-0.46501681208610535
3.75,-0.6344322562217712,-0.4342014193534851,0.7461134195327759,0.5172867178916931,0.8029937744140625,-0.16998128592967987
3.8,-1.5990325212478638,-4.276384353637695,1.556845784187317,0.017063578590750694,0.8671138286590576,0.015720868483185768
3.85,-2.3789072036743164,-7.078825950622559,2.113157272338867,-0.05420524254441261,1.4923076629638672,0.3506135046482086
3.9,-0.6429980993270874,-6.2856669425964355,2.2720706462860107,0.07650931179523468,2.0897223949432373,0.2220722883939743
3.95,0.023773252964019775,-1.7467999458312988,1.8295388221740723,-0.05341898649930954,2.2019481658935547,-0.3256259560585022
4.0,-1.1843039989471436,2.366763114929199,2.4424710273742676,-0.5529162883758545,2.043123960494995,-0.6177968382835388
4.05,-0.4421856999397278,5.458001136779785,1.898735523223877,-1.0636554956436157,2.5600314140319824,-0.3883548676967621
4.1,0.9744112491607666,5.345987796783447,0.2525145411491394,-1.737261176109314,3.1883716583251953,-0.2011520266532898
4.15,2.752793312072754,5.1560139656066895,0.9731746315956116,-2.4389867782592773,3.2846572399139404,-0.31948888301849365
4.2,5.796368598937988,7.401085376739502,-2.2937240600585938,-2.5467498302459717,3.8357510566711426,-1.1769042015075684
4.25,5.377401828765869,3.9825923442840576,-7.703588962554932,-2.1123573780059814,3.9462029933929443,-2.110907793045044
4.3,3.4326653480529785,-2.6206164360046387,-4.990585803985596,-1.5399796962738037,3.043104887008667,-1.6039100885391235
4.35,3.317432165145874,-6.87950325012207,-0.21441401541233063,-0.6768602728843689,2.98201322555542,-1.0319873094558716
4.4,2.5182528495788574,-9.646401405334473,-0.18394958972930908,-0.04720354080200195,3.853370428085327,-1.9842824935913086
4.45,-1.340503454208374,-7.712080955505371,-2.4197659492492676,-0.4484218955039978,4.158042907714844,-2.772204875946045
4.5,-4.345428466796875,-3.3156609535217285,-0.9496756196022034,-0.9114373922348022,2.772873640060425,-1.844810128211975
4.55,-3.7472004890441895,0.3101342022418976,-3.151787757873535,1.0845056772232056,-0.19608624279499054,-0.15206947922706604
4.6,-2.8256995677948,3.901185989379883,-5.750881195068359,3.2129862308502197,-3.2445149421691895,0.6411953568458557
4.65,-0.03122711181640625,0.6639801263809204,-4.4373087882995605,3.361582040786743,-5.3634033203125,0.6843335032463074
4.7,1.0148950815200806,-0.27228206396102905,-4.569184303283691,3.824706792831421,-4.771085739135742,-1.3930250406265259
4.75,2.65767240524292,7.952900409698486,-5.210442543029785,4.150330066680908,-3.076054573059082,-2.5562620162963867
4.8,4.805436611175537,8.098647117614746,-3.9546573162078857,2.0586729049682617,-3.821719169616699,-1.7872700691223145
4.85,4.906729698181152,0.16393867135047913,0.42761698365211487,-1.1723804473876953,-5.6143388748168945,-1.3720474243164062
4.9,1.3734337091445923,-5.90021276473999,6.955664157867432,-2.0184578895568848,-5.623262882232666,-1.3770134449005127
4.95,-4.52882719039917,-9.875569343566895,8.773290634155273,-0.28680381178855896,-3.6158580780029297,-0.15350185334682465
5.0,-3.449164390563965,-8.233719825744629,6.599451065063477,0.6220389604568481,-1.1389358043670654,1.2639623880386353
5.05,0.5519128441810608,-3.1793622970581055,3.265510082244873,0.22146058082580566,0.10407073050737381,0.8824185132980347
5.1,-0.5113369226455688,-0.29454660415649414,3.6359496116638184,-0.6497863531112671,-0.17860227823257446,0.23733577132225037
5.15,-1.6240168809890747,5.162145137786865,6.69397497177124,-1.0482529401779175,0.3988555073738098,1.1202751398086548
5.2,-0.9893829822540283,5.650899887084961,3.6600427627563477,-1.2992498874664307,2.4878222942352295,1.9017077684402466
5.25,-1.7872047424316406,2.2692642211914062,2.4334945678710938,-1.9689092636108398,3.296821355819702,1.3534133434295654
5.3,0.14833056926727295,3.116175413131714,5.431551456451416,-2.687317371368408,2.67083477973938,0.06504365801811218
5.35,4.447982311248779,7.242353439331055,1.6757527589797974,-3.124021053314209,3.2309441566467285,-0.6495309472084045
5.4,5.965078353881836,9.841864585876465,-5.837125778198242,-2.917736768722534,3.667052745819092,-1.22238028049469
5.45,6.742051601409912,7.9530558586120605,-8.388105392456055,-2.389594078063965,2.545393705368042,-1.3595818281173706
5.5,7.436295509338379,0.994661271572113,-4.170156478881836,-2.1806273460388184,2.073961019515991,-0.5722912549972534
5.55,6.8396735191345215,-6.204326152801514,-1.3810057640075684,-1.6249797344207764,4.281497001647949,-1.027663230895996
5.6,2.653165578842163,-10.532526016235352,-2.8905527591705322,-1.234731912612915,6.208602428436279,-2.9737143516540527
5.65,-2.587310314178467,-6.367668151855469,-2.0582518577575684,-2.1443145275115967,5.2313408851623535,-2.958834648132324
5.7,-1.5805190801620483,-2.8025286197662354,-0.6812456846237183,-2.949005126953125,3.1460790634155273,-0.44304320216178894
5.75,1.357142686843872,-2.781766414642334,-0.738635241985321,-1.0585486888885498,1.3016655445098877,0.7605087757110596
5.8,-1.6286671161651611,-1.008638620376587,0.9667374491691589,1.1006138324737549,0.3903716206550598,-1.4534449577331543
5.85,-5.261330604553223,-1.3347420692443848,0.9746190905570984,1.9477488994598389,-0.7552126049995422,-3.314445972442627
5.9,-7.232010841369629,-1.6973985433578491,-1.5347638130187988,2.396784782409668,-2.3090457916259766,-2.6279220581054688
5.95,-6.825730800628662,5.780793190002441,-5.599245071411133,1.3855472803115845,-2.7359273433685303,-3.2442328929901123
6.0,-2.2175397872924805,11.03507137298584,-5.540342807769775,1.4553351402282715,-2.7437667846679688,-3.829460382461548
6.05,1.2634124755859375,5.647826194763184,-2.010631799697876,1.107531189918518,-3.453622341156006,-2.4025607109069824
6.1,2.911614179611206,-3.0513668060302734,0.5292578339576721,0.4132441282272339,-3.211169958114624,-1.6532810926437378
6.15,5.0483245849609375,-8.046584129333496,2.0465149879455566,0.796992301940918,-2.7245750427246094,-1.7327362298965454
6.2,5.0930070877075195,-7.548733234405518,3.8804454803466797,1.4037610292434692,-1.6148145198822021,-1.7395426034927368
6.25,4.157301902770996,-6.054111480712891,3.265838384628296,0.6167271137237549,0.025989225134253502,-0.9043542742729187
6.3,6.8953776359558105,-2.744149684906006,4.259814739227295,0.5804973840713501,1.1957391500473022,0.5377748012542725
6.35,8.304971694946289,0.5598535537719727,3.165146827697754,2.1715879440307617,2.6916067600250244,1.5061224699020386
6.4,6.184895992279053,3.7037696838378906,-2.6961510181427,3.259945869445801,5.246156215667725,1.95974862575531
6.45,2.497352123260498,8.133524894714355,-4.8728179931640625,2.1240100860595703,6.736199378967285,2.8180220127105713
6.5,-6.056979179382324,9.872570991516113,-6.8141913414001465,-0.9606357216835022,5.3988213539123535,4.049069404602051
6.55,-10.768905639648438,7.815126419067383,-5.153355598449707,-1.2695907354354858,1.212498426437378,4.633326530456543
6.6,-5.877423286437988,1.7893836498260498,-5.978686809539795,0.1546032428741455,-1.4636855125427246,4.026566028594971
6.65,-2.2741074562072754,-7.095603942871094,-6.00255012512207,-0.19417640566825867,0.6180933713912964,2.24808406829834
6.7,-4.173896789550781,-14.245979309082031,-0.6876416206359863,-0.9503007531166077,3.526554584503174,-0.3143117129802704
6.75,-4.251802921295166,-13.008230209350586,2.432612180709839,-0.562355637550354,2.637259006500244,-1.789868950843811
6.8,-1.3306162357330322,-7.223278999328613,-0.009510480798780918,0.4914815425872803,0.7158513069152832,-0.9675777554512024
6.85,1.9825998544692993,-1.5454033613204956,-1.9835553169250488,0.7614733576774597,-0.5060034394264221,0.600104033946991
6.9,0.5098047256469727,8.182567596435547,-2.5980653762817383,0.012550890445709229,0.3098963499069214,-0.9155786037445068
6.95,-0.08950179815292358,13.638701438903809,2.174077033996582,-1.3222050666809082,3.956545352935791,-3.418591260910034
7.0,1.2155221700668335,6.657025337219238,6.792520523071289,-1.2549470663070679,3.9221017360687256,-3.215000867843628
7.05,1.4682116508483887,-3.5314993858337402,1.5030086040496826,0.3080630898475647,0.03357916697859764,-1.0268030166625977
7.1,0.9839833974838257,-10.128314971923828,-2.384268283843994,0.9670636653900146,-0.48911020159721375,0.07921698689460754
7.15,-0.8834803104400635,-10.021476745605469,-1.4114363193511963,0.623481810092926,1.269228219985962,0.06692879647016525
7.2,-2.75205135345459,-5.207761764526367,-2.209064245223999,0.6792420744895935,1.8408925533294678,0.42557331919670105
7.25,-3.618788957595825,3.135080575942993,0.784299373626709,1.4686436653137207,1.5175584554672241,0.7191799283027649
7.3,3.1708104610443115,12.609142303466797,5.352964878082275,1.5571177005767822,0.15964153409004211,-0.4064393937587738
7.35,4.555556297302246,9.311117172241211,2.5515003204345703,0.1662120521068573,-0.9233267307281494,-0.6084738373756409
7.4,1.5955041646957397,-1.5225926637649536,-0.5427665114402771,-0.8858727216720581,-0.5210534930229187,-0.06688659638166428
7.45,1.670219898223877,-5.415174961090088,-0.23461978137493134,-0.6168486475944519,-0.48758506774902344,0.07378816604614258
7.5,-0.8627732992172241,-3.361396074295044,-2.2960126399993896,-0.5776974558830261,-0.7375761866569519,0.8358607292175293
7.55,-2.980518341064453,0.19280339777469635,-0.8077048063278198,-1.0726772546768188,0.7288742661476135,1.381486177444458
7.6,-0.9172629714012146,5.689342975616455,1.39408278465271,-0.9649556279182434,1.3321610689163208,0.06507499516010284
7.65,0.8255886435508728,4.8117995262146,0.18900300562381744,-0.053202658891677856,-0.2158762812614441,-0.737457811832428
7.7,0.5001866817474365,-2.891960620880127,-1.3340834379196167,0.5402787327766418,-0.8384201526641846,-0.37087926268577576
7.75,0.3412167727947235,-7.333949565887451,-2.2061657905578613,0.6388881206512451,-0.09014013409614563,-0.3024914860725403
7.8,-0.9715023636817932,-4.219416618347168,-0.519000768661499,0.8756471872329712,1.1468725204467773,0.16546355187892914
7.85,-1.2037323713302612,1.151877999305725,3.3636441230773926,1.0640106201171875,1.8527212142944336,0.9413033127784729
7.9,0.1424134373664856,4.544590473175049,1.9184421300888062,0.9402583837509155,0.5037533640861511,0.07862415909767151
7.95,0.6617791056632996,1.3358547687530518,-1.0860190391540527,0.5188908576965332,-0.32519441843032837,-1.2704960107803345
8.0,0.8114206790924072,-3.1027472019195557,-0.9125076532363892,0.3441419005393982,0.5333809852600098,-1.0912306308746338
8.05,0.10337097942829132,0.1269998848438263,-0.07334589213132858,0.5350852012634277,1.058083415031433,-0.0325462706387043
8.1,0.630077064037323,2.5250988006591797,1.8661726713180542,0.8887528777122498,0.7764720916748047,0.7185869216918945
8.15,0.6737229824066162,1.1047134399414062,0.7622730731964111,0.3044690489768982,-0.15316838026046753,-0.0791337788105011
8.2,0.44862714409828186,-1.2273122072219849,-0.14943528175354004,-0.32216644287109375,-0.3019704222679138,-0.6040511727333069
8.25,0.5377162098884583,-1.6017019748687744,-0.08647415041923523,-0.23775877058506012,-0.15540890395641327,-0.2906574308872223
8.3,-0.2418096363544464,0.6790429949760437,-0.8583939671516418,-0.18008582293987274,-0.3357236087322235,0.22286300361156464
8.35,-0.09505440294742584,1.644747018814087,-0.07024963200092316,-0.2286083847284317,0.31027743220329285,0.5252651572227478
8.4,1.3094569444656372,0.24089415371418,2.100651979446411,-0.020768430083990097,1.1031701564788818,0.2468312531709671
8.45,1.672121524810791,-1.0842632055282593,2.39870548248291,0.3875727951526642,0.503017246723175,-0.0011575125390663743
8.5,0.49929893016815186,-0.6939659714698792,0.1739071160554886,0.5026988387107849,-0.9629133343696594,0.052974820137023926
8.55,-0.7777133584022522,2.1512436866760254,-2.501336097717285,0.18652567267417908,-1.603916883468628,0.32214003801345825
8.6,-0.07768404483795166,4.088047027587891,-4.005919456481934,-0.010418623685836792,-1.2018243074417114,0.22134731709957123
8.65,0.448289692401886,1.875166654586792,-3.5826876163482666,0.14385034143924713,-0.3472663462162018,0.10447323322296143
8.7,0.02033442258834839,-0.8034800291061401,-1.969810962677002,0.2890518307685852,0.5590497255325317,0.5582122206687927
8.75,-0.2678746283054352,-1.8654674291610718,0.5985257029533386,0.31095677614212036,1.141761064529419,1.048020839691162
8.8,-0.08853048086166382,-1.962253212928772,3.542201519012451,0.3254116475582123,1.1624974012374878,1.1805813312530518
8.85,-0.7428692579269409,-1.6977088451385498,4.0742082595825195,0.2617610692977905,0.44609344005584717,0.6787347793579102
8.9,-1.0476875305175781,-2.1550707817077637,2.3455119132995605,0.07179718464612961,-0.08494184911251068,-0.14128652215003967
8.95,-0.9214112162590027,-0.9289267659187317,1.0841013193130493,0.1357908993959427,-0.1129332035779953,-0.5981093049049377
9.0,-1.0982611179351807,0.8946046233177185,0.9198836088180542,0.40228497982025146,-0.31982648372650146,-0.645595371723175
9.05,-0.22590778768062592,2.452021837234497,-0.6315275430679321,0.01467345654964447,-0.6334015727043152,-0.8807532787322998
9.1,0.4367784559726715,2.3246617317199707,-1.501700758934021,-0.7399873733520508,-0.39491909742355347,-0.8987409472465515
9.15,0.7640668749809265,0.25651848316192627,-0.6353319883346558,-0.7822422981262207,-0.1957276612520218,-0.6291686296463013
9.2,1.0896143913269043,-1.101313829421997,0.9066280126571655,-0.33640193939208984,-0.272929310798645,-0.2593894302845001
9.25,0.47762852907180786,-0.3419983386993408,2.038496732711792,-0.08249637484550476,-0.5201385021209717,0.02514384314417839
9.3,-0.4190741181373596,0.43132203817367554,0.9595544338226318,-0.03174392506480217,-0.9437998533248901,0.031612422317266464
9.35,-0.8299208879470825,0.37488853931427,-0.9537624716758728,0.25829464197158813,-1.1643623113632202,-0.02789115346968174
9.4,0.055767979472875595,-0.15221691131591797,-0.04584052041172981,0.4619065225124359,-0.6016268730163574,0.1874956488609314
9.45,0.2020055055618286,0.7417142987251282,1.879631519317627,0.08602623641490936,-0.4742075502872467,0.4322664141654968
9.5,-0.27884966135025024,2.1688148975372314,-0.2781572639942169,-0.2649374008178711,-1.611016869544983,0.37621721625328064
9.55,0.2545066475868225,1.974953293800354,-3.2934765815734863,-0.28972136974334717,-2.0971274375915527,0.026629474014043808
9.6,0.721569836139679,0.5470794439315796,-2.2548069953918457,-0.27566438913345337,-1.1435216665267944,-0.03125409036874771
9.65,-0.03219611942768097,-0.9257012009620667,-0.4734698235988617,-0.14800116419792175,-0.5025209784507751,0.2789998948574066
9.7,-1.0111877918243408,-0.7072029709815979,-0.2050195038318634,0.21766027808189392,-0.5847208499908447,0.6721484065055847
9.75,-1.9856675863265991,-0.29877951741218567,-0.7177329063415527,0.6223716735839844,-0.5199973583221436,1.0579115152359009
9.8,-2.6458380222320557,-1.00666344165802,-0.421553373336792,0.8387663960456848,0.12214520573616028,0.9164035320281982
9.85,-2.4275338649749756,-1.768755316734314,0.12219461053609848,0.7921743988990784,0.7785916328430176,0.31623679399490356
9.9,-1.1389596462249756,-2.56868577003479,0.19025735557079315,0.6431729197502136,0.9156296253204346,-0.03832820802927017
9.95,-1.0283890962600708,-1.7181503772735596,-0.2611790895462036,0.31171032786369324,0.6607071757316589,-0.16434000432491302
10.0,-1.2032978534698486,0.3084781765937805,1.4410104751586914,-0.33567896485328674,0.5126175284385681,-0.09421417117118835
10.05,-0.03280329704284668,2.6835925579071045,4.020287036895752,-0.9071496725082397,0.07060155272483826,-0.4715537428855896
10.1,1.4668997526168823,3.6355698108673096,2.338193416595459,-0.9321005344390869,-1.3727558851242065,-1.200654149055481
10.15,2.4561543464660645,1.261109709739685,-1.4953275918960571,-0.7881079912185669,-2.2459073066711426,-1.2858500480651855
10.2,1.1680305004119873,-1.0399444103240967,-2.361164093017578,-1.019119143486023,-1.1979923248291016,-0.3870657980442047
10.25,-0.13798664510250092,-0.060442931950092316,-0.04952148348093033,-1.2240899801254272,-0.057467278093099594,0.3798072338104248
10.3,0.5508636236190796,0.9270944595336914,1.06186044216156,-0.5819355249404907,-0.7300109267234802,0.5903157591819763
10.35,2.192858934402466,0.5988962650299072,-0.6182225942611694,0.38105669617652893,-1.5873701572418213,0.3952450454235077
10.4,2.286503553390503,-0.7430657148361206,-0.6097198724746704,0.7143005728721619,-0.8905040621757507,0.35508203506469727
10.45,1.8279201984405518,-1.8013755083084106,-0.5753265023231506,0.7256418466567993,-0.16559863090515137,0.7809078693389893
10.5,1.7505706548690796,-0.4603813886642456,-0.8578717112541199,0.8452147245407104,-0.13861271739006042,1.1702101230621338
10.55,1.7150284051895142,0.9623844027519226,-0.15125003457069397,0.6516507863998413,-0.2093343436717987,1.0371488332748413
10.6,3.0766220092773438,2.0714643001556396,-2.5526366233825684,0.24359023571014404,-0.1431807428598404,0.3882381319999695
10.65,3.080448865890503,1.5152051448822021,-3.370546579360962,-0.22865474224090576,0.6944449543952942,0.13087472319602966
10.7,2.3158247470855713,0.12252576649188995,-3.859555721282959,-0.5296811461448669,1.7220654487609863,0.3146039545536041
10.75,1.201208472251892,0.590152382850647,-4.211185932159424,-0.4671934247016907,2.6898207664489746,0.675800621509552
10.8,-1.3985905647277832,2.028956890106201,-2.085606336593628,0.10113587975502014,3.7335281372070312,1.3966091871261597
10.85,-2.503308057785034,1.4066399335861206,0.7367182374000549,0.659761369228363,4.423445701599121,1.7424920797348022
10.9,-2.766892910003662,-1.4671376943588257,0.9729356169700623,0.507606029510498,4.727890491485596,1.4643551111221313
10.95,-1.142077088356018,-3.6336774826049805,2.9062983989715576,0.21471092104911804,4.720747947692871,1.2635456323623657
11.0,1.569549798965454,-3.995090961456299,4.617691516876221,0.5225680470466614,4.167928695678711,1.0260183811187744
11.05,4.009449481964111,-2.5972468852996826,5.096142292022705,1.3707518577575684,2.8960983753204346,-0.2884306311607361
11.1,4.634984016418457,-0.02514500357210636,5.14674186706543,1.756535291671753,1.1105270385742188,-1.9636982679367065
11.15,1.4064717292785645,1.3467624187469482,3.345533609390259,1.4157805442810059,-0.4899430572986603,-2.7769598960876465
11.2,-0.5269086360931396,1.7690688371658325,1.3236429691314697,0.5519129633903503,-0.538605272769928,-1.8162153959274292
11.25,0.2916562259197235,0.9706050157546997,0.1176157146692276,-0.1320534199476242,0.03383801877498627,-0.46196794509887695
11.3,0.3963201344013214,0.6846439242362976,-0.8379343748092651,-0.4609004557132721,0.021097226068377495,0.008640590123832226
11.35,-0.23745179176330566,1.1805957555770874,-1.830306887626648,-0.44345876574516296,-0.39971494674682617,-0.08868902921676636
11.4,-2.577113389968872,1.9058278799057007,-1.5876315832138062,-0.5424472093582153,-0.4561590552330017,0.350969135761261
11.45,-3.7758371829986572,0.9788703918457031,0.015519262291491032,-0.5125743746757507,0.3092145025730133,1.3118833303451538
11.5,-1.4421806335449219,-1.554358959197998,1.6443562507629395,-0.4584750831127167,1.2381805181503296,1.5406886339187622
11.55,0.8039858937263489,-3.0496649742126465,1.2048184871673584,-0.5883612632751465,0.7168844938278198,0.3940785825252533
11.6,-1.2203972339630127,-2.5780222415924072,0.0036984493490308523,-0.40391385555267334,-0.3144945204257965,-0.6719167828559875
11.65,-1.5627871751785278,-1.32789146900177,-0.11762414872646332,-0.13258227705955505,-0.21620625257492065,-0.7861056327819824
11.7,0.985170304775238,0.15562911331653595,0.8398682475090027,-0.39741528034210205,-0.14317218959331512,-0.6559417247772217
11.75,0.13651511073112488,1.98122239112854,-0.05720308795571327,-0.9379788637161255,-0.8734241127967834,-0.7921252250671387
11.8,0.42908769845962524,2.1645874977111816,-1.3130054473876953,-0.9730974435806274,-0.8969873189926147,-0.5455926060676575
11.85,0.7370759844779968,1.6366981267929077,-0.958865225315094,-0.6024185419082642,-0.6637317538261414,0.07959645241498947
11.9,-0.5635480880737305,1.5645925998687744,-0.07660070806741714,-0.22419320046901703,-0.6107666492462158,0.4720725119113922
11.95,-0.9537196159362793,0.3246973156929016,1.3791946172714233,0.33858728408813477,-0.5071611404418945,0.37291836738586426
12.0,-1.2453222274780273,-0.9471468925476074,2.809509515762329,0.7227721810340881,-0.5947046279907227,0.29660090804100037
12.05,-1.3979830741882324,-1.2568259239196777,2.2857248783111572,0.7090897560119629,-1.020682454109192,0.14249056577682495
12.1,-1.857670783996582,-1.7088454961776733,0.8893886804580688,0.4297761023044586,-1.5727375745773315,-0.06798768788576126
12.15,-1.6934009790420532,-1.259369134902954,0.5294578671455383,-0.3926050066947937,-1.7811299562454224,-0.03780971094965935
12.2,-0.964881181716919,0.023503264412283897,0.05612722411751747,-1.1079884767532349,-2.135667562484741,-0.12807993590831757
12.25,-0.8002663850784302,0.5719959139823914,-1.0730873346328735,-1.4005436897277832,-2.576533079147339,-0.5196065306663513
12.3,-0.5632461309432983,1.05829656124115,-1.9449180364608765,-1.538104772567749,-2.6182150840759277,-0.82109135389328
12.35,0.6883829832077026,0.6710999011993408,-1.2595566511154175,-1.7489010095596313,-2.0037178993225098,-0.7100769281387329
12.4,1.1498017311096191,1.7247352600097656,2.0650506019592285,-1.9356294870376587,-1.335769772529602,-0.4743044972419739
12.45,0.6661919355392456,2.5857439041137695,1.4676374197006226,-1.4542843103408813,-1.6629365682601929,-0.20095956325531006
12.5,0.47512316703796387,1.068252682685852,0.44723421335220337,-0.43570250272750854,-2.267014980316162,0.07771389186382294
12.55,0.9307862520217896,-1.488962173461914,-0.7414658665657043,0.07711219042539597,-2.0577852725982666,0.18087360262870789
12.6,2.076406955718994,-3.1412456035614014,-0.7174655795097351,0.29837656021118164,-1.491977334022522,-0.14748574793338776
12.65,2.899117946624756,-1.712952733039856,-0.4526495039463043,0.3628602623939514,-1.4124228954315186,-0.14210562407970428
12.7,3.142709970474243,-0.04215701296925545,-0.37153077125549316,-0.06003924459218979,-1.5032124519348145,0.41095519065856934
12.75,2.5539040565490723,2.778672695159912,-0.6757487654685974,-0.6807042956352234,-1.279532551765442,0.36561086773872375
12.8,1.8306257724761963,3.848047971725464,-1.6550153493881226,-1.0776405334472656,-0.8409008979797363,-0.5385390520095825
12.85,1.4684524536132812,-0.22972466051578522,-1.7019113302230835,-1.4094140529632568,-0.2227601557970047,-1.5518784523010254
12.9,0.36175286769866943,-3.4770781993865967,-1.8482917547225952,-1.7628039121627808,0.790982723236084,-2.117311716079712
12.95,-3.360051155090332,-3.2908072471618652,-0.4764324426651001,-1.897216558456421,1.9273828268051147,-2.302358388900757
13.0,-5.0890631675720215,2.32081937789917,3.7670834064483643,-1.2619740962982178,1.868985891342163,-2.1033360958099365
13.05,-3.34423565864563,3.8407270908355713,1.199636459350586,-0.24628475308418274,-0.6209094524383545,-0.6229322552680969
13.1,-1.5340030193328857,-0.11171141266822815,-1.4291112422943115,0.293005108833313,-1.9800946712493896,0.5689709782600403
13.15,-0.4203942120075226,-2.8907809257507324,-1.1789675951004028,0.6631032824516296,-1.7170195579528809,0.6598649024963379
13.2,0.04162484407424927,-2.621026039123535,-1.9952999353408813,0.9005013108253479,-1.5585583448410034,0.8250042796134949
13.25,-0.2733789086341858,-0.6243560314178467,-2.555554151535034,0.792163074016571,-1.3036584854125977,0.9756960272789001
13.3,0.41216039657592773,1.3757261037826538,-1.8871160745620728,0.5457146167755127,-0.8123293519020081,0.5593340992927551
13.35,2.0533287525177,2.87687349319458,-1.1712039709091187,0.4791244864463806,-0.4457993805408478,-0.0007499408675357699
13.4,2.8116865158081055,3.123685359954834,0.050060953944921494,0.3855886161327362,-0.03938061743974686,-0.24490272998809814
13.45,2.4891598224639893,0.6886405944824219,1.3026738166809082,0.037481337785720825,0.15499748289585114,-0.42812487483024597
13.5,0.9537019729614258,-0.3159591555595398,1.6379380226135254,-0.44351693987846375,0.503010094165802,-0.4034516513347626
13.55,-1.019052267074585,1.1708409786224365,2.572478771209717,-0.5435802936553955,0.4216090142726898,-0.11979041248559952
13.6,-0.5361565947532654,1.249200701713562,1.7279046773910522,-0.4277939796447754,-0.6591840982437134,0.2760976552963257
13.65,0.9782756567001343,-0.6498623490333557,0.45275914669036865,-0.2841721475124359,-1.4047949314117432,0.557659924030304
13.7,1.496018409729004,-1.9248968362808228,-0.35475602746009827,-0.22186407446861267,-1.1822845935821533,0.642194926738739
13.75,1.0962178707122803,-1.914901852607727,-0.2943628132343292,-0.25300121307373047,-0.7819504737854004,0.7025073170661926
13.8,1.0250905752182007,-0.2993917465209961,-0.00042996511911042035,-0.20637108385562897,-0.674148678779602,0.893222451210022
13.85,1.2983875274658203,1.0034419298171997,0.0030980748124420643,-0.02609744668006897,-0.7446179986000061,1.0108140707015991
13.9,0.8416863083839417,0.7960473299026489,0.193816676735878,0.08286240696907043,-0.36600223183631897,0.7579169869422913
13.95,-0.19020599126815796,0.15390771627426147,0.5612879991531372,0.031084716320037842,0.19888758659362793,0.464612752199173
14.0,-0.45853179693222046,0.013275989331305027,0.817513108253479,-0.06586197018623352,0.25183066725730896,0.42793720960617065
14.05,-0.15018706023693085,0.4282397925853729,0.7202109694480896,-0.13709744811058044,-0.05196237191557884,0.6236248016357422
14.1,-0.18805699050426483,0.5355110168457031,0.5571641325950623,-0.21688202023506165,-0.25823989510536194,0.8528218865394592
14.15,-0.21494287252426147,0.35442066192626953,0.13738764822483063,-0.21110877394676208,-0.43888890743255615,1.0322495698928833
14.2,0.17392317950725555,-0.02066703885793686,-0.2833356261253357,-0.18560390174388885,-0.5763983726501465,1.2618157863616943
14.25,0.7305490374565125,-0.6903466582298279,-0.9607812166213989,-0.2070484757423401,-0.45960989594459534,1.2801629304885864
14.3,-0.0612775981426239,0.2306492179632187,-1.6168020963668823,-0.33083078265190125,-0.15341094136238098,1.0095875263214111
14.35,-0.9175510406494141,0.19950979948043823,-1.616368293762207,-0.407714307308197,0.10061386972665787,0.7085186243057251
14.4,-1.079302191734314,-0.7002973556518555,-0.8557454943656921,-0.06665179878473282,0.0875597819685936,0.3546605706214905
14.45,-0.38630545139312744,-1.6989052295684814,-0.477755069732666,0.20000186562538147,0.0641893818974495,-0.07001166045665741
14.5,0.1472833752632141,-1.0718965530395508,-0.9710050225257874,0.1785898059606552,0.3370765447616577,-0.289748877286911
14.55,-0.7200708985328674,0.3948585093021393,-1.0157467126846313,0.13697035610675812,0.737197995185852,-0.3483390808105469
14.6,-1.861717700958252,0.18673032522201538,-0.027987398207187653,0.5611156821250916,0.5182364583015442,-0.8124643564224243
14.65,-1.3475202322006226,-0.2420112043619156,0.5068145990371704,1.0377777814865112,-0.12207216024398804,-1.4760546684265137
14.7,0.004257827997207642,-1.1102449893951416,0.936678946018219,1.2722821235656738,-0.5426955223083496,-1.8208575248718262
14.75,0.9068500399589539,-0.8606940507888794,0.36591410636901855,1.1759670972824097,-0.5402576327323914,-1.9341984987258911
14.8,0.5520586371421814,0.7614842653274536,0.43483009934425354,0.83063805103302,-0.5409631133079529,-1.5732054710388184
14.85,-0.5283790826797485,3.1386806964874268,1.7531038522720337,0.5156241655349731,-0.4442445635795593,-1.1641265153884888
14.9,0.6556750535964966,3.865541696548462,1.372241735458374,0.13760128617286682,-0.9655380249023438,-0.6169841289520264
14.95,3.1788954734802246,1.1406633853912354,0.0889875516295433,-0.17419740557670593,-1.2149343490600586,-0.2945094108581543
15.0,3.5933334827423096,-2.258945941925049,-0.6180300116539001,-0.30358952283859253,-0.49231627583503723,-0.22323772311210632
15.05,2.6967813968658447,-2.560049533843994,-0.8245628476142883,-0.33447209000587463,0.3669210970401764,-0.07677587121725082
15.1,0.4792771339416504,0.24543394148349762,-0.7522199749946594,-0.4967153072357178,1.0311036109924316,0.45268622040748596
15.15,-1.5834063291549683,2.460733652114868,0.3525298535823822,-0.47614264488220215,1.0530481338500977,0.914158821105957
15.2,-1.2783215045928955,2.0887317657470703,0.8489044904708862,-0.10048845410346985,0.5678154230117798,0.6167542934417725
15.25,-0.8906041383743286,0.6026182174682617,0.4634094834327698,0.027660883963108063,0.7440638542175293,0.32960182428359985
15.3,-0.9452822208404541,-1.5280393362045288,0.7416500449180603,-0.17918246984481812,0.9331974387168884,0.256471186876297
15.35,1.0773942470550537,-0.9816704988479614,0.30761051177978516,-0.3543219566345215,0.5171965956687927,0.010872084647417068
15.4,1.1807515621185303,-0.7393951416015625,-0.3527470529079437,-0.3361659348011017,0.6657565832138062,0.2690518796443939
15.45,-0.4815264344215393,-0.19443711638450623,0.32604092359542847,0.00845576822757721,0.8551754355430603,0.5098459720611572
15.5,-0.30004772543907166,-0.25582608580589294,0.40911445021629333,0.13225460052490234,0.553645670413971,0.4016135334968567
15.55,0.747111976146698,-0.5956469178199768,0.16817457973957062,0.06523741781711578,0.460944265127182,0.12894269824028015
15.6,0.7533602714538574,-0.6021870970726013,-0.8791303038597107,-0.048428550362586975,1.0536677837371826,0.017297403886914253
15.65,-0.01108463853597641,1.570389986038208,0.36030954122543335,-0.06003499776124954,1.542748212814331,0.15137463808059692
15.7,1.5971791744232178,1.6825623512268066,-1.6658048629760742,0.27679798007011414,0.6072564721107483,0.8895689845085144
15.75,3.380006790161133,0.887883186340332,-5.927238464355469,1.1548328399658203,0.4790073335170746,1.6805715560913086
15.8,1.0420496463775635,2.0772242546081543,-9.279176712036133,2.095123291015625,2.2199249267578125,2.0919108390808105
15.85,-4.755039215087891,4.182640075683594,-3.766967296600342,2.851408004760742,4.479804515838623,2.357362747192383
15.9,-4.103409290313721,2.0235660076141357,3.1080570220947266,2.5003504753112793,5.210755825042725,2.3929672241210938
15.95,-3.0563008785247803,-0.0102284736931324,1.6957944631576538,0.8795632719993591,4.680479526519775,2.553004741668701
16.0,-2.648329496383667,-6.143972873687744,2.057101249694824,-0.7939602136611938,4.427924156188965,3.4533183574676514
16.05,2.482931613922119,-7.226271629333496,7.786170482635498,-0.4672192335128784,3.148303985595703,1.6218113899230957
16.1,3.17335844039917,-0.06673949956893921,4.531371593475342,1.25053870677948,0.4299108684062958,-2.289954423904419
16.15,2.8006579875946045,5.718001365661621,4.206079959869385,1.0858066082000732,-0.15765926241874695,-1.5033773183822632
16.2,2.185225248336792,4.910279273986816,4.806418418884277,-0.46866464614868164,-0.2910076975822449,1.9917441606521606
16.25,-0.6996608972549438,0.8241468667984009,3.719024181365967,-0.15856504440307617,-1.7343149185180664,2.3385918140411377
16.3,-3.7266645431518555,-4.766109466552734,1.8861757516860962,1.0076956748962402,-2.524636745452881,1.4515204429626465
16.35,-5.115941524505615,-5.405107021331787,-1.4811288118362427,0.6841996312141418,-2.3521347045898438,0.06142187863588333
16.4,-2.7090537548065186,-0.8792847990989685,-2.2616937160491943,0.6377416849136353,-1.536129117012024,-0.824334442615509
16.45,1.2115459442138672,-8.081427574157715,3.2549080848693848,3.7011642456054688,-1.9969537258148193,-1.7684073448181152
16.5,2.4738104343414307,4.56289529800415,-8.044601440429688,5.401174068450928,-2.2628440856933594,-3.0769760608673096
16.55,2.1413180828094482,4.802281379699707,-4.322654724121094,0.6347885727882385,0.2286384403705597,-0.07376043498516083
16.6,0.951518177986145,-2.422619581222534,0.2656891345977783,-2.462714195251465,1.433362603187561,1.7551342248916626
16.65,0.6763682961463928,-3.108510732650757,1.6636810302734375,-1.047634482383728,1.3156360387802124,0.6710860729217529
16.7,-0.9699776768684387,-0.5339166522026062,0.5358273983001709,0.4296191930770874,0.794456958770752,-0.411007285118103
16.75,-0.2838161587715149,0.625312864780426,-0.21361471712589264,0.18722662329673767,0.5777049660682678,-0.08727194368839264
16.8,1.356661081314087,-0.6916304230690002,0.5923071503639221,-0.8734875917434692,0.8821192383766174,0.3718060255050659
16.85,0.6631377339363098,-1.1718381643295288,1.7779306173324585,-1.0079047679901123,0.8570587635040283,0.6934481859207153
16.9,0.46858149766921997,-1.2188515663146973,3.1314644813537598,-0.4849642515182495,0.42330867052078247,1.0640963315963745
16.95,-1.1844173669815063,0.35566017031669617,2.1569933891296387,-0.23204420506954193,-0.6299135684967041,0.19626161456108093
17.0,-1.4420933723449707,2.478621482849121,0.8823256492614746,0.5207476615905762,-1.1150590181350708,-0.8741429448127747
17.05,-0.6350537538528442,1.6745073795318604,0.1978990137577057,0.5886120796203613,-0.8343589901924133,-1.44662606716156
17.1,0.5516667366027832,0.28811752796173096,-0.6946478486061096,0.15685445070266724,-0.3370738923549652,-1.236878752708435
17.15,1.4437228441238403,-0.2121104747056961,-0.12014614790678024,0.3236753046512604,-0.4160727560520172,-0.6593126654624939
17.2,0.5486263632774353,0.8152715563774109,-0.46031126379966736,0.4921642541885376,-0.6927758455276489,-0.6555628180503845
17.25,-0.16963550448417664,0.03178681805729866,0.8426030278205872,-0.32043418288230896,-0.7664644718170166,-0.4246099889278412
17.3,-1.1190897226333618,0.2094581127166748,1.9838773012161255,-1.0695611238479614,-0.7250611782073975,-0.022646605968475342
17.35,0.6607567071914673,0.04359517619013786,1.425320029258728,-0.7540934681892395,-0.76329505443573,-0.427464097738266
17.4,0.632103681564331,0.2072231024503708,-0.883091390132904,-1.077556848526001,-0.7427951097488403,-0.738038957118988
17.45,-1.946342945098877,-0.7524388432502747,1.0857458114624023,-1.6833592653274536,-0.02285502664744854,-0.7198808789253235
17.5,0.17194083333015442,-0.5605345368385315,0.024664022028446198,-0.5341286063194275,-0.8197447061538696,-1.399929404258728
17.55,2.8961172103881836,0.2906951606273651,-6.775794982910156,-0.1703425943851471,-2.348412036895752,-0.46874672174453735
17.6,0.7117757797241211,0.7589624524116516,-5.614007949829102,-0.4402892291545868,-0.7993878126144409,0.5487453937530518
17.65,1.8915798664093018,0.9214702248573303,-2.7132601737976074,-0.3321121335029602,0.3595111668109894,-0.2059566229581833
17.7,2.896071195602417,2.860377311706543,-5.003352165222168,-0.19828566908836365,0.44411033391952515,-0.593809187412262
17.75,1.562282919883728,1.7593801021575928,-3.7988736629486084,-0.5925040245056152,1.8122512102127075,0.12469854950904846
17.8,-0.769589900970459,-1.0274358987808228,-4.1407856941223145,-0.7821602821350098,2.8713631629943848,0.6211654543876648
17.85,-5.866926670074463,-1.6145106554031372,-3.2510533332824707,-1.081498146057129,3.4475340843200684,0.982903003692627
17.9,-4.085224151611328,-2.006514310836792,2.4857757091522217,-0.7263214588165283,3.0914041996002197,0.8716848492622375
17.95,-3.549037218093872,-3.7820239067077637,2.003784656524658,0.29293787479400635,1.0262783765792847,-0.5126867294311523
18.0,-6.4708733558654785,0.3888244032859802,-9.400984764099121,0.41794371604919434,-0.07820296287536621,-2.4604110717773438
18.05,-7.291898727416992,7.142680644989014,1.3823944330215454,0.17680802941322327,3.2912940979003906,-1.9519635438919067
18.1,-4.4130682945251465,3.2888474464416504,6.24357795715332,1.15004301071167,5.225168704986572,-0.8017396330833435
18.15,-5.411595344543457,4.114523410797119,7.194274425506592,0.47558122873306274,6.135039806365967,-1.2900136709213257
18.2,-1.0943151712417603,4.149471759796143,9.684958457946777,1.6000858545303345,7.1481804847717285,-1.0967170000076294
18.25,11.336545944213867,2.4992313385009766,5.6482253074646,3.2209267616271973,7.046651363372803,-0.05844708904623985
18.3,13.961124420166016,-1.2207638025283813,0.4189988076686859,3.102158784866333,3.8700597286224365,-1.1551332473754883
18.35,9.406702995300293,-0.7162522077560425,1.3234796524047852,0.9005293250083923,0.9342156052589417,-2.6548526287078857
18.4,4.031058311462402,4.114785194396973,-0.793143630027771,0.7430209517478943,0.6434001326560974,-1.504407286643982
18.45,-3.9510445594787598,4.635912895202637,8.984819412231445,2.748708963394165,-0.060504913330078125,0.2097269892692566
18.5,0.2765881419181824,-15.081896781921387,-1.8370301723480225,1.8353804349899292,1.3207073211669922,-1.1788148880004883
18.55,1.256240963935852,-5.545475959777832,-3.9644901752471924,-0.19665557146072388,1.7058160305023193,-0.005883208476006985
18.6,4.52705192565918,-2.194561719894409,-2.8215444087982178,-1.3255062103271484,0.8486462831497192,-0.05078573524951935
18.65,3.22308349609375,1.010932445526123,-2.0319771766662598,-0.9770458340644836,0.7680792808532715,-0.502264142036438
18.7,-0.620482325553894,0.19076550006866455,-1.0292686223983765,0.14062999188899994,0.333814412355423,0.38495397567749023
18.75,-5.865962982177734,-2.136890411376953,-4.099742889404297,1.2560402154922485,0.15549932420253754,1.1560311317443848
18.8,-8.868593215942383,-0.16203515231609344,-1.6538504362106323,0.7422211170196533,-0.09013944864273071,1.7194724082946777
18.85,-4.308156490325928,1.772402048110962,-1.6099278926849365,1.3427530527114868,-0.16237273812294006,1.0304486751556396
18.9,0.09569942951202393,1.3300480842590332,5.0599517822265625,1.8191475868225098,-0.5895877480506897,0.785559356212616
18.95,6.622961521148682,-3.2980856895446777,5.255505084991455,2.2731456756591797,-1.0880171060562134,2.450460433959961
19.0,5.5368146896362305,-1.9484574794769287,5.588501453399658,0.677799642086029,-1.2853589057922363,3.250206232070923
19.05,4.686948776245117,-5.15216588973999,6.765163898468018,-0.4667038917541504,-0.2685356140136719,3.566781520843506
19.1,3.7702462673187256,-2.638202428817749,5.842477321624756,-1.035327672958374,1.3025436401367188,3.420745849609375
19.15,3.856851816177368,-1.784092664718628,13.52357292175293,-1.6790854930877686,2.663907289505005,3.740550994873047
19.2,8.806000709533691,9.965195655822754,8.97023868560791,-0.952114462852478,8.876594543457031,5.2035980224609375
19.25,7.352416038513184,15.731651306152344,-2.5306572914123535,-2.3932712078094482,10.990511894226074,1.9664260149002075
19.3,0.3837740421295166,11.648726463317871,-5.467597484588623,-5.4230055809021,8.619592666625977,-0.8042388558387756
19.35,1.7116541862487793,8.921412467956543,-8.241461753845215,-7.678234577178955,1.123555302619934,1.5583103895187378
19.4,3.925154685974121,16.647136688232422,-15.458168029785156,-8.081111907958984,1.4423757791519165,5.891999244689941
19.45,-9.03493595123291,-10.051291465759277,-20.040525436401367,-10.291008949279785,4.407179832458496,0.5797916054725647
19.5,-10.130258560180664,-24.001420974731445,9.434077262878418,-8.003911018371582,2.013559579849243,1.5065605640411377
19.55,6.703625202178955,-9.297834396362305,-1.872706651687622,-1.1928532123565674,3.694758892059326,4.984236240386963
19.6,-0.13353435695171356,-6.520247459411621,0.3505360782146454,-0.702052652835846,4.065026760101318,3.091968059539795
19.65,-3.4731533527374268,-1.8319506645202637,1.3028173446655273,0.07309137284755707,2.222254991531372,0.772114634513855
19.7,-3.250728130340576,-0.5632273554801941,4.101173400878906,0.03762764483690262,0.4162921607494354,-0.29597166180610657
19.75,-1.405910849571228,0.09354351460933685,3.840475082397461,-0.01915322244167328,0.5153860449790955,-0.11325112730264664
19.8,0.410063773393631,0.6815756559371948,1.66653311252594,-0.044112369418144226,0.2701655924320221,0.07888197898864746
19.85,1.4723995923995972,-1.565076470375061,3.3476178646087646,-0.3572278916835785,0.15273047983646393,-0.09830988198518753
19.9,1.6947568655014038,-1.163586974143982,2.5108864307403564,-0.0886073112487793,0.9763263463973999,-0.4075835943222046
19.95,0.9823137521743774,-0.7674619555473328,1.001630425453186,0.16913843154907227,1.1864694356918335,-0.9264204502105713
20.0,2.469709634780884,-2.2718231678009033,0.9263479113578796,-0.07596465945243835,1.1509208679199219,-1.062589168548584
20.05,4.8487653732299805,-10.274150848388672,5.688142776489258,0.43470752239227295,1.5073188543319702,-2.0561323165893555
20.1,-9.599617004394531,-18.4960994720459,1.7329005002975464,2.4134693145751953,0.8675678372383118,-4.940457344055176
20.15,-11.043523788452148,-11.92469596862793,3.943309783935547,0.8009388446807861,-2.87630033493042,-8.042296409606934
20.2,-11.321001052856445,12.763045310974121,-4.810886383056641,-2.2432703971862793,-2.4241812229156494,-13.700775146484375
20.25,5.540633201599121,22.361738204956055,-6.3186259269714355,-0.06946611404418945,-1.4907877445220947,-11.672822952270508
20.3,15.390949249267578,7.653550624847412,-6.082433700561523,0.8977228999137878,-1.2648605108261108,-5.892342567443848
20.35,7.152101516723633,0.5269398093223572,-0.6708812117576599,0.22376251220703125,1.6548888683319092,-3.0003249645233154
20.4,0.006257861852645874,-0.08449095487594604,1.4786851406097412,0.2348071038722992,2.9197733402252197,-1.6568626165390015
20.45,0.3142785429954529,-1.5002672672271729,-0.26802653074264526,0.10327707976102829,1.42572820186615,0.4197816252708435
20.5,1.946563959121704,0.8560767769813538,-3.03560471534729,0.22155171632766724,0.7593671083450317,0.9811152219772339
20.55,0.32146164774894714,2.4231581687927246,-2.3058626651763916,0.17694121599197388,1.79427170753479,0.38867440819740295
20.6,-1.4341977834701538,2.2651712894439697,-1.0330047607421875,-0.2384866178035736,2.782839298248291,-0.27681592106819153
20.65,-1.9931641817092896,1.7878609895706177,0.0029877834022045135,-0.19240662455558777,2.4254956245422363,-0.14303021132946014
20.7,-0.6014798879623413,-0.8006573915481567,-0.07992498576641083,0.4969783425331116,1.054579496383667,0.2496902346611023
20.75,-0.024360239505767822,-3.0539655685424805,-0.8266059160232544,0.8258692026138306,0.5049756169319153,0.43480145931243896
20.8,-1.3181816339492798,-2.551574230194092,1.1331406831741333,0.4617564380168915,1.218284010887146,0.5161879658699036
20.85,-2.755730152130127,-0.6960157752037048,1.9784270524978638,-0.10194216668605804,1.1662938594818115,0.7706555724143982
20.9,-2.4659786224365234,2.4601571559906006,2.3523952960968018,0.04639780521392822,-0.06975653022527695,1.0544836521148682
20.95,1.1497457027435303,2.056779384613037,-2.4798946380615234,0.39866286516189575,-1.0740071535110474,0.46541059017181396
21.0,-0.12549060583114624,-1.009135127067566,-1.6553354263305664,0.32509666681289673,0.9280944466590881,-0.15838688611984253
21.05,-1.6445722579956055,-0.8970625996589661,0.9537498950958252,-0.052063949406147,2.2416675090789795,0.18865440785884857
21.1,-0.8605014681816101,2.475559949874878,4.452208042144775,0.5349595546722412,1.6894631385803223,0.6145862340927124
21.15,0.5771462917327881,2.1868221759796143,0.926401674747467,0.926685094833374,0.1526390016078949,0.14136719703674316
21.2,-0.04591664671897888,-1.1758575439453125,-1.1068127155303955,0.03733304888010025,0.9397497177124023,-0.07277022302150726
21.25,0.0036000311374664307,-5.278781890869141,0.7285594344139099,-0.07938602566719055,1.6005131006240845,-0.08202576637268066
21.3,2.760382652282715,-2.7882566452026367,2.539323568344116,0.5467098951339722,0.9608273506164551,0.12824469804763794
21.35,-1.532481074333191,3.559202194213867,4.0253119468688965,0.9457072615623474,-0.7555214762687683,1.0026971101760864
21.4,-4.303127765655518,4.966165065765381,-2.4271838665008545,0.410001665353775,-1.851270079612732,1.3041735887527466
21.45,-4.679447174072266,-0.6106444001197815,-1.6388318538665771,-1.2433128356933594,-0.18561014533042908,-0.17848452925682068
21.5,0.8866990804672241,-4.467265605926514,6.608699321746826,-2.1327877044677734,2.4523088932037354,-1.2275100946426392
21.55,-0.9089416265487671,-4.689540863037109,6.387796878814697,-0.6394856572151184,0.12198256701231003,-0.7671668529510498
21.6,-3.1398966312408447,3.113656520843506,-1.1578435897827148,0.9654616117477417,-3.1427223682403564,-0.13925990462303162
21.65,0.3107146620750427,3.354508399963379,-3.96502423286438,0.0812903344631195,-2.359241008758545,-0.08892654627561569
21.7,0.7556652426719666,1.8438621759414673,-2.992494821548462,-1.22523832321167,-0.7272904515266418,-0.6159566044807434
21.75,-0.045076265931129456,-2.113118886947632,-0.1189793050289154,-0.9173086285591125,-0.77879399061203,-0.5856395959854126
21.8,-0.49490678310394287,-4.963842868804932,-0.7881163358688354,-0.34573492407798767,-1.4132965803146362,-0.14333048462867737
21.85,-0.011887073516845703,-4.557578086853027,-1.889349102973938,-0.014482472091913223,-1.4587525129318237,0.20565401017665863
21.9,0.30911147594451904,2.405574321746826,-1.3205029964447021,0.12957924604415894,-1.0530719757080078,0.36450034379959106
21.95,1.8469984531402588,7.713856220245361,-3.742727279663086,0.3078043460845947,-1.025758147239685,-0.6134393811225891
22.0,0.18031224608421326,0.3172845244407654,0.9331539273262024,0.27310308814048767,0.43906787037849426,-0.9570392370223999
22.05,1.687289834022522,-2.9240236282348633,2.7564244270324707,0.9106094241142273,0.28448572754859924,-0.5320187211036682
22.1,4.613020896911621,-4.542359828948975,-4.850455284118652,1.482251763343811,-1.4775846004486084,-0.12215015292167664
22.15,2.4504008293151855,3.7112109661102295,-8.39185905456543,1.1693025827407837,0.3344464600086212,-0.03359850123524666
22.2,-1.7751880884170532,6.718236923217773,-0.29509347677230835,0.6115881204605103,4.251256942749023,0.8171148300170898
22.25,-1.4177014827728271,5.746368408203125,2.3149070739746094,0.3455151617527008,3.772812604904175,0.30366629362106323
22.3,-1.0444846153259277,1.447972297668457,0.974170982837677,1.1129447221755981,2.125410795211792,0.5071371793746948
22.35,-0.2719317674636841,-2.920046806335449,1.3518116474151611,1.4267863035202026,1.51486337184906,0.8651904463768005
22.4,0.04463553428649902,0.5520795583724976,5.730471611022949,1.3527809381484985,1.7844847440719604,1.5082283020019531
22.45,-3.901381015777588,5.179128170013428,7.770538330078125,0.20323598384857178,0.5146030187606812,2.6863179206848145
22.5,-4.491898536682129,-3.197432279586792,0.8582015633583069,0.07905396819114685,-1.5252138376235962,1.0568034648895264
22.55,2.600019931793213,-5.398560047149658,2.8660099506378174,-0.9357897639274597,-0.2347600758075714,-0.27143993973731995
22.6,0.22262859344482422,-8.833868980407715,3.3590691089630127,-1.000719666481018,-0.5809096097946167,-0.6456795334815979
22.65,-4.42555570602417,3.7495205402374268,-0.42696473002433777,-0.04344387352466583,-2.7140965461730957,-0.5709238052368164
22.7,1.1729166507720947,5.324740886688232,0.5584419369697571,0.24560585618019104,-2.9815526008605957,-0.4347294270992279
22.75,1.547717571258545,2.2043442726135254,-1.0898396968841553,-0.8854902982711792,-2.0992891788482666,-1.0733673572540283
22.8,0.06654171645641327,-2.113981008529663,-0.030153043568134308,-1.6311341524124146,-0.844031035900116,-1.194409728050232
22.85,-0.6206403374671936,-5.547061920166016,1.333975076675415,-0.41239500045776367,-1.6614125967025757,-0.9560266137123108
22.9,0.11608070135116577,-7.266430377960205,-3.27742862701416,0.1113961860537529,-3.4160938262939453,0.03350561112165451
22.95,2.578629493713379,0.7842975854873657,-11.22561264038086,-0.2223915010690689,-3.1281213760375977,1.102240800857544
23.0,5.148287296295166,14.397085189819336,-4.085202217102051,-0.23846231400966644,-0.17252148687839508,0.8100787997245789
23.05,3.3714873790740967,7.752066612243652,-8.141895294189453,0.841892421245575,0.41641631722450256,0.04348974674940109
23.1,0.7456253170967102,3.0583770275115967,-2.0554428100585938,1.081465482711792,3.7609400749206543,-0.09462995827198029
23.15,3.0630617141723633,-1.561726450920105,-1.5669934749603271,1.6122713088989258,4.1279144287109375,0.7636939287185669
23.2,-1.796650767326355,4.6979475021362305,3.4127602577209473,3.513967990875244,3.438047170639038,3.196993589401245
23.25,-5.194108009338379,8.384516716003418,6.025703430175781,5.897342205047607,1.2696207761764526,3.083753824234009
23.3,-5.850505352020264,13.23872184753418,2.9611194133758545,6.494247913360596,1.0360331535339355,0.8733952045440674
23.35,-7.993866920471191,1.88151216506958,11.269506454467773,3.9129409790039062,4.014386177062988,4.2627949714660645
23.4,-2.062565803527832,-11.755531311035156,12.08753490447998,2.254207134246826,2.9635891914367676,7.347072124481201
23.45,5.952627182006836,-19.039567947387695,6.0470194816589355,3.160275936126709,0.44389715790748596,6.446352481842041
23.5,12.716695785522461,-13.71148681640625,-9.086907386779785,4.145652770996094,-0.817410409450531,2.753406524658203
23.55,5.711108207702637,-1.415893793106079,-5.674792289733887,2.5660715103149414,1.0795756578445435,-2.102647066116333
23.6,-3.0285096168518066,-5.316636085510254,-0.7304618954658508,-0.4514651298522949,0.7705487012863159,-3.11358904838562
23.65,-12.398433685302734,-24.078460693359375,4.992134094238281,-0.7117919921875,-0.10388081520795822,-4.993887424468994
23.7,-8.037914276123047,7.65535831451416,7.00204610824585,-1.315263271331787,-0.9912509918212891,-7.454710006713867
23.75,1.2734031677246094,15.127562522888184,1.7530715465545654,-4.244132041931152,-4.171390533447266,-4.209909915924072
23.8,-0.5705750584602356,6.336324691772461,-1.7849317789077759,-7.747704982757568,-3.32134747505188,-0.7387081980705261
23.85,-3.691594362258911,2.0773544311523438,0.030992286279797554,-7.805715560913086,-1.3751459121704102,-3.1311001777648926
23.9,-0.26091957092285156,1.9605436325073242,-5.753678798675537,-4.7068400382995605,-2.289245128631592,-6.101129531860352
23.95,13.866487503051758,-4.062960147857666,-12.571510314941406,-2.5051002502441406,-3.7724292278289795,-4.912060737609863
24.0,8.068877220153809,-2.5921123027801514,-9.83061408996582,-0.395071804523468,0.1598144918680191,-1.831896424293518
24.05,-3.2611708641052246,-4.210061550140381,5.833903789520264,-0.6252390146255493,5.066636085510254,0.20527546107769012
24.1,-4.134502410888672,1.387812852859497,14.435566902160645,0.22472086548805237,2.834230422973633,-1.1347426176071167
24.15,-4.861818313598633,0.22549302875995636,10.244141578674316,1.1516151428222656,-0.2962917685508728,-0.7356746792793274
24.2,-3.862313747406006,2.075054883956909,3.2073209285736084,1.8260072469711304,-3.8101367950439453,-0.29355496168136597
24.25,-0.8491590023040771,3.206472635269165,-5.886362552642822,1.7556782960891724,-6.439297676086426,1.1542607545852661
24.3,5.630911827087402,4.99454402923584,-3.0347530841827393,0.5738152861595154,-4.377147197723389,1.1642926931381226
24.35,-1.7789247035980225,4.249745845794678,-0.09006626904010773,-0.7132927179336548,-1.2472233772277832,1.1462258100509644
24.4,0.40131914615631104,4.015349388122559,-5.9681220054626465,-0.021683156490325928,-0.9769877195358276,1.06706964969635
24.45,-0.8946130275726318,-2.025477409362793,-6.794925212860107,0.7112939953804016,0.51857990026474,1.7144484519958496
24.5,0.9847539663314819,-3.515899896621704,-8.900870323181152,1.6986727714538574,3.055900812149048,1.4534648656845093
24.55,-6.799971103668213,4.554360389709473,3.0000734329223633,2.624073028564453,5.576870918273926,2.925855875015259
24.6,-4.393680572509766,7.328397274017334,2.494161605834961,4.797058582305908,2.6737823486328125,4.416729927062988
24.65,-14.634203910827637,-0.930819571018219,2.958754539489746,5.655226707458496,4.443126201629639,2.009838581085205
24.7,2.893588066101074,-2.0995280742645264,5.062446594238281,1.5840654373168945,4.792163372039795,2.5418100357055664
24.75,1.5433943271636963,-3.6274585723876953,5.42147970199585,0.4206293523311615,3.983614921569824,1.419074296951294
24.8,4.860693454742432,-3.805490493774414,6.465837001800537,1.4619359970092773,2.523970365524292,1.1586087942123413
24.85,3.7216668128967285,-1.348694920539856,1.1454565525054932,0.8422918319702148,1.6515816450119019,0.46368762850761414
24.9,4.124178886413574,-0.41372767090797424,-0.005331209395080805,0.5939459800720215,1.4029470682144165,0.0676388218998909
24.95,2.553598642349243,-3.44527006149292,0.875425398349762,0.20036590099334717,0.8963172435760498,-0.11558768898248672
25.0,1.4430201053619385,-12.983551979064941,4.61022424697876,0.1611151546239853,0.5709732174873352,0.1434280127286911
25.05,-2.7837085723876953,-7.9666290283203125,7.186288356781006,-0.3803710341453552,0.5480600595474243,0.2552184760570526
25.1,5.06005334854126,2.4209609031677246,7.028849124908447,-1.296097755432129,0.21664300560951233,-2.2032320499420166
25.15,0.7951671481132507,11.3783597946167,-5.2135210037231445,-2.3608837127685547,-0.5413385629653931,-1.7751015424728394
25.2,-3.6447572708129883,-3.446565866470337,-3.65019154548645,-1.7323862314224243,-1.1057947874069214,1.098288655281067
25.25,-3.477426052093506,6.865017414093018,-3.9998836517333984,-1.2704720497131348,-1.0821212530136108,-1.4659215211868286
25.3,-4.785191535949707,1.8592302799224854,-1.071898102760315,0.3361837863922119,-0.7192855477333069,-0.37385842204093933
25.35,1.1673543453216553,0.3533904254436493,2.939401626586914,0.32536089420318604,-0.07198966294527054,0.05327114462852478
25.4,-0.719528317451477,3.5688555240631104,2.362884759902954,-0.23076337575912476,-0.748217761516571,-0.17531821131706238
25.45,-0.5667082667350769,-4.270914077758789,0.8996108770370483,-0.1571330726146698,-0.931719958782196,0.532875120639801
25.5,-1.4748353958129883,-4.856576919555664,-2.069875717163086,-0.28415438532829285,-1.4942978620529175,-0.2814212441444397
25.55,0.9730674624443054,-3.100375175476074,-3.346637487411499,0.08141349256038666,-1.5403846502304077,-0.5445748567581177
25.6,1.6118866205215454,3.191201686859131,0.7217057943344116,0.13188143074512482,-1.1276413202285767,-0.24903742969036102
25.65,0.6512641906738281,7.165508270263672,-0.9901503920555115,-1.0718071460723877,-0.019196877256035805,-0.5393092036247253
25.7,0.08872175216674805,2.2911629676818848,-1.7739161252975464,-2.0596442222595215,1.8232771158218384,0.4319581985473633
25.75,1.8460413217544556,-0.31966304779052734,0.45622730255126953,-1.340125322341919,2.4248366355895996,-0.6045656800270081
25.8,2.6279187202453613,-0.18154728412628174,1.7421720027923584,-1.048733115196228,1.9376100301742554,0.5877587795257568
25.85,2.8420541286468506,2.019684076309204,0.7258845567703247,0.048709720373153687,0.39842647314071655,1.0415695905685425
25.9,1.4524627923965454,2.393211603164673,-0.5195701718330383,0.21042238175868988,0.11427634954452515,0.9014285802841187
25.95,0.31490790843963623,-1.3803696632385254,2.949460506439209,-0.019389837980270386,0.9586202502250671,1.519586205482483
26.0,2.8777589797973633,-2.900148391723633,2.3620924949645996,-0.33011847734451294,0.5354719758033752,0.8340305685997009
26.05,0.6510336399078369,-3.5606942176818848,1.1291790008544922,-0.12461891025304794,-0.007366650737822056,-0.07126272469758987
26.1,0.5951530933380127,-1.632912039756775,1.65304696559906,0.25475966930389404,0.053778275847435,0.31610143184661865
26.15,-0.3078107237815857,3.130364418029785,3.357896327972412,0.6983613967895508,-0.639944851398468,0.8878799080848694
26.2,1.3571890592575073,3.102555274963379,5.094902992248535,-0.4446020722389221,-0.11872632056474686,1.0746631622314453
26.25,0.07842075824737549,-1.714099645614624,4.1608099937438965,-0.6293386220932007,-0.9389412999153137,0.24405093491077423
26.3,-2.062380313873291,-0.43224036693573,-2.2904720306396484,-0.6327322721481323,-2.043297290802002,-1.2201685905456543
26.35,-2.582650661468506,1.8060795068740845,-3.9551498889923096,0.08644533157348633,-2.1676769256591797,-1.6674160957336426
26.4,-2.776956796646118,1.4019700288772583,-0.9859855771064758,-0.07718532532453537,-1.64598548412323,-0.37919163703918457
26.45,-2.8426477909088135,0.4160366356372833,-0.8063638806343079,-0.2164286971092224,-1.8514354228973389,-0.22715504467487335
26.5,-0.6911821961402893,2.213609218597412,-2.554734468460083,-0.4039876461029053,-1.8963700532913208,-0.9380123615264893
26.55,-0.5609545707702637,-0.2677304744720459,-2.4362785816192627,-0.4296867847442627,-1.0880770683288574,-0.3135874271392822
26.6,-1.003033995628357,-3.2934741973876953,-3.673086166381836,-0.2769742012023926,-0.4927586615085602,0.18788675963878632
26.65,0.6450733542442322,-3.0242092609405518,-1.5627696514129639,0.12401337921619415,0.2507353723049164,0.2329285442829132
26.7,3.252403974533081,2.074798107147217,-0.36161866784095764,0.18331527709960938,0.126484215259552,0.1216173768043518
26.75,2.6107676029205322,4.321910381317139,-0.22652679681777954,0.04232851415872574,0.7509381771087646,-0.32636022567749023
26.8,2.0308122634887695,1.3055070638656616,-1.4430803060531616,-0.4939756393432617,1.4364784955978394,-0.17749471962451935
26.85,0.6041923761367798,-0.25058552622795105,-0.19943766295909882,-1.1106936931610107,2.3741350173950195,-0.06622535735368729
26.9,0.9003127813339233,2.6554996967315674,-0.5218599438667297,-0.8232868313789368,2.2868173122406006,-0.30596938729286194
26.95,1.2338860034942627,1.339609146118164,1.6367157697677612,-0.23570454120635986,2.5606155395507812,1.071892261505127
27.0,2.710618495941162,-1.8734564781188965,2.6615536212921143,0.23533892631530762,2.055518627166748,1.3939213752746582
27.05,1.453956961631775,-2.9640820026397705,-0.28823360800743103,0.19330041110515594,0.9594082832336426,0.6850656867027283
27.1,-1.0665507316589355,-4.016781806945801,-2.732459545135498,0.14280961453914642,0.7291722297668457,0.29194945096969604
27.15,-4.369426727294922,-3.529249429702759,-2.8241381645202637,0.4434948265552521,1.4695178270339966,0.011321412399411201
27.2,-3.376270294189453,2.750288724899292,3.8597848415374756,0.7941267490386963,2.9060885906219482,0.3144077658653259
27.25,3.1314332485198975,4.3286285400390625,3.2674295902252197,-0.33259186148643494,3.068053960800171,0.3051973581314087
27.3,-5.303057670593262,5.1010284423828125,2.7174999713897705,-1.4787755012512207,1.9585762023925781,0.6812378168106079
27.35,-3.944283962249756,-0.24736665189266205,4.472576141357422,-0.09279137849807739,3.120326042175293,1.4444953203201294
27.4,-0.8774546980857849,-4.176065921783447,3.3707003593444824,0.02397054433822632,3.842355489730835,1.228501796722412
27.45,-1.1510573625564575,-1.8401234149932861,3.708702564239502,-0.3524317443370819,3.0159802436828613,0.042793430387973785
27.5,-3.472764253616333,-1.8300901651382446,1.596102237701416,-0.773836612701416,2.7793288230895996,-0.4963482618331909
27.55,-3.5943996906280518,-0.15210764110088348,2.096034288406372,-0.06316256523132324,3.9458250999450684,0.21748188138008118
27.6,0.9183814525604248,4.124972343444824,3.1506667137145996,0.8943533897399902,4.98728084564209,0.8323791027069092
27.65,2.763200283050537,2.0604336261749268,0.6178421974182129,1.0044313669204712,5.092981815338135,0.7624289989471436
27.7,2.761868476867676,-0.9413798451423645,2.4114716053009033,0.6933047771453857,4.050886631011963,-0.1943930983543396
27.75,4.405674934387207,-5.850070476531982,1.8548423051834106,0.36211007833480835,3.8691585063934326,-1.2710925340652466
27.8,5.340511322021484,-1.8578429222106934,-3.871608257293701,-0.03573554754257202,4.3365936279296875,-1.1057337522506714
27.85,1.6764706373214722,6.2156782150268555,-8.568490028381348,-0.3164854049682617,3.3108739852905273,-0.1310192346572876
27.9,-0.8030651807785034,6.259624481201172,0.7312901616096497,0.2338392287492752,0.8421719074249268,0.5817520022392273
27.95,1.3740781545639038,1.0195716619491577,6.375230312347412,0.32289761304855347,1.583845853805542,-0.5600491762161255
28.0,2.8322086334228516,-3.1536433696746826,-0.22540602087974548,0.884594202041626,3.464160203933716,-1.6880698204040527
28.05,1.7740674018859863,-4.665884971618652,-3.6843807697296143,1.6193172931671143,3.5250730514526367,-2.1826393604278564
28.1,1.1973683834075928,-3.6455371379852295,-6.145843505859375,2.137803316116333,3.093432903289795,-2.5223681926727295
28.15,-0.8762027025222778,1.2272261381149292,-6.083845138549805,2.4315435886383057,0.925205647945404,-1.3413370847702026
28.2,1.9206035137176514,0.584598958492279,-2.353849411010742,1.0577707290649414,-2.133516311645508,-0.015169316902756691
28.25,0.6409522891044617,0.11300082504749298,0.7080960273742676,0.3139844834804535,-2.811551094055176,0.092735655605793
28.3,0.48869287967681885,0.0021053876262158155,2.9486210346221924,0.6908267140388489,-1.4600603580474854,-0.05928875505924225
28.35,-0.001834958791732788,0.8602237105369568,1.5407521724700928,1.513270616531372,0.2612142562866211,-0.19420820474624634
28.4,-1.1672289371490479,0.5182047486305237,-0.2738182544708252,1.6154615879058838,0.9737227559089661,-0.30276191234588623
28.45,-0.9760509133338928,0.7117119431495667,-0.2289086878299713,1.5260767936706543,0.8712284564971924,-0.4085296094417572
28.5,-0.5258200168609619,1.1744195222854614,0.31724199652671814,1.5515369176864624,0.8089008331298828,-0.647363543510437
28.55,-0.10621581971645355,0.10891999304294586,0.9944638013839722,1.1329994201660156,0.7385497093200684,-0.8194887638092041
28.6,-0.1984592229127884,-0.12251576781272888,0.6000023484230042,0.5686705112457275,0.8729075193405151,-0.7153928875923157
28.65,-0.5089783668518066,-0.48505499958992004,-0.3107900619506836,0.2143435925245285,1.028199553489685,-0.5522191524505615
28.7,-0.1653572916984558,0.15825560688972473,-0.24231454730033875,-0.021040432155132294,0.8279982209205627,-0.3523515462875366
28.75,-0.16223961114883423,-0.538969099521637,0.04438415914773941,-0.41669905185699463,0.4917665719985962,-0.21211838722229004
28.8,-0.733311116695404,-0.7547008395195007,0.13758893311023712,-0.41374436020851135,0.4474464952945709,-0.03351438418030739
28.85,-0.8243404030799866,0.2802581489086151,0.3088044822216034,-0.254724383354187,0.3780231773853302,0.055335454642772675
28.9,-0.2676332890987396,-0.3041315972805023,0.5472320318222046,-0.32501932978630066,0.1628562957048416,0.09083706885576248
28.95,0.03592337667942047,-0.29388245940208435,0.620916485786438,-0.25066959857940674,0.02743123658001423,0.10128913074731827
29.0,0.7960555553436279,-0.704933226108551,0.4804336428642273,-0.049671720713377,0.04729042202234268,0.10241661220788956
29.05,1.0825611352920532,-0.4910278916358948,0.3270648717880249,0.067720428109169,0.13464508950710297,0.23445068299770355
29.1,0.5410778522491455,-0.47436535358428955,0.7712762951850891,0.11594747751951218,0.22349824011325836,0.3337385058403015
29.15,1.2955267429351807,-0.6316176056861877,0.290377140045166,0.12353043258190155,0.38420942425727844,0.4274584650993347
29.2,0.686561107635498,0.022561069577932358,0.2814062237739563,0.18649810552597046,0.6028100848197937,0.5902560353279114
29.25,0.4539819061756134,0.12412263453006744,0.16090033948421478,0.02506197988986969,0.6965075731277466,0.6934958696365356
29.3,0.8808290362358093,0.2575426697731018,0.1389833688735962,-0.11145688593387604,0.735307514667511,0.7881168723106384
29.35,0.1049594134092331,-0.6277332901954651,0.1483117640018463,-0.003294527530670166,0.9330272078514099,0.7235931754112244
29.4,-0.36789625883102417,0.48020464181900024,-0.10992499440908432,0.06122522056102753,0.973505437374115,0.7995303273200989
29.45,0.17998453974723816,0.6579915285110474,-0.388872355222702,-0.05721716582775116,0.9195976853370667,0.8185460567474365
29.5,-0.19772019982337952,-0.5594817399978638,0.29119881987571716,-0.20188763737678528,0.7979989051818848,0.9426214694976807
29.55,0.40512794256210327,0.8006545901298523,-0.19707749783992767,-0.14421410858631134,0.750612735748291,0.9852174520492554
29.6,0.4865493178367615,0.2803163230419159,0.5531673431396484,-0.15111680328845978,0.7917290329933167,1.0305813550949097
29.65,-0.12471984326839447,0.14463040232658386,0.3437829911708832,-0.05067664384841919,0.8725932240486145,1.0240256786346436
29.7,-0.34723615646362305,1.2238378524780273,0.4723699688911438,-0.03421616554260254,1.0216095447540283,0.8037934303283691
29.75,-0.30170005559921265,0.08438389003276825,0.5881520509719849,-0.02870720624923706,1.082491159439087,0.7666561603546143
29.8,-0.8649448752403259,-0.08019167184829712,0.18424396216869354,-0.03956684470176697,1.0234978199005127,0.6193787455558777
29.85,0.13413125276565552,-0.19871819019317627,0.8186866044998169,0.040328577160835266,0.9502437114715576,0.5368576049804688
29.9,-0.3173425495624542,-0.5872107744216919,0.16759704053401947,0.016036108136177063,0.9212301969528198,0.5549323558807373
29.95,-0.13311225175857544,0.22554871439933777,0.41111382842063904,0.1466333419084549,1.1456685066223145,0.4469784200191498
30.0,-0.5461833477020264,-0.625153660774231,0.2085559219121933,0.06844016164541245,1.396012306213379,0.38494470715522766
30.05,-0.4734423756599426,-0.09805874526500702,0.12170849740505219,0.1371675580739975,1.3346327543258667,0.25164544582366943
30.1,-0.9947559833526611,-0.6730281114578247,0.10063669830560684,0.08646607398986816,1.264784336090088,0.2858939468860626
30.15,-1.2995518445968628,-0.5643788576126099,0.2108628898859024,0.2752361297607422,1.2086560726165771,0.08067717403173447
30.2,-1.1435881853103638,-0.4728643000125885,0.27629825472831726,0.3619638681411743,0.7889115810394287,-0.006938762962818146
30.25,-1.1061227321624756,-0.34335535764694214,0.8708662986755371,0.37633317708969116,0.34414979815483093,-0.004456619266420603
30.3,-0.47077417373657227,0.05965135991573334,0.037862785160541534,0.4605766534805298,0.04210594296455383,-0.14733856916427612
30.35,-0.44999539852142334,-0.17423254251480103,0.2567923963069916,0.45841166377067566,-0.03635676950216293,-0.11699020117521286
30.4,-0.3143686056137085,0.00024409283651039004,0.3059740662574768,0.49802419543266296,-0.15012596547603607,-0.10384486615657806
30.45,-0.36437201499938965,0.2582617402076721,-0.2847975790500641,0.46049579977989197,-0.2642599642276764,-0.14868643879890442
30.5,-0.6359335780143738,0.4695139229297638,0.035937290638685226,0.33310168981552124,-0.21724869310855865,-0.19905489683151245
30.55,0.007060681935399771,0.7228394150733948,-0.046016864478588104,0.2535075545310974,-0.2915182411670685,-0.3003891110420227
30.6,-1.2308332920074463,0.4361228346824646,0.5056297183036804,0.1541057527065277,-0.3974085748195648,-0.24537399411201477
30.65,0.6708700656890869,0.020254092290997505,0.6112514734268188,0.180353045463562,-0.7922680974006653,-0.305674284696579
30.7,0.11591954529285431,0.038733404129743576,0.7511691451072693,0.11818984895944595,-0.6838988065719604,-0.22729046642780304
30.75,1.4523255825042725,0.7608062028884888,0.35341060161590576,0.008858822286128998,-0.721286416053772,-0.39004379510879517
30.8,0.9238688945770264,1.0944262742996216,0.5600076913833618,-0.11087983101606369,-0.6141981482505798,-0.30565574765205383
30.85,-0.4296051859855652,1.1262741088867188,1.1506527662277222,-0.3044918179512024,-0.4672081172466278,-0.27084261178970337
30.9,0.0792313665151596,0.39839938282966614,0.17524807155132294,-0.48502105474472046,-0.9700304865837097,-0.2126288264989853
30.95,-1.4831877946853638,0.5580444931983948,-0.25743040442466736,-0.8092677593231201,-1.517364501953125,0.08001681417226791
31.0,-1.605619192123413,-1.6245406866073608,0.2043059915304184,-0.858569860458374,-1.951844573020935,0.023588715121150017
31.05,4.790876388549805,1.2433114051818848,-1.7990851402282715,-0.9545060396194458,-2.3327112197875977,-0.4494624137878418
31.1,7.380251407623291,-3.985410690307617,-0.8250250816345215,-0.060543835163116455,-2.807060718536377,-0.6935603618621826
31.15,3.766646385192871,11.297636032104492,4.527888298034668,1.3463572263717651,-1.309873104095459,0.253347784280777
31.2,0.28522801399230957,3.2971856594085693,-2.2089436054229736,0.6467806100845337,1.1766818761825562,-0.4339004456996918
31.25,-1.2333166599273682,2.6392414569854736,-0.7004362940788269,1.1566123962402344,1.4794869422912598,-0.788399338722229
31.3,-1.1028164625167847,0.19107159972190857,-0.935361385345459,0.979216992855072,0.31432706117630005,-0.38618141412734985
31.35,0.38746708631515503,-1.4796926975250244,0.734088122844696,0.8235353827476501,-0.9228953123092651,-0.12347521632909775
31.4,-0.0836886316537857,-0.9553005695343018,0.899478018283844,0.5941728949546814,-1.1472091674804688,-0.20323744416236877
31.45,-0.6704511046409607,-1.1821995973587036,-0.32540199160575867,0.6515282392501831,-0.655311644077301,-0.6418805122375488
31.5,-1.4794026613235474,-1.9922505617141724,-1.6033581495285034,0.42396706342697144,-0.15625721216201782,-0.8824884295463562
31.55,-0.4836446940898895,-2.543545961380005,-0.5109270811080933,-0.1045704036951065,-0.7725749611854553,-0.622295618057251
31.6,4.014357566833496,-2.1613857746124268,2.0631306171417236,-0.7906315326690674,-1.6217983961105347,-0.036881618201732635
31.65,3.259490489959717,-2.2436156272888184,3.2912440299987793,-0.8249499201774597,-0.9321707487106323,0.787955641746521
31.7,2.709620714187622,-1.1924259662628174,1.6882354021072388,0.09065261483192444,1.429221510887146,0.7048119902610779
31.75,-2.738194465637207,-0.7157357335090637,1.0127025842666626,0.4339238405227661,2.4780220985412598,0.6398661136627197
31.8,-3.3914356231689453,0.9236777424812317,-2.827179431915283,-0.10359687358140945,1.4966434240341187,0.1987837851047516
31.85,-2.4418392181396484,1.8850843906402588,-0.6682369709014893,-0.5183086395263672,0.003292037872597575,-0.2530115842819214
31.9,-5.441861152648926,1.4951705932617188,-0.5603978037834167,-1.0518441200256348,-1.078616738319397,-0.4834507703781128
31.95,0.7195383310317993,-0.4743432104587555,-1.0749505758285522,-0.7968382835388184,-1.3371928930282593,-1.5366787910461426
32.0,1.305384635925293,0.29670703411102295,1.749725341796875,-0.838249921798706,-2.6681699752807617,-2.2812459468841553
32.05,4.9551873207092285,-2.4393622875213623,0.8551419973373413,-0.6664968729019165,-1.7097015380859375,-3.280613899230957
32.1,9.593795776367188,0.1910923272371292,4.83188533782959,0.805448591709137,-0.7556552290916443,-3.284423351287842
32.15,5.982309818267822,2.076021909713745,-2.1709530353546143,1.4922480583190918,0.4589407444000244,-1.9617897272109985
32.2,3.0687379837036133,8.304811477661133,1.6760072708129883,3.753937244415283,0.7454938292503357,0.033144328743219376
32.25,3.1892552375793457,0.9289177656173706,3.0160317420959473,2.484619140625,1.434091329574585,1.2896342277526855
32.3,15.143620491027832,7.505364418029785,-3.0083250999450684,-0.36558544635772705,1.4307973384857178,2.5335237979888916
32.35,4.67867374420166,6.181300163269043,-5.998660087585449,-0.5277788043022156,0.7333926558494568,4.760992527008057
32.4,-18.945486068725586,11.368304252624512,4.102713108062744,0.524789571762085,-0.9893859624862671,3.6806046962738037
32.45,3.7822036743164062,3.566103458404541,0.7844958305358887,-0.543582022190094,0.17875033617019653,-0.27824363112449646
32.5,3.2282087802886963,-1.6634749174118042,-2.136425733566284,-0.7807918787002563,2.633472442626953,-0.5234286785125732
32.55,-4.985084056854248,-1.8369802236557007,-0.6885004043579102,0.15634652972221375,3.638620138168335,0.465733140707016
32.6,-6.441164970397949,-5.36467981338501,-0.23614472150802612,-0.4174915552139282,3.3959312438964844,0.5787995457649231
32.65,-4.6188459396362305,-6.409944534301758,0.7758656144142151,-0.7107917666435242,2.089564085006714,0.6820471286773682
32.7,-2.5552475452423096,-6.559600353240967,-1.2093309164047241,-1.3983802795410156,0.44704583287239075,1.2168629169464111
32.75,-2.5238795280456543,-5.123499870300293,0.1931835114955902,-1.6666054725646973,-0.6088946461677551,1.743606686592102
32.8,-0.11468249559402466,-1.519089937210083,0.12403310835361481,-1.2037322521209717,-1.1279230117797852,1.9263489246368408
32.85,0.8001397848129272,-0.8693772554397583,0.19365906715393066,-0.34326720237731934,-1.1000739336013794,1.4429062604904175
32.9,-2.3808555603027344,-0.760151207447052,0.5842586159706116,0.010378025472164154,0.7561802268028259,0.28772592544555664
32.95,-1.0808619260787964,0.8710576295852661,-0.2042079120874405,-0.003296125680208206,-0.15461085736751556,0.1962900608778
33.0,-0.19022852182388306,0.6761178970336914,0.217388316988945,0.019290700554847717,-1.1580803394317627,0.6129797697067261
33.05,-0.05173465609550476,-0.7804260849952698,-0.48308688402175903,0.026949692517518997,-0.910169243812561,0.14563363790512085
33.1,-1.6046756505966187,-1.58087956905365,0.17549733817577362,-0.09165454655885696,-0.540571391582489,-0.07524948567152023
33.15,3.412537097930908,-1.0867319107055664,-0.2602446675300598,-0.26233944296836853,-0.9520509243011475,0.09354214370250702
33.2,9.435993194580078,-4.3345184326171875,0.6738716959953308,-0.3811133801937103,-1.1440184116363525,0.4825863242149353
33.25,1.3132929801940918,9.165238380432129,-6.313479900360107,0.37266334891319275,1.8154417276382446,0.5316217541694641
33.3,-9.123849868774414,5.290131092071533,4.334072589874268,0.7745578289031982,2.9403505325317383,-1.1422147750854492
33.35,-5.10373592376709,-1.6947542428970337,1.2089422941207886,0.45568856596946716,-0.3853835463523865,-0.9646106958389282
33.4,-0.9622337222099304,1.1936200857162476,-2.6785800457000732,-0.2556765377521515,-2.652777910232544,-0.12774726748466492
33.45,1.465956449508667,2.0032877922058105,-1.7728328704833984,-0.24211320281028748,-4.845695972442627,0.6361002922058105
33.5,6.009112358093262,1.4298851490020752,0.741587221622467,0.18309491872787476,-4.694329738616943,-0.06798567622900009
33.55,0.7194868326187134,0.19943249225616455,-0.5054433345794678,0.6538919806480408,-2.2373640537261963,-0.44878318905830383
33.6,0.8102649450302124,-0.7423665523529053,-2.328322172164917,0.23665665090084076,-2.4717864990234375,-0.3864469826221466
33.65,1.6034519672393799,-0.7065609097480774,-1.5577503442764282,-0.6060436367988586,-3.447495937347412,-0.1724082976579666
33.7,3.250567674636841,-0.8731145858764648,0.11076207458972931,-1.1651192903518677,-3.8806726932525635,-0.1804608255624771
33.75,2.5450713634490967,-0.833030104637146,2.822357654571533,-1.3585574626922607,-3.8047380447387695,-0.1607176512479782
33.8,2.818056106567383,-1.2071272134780884,4.67247200012207,-1.1575822830200195,-2.932401657104492,-0.3647489547729492
33.85,0.1924998164176941,-0.6350568532943726,2.747743844985962,-1.109628677368164,-1.6896451711654663,-0.594748318195343
33.9,0.1571439504623413,0.8338412046432495,2.0787956714630127,-1.0665562152862549,-1.2885041236877441,-0.6790105700492859
33.95,1.0874720811843872,-0.8040736317634583,1.8040639162063599,-0.6803234815597534,-0.5923121571540833,-0.8945559859275818
34.0,-0.05686125159263611,-0.5576896071434021,-0.815243124961853,-0.21750059723854065,0.4837765395641327,-0.9680857062339783
34.05,0.7662441730499268,1.530564785003662,-1.457885503768921,-0.3723703622817993,-0.12788349390029907,-0.9902859330177307
34.1,0.34115108847618103,-0.3020317256450653,1.6814460754394531,-1.16983962059021,-1.0283979177474976,-0.8184974193572998
34.15,1.55504310131073,-0.9001032114028931,4.759462833404541,-0.9464372992515564,-0.8919104933738708,-0.628579318523407
34.2,2.6465554237365723,-2.836618423461914,6.706465721130371,0.13310211896896362,0.19630976021289825,-0.3425866663455963
34.25,7.316936492919922,-2.9511780738830566,13.234487533569336,1.5102667808532715,1.7372664213180542,0.33852699398994446
34.3,5.927082538604736,-3.728549003601074,2.2100725173950195,1.282563328742981,3.9087681770324707,1.4404810667037964
34.35,10.64102840423584,5.874641418457031,-0.7272677421569824,1.9834604263305664,5.942830562591553,2.515343427658081
34.4,-10.24988842010498,11.628948211669922,-0.9701621532440186,0.9244815707206726,6.942907333374023,2.52126407623291
34.45,0.7618557214736938,4.971346855163574,-4.3654375076293945,-0.30542075634002686,8.626209259033203,-1.6207411289215088
34.5,-8.808506965637207,-1.3452465534210205,-1.9317461252212524,-0.8995039463043213,7.902952194213867,-1.3578687906265259
34.55,-5.08078670501709,-2.8405513763427734,0.3295968770980835,-0.27353474497795105,3.643489360809326,-1.5732580423355103
34.6,-1.262880802154541,-1.6055766344070435,-1.4359712600708008,0.059839993715286255,0.3025467097759247,-1.326772928237915
34.65,-1.34738290309906,-0.8033496737480164,-0.11902660876512527,0.009515881538391113,-1.034458041191101,-1.3374137878417969
34.7,1.3183319568634033,-0.9463405013084412,-1.3014177083969116,-0.352279394865036,-0.4648091793060303,-1.3809170722961426
34.75,0.660423994064331,-0.16776244342327118,-2.5811736583709717,-0.39205390214920044,-0.6133884191513062,-0.8470209240913391
34.8,1.6152368783950806,-1.9686838388442993,-4.942009449005127,-0.3072260618209839,-0.4551321864128113,-0.5548987984657288
34.85,-0.3431881070137024,2.188910961151123,-1.9833060503005981,0.24639064073562622,0.30143165588378906,0.22974355518817902
34.9,4.548224925994873,-0.3097243905067444,-2.4228057861328125,0.4546109139919281,0.17200298607349396,0.32147547602653503
34.95,2.126024007797241,0.48190635442733765,-2.4171090126037598,1.0432196855545044,1.9810943603515625,-0.2653294801712036
35.0,0.5885370969772339,-0.13551892340183258,-0.7813701629638672,0.9634895324707031,3.0190305709838867,-0.38465267419815063
35.05,-1.2900422811508179,0.7484406232833862,0.9467219114303589,0.6664457321166992,3.0910446643829346,0.04467170685529709
35.1,-0.6354441046714783,1.2566280364990234,0.44962093234062195,0.4271456301212311,2.7938268184661865,0.4789476692676544
35.15,-1.14198899269104,1.4900493621826172,0.24475285410881042,0.44388100504875183,2.2650039196014404,0.8766629099845886
35.2,-0.209872305393219,-1.5592528581619263,-1.2601385116577148,0.6113855242729187,2.058368444442749,1.076995611190796
35.25,-1.2678804397583008,-2.021923780441284,-4.0389275550842285,0.9162227511405945,2.2774388790130615,0.9464389681816101
35.3,-0.9677218198776245,-1.8806573152542114,-5.086544990539551,0.9662173986434937,2.968601703643799,0.644182562828064
35.35,-4.496541976928711,5.246963024139404,-1.4637287855148315,0.44276320934295654,3.928128957748413,0.23476164042949677
35.4,-8.53759765625,11.00938606262207,12.392427444458008,-0.988475501537323,6.5810160636901855,0.4167782962322235
35.45,9.022778511047363,4.7555155754089355,17.45555305480957,-1.4727534055709839,6.310908794403076,1.0127716064453125
35.5,-0.3957827091217041,-2.688096761703491,8.481971740722656,0.18757657706737518,-0.8893651366233826,0.7020383477210999
35.55,-3.166383743286133,-4.865359783172607,2.5955569744110107,0.40982523560523987,-2.460688591003418,0.3810596466064453
35.6,0.8086297512054443,-1.6492657661437988,2.760824203491211,-1.0076048374176025,-0.9288361072540283,0.1972016990184784
35.65,1.16145658493042,-2.2178053855895996,3.379650115966797,-1.2717750072479248,-1.1903871297836304,0.054289285093545914
35.7,-0.4646480679512024,-0.771915853023529,2.2339000701904297,-0.3989851474761963,-3.84316349029541,0.5963470339775085
35.75,-0.44573909044265747,0.82313472032547,-1.762977957725525,-0.2977449595928192,-3.8622801303863525,-0.17469552159309387
35.8,-1.6696593761444092,-2.598031759262085,-7.730128288269043,-0.03911290690302849,-3.110924005508423,0.13559825718402863
35.85,5.786642551422119,1.6405586004257202,-7.382303714752197,0.3620361387729645,-2.6990246772766113,0.6579986214637756
35.9,7.113848686218262,2.745666980743408,-0.6361039876937866,0.7109965085983276,-0.36148783564567566,0.544402539730072
35.95,4.643725872039795,1.1280440092086792,3.378502607345581,2.2111873626708984,0.4380430281162262,0.7571060657501221
36.0,3.590203285217285,4.272555351257324,-0.9448563456535339,3.4181265830993652,-1.4780255556106567,1.5000919103622437
36.05,2.608668804168701,6.213600158691406,1.4076039791107178,3.838855743408203,-2.44966197013855,3.541851758956909
36.1,-2.0872936248779297,3.999600648880005,0.5425223708152771,3.2574493885040283,-1.0312402248382568,3.3998286724090576
36.15,-6.953254699707031,-4.905689239501953,-0.33058083057403564,1.1657425165176392,1.2725389003753662,2.4901225566864014
36.2,-3.1018993854522705,-3.7619779109954834,6.0571980476379395,-2.3339216709136963,3.0313074588775635,2.178483724594116
36.25,-0.3618907928466797,-6.658890247344971,4.6806159019470215,-0.7871497869491577,1.5223792791366577,0.7002797722816467
36.3,-0.6977901458740234,-4.728579521179199,1.8557617664337158,1.3662887811660767,0.29652097821235657,-0.3986162841320038
36.35,1.919819712638855,-5.879909038543701,-6.043729782104492,2.583092451095581,-0.7662782669067383,-0.7194264531135559
36.4,1.7058457136154175,10.250689506530762,-4.405649185180664,3.6814591884613037,-0.30471140146255493,-0.5635207295417786
36.45,-2.636120319366455,-2.2990636825561523,-3.597710371017456,1.745934009552002,-0.04798411950469017,-1.0373481512069702
36.5,-2.7981417179107666,5.056189060211182,-8.788247108459473,-3.8017797470092773,4.307717800140381,-2.2198293209075928
36.55,1.4205296039581299,4.157924175262451,0.6081385612487793,-5.9045090675354,3.7342958450317383,0.34809622168540955
36.6,-1.1378650665283203,-0.15603019297122955,3.7318618297576904,-2.618281364440918,6.349149227142334,1.6694358587265015
36.65,-1.219285011291504,1.7515758275985718,6.7203779220581055,1.4564485549926758,3.0544989109039307,2.1301043033599854
36.7,-1.6595500707626343,-4.037139415740967,4.7778730392456055,0.09372928738594055,3.0430400371551514,1.5988348722457886
36.75,2.3467726707458496,-5.893354415893555,2.5466690063476562,-1.702707290649414,2.2163918018341064,0.7648710608482361
36.8,1.935180902481079,-2.3074769973754883,2.814608097076416,-1.4377872943878174,0.971108078956604,-0.4311617910861969
36.85,-1.7196111679077148,-1.6627274751663208,-1.8332140445709229,0.13309098780155182,-0.8220773935317993,-0.6516730189323425
36.9,1.759807825088501,2.867824077606201,-1.2595690488815308,0.215361088514328,0.22516991198062897,-0.32104194164276123
36.95,4.792904853820801,7.698696136474609,2.3067026138305664,-0.5543148517608643,0.5100817680358887,-0.5359218716621399
37.0,1.1295357942581177,-0.5908896923065186,6.078411102294922,-0.5084575414657593,0.6942586898803711,-0.08444918692111969
37.05,0.922347903251648,-0.7579830884933472,6.2336626052856445,0.5464572906494141,-0.8293097019195557,0.30579817295074463
37.1,5.771078586578369,0.8993213772773743,4.690247535705566,2.409832715988159,-3.662503242492676,-0.15341290831565857
37.15,0.3609687089920044,2.6738805770874023,-5.124488353729248,0.6492980122566223,-4.518786907196045,-0.4666837453842163
37.2,-2.501832962036133,-0.7020710110664368,-2.923276901245117,-2.0591673851013184,-1.5480339527130127,1.5190902948379517
37.25,-1.0057214498519897,-3.0394015312194824,3.2931554317474365,-4.193339824676514,-0.20138917863368988,1.2872284650802612
37.3,-0.7400104999542236,-3.647926092147827,5.026107311248779,-3.2202086448669434,-2.277406692504883,-0.696407675743103
37.35,-1.9166642427444458,-10.939446449279785,-0.14424210786819458,-0.7100982666015625,-4.5075764656066895,-1.0163835287094116
37.4,-3.309337854385376,-7.640841960906982,-11.485777854919434,1.1139543056488037,-4.321348190307617,-0.6193435192108154
37.45,7.009016036987305,16.470001220703125,-14.341856956481934,1.606160044670105,-1.7323344945907593,-2.129528284072876
37.5,1.015075445175171,10.728931427001953,-1.0554776191711426,2.5136005878448486,4.409504413604736,-2.6575350761413574
37.55,-9.825712203979492,7.928473472595215,-10.414368629455566,1.1392847299575806,6.200719356536865,-0.92593914270401
37.6,-9.172170639038086,11.71064281463623,3.1778564453125,3.5545997619628906,8.636990547180176,-0.3274272680282593
37.65,-0.7102348804473877,3.634887456893921,13.73568344116211,6.441014289855957,7.193954944610596,-0.7591963410377502
37.7,-0.9386196136474609,-2.3266732692718506,15.84532356262207,5.77450704574585,6.14449405670166,-0.06262179464101791
37.75,7.851864814758301,-10.937392234802246,5.990146160125732,3.9152121543884277,5.267525672912598,-0.8227521777153015
37.8,7.448731422424316,-4.002714157104492,-5.286253452301025,0.20194384455680847,2.3718597888946533,-1.9005004167556763
37.85,0.21289408206939697,-1.9074041843414307,0.31903618574142456,-0.43738654255867004,0.1850288212299347,-1.3056073188781738
37.9,0.362496554851532,-3.5717263221740723,0.7202416658401489,0.4471268355846405,0.43602848052978516,-0.03941308706998825
37.95,2.0125973224639893,-3.367647409439087,-1.2793790102005005,-0.11604848504066467,0.28598421812057495,-0.5538192391395569
38.0,1.3019099235534668,-0.727314829826355,-1.068725824356079,-1.2504512071609497,-0.4195253849029541,-1.3193845748901367
38.05,-0.17518873512744904,2.9503726959228516,1.2157886028289795,-1.4697649478912354,-0.5616523623466492,-1.1506067514419556
38.1,1.1284592151641846,3.2310328483581543,-0.39414340257644653,-0.8121024966239929,-0.0004746630438603461,-0.38285279273986816
38.15,0.7140064835548401,1.5337363481521606,0.8673332929611206,-0.11931139975786209,0.5758517384529114,0.4178767204284668
38.2,1.247223138809204,-2.7333450317382812,-0.7296987771987915,1.0164600610733032,0.9494030475616455,1.171338438987732
38.25,2.0179288387298584,-2.0034196376800537,-2.4305994510650635,0.7768375873565674,0.9646419882774353,0.8964701294898987
38.3,0.7184836864471436,0.97486811876297,-1.2095400094985962,-0.5952051281929016,0.41250741481781006,0.003170704934746027
38.35,0.41303637623786926,1.5578205585479736,0.15881319344043732,0.1279447376728058,0.6270927786827087,0.4903486669063568
38.4,0.990239679813385,-0.6037511825561523,-0.09362010657787323,1.1778383255004883,0.8296310305595398,1.028077244758606
38.45,1.566210389137268,-2.5982742309570312,-0.6279436945915222,0.3109235167503357,0.23867954313755035,0.4786831736564636
38.5,0.7303698062896729,0.7007665038108826,1.3588578701019287,-0.9934573173522949,-0.7908284068107605,-0.10576944798231125
38.55,-1.414299726486206,1.3970192670822144,1.6757535934448242,-0.9030280113220215,-1.0698909759521484,-0.6340897083282471
38.6,-1.195587396621704,7.448169708251953,0.8032033443450928,-1.2953492403030396,-0.8537341952323914,-0.8802756071090698
38.65,-1.3868123292922974,9.45102310180664,2.2768092155456543,-1.4235002994537354,-0.24172106385231018,-0.5303736329078674
38.7,0.7559479475021362,1.463297724723816,2.7498910427093506,1.2331571578979492,1.2056220769882202,0.8899867534637451
38.75,1.6937110424041748,-6.1824493408203125,0.20719607174396515,2.5186872482299805,1.572502613067627,0.9264947772026062
38.8,1.723131775856018,-6.343973159790039,-0.3670154809951782,1.8453757762908936,1.4269616603851318,0.5898008346557617
38.85,0.26669973134994507,-3.7048585414886475,-2.351825714111328,-0.504315197467804,0.16290177404880524,-0.4667741656303406
38.9,-2.266726493835449,1.2273225784301758,0.4020877778530121,-1.072372317314148,-0.41910967230796814,-0.0011241951724514365
38.95,-0.9553689360618591,-1.064804196357727,-0.5853648781776428,0.3079850673675537,0.1378827840089798,0.6150673627853394
39.0,0.4644615948200226,-0.41358837485313416,-1.5913574695587158,-0.27549588680267334,-0.38214394450187683,0.35308632254600525
39.05,0.28586310148239136,1.8710225820541382,-0.6768249869346619,-1.2417608499526978,-1.2884960174560547,-0.3183239698410034
39.1,1.2541629076004028,-0.9952811598777771,-0.9137638807296753,0.11237742006778717,-0.8232340216636658,-0.36652708053588867
39.15,0.8943637609481812,-2.749485492706299,1.3647080659866333,0.2374999225139618,-1.5984128713607788,-0.6845035552978516
39.2,-0.84614497423172,2.810305595397949,1.9363244771957397,-1.2017312049865723,-2.3778746128082275,-1.6740422248840332
39.25,-1.3821035623550415,6.70961332321167,2.1644253730773926,-1.046624779701233,-1.4758656024932861,-0.9992966055870056
39.3,1.5701842308044434,-3.3531832695007324,1.2999773025512695,1.6945140361785889,0.4317116141319275,1.1482014656066895
39.35,2.5844767093658447,-9.437738418579102,-0.1298704445362091,2.6763203144073486,0.716941237449646,2.14096736907959
39.4,5.949592590332031,-4.52777624130249,-0.3159380853176117,-0.4559638798236847,-0.8909454941749573,0.5424042344093323
39.45,3.484820604324341,2.2137367725372314,0.44109854102134705,-3.697479486465454,-3.7835352420806885,-2.124643325805664
39.5,-2.1527113914489746,4.559284687042236,0.3817611038684845,-2.9281692504882812,-3.466533899307251,-0.5540644526481628
39.55,-2.4076087474823,-1.8904961347579956,4.213803768157959,-1.0816417932510376,-3.093468427658081,0.4543996751308441
39.6,-4.967155456542969,-7.164409160614014,4.692743301391602,-0.6998156905174255,-3.2245192527770996,0.5116854906082153
39.65,-6.575901508331299,1.2735813856124878,-0.5125239491462708,-2.1294023990631104,-2.8552377223968506,-0.9875650405883789
39.7,1.8731433153152466,9.225995063781738,-5.561520576477051,-2.6543030738830566,-1.4221315383911133,-1.7227543592453003
39.75,8.47609806060791,1.6317743062973022,2.013303518295288,-1.6072063446044922,1.6334211826324463,1.6653398275375366
39.8,0.06933677196502686,1.9996355772018433,3.5496132373809814,-2.447626829147339,-1.006559133529663,1.797450065612793
39.85,-3.1960906982421875,3.835610866546631,-0.8509734869003296,-2.4991002082824707,-2.263698101043701,1.2802646160125732
39.9,-2.9634315967559814,-1.788681149482727,-1.8617368936538696,-1.5939972400665283,-1.6305536031723022,1.9885125160217285
39.95,-0.30480149388313293,-1.7664501667022705,-0.42231258749961853,-1.1518151760101318,-0.6812534928321838,1.6513993740081787
40.0,-2.485286235809326,-1.985579013824463,-3.0210893154144287,-1.285132884979248,-0.8593329787254333,1.2324432134628296
40.05,-1.035482406616211,-1.299271583557129,-1.4742809534072876,-1.5261608362197876,-0.05734860152006149,0.46717768907546997
40.1,-0.47893205285072327,-0.2059916853904724,-0.8958892822265625,-1.3904669284820557,-0.29168933629989624,-0.2119409441947937
40.15,-0.1891886591911316,0.2797243595123291,-1.811406135559082,-0.9966723918914795,-0.38894200325012207,-0.4521709084510803
40.2,0.5321018695831299,0.9341450929641724,0.35194963216781616,-0.7166416645050049,0.05772344395518303,-0.44069522619247437
40.25,1.0053211450576782,0.6007565855979919,1.4998373985290527,-0.5619179606437683,0.05890792980790138,-0.22789974510669708
40.3,0.3772769570350647,0.11837945133447647,1.447314977645874,-0.5208410024642944,-0.3649476170539856,0.14910788834095
40.35,0.5271227359771729,0.802007794380188,0.02784220315515995,-0.7252645492553711,-0.6431174874305725,0.11083122342824936
40.4,0.1411287784576416,0.5579436421394348,-1.8559670448303223,-0.6973913311958313,-0.8853053450584412,0.2024075835943222
40.45,0.6697564721107483,0.828475296497345,-1.3966821432113647,-0.600372314453125,-0.2349393516778946,0.09835830330848694
40.5,0.6837900876998901,0.7690966129302979,-0.7628229856491089,-0.4748634696006775,0.22359195351600647,0.16776877641677856
40.55,0.16490188241004944,0.44395169615745544,-0.31540966033935547,-0.29082879424095154,0.25646480917930603,0.4984933137893677
40.6,0.21236209571361542,0.49119099974632263,-0.09865671396255493,-0.26136621832847595,0.2530456781387329,0.43783724308013916
40.65,0.37603676319122314,-0.6362000107765198,0.07607054710388184,-0.08363311737775803,0.3614037334918976,0.34957465529441833
40.7,-0.4302101135253906,-0.7387324571609497,0.40052521228790283,-0.025185029953718185,0.4025557041168213,0.19816620647907257
40.75,0.7310580611228943,0.33711913228034973,0.16327175498008728,-0.14761051535606384,0.38488295674324036,-0.08845460414886475
40.8,0.031962573528289795,1.1599904298782349,-0.1456478089094162,-0.148157998919487,-0.031822677701711655,-0.11800340563058853
40.85,-0.8191454410552979,-0.18248827755451202,-1.8006452322006226,-0.21983245015144348,-0.4900175631046295,0.13031256198883057
40.9,-0.8742164373397827,-2.845299005508423,-0.7106698155403137,-0.2812521159648895,0.0458260178565979,-0.11044438928365707
40.95,-0.8388241529464722,-1.6655067205429077,0.7284654974937439,0.017832361161708832,0.1314888596534729,-0.45929285883903503
41.0,-0.9899177551269531,0.10230068862438202,-0.5495539903640747,0.8306907415390015,-0.7575061917304993,-0.29676851630210876
41.05,-1.0552047491073608,-1.3422422409057617,-1.5573447942733765,0.7279093265533447,-1.0421513319015503,-0.4923010468482971
41.1,1.5739591121673584,1.468287467956543,1.4276270866394043,-0.010724246501922607,0.2759840488433838,-1.21840500831604
41.15,1.0128240585327148,1.2913426160812378,2.823931932449341,-0.26604291796684265,-0.009071394801139832,-0.6356303095817566
41.2,0.806033194065094,0.7851782441139221,0.8702108860015869,-0.3313612937927246,-0.7756905555725098,0.26145100593566895
41.25,0.3106808066368103,0.1180536150932312,-1.3174008131027222,-0.4170707166194916,-0.8965466618537903,0.7236406207084656
41.3,1.8552045822143555,1.1418983936309814,-0.052530087530612946,-0.3969717025756836,-0.35080400109291077,0.36333200335502625
41.35,-0.2694673240184784,0.17078222334384918,-1.13463294506073,-0.23459288477897644,-0.17862585186958313,0.7816373705863953
41.4,0.07346180081367493,0.06754007190465927,0.9187880158424377,-0.1057330071926117,0.439130961894989,0.3551138937473297
41.45,0.052033424377441406,0.3213016092777252,-0.8774471282958984,0.1706198900938034,0.19897830486297607,0.5650913715362549
41.5,0.8642128705978394,-1.0415325164794922,-0.9170874357223511,0.4139482080936432,0.45102813839912415,0.40884721279144287
41.55,0.34740203619003296,-0.122432641685009,-0.6154406070709229,0.1205793172121048,1.3269643783569336,0.03746990114450455
41.6,0.06772151589393616,-0.18605507910251617,-1.0568054914474487,0.30437740683555603,1.3609927892684937,0.032794300466775894
41.65,-1.7261676788330078,-0.5760352611541748,-3.0239832401275635,0.6319199800491333,1.0605535507202148,0.09125468134880066
41.7,-3.5878443717956543,-1.0577200651168823,-3.1703460216522217,0.4909312129020691,1.5785415172576904,-0.5055139660835266
41.75,-3.689075231552124,1.065322995185852,-1.2195206880569458,0.6809381246566772,2.2136714458465576,-1.0630110502243042
41.8,0.017634153366088867,2.6840877532958984,1.9311555624008179,1.4233015775680542,2.277419090270996,-1.5729715824127197
41.85,1.157088279724121,1.530039668083191,3.2311511039733887,2.011096954345703,0.8613909482955933,-1.1649137735366821
41.9,0.3315008878707886,0.824094831943512,0.5959066152572632,1.7060134410858154,-2.006357192993164,-1.2240147590637207
41.95,8.622282981872559,4.2013983726501465,-3.658097267150879,1.4440621137619019,-2.2645883560180664,-1.6206774711608887
42.0,0.8457873463630676,4.1581621170043945,-2.9624898433685303,1.3294525146484375,0.8121389746665955,1.7020056247711182
42.05,0.17953896522521973,3.081608533859253,5.9302568435668945,1.0522695779800415,2.6496193408966064,3.3957407474517822
42.1,3.9889278411865234,-1.5721484422683716,8.43086051940918,0.5436297655105591,0.2599641978740692,3.3432986736297607
42.15,-0.16669929027557373,0.9123415350914001,5.7221808433532715,1.097833275794983,-3.257490873336792,2.8374788761138916
42.2,-2.3126871585845947,-2.0492422580718994,0.09174476563930511,2.8606534004211426,-4.001577377319336,2.9713809490203857
42.25,-3.591832160949707,-3.0594897270202637,-1.7614144086837769,2.6972901821136475,-2.9023046493530273,2.4154975414276123
42.3,-2.91121506690979,-3.1613385677337646,-3.048813819885254,2.0653555393218994,-1.7406386137008667,2.1143414974212646
42.35,-1.7546876668930054,-1.865167260169983,-1.4098742008209229,1.6352283954620361,-1.0171946287155151,1.7346407175064087
42.4,0.6670810580253601,-0.7147994637489319,-3.89493989944458,2.972372531890869,-0.8690891861915588,1.2509657144546509
42.45,0.5717543363571167,1.9671189785003662,-4.121278285980225,2.7592761516571045,-0.08759523928165436,0.996382474899292
42.5,-0.8748999834060669,0.24150189757347107,-0.8062938451766968,1.443698763847351,0.6866168975830078,1.4802162647247314
42.55,-0.8035262227058411,-1.1161396503448486,0.3124346137046814,1.2542407512664795,0.8155524730682373,1.486479640007019
42.6,0.4386252760887146,-2.023103952407837,1.0994389057159424,1.399186611175537,0.8961191773414612,1.0733031034469604
42.65,0.14499366283416748,-1.394639253616333,1.1863662004470825,1.6428394317626953,1.0230863094329834,0.6770576238632202
42.7,0.2598536014556885,-1.3900787830352783,1.0812902450561523,1.437870740890503,1.0223745107650757,0.3972150981426239
42.75,-0.015366017818450928,-0.3099948763847351,1.2903176546096802,0.7542652487754822,0.7735788822174072,0.06883174926042557
42.8,-0.21611465513706207,0.0009182452922686934,1.155094861984253,0.35334181785583496,0.651387095451355,0.30177053809165955
42.85,-0.6467777490615845,1.2267169952392578,1.2556103467941284,0.43796637654304504,0.7813451886177063,0.4080747365951538
42.9,-1.1755088567733765,3.712913990020752,-0.050297487527132034,0.7748036980628967,0.9841792583465576,0.6182913780212402
42.95,-1.0075901746749878,3.3601927757263184,-0.29847243428230286,0.3918662369251251,1.374861240386963,1.6878759860992432
43.0,0.15094155073165894,-0.2853988707065582,3.1064746379852295,0.017165541648864746,1.5725398063659668,2.2156970500946045
43.05,0.9251683950424194,-2.2781736850738525,3.9122936725616455,0.6209665536880493,1.5548412799835205,1.847531795501709
43.1,1.9567527770996094,-0.3426688015460968,2.592176675796509,0.8159109354019165,1.820421576499939,1.0475746393203735
43.15,-0.02400493621826172,-1.3058875799179077,2.4264605045318604,0.5513789057731628,0.8058980703353882,0.7426117658615112
43.2,2.0373446941375732,-1.6182411909103394,-2.264923572540283,0.8408728837966919,-0.694905698299408,1.0626721382141113
43.25,2.041721820831299,-2.883218288421631,-2.0408618450164795,0.4626694321632385,-0.5964037775993347,-0.00569195905700326
43.3,1.1467032432556152,-1.4907217025756836,-1.0827627182006836,0.5993356704711914,0.060380637645721436,-1.0134292840957642
43.35,-0.749386191368103,-0.25077906250953674,-1.3906805515289307,0.5604221820831299,-0.3519439399242401,-1.3276076316833496
43.4,-0.867661714553833,-0.6712732911109924,-0.4304381012916565,0.14639385044574738,-0.6554878354072571,-1.0305334329605103
43.45,-0.1855962574481964,-0.8881350755691528,-0.21605971455574036,0.04844912886619568,-0.5012786388397217,-0.9380696415901184
43.5,-0.5837632417678833,-0.8074285984039307,0.6354413628578186,0.23738953471183777,-0.14498421549797058,-1.0854425430297852
43.55,-0.890311062335968,0.37613970041275024,-0.17930014431476593,0.37791281938552856,-0.20469745993614197,-1.1804182529449463
43.6,-0.4417820870876312,1.3297091722488403,-0.3557994067668915,0.14143185317516327,-0.2027609795331955,-1.118467926979065
43.65,-1.054414987564087,1.4970349073410034,1.4239075183868408,0.029765218496322632,0.01905449852347374,-0.9579676985740662
43.7,-0.5809754729270935,0.9447020292282104,1.9097884893417358,0.24597984552383423,0.23276787996292114,-0.603290319442749
43.75,-1.326503872871399,1.41364586353302,-0.5266889333724976,0.39411628246307373,0.17877253890037537,0.024965547025203705
43.8,-1.0236607789993286,-2.0167081356048584,-4.591373443603516,0.057141900062561035,0.2167048454284668,1.0654023885726929
43.85,-0.5282115936279297,-3.09971284866333,-8.42359733581543,0.8758742213249207,2.086435079574585,0.7287110090255737
43.9,-5.584094524383545,-2.7397141456604004,-8.035951614379883,1.4211370944976807,5.1995134353637695,-0.40415847301483154
43.95,-12.850676536560059,-0.8980188965797424,-4.707611083984375,1.1919748783111572,7.853025913238525,-1.9124916791915894
44.0,-14.23739242553711,-0.24417726695537567,6.636916160583496,-1.9686660766601562,8.989882469177246,-1.583278775215149
44.05,-0.03626251220703125,-6.125871181488037,19.396154403686523,-4.090161323547363,8.580892562866211,3.2593278884887695
44.1,15.441539764404297,1.324027180671692,13.080222129821777,-3.1662497520446777,9.16541576385498,4.314530849456787
44.15,7.423981189727783,8.647051811218262,7.147345542907715,-2.151005744934082,5.427008628845215,4.48862361907959
44.2,6.6632609367370605,-1.9736641645431519,3.114013433456421,2.7525463104248047,7.052695274353027,5.931453227996826
44.25,5.103280544281006,2.528362512588501,0.7149930000305176,2.5884876251220703,6.05767822265625,4.842175483703613
44.3,2.4583890438079834,5.283930778503418,3.8955869674682617,2.4664700031280518,3.937976121902466,4.158820629119873
44.35,2.3817577362060547,1.7514283657073975,4.966191291809082,3.559380531311035,4.595715045928955,2.268256902694702
44.4,4.098782539367676,-1.4912201166152954,5.321751594543457,3.3661153316497803,5.9925856590271,0.2824031412601471
44.45,7.35578727722168,-1.1446294784545898,1.0092523097991943,2.9089832305908203,7.32808256149292,-1.4453134536743164
44.5,4.448831558227539,0.3070216774940491,-2.979682445526123,1.7198004722595215,6.318943023681641,-1.5926700830459595
44.55,1.3812077045440674,-0.3752940893173218,-5.170791149139404,-0.4367136061191559,3.3431363105773926,-0.727787971496582
44.6,2.8582582473754883,-2.5777366161346436,-3.777371406555176,-1.985344409942627,1.601822018623352,0.9010939598083496
44.65,0.5420547127723694,-3.033308267593384,-5.004962921142578,-1.2017872333526611,2.304323196411133,1.5833075046539307
44.7,-1.0122562646865845,-1.6498401165008545,-4.796875476837158,0.022497892379760742,1.46390700340271,2.560502052307129
44.75,-0.07614302635192871,3.6068990230560303,-2.120469808578491,1.7078087329864502,-0.1882975846529007,3.4989209175109863
44.8,-4.318312644958496,5.167370796203613,2.7180826663970947,1.7873574495315552,1.1745887994766235,2.6170060634613037
44.85,-5.591087341308594,-0.33900976181030273,2.0637993812561035,0.43958646059036255,2.6411099433898926,0.7446894645690918
44.9,-1.7013671398162842,-0.05781955271959305,0.9569863080978394,-0.02047613263130188,2.1765458583831787,-0.7635269165039062
44.95,-1.013145089149475,0.8214055895805359,-0.9796865582466125,0.07172048091888428,1.445759654045105,-0.824604332447052
45.0,-1.8843045234680176,-0.06726745516061783,-0.3465645909309387,0.1824147254228592,1.5984872579574585,-0.5718073844909668
45.05,-3.742053985595703,0.32937687635421753,1.4598489999771118,0.4957621097564697,1.0819549560546875,-0.80809485912323
45.1,-2.8685879707336426,-1.5604356527328491,0.4890860319137573,0.707813024520874,0.2252766489982605,-1.2537317276000977
45.15,2.0813021659851074,2.9724292755126953,2.9082770347595215,1.1911873817443848,-1.1829771995544434,-1.5986964702606201
45.2,3.8683829307556152,1.3220186233520508,2.5234293937683105,-0.13142386078834534,-0.9581000804901123,-0.9883028268814087
45.25,3.1453967094421387,-1.5172767639160156,-0.5901550054550171,-0.7308894395828247,0.8723688125610352,-0.17648999392986298
45.3,-2.0782384872436523,-0.1512298882007599,-0.511377215385437,0.10388895124197006,1.43485689163208,0.20574921369552612
45.35,-1.9802674055099487,1.3944320678710938,0.8147029280662537,0.16322985291481018,0.1059582531452179,0.04330414906144142
45.4,0.13748759031295776,0.35950276255607605,0.5581973195075989,-0.1787024736404419,-0.5329328179359436,-0.22585582733154297
45.45,0.4057154059410095,0.47732827067375183,0.8671548962593079,-0.05470012128353119,-0.5259822607040405,-0.2897689938545227
45.5,0.10948923975229263,-0.5334034562110901,0.1810942441225052,0.13917601108551025,-0.0340365394949913,-0.39078307151794434
45.55,-0.2619035840034485,-1.284964680671692,-0.5205775499343872,0.16168548166751862,0.45283448696136475,-0.47695764899253845
45.6,-0.8510330319404602,0.389159232378006,-0.006363075692206621,0.1575903743505478,0.4437558650970459,-0.41473615169525146
45.65,-0.7535979747772217,2.3804264068603516,1.440616250038147,-0.2157929688692093,-0.6411998271942139,-0.29124557971954346
45.7,1.208158254623413,1.2791823148727417,2.4132649898529053,-0.31042423844337463,-1.69464111328125,-0.2993316948413849
45.75,1.8411564826965332,-1.358790636062622,1.8804935216903687,-0.12132324278354645,-1.431092619895935,-0.1295398473739624
45.8,0.8399959206581116,-1.8987839221954346,0.4992082715034485,0.2449471652507782,-0.36854273080825806,-0.174092635512352
45.85,-0.7468207478523254,-0.1993580460548401,0.05729219689965248,0.09897609800100327,-0.1937197893857956,0.0727725476026535
45.9,0.7613379955291748,1.7242529392242432,-0.20372776687145233,-0.2980019748210907,-0.3497989773750305,0.06388497352600098
45.95,-2.1347265243530273,3.470726251602173,0.675310492515564,-0.2118777483701706,-0.1147696003317833,0.33737340569496155
46.0,-0.8097746968269348,-0.3295471668243408,1.4325408935546875,-0.12318149954080582,-0.8151649832725525,0.010836932808160782
46.05,-1.3281605243682861,-3.029324769973755,1.8845793008804321,-0.08088960498571396,-0.4841563403606415,-0.16355647146701813
46.1,-2.528639554977417,-0.9437239766120911,0.7748166918754578,-0.15845784544944763,0.26214316487312317,-0.5496354699134827
46.15,7.411316871643066,0.8051313161849976,0.4919728934764862,-0.853440523147583,-0.5332219004631042,-0.9810760617256165
46.2,4.217430114746094,-0.9431955814361572,2.515625476837158,-1.2015520334243774,-0.33533185720443726,0.518261730670929
46.25,3.6891863346099854,2.0938892364501953,2.322293996810913,-2.4855175018310547,0.40194782614707947,1.8721071481704712
46.3,3.7552270889282227,1.938620924949646,-0.16880202293395996,-3.6021180152893066,1.493210792541504,2.3058688640594482
46.35,-0.30439138412475586,4.0527143478393555,-2.7852401733398438,-2.080148220062256,2.022616147994995,1.3739720582962036
46.4,-2.1710312366485596,2.9939398765563965,-1.86481511592865,-0.9474833011627197,1.6247553825378418,-0.0497550442814827
46.45,-2.1799662113189697,0.8268269896507263,0.5955107808113098,-0.6768869757652283,1.9049198627471924,-0.09572191536426544
46.5,-2.581657648086548,-4.153631687164307,-1.0708829164505005,-0.6927732229232788,1.0318171977996826,-0.6453337073326111
46.55,-2.078706979751587,-6.987297058105469,-3.347917079925537,-0.1021738052368164,0.4263119399547577,-1.3418951034545898
46.6,-5.31838846206665,-3.834906816482544,0.8319512605667114,0.2056521475315094,0.7050455212593079,-1.7642556428909302
46.65,-4.657121181488037,-2.355731248855591,-1.2561320066452026,1.0759419202804565,-2.108975887298584,-0.29925477504730225
46.7,3.8172354698181152,-3.6510748863220215,-2.9821367263793945,0.8444890379905701,-4.061139106750488,0.7220563888549805
46.75,3.1286709308624268,0.8847736120223999,-1.0014568567276,1.3893795013427734,-3.126833200454712,-0.2126045525074005
46.8,1.8035833835601807,2.201456308364868,1.1499061584472656,1.5035934448242188,-2.510223865509033,-0.21996380388736725
46.85,5.781373977661133,1.6180263757705688,7.181048393249512,1.5087409019470215,-2.3512930870056152,-0.4037708640098572
46.9,2.7661616802215576,-0.08517584949731827,3.7123827934265137,1.3914902210235596,0.5126540660858154,-0.6761704087257385
46.95,-0.05326441675424576,0.19009976089000702,-0.1360747516155243,1.035210371017456,1.6195158958435059,-0.41554102301597595
47.0,3.1485698223114014,-1.8859302997589111,1.3201746940612793,-0.22722099721431732,0.9733070731163025,0.11303509771823883
47.05,4.583587646484375,-0.3480578660964966,2.2066471576690674,-1.2551485300064087,1.413172721862793,1.0384314060211182
47.1,6.093232154846191,4.180558681488037,0.3889411985874176,-2.5030550956726074,2.809718132019043,1.6128469705581665
47.15,1.0157561302185059,9.817424774169922,-1.9866125583648682,-3.22259521484375,3.643441677093506,2.365217447280884
47.2,-4.816186904907227,7.74432373046875,-1.77562415599823,-3.122868061065674,3.25864315032959,2.433673620223999
47.25,-2.296642541885376,3.614955425262451,-0.1647351086139679,-2.0273537635803223,1.4760706424713135,2.7341034412384033
47.3,0.11881795525550842,-1.7643442153930664,-1.7509592771530151,-1.6368968486785889,2.01456618309021,1.6517691612243652
47.35,-3.8248515129089355,-6.287209510803223,-1.8013412952423096,-1.901883602142334,3.3194706439971924,-0.3451246917247772
47.4,-5.675158500671387,-5.210901260375977,2.325563907623291,-2.471406936645508,3.0375914573669434,-1.224198341369629
47.45,-6.273342609405518,-4.4678473472595215,6.976147651672363,-0.9458230137825012,1.0495764017105103,-0.27749335765838623
47.5,-1.6105930805206299,-4.524207592010498,-1.859906792640686,1.5613834857940674,-1.4607564210891724,0.8297985792160034
47.55,-1.467236876487732,-4.344372272491455,-1.2605972290039062,1.9355988502502441,-1.8251299858093262,1.3259668350219727
47.6,-1.7203282117843628,-4.055750370025635,-1.0635937452316284,2.189950942993164,-2.4082179069519043,1.0449655055999756
47.65,0.2897738814353943,-3.087341547012329,-1.4759080410003662,3.1152408123016357,-3.0493996143341064,1.1564176082611084
47.7,2.558716297149658,0.10645896941423416,-1.6655452251434326,3.7632086277008057,-2.9072790145874023,0.4808911085128784
47.75,2.994706869125366,2.774195909500122,0.34082695841789246,3.110588312149048,-1.3630237579345703,-1.3812223672866821
47.8,5.427022933959961,4.747551918029785,5.056702136993408,1.9948406219482422,0.07336238026618958,-2.0817747116088867
47.85,5.045680522918701,7.706571102142334,7.363668441772461,0.8113084435462952,0.8720839023590088,-0.746910810470581
47.9,0.8343276977539062,4.685052871704102,4.058908462524414,-1.8593952655792236,2.0077085494995117,0.5359402894973755
47.95,-2.891847848892212,0.5034339427947998,1.6281161308288574,-3.2042479515075684,2.145664691925049,0.7879055142402649
48.0,-1.955092430114746,-2.8336753845214844,-3.288848638534546,-3.7767393589019775,0.5992985963821411,1.2331029176712036
48.05,-2.2223939895629883,-5.801886081695557,-3.5391485691070557,-3.9229536056518555,0.3263803720474243,0.9922932982444763
48.1,-1.298400640487671,-4.12358283996582,0.6531937718391418,-3.171084403991699,-0.4910787343978882,0.15279167890548706
48.15,0.39072880148887634,-0.11098404973745346,1.710489273071289,-1.3949730396270752,-1.8229329586029053,1.4688435792922974
48.2,2.0506787300109863,2.440436601638794,0.31319430470466614,1.4671151638031006,-1.9993336200714111,2.57436203956604
48.25,10.429525375366211,2.429340124130249,-0.2723390460014343,2.9415972232818604,-1.1045382022857666,1.7561906576156616
48.3,7.904004096984863,6.59561014175415,-0.9703496694564819,3.8234987258911133,1.5177425146102905,-0.38652318716049194
48.35,-3.9500646591186523,7.074595928192139,0.8694023489952087,2.3714752197265625,3.3136801719665527,0.01599513553082943
48.4,-8.070972442626953,6.093991279602051,4.117694854736328,0.31473031640052795,2.6189236640930176,0.0533868633210659
48.45,-9.1826171875,0.55043625831604,3.366173267364502,-1.8955144882202148,0.5505744814872742,-0.28150445222854614
48.5,-4.388882637023926,-1.9938247203826904,-1.0812246799468994,-3.0573556423187256,-1.340663194656372,-0.12568943202495575
48.55,-0.14495933055877686,-2.589657783508301,-1.111958384513855,-2.5401694774627686,-2.506037712097168,-0.17960430681705475
48.6,2.9097282886505127,-1.8930939435958862,-2.611968994140625,-2.253194808959961,-2.714730739593506,-0.13491860032081604
48.65,3.6062092781066895,-2.082368850708008,-0.4809296429157257,-2.307945966720581,-2.285244941711426,0.39710238575935364
