Time [s],Acc_x [m/s^2],Acc_y [m/s^2],Acc_z [m/s^2],Gyro_x [1/s],Gyro_y [1/s],Gyro_z [1/s]
0.0,0.011303544975817204,0.11508752405643463,0.0034722101408988237,0.0018331948667764664,-0.0012192579451948404,0.004116394557058811
0.05,-0.0019046225352212787,0.11029626429080963,0.01057429239153862,0.0040751863270998,2.599604158604052e-05,0.0035690930671989918
0.1,0.020836912095546722,0.14498616755008698,0.015607893466949463,0.0028186533600091934,0.0016816452844068408,0.0060959430411458015
0.15,0.023342452943325043,0.12747670710086823,-0.009044022299349308,-0.001129182055592537,0.00010025947995018214,0.006349365226924419
0.2,0.017518172040581703,0.1682615429162979,-0.033201444894075394,-0.0008363850065506995,0.00044648797484114766,0.005585389211773872
0.25,0.002824698109179735,0.1369009166955948,0.0024984898045659065,-0.00013482326176017523,0.0012720816303044558,0.0037536625750362873
0.3,-0.01039035152643919,0.10508442670106888,0.030060645192861557,-0.00017993664368987083,0.0014831641456112266,0.0043455022387206554
0.35,0.012837322428822517,0.10490800440311432,0.015264542773365974,-0.0004913287702947855,0.001213317969813943,0.005339966621249914
0.4,0.0012784823775291443,0.0964965969324112,0.01733575575053692,-0.0010218339739367366,-0.00038953530020080507,0.004938817583024502
0.45,-0.0074936579912900925,0.11475373059511185,0.0369853712618351,-0.0002970790956169367,0.0004291119985282421,0.006296501029282808
0.5,0.0029629673808813095,0.11988164484500885,0.02224455028772354,0.0016643848503008485,0.0012088323710486293,0.006172061897814274
0.55,0.0030749766156077385,0.09559919685125351,-0.03840130195021629,0.0008303985232487321,0.0008691293187439442,0.006225926801562309
0.6,0.0005331849679350853,0.1297760158777237,-0.037841834127902985,-0.0010365527123212814,-0.00032768290839158,0.005147948395460844
0.65,-0.0007130150333978236,0.10935308039188385,0.0016347866039723158,-7.775804260745645e-05,-0.0005465858266688883,0.0034859285224229097
0.7,0.0032230347860604525,0.10284902155399323,-0.0008660948369652033,0.0002385893603786826,0.001106342882849276,0.00610154215246439
0.75,0.018089430406689644,0.14086057245731354,0.013830357231199741,-0.002491364721208811,0.00062687968602404,0.006064029410481453
0.8,0.005315424408763647,0.1008777767419815,-0.0005406065029092133,-0.00019322638399899006,1.5525130947935395e-05,0.0050844731740653515
0.85,-0.008376658894121647,0.12404538691043854,0.007471215911209583,0.0016216256190091372,-0.0003249760193284601,0.0035479769576340914
0.9,-0.0008974076481536031,0.11750318109989166,0.004872498568147421,0.001970978919416666,4.553588223643601e-05,0.0059175919741392136
0.95,0.004777510184794664,0.1307974010705948,0.004773242864757776,0.0038048068527132273,0.0010921270586550236,0.003428506199270487
1.0,-0.010587397962808609,0.11676408350467682,0.015588843263685703,0.0025614951737225056,-0.00040402141166850924,0.002281440421938896
1.05,-0.008792193606495857,0.15878011286258698,-0.005044157151132822,0.006007070187479258,-0.0012565146898850799,0.0021481846924871206
1.1,-0.03799683228135109,0.15834619104862213,-0.02976628579199314,0.008381690829992294,-0.001097539090551436,0.0006966093787923455
1.15,-0.0332174152135849,0.139101043343544,-0.006197742186486721,0.0023518120869994164,0.0002679853932932019,0.0011508052702993155
1.2,0.0228774044662714,0.1659393459558487,0.006711097899824381,0.0022748687770217657,-0.001294473884627223,0.002053573029115796
1.25,0.023100385442376137,0.11918450891971588,0.008615786209702492,0.01178470253944397,-0.0015680530341342092,-0.005485628731548786
1.3,-0.01243816502392292,0.14553262293338776,0.02048438787460327,0.026503516361117363,-0.002098727272823453,-0.007500356994569302
1.35,-0.007638482842594385,0.13113118708133698,0.006090203765779734,0.022271249443292618,-0.0006546526565216482,-0.0017111428314819932
1.4,-0.044922105967998505,0.11233426630496979,-0.008824075572192669,0.007191500626504421,-9.434271487407386e-05,0.008959934115409851
1.45,-0.0318758487701416,0.08345986157655716,0.015640128403902054,-0.008235706947743893,-0.001359382993541658,0.01970536634325981
1.5,0.008404658176004887,0.0939178541302681,0.041525356471538544,-0.01114745531231165,-0.0021305789705365896,0.023737305775284767
1.55,0.014552528038620949,0.12321759760379791,0.022775784134864807,-1.0011717677116394e-05,-0.003144028363749385,0.02197425067424774
1.6,0.011767350137233734,0.13863089680671692,-0.06463304907083511,0.013478299602866173,-0.00264212884940207,0.02534567564725876
1.65,0.031697217375040054,0.21441558003425598,0.04513267055153847,0.0069534364156425,-0.007113825995475054,0.024028051644563675
1.7,0.06472377479076385,0.16822625696659088,0.05185921490192413,0.027162961661815643,-0.01479952409863472,-0.017800720408558846
1.75,0.24188721179962158,0.1269064098596573,0.06098520755767822,0.04845345392823219,-0.02720407210290432,-0.0788642019033432
1.8,0.23089970648288727,0.2893543541431427,0.18894068896770477,0.04396406561136246,-0.04701371490955353,-0.16667331755161285
1.85,0.2275477796792984,0.5104895234107971,0.15392625331878662,0.06113629415631294,-0.022491056472063065,-0.24476714432239532
1.9,0.18951290845870972,0.6003227829933167,0.300838440656662,0.16422072052955627,-0.034840039908885956,-0.4247578978538513
1.95,-2.583439826965332,1.2483547925949097,1.516741394996643,0.4211958050727844,-0.1674899011850357,-0.7666841149330139
2.0,-9.262940406799316,2.4694876670837402,3.2595746517181396,0.691853940486908,-0.05640600249171257,-0.7769960761070251
2.05,-10.457536697387695,0.9809629321098328,4.0144453048706055,0.1828741729259491,0.02602379210293293,0.006265040021389723
2.1,-5.903591156005859,1.1110254526138306,2.4024250507354736,-1.018259048461914,-0.4634740650653839,-0.5472697615623474
2.15,-0.7619767189025879,2.049111843109131,-1.3828709125518799,-1.1819798946380615,0.10532236844301224,-1.919273018836975
2.2,3.123385429382324,0.8815227150917053,-2.3798270225524902,-0.28116339445114136,1.4310541152954102,-3.1045374870300293
2.25,6.339136600494385,-2.2121951580047607,-1.7300611734390259,0.6850720643997192,2.1493945121765137,-3.5167129039764404
2.3,8.987866401672363,-5.92075252532959,-1.6737005710601807,0.5894632935523987,1.7597639560699463,-2.4082772731781006
2.35,2.214184522628784,1.6040657758712769,4.083576202392578,0.035813286900520325,1.5392558574676514,0.022199876606464386
2.4,-7.815451622009277,13.369223594665527,13.489809036254883,0.7748319506645203,1.7867683172225952,2.2470977306365967
2.45,0.2774536609649658,0.37398746609687805,-1.860975742340088,1.823595643043518,0.07154995948076248,3.4123334884643555
2.5,0.5586193799972534,1.712786078453064,-1.2139344215393066,0.9681479334831238,-1.0538357496261597,3.1757657527923584
2.55,0.31265783309936523,1.1178354024887085,-2.0242443084716797,0.22238385677337646,-0.2712594270706177,1.9637000560760498
2.6,0.5043826699256897,0.4934387505054474,0.37106963992118835,-0.05979188531637192,-0.09082216769456863,0.5001238584518433
2.65,-0.4251461923122406,-0.20528124272823334,-0.46871134638786316,0.2710200548171997,-0.09284888952970505,-0.17068882286548615
2.7,-0.11457769572734833,-0.1350088119506836,-0.19098539650440216,0.019523493945598602,-0.16495180130004883,-0.4222337305545807
2.75,-1.3709319829940796,0.541722297668457,0.25491297245025635,-0.12826839089393616,-0.23058687150478363,-0.9284507036209106
2.8,-0.8808917999267578,-0.08997435867786407,-0.7120510935783386,0.2148478776216507,-0.13696101307868958,-0.4712317883968353
2.85,-0.45120328664779663,-0.020154928788542747,-0.3753889203071594,0.05656274035573006,0.04491744190454483,0.05246727541089058
2.9,-0.5465469360351562,0.012965203262865543,-0.16915251314640045,-0.21991287171840668,0.09755967557430267,0.24836842715740204
2.95,-0.2498871088027954,0.2011861801147461,0.15110494196414948,-0.3642246425151825,0.12865297496318817,0.4697481691837311
3.0,-0.15458384156227112,0.1695089489221573,0.002497310284525156,-0.1955639123916626,0.14203113317489624,0.4963234066963196
3.05,-0.09160123020410538,0.0076723345555365086,-0.23346546292304993,-0.000677153468132019,0.13794593513011932,0.39879506826400757
3.1,-0.05040094628930092,-0.012225134298205376,-0.1781194806098938,0.046371035277843475,0.1452426165342331,0.2554652690887451
3.15,-0.5717858076095581,0.2796163558959961,0.00032830695272423327,0.05979800596833229,0.24878869950771332,0.18098291754722595
3.2,-1.7670942544937134,0.049018848687410355,-0.40681934356689453,0.1962418258190155,0.529235303401947,0.09284204989671707
3.25,-4.0325164794921875,0.29676127433776855,0.973264753818512,0.5340327620506287,2.3494081497192383,-0.008245790377259254
3.3,-5.495512008666992,1.7599974870681763,6.919638156890869,1.0265315771102905,6.041484832763672,0.6588683128356934
3.35,-4.746037483215332,-3.197890520095825,13.489204406738281,1.4918898344039917,8.379652976989746,2.089751720428467
3.4,-0.20742583274841309,-6.311193466186523,12.96643352508545,0.3855617642402649,8.877696990966797,2.533679246902466
3.45,-12.695110321044922,-0.4435573220252991,-0.0808601900935173,-2.0894339084625244,5.123991012573242,1.8538395166397095
3.5,-16.81423568725586,-4.962865829467773,-15.71886157989502,-1.7082688808441162,3.8933897018432617,0.41540247201919556
3.55,-7.639917850494385,0.15117333829402924,-0.1595313400030136,-1.7285194396972656,2.3741633892059326,-0.735924482345581
3.6,-2.0114901065826416,4.318432331085205,-0.12446657568216324,-3.107093334197998,2.9644761085510254,-0.28755122423171997
3.65,7.7069501876831055,5.753236770629883,-0.45995235443115234,-2.7830681800842285,4.098206520080566,0.9679770469665527
3.7,12.467504501342773,-0.7589340209960938,-5.271866798400879,-2.043558120727539,3.359076976776123,0.39892441034317017
3.75,9.63022232055664,-9.505353927612305,-4.853337287902832,-1.5171284675598145,1.7174171209335327,-0.526787281036377
3.8,6.311162948608398,-9.189921379089355,-3.9322354793548584,0.19062252342700958,1.2851234674453735,0.0374220609664917
3.85,4.464727401733398,-6.2816972732543945,-3.668247938156128,1.491086483001709,1.3153676986694336,-0.17752127349376678
3.9,8.130796432495117,10.387862205505371,-7.245066165924072,2.315812587738037,1.046837329864502,-0.22098378837108612
3.95,8.994443893432617,25.67851448059082,-8.199347496032715,1.7859925031661987,0.9074488282203674,-0.9733651876449585
4.0,-3.0793161392211914,2.4685885906219482,2.0499095916748047,0.5277737975120544,0.004038727842271328,-2.1749985218048096
4.05,-0.7602648735046387,0.6645901799201965,-2.239097833633423,0.7521045207977295,-0.03868313506245613,0.12333005666732788
4.1,1.257115364074707,0.42761319875717163,1.414720892906189,0.21823768317699432,0.9142507314682007,-0.12198720127344131
4.15,-0.7887526750564575,1.417954444885254,1.1563255786895752,0.10589644312858582,0.6189547777175903,-0.7455410957336426
4.2,-2.63364839553833,2.2702219486236572,0.009077828377485275,-0.029767539352178574,0.275483638048172,0.203476682305336
4.25,-4.674808025360107,2.6055305004119873,1.6777269840240479,-0.07245606184005737,-0.4559120833873749,3.296365976333618
4.3,-10.979711532592773,0.7862147092819214,6.509343147277832,-0.24070072174072266,-1.6182798147201538,5.322750091552734
4.35,-4.308073043823242,-3.4614789485931396,9.066466331481934,-0.1225738376379013,-2.566577672958374,0.0173944141715765
4.4,7.935267448425293,-14.823229789733887,24.818355560302734,1.120464563369751,-3.1851706504821777,-4.921799182891846
4.45,-16.600261688232422,-6.247393608093262,25.242258071899414,1.5417135953903198,-0.4501969814300537,-1.9484357833862305
4.5,-1.8804278373718262,3.335021734237671,-2.3376946449279785,0.8363252878189087,0.722021758556366,-0.20041176676750183
4.55,-5.231514930725098,3.713383913040161,-0.26196494698524475,-0.3497883081436157,1.032817006111145,2.256474018096924
4.6,-8.222692489624023,4.554047107696533,5.155601978302002,-0.25468671321868896,-0.20824728906154633,6.231273651123047
4.65,-13.226123809814453,10.26340389251709,2.556518793106079,2.130788803100586,-1.0805327892303467,7.134398937225342
4.7,-12.889780044555664,3.9875528812408447,-1.4286348819732666,4.016755104064941,0.9783862829208374,2.251213550567627
4.75,0.36816954612731934,-12.153252601623535,12.247623443603516,1.324599027633667,1.727599859237671,-0.6845396757125854
4.8,-1.0698802471160889,-12.705196380615234,8.1032133102417,-2.7272167205810547,1.3315075635910034,-1.2059175968170166
4.85,-1.18375825881958,-5.06588077545166,5.336226940155029,-3.381680488586426,0.8073008060455322,-3.679252862930298
4.9,1.6192415952682495,2.8413288593292236,1.3207985162734985,-4.6293535232543945,0.07693859189748764,-4.188578128814697
4.95,5.2386627197265625,6.436631202697754,-4.988584995269775,-4.875978946685791,1.1185935735702515,-3.8325350284576416
5.0,9.227996826171875,1.081645131111145,-13.310859680175781,-3.7465245723724365,1.708735466003418,-3.7505686283111572
5.05,12.021688461303711,-5.323797225952148,-17.583724975585938,-1.9586098194122314,1.2915152311325073,-2.4423751831054688
5.1,13.737357139587402,-4.813820838928223,-13.815923690795898,-0.13451708853244781,0.4178357422351837,-0.6078953742980957
5.15,7.303140640258789,-0.6302362680435181,-9.56666374206543,1.700558066368103,-0.15576642751693726,0.4677744209766388
5.2,-5.731295108795166,-7.5583109855651855,8.329795837402344,2.5845749378204346,-1.0031663179397583,0.6962742805480957
5.25,-12.977381706237793,-17.310861587524414,26.45258140563965,1.8877818584442139,-2.4842305183410645,0.529955267906189
5.3,5.666651725769043,-0.02283501625061035,-4.268858909606934,2.0585811138153076,-0.03590591251850128,0.27057257294654846
5.35,0.9560627937316895,0.8737710118293762,-1.2926549911499023,1.3783127069473267,-0.062198299914598465,0.04529135674238205
5.4,-1.3113515377044678,2.424710512161255,0.5042657256126404,0.4533591568470001,-0.062420278787612915,0.26754316687583923
5.45,-3.0046937465667725,3.8215599060058594,2.9411206245422363,-0.11343663930892944,-0.23502829670906067,2.2523691654205322
5.5,-7.5020599365234375,1.9708176851272583,6.324138641357422,-0.2093336582183838,-0.5263632535934448,4.652090072631836
5.55,-9.789780616760254,-4.712790489196777,10.923434257507324,-0.6450705528259277,0.6200610995292664,0.8589869737625122
5.6,-6.208828926086426,-10.522071838378906,3.6302096843719482,-0.2795010805130005,1.5808018445968628,-3.230827569961548
5.65,-15.70931625366211,-0.7818308472633362,-5.51015567779541,1.1682623624801636,0.5397189855575562,-2.997711658477783
5.7,-9.252886772155762,5.172158718109131,-2.9472832679748535,0.4224192798137665,0.5674159526824951,-1.4425585269927979
5.75,-13.72748851776123,1.9268416166305542,6.417642116546631,1.443753957748413,0.8053580522537231,3.077169418334961
5.8,-19.68031120300293,3.0847105979919434,9.165401458740234,4.51270866394043,-0.012972168624401093,6.768420219421387
5.85,-16.15314483642578,7.44762659072876,22.373672485351562,4.76112699508667,0.15503066778182983,1.976973056793213
5.9,7.98909330368042,-6.579164981842041,24.513147354125977,-0.15511810779571533,1.475721836090088,-5.100976467132568
5.95,15.954380989074707,6.676009178161621,12.101510047912598,-3.4209392070770264,3.4080891609191895,-2.057454824447632
6.0,17.613801956176758,9.762360572814941,-4.905942440032959,-4.226100921630859,3.7797043323516846,-0.7318291664123535
6.05,8.461935043334961,0.30411261320114136,-14.938087463378906,-4.1230058670043945,3.7995734214782715,-0.3156139850616455
6.1,3.1385226249694824,-7.663814544677734,-12.520514488220215,-3.26664662361145,3.354188919067383,-0.057909075170755386
6.15,1.0843052864074707,-8.679561614990234,-10.314617156982422,-1.8332663774490356,3.1499953269958496,-0.3605130612850189
6.2,1.18133544921875,-7.833922386169434,-14.9452543258667,0.12622447311878204,3.048002243041992,-0.4517480432987213
6.25,-0.747046947479248,-6.227149486541748,-20.05135726928711,1.7005212306976318,3.327913522720337,-0.6363289952278137
6.3,-5.7380499839782715,-1.8605895042419434,-16.077068328857422,2.985105037689209,3.990452527999878,-0.6910280585289001
6.35,-14.423652648925781,27.659643173217773,6.405393600463867,4.085744857788086,3.0830044746398926,-0.3477725684642792
6.4,-9.443132400512695,44.62203598022461,21.071388244628906,0.5244205594062805,1.5783586502075195,-0.22187539935112
6.45,3.5109481811523438,4.121116638183594,3.852924346923828,-4.458258152008057,0.7454248070716858,0.8425835371017456
6.5,2.6159958839416504,4.4970502853393555,5.37394905090332,-1.9572452306747437,0.03813154995441437,0.2659040093421936
6.55,0.7806171178817749,1.9365001916885376,5.652101039886475,2.1865553855895996,0.35174036026000977,-0.02980525977909565
6.6,2.883340358734131,-1.9882986545562744,1.2046656608581543,4.9079437255859375,0.23363864421844482,-0.2123177945613861
6.65,1.4005179405212402,-0.17697295546531677,-2.921050548553467,3.253054618835449,0.8177701830863953,-0.9746946096420288
6.7,-4.459953308105469,-0.9534338116645813,-3.931087017059326,-2.5410094261169434,2.075779914855957,-1.7167807817459106
6.75,-5.970052719116211,-4.492376804351807,-9.748405456542969,-3.268357992172241,2.9240450859069824,-0.47979944944381714
6.8,-1.9663856029510498,8.428644180297852,-3.340707778930664,-1.3989832401275635,4.145195007324219,1.9266458749771118
6.85,4.433348178863525,2.9979965686798096,2.074859142303467,-1.340694785118103,0.9490858912467957,2.390810251235962
6.9,2.6272387504577637,3.4057726860046387,1.505505084991455,-0.24670225381851196,-0.04852403327822685,-0.9456854462623596
6.95,0.029889225959777832,8.263358116149902,-4.1020050048828125,2.0363316535949707,-0.47574442625045776,-3.400702476501465
7.0,-0.3195455074310303,9.071467399597168,-9.86467456817627,2.454756259918213,-0.020348528400063515,-3.4730186462402344
7.05,-2.9374799728393555,-2.5443763732910156,-6.928569793701172,0.8959096670150757,2.8577654361724854,0.9421904683113098
7.1,-20.810592651367188,3.9315669536590576,-0.3378634452819824,0.11767375469207764,5.0682597160339355,1.8990975618362427
7.15,-11.91731071472168,5.453639984130859,1.8970422744750977,-1.0174458026885986,4.049591064453125,1.8026785850524902
7.2,1.2747604846954346,3.087892532348633,-3.219707489013672,-0.01191723346710205,0.8220193386077881,3.054452896118164
7.25,3.9074645042419434,3.1983485221862793,2.1557674407958984,-0.6224738359451294,-0.42298099398612976,1.6336467266082764
7.3,-2.6604201793670654,2.4476089477539062,0.3648582696914673,0.16026020050048828,0.0137541638687253,-1.2448925971984863
7.35,-4.820380210876465,2.7459685802459717,1.7902013063430786,0.5035637617111206,-0.08705136924982071,-2.1264851093292236
7.4,0.32623085379600525,-2.1174614429473877,-0.40030282735824585,0.6083078980445862,0.5179709792137146,-0.7630634903907776
7.45,0.4761970639228821,-1.9309204816818237,-2.549665689468384,0.08931591361761093,1.0925980806350708,0.21166585385799408
7.5,0.3535211980342865,1.3394103050231934,-2.53828501701355,-0.3540711998939514,0.263045996427536,0.7959854006767273
7.55,3.0706255435943604,2.0671989917755127,1.379336953163147,-0.314608097076416,0.02937735617160797,0.5728441476821899
7.6,2.490790605545044,0.23561659455299377,1.8185245990753174,0.4810293912887573,0.1416698545217514,-0.648829996585846
7.65,-0.4736667573451996,-1.492412805557251,0.6121072769165039,0.8376882076263428,-0.013710043393075466,-1.596397042274475
7.7,-2.1775758266448975,-1.5775939226150513,-1.5884134769439697,0.8498839139938354,0.5388608574867249,-0.7711515426635742
7.75,0.03412973880767822,-1.1010663509368896,-2.8196961879730225,0.13853558897972107,0.22800716757774353,0.9841643571853638
7.8,2.7335824966430664,1.032802939414978,-1.0052669048309326,-0.451543390750885,-0.5614597797393799,1.6448560953140259
7.85,3.345208168029785,1.0886855125427246,-1.8817585706710815,-0.30072569847106934,-0.08240870386362076,0.9155230522155762
7.9,0.22904348373413086,0.29802605509757996,0.6181352734565735,-0.24710625410079956,0.05473967641592026,-0.14724241197109222
7.95,0.25989580154418945,-0.18116846680641174,-0.7566525936126709,0.1513586789369583,0.09433983266353607,0.16916503012180328
8.0,1.0622334480285645,0.23866574466228485,-0.7614122629165649,-0.025856420397758484,0.21671739220619202,0.7211025953292847
8.05,0.9407126307487488,0.12136660516262054,-0.4497601091861725,0.0049307942390441895,0.18495890498161316,0.5817527770996094
8.1,0.6744002103805542,0.1311694085597992,-0.4334665834903717,0.16258451342582703,0.08468984067440033,0.25458458065986633
8.15,0.3030674457550049,0.19193947315216064,-0.6738739609718323,0.23339523375034332,0.03034380078315735,-0.0258304663002491
8.2,0.22870875895023346,0.1846228837966919,-0.879745364189148,0.16164737939834595,0.008372819051146507,-0.1179288700222969
8.25,0.8683255314826965,0.0959092378616333,-0.6139005422592163,-0.0005674660205841064,0.04310867190361023,0.07397360354661942
8.3,0.3600909411907196,0.2752734422683716,-0.6774111986160278,-0.009451277554035187,-0.10259681195020676,-0.22725310921669006
8.35,0.1800844818353653,0.1825324147939682,-0.7409152984619141,-0.019428491592407227,-0.17569869756698608,-0.47104907035827637
8.4,1.0742051601409912,-0.46948134899139404,-1.0626014471054077,-0.14999428391456604,-0.00829706247895956,-0.029598062857985497
8.45,0.6517186164855957,0.026422590017318726,-0.5174471735954285,-0.4474447965621948,0.05615972727537155,0.23579220473766327
8.5,0.5316711664199829,0.5107279419898987,0.06946338713169098,-0.39100366830825806,0.12897071242332458,0.4974115192890167
8.55,0.6277732253074646,0.2976418435573578,-0.37172701954841614,0.051546066999435425,0.07661349326372147,0.35953083634376526
8.6,0.29840007424354553,0.19653424620628357,-0.35443052649497986,0.2641177475452423,-0.031597573310136795,-0.15777377784252167
8.65,-0.11950597167015076,0.21935853362083435,-0.49917131662368774,0.31666871905326843,-0.041296884417533875,-0.42362433671951294
8.7,0.39617714285850525,0.021599888801574707,-0.8759609460830688,0.30806824564933777,0.06481543928384781,-0.02776605635881424
8.75,0.7700140476226807,0.09222518652677536,-0.6548376083374023,0.14163923263549805,0.08861151337623596,0.19153957068920135
8.8,0.6219444870948792,0.022562142461538315,-0.7736928462982178,0.018763788044452667,0.04177603870630264,0.026447096839547157
8.85,0.6062952280044556,-0.013919717632234097,-0.7785366773605347,-0.0979674756526947,0.028011418879032135,0.005543538834899664
8.9,0.44178181886672974,0.045853741466999054,-0.9147484302520752,-0.13682681322097778,0.04718894511461258,0.11238173395395279
8.95,0.6190817356109619,0.1353808492422104,-0.5162202715873718,-0.22213473916053772,0.05070405453443527,0.17482222616672516
9.0,0.7843164801597595,0.2895546555519104,-0.06898859888315201,-0.20038147270679474,0.026980439200997353,0.07741106301546097
9.05,0.7536451816558838,0.21062955260276794,-0.3203730881214142,0.03618742153048515,0.008559025824069977,-0.13930277526378632
9.1,0.49028652906417847,0.035351842641830444,-0.5635253190994263,0.23504596948623657,0.04486452043056488,-0.28146469593048096
9.15,0.3332745432853699,-0.0362338125705719,-0.6928677558898926,0.28728294372558594,0.04751892015337944,-0.20483914017677307
9.2,0.5550787448883057,0.09986412525177002,-0.7134532928466797,0.17948424816131592,-0.018318992108106613,-0.05594202131032944
9.25,0.7048580050468445,0.08043397963047028,-0.8456116914749146,0.04993419721722603,-0.009895781986415386,-0.043598949909210205
9.3,0.5256463289260864,-0.03555859625339508,-0.7451207637786865,-0.0832253023982048,0.009738350287079811,-0.0033977131824940443
9.35,0.5269820690155029,-0.01317109540104866,-0.7028611302375793,-0.19150595366954803,0.027489526197314262,0.11392286419868469
9.4,0.7332882881164551,0.12593375146389008,-0.4677056074142456,-0.2922253906726837,0.002740474883466959,0.14165666699409485
9.45,0.6119065284729004,0.24614723026752472,-0.13914011418819427,-0.2657269239425659,-0.027973664924502373,-0.002644274150952697
9.5,0.5178420543670654,0.33178433775901794,-0.44741714000701904,-0.09268328547477722,-0.025602811947464943,-0.1712522804737091
9.55,0.4160960912704468,0.08381184190511703,-0.479274719953537,-0.016440697014331818,-0.009368292056024075,-0.27440792322158813
9.6,-0.00891759991645813,-0.24678894877433777,-0.5687269568443298,0.05348885804414749,-0.0029114827048033476,-0.20218637585639954
9.65,0.1464945673942566,-0.05399409309029579,-0.7431368827819824,0.09135087579488754,-0.030488794669508934,0.10814283043146133
9.7,0.5760749578475952,0.3159571886062622,-0.45380762219429016,-0.0008015409111976624,-0.08651160448789597,0.28553736209869385
9.75,0.6947110891342163,0.32020390033721924,-0.49961772561073303,-0.08952346444129944,-0.10208482295274734,0.19166113436222076
9.8,0.32451748847961426,0.11825566738843918,-0.23089571297168732,-0.0996083915233612,-0.09145531803369522,0.03670709952712059
9.85,-0.002529975026845932,-0.07648088783025742,0.10363984853029251,-0.059182386845350266,-0.07986818253993988,0.15974879264831543
9.9,0.432632178068161,0.07793818414211273,-0.7018136382102966,-0.04762367904186249,-0.08083754777908325,0.4282994866371155
9.95,0.8147493600845337,0.3492652475833893,-0.8378618955612183,-0.2814834713935852,-0.07056085020303726,0.41600310802459717
10.0,0.7330740690231323,0.4335300326347351,-0.8000916242599487,-0.41876909136772156,0.008813241496682167,0.16940078139305115
10.05,1.3959506750106812,0.6217329502105713,-1.216074824333191,-0.37394267320632935,0.07511650025844574,-0.2851821780204773
10.1,1.4353432655334473,0.1674787700176239,-1.1276919841766357,-0.06571027636528015,-0.11546669155359268,-1.1034231185913086
10.15,2.9293105602264404,-1.8987950086593628,-1.803971529006958,0.518424391746521,-0.7400533556938171,-1.8923789262771606
10.2,2.900160312652588,-2.5769896507263184,-2.064030647277832,0.6930169463157654,-1.3252296447753906,-2.4723262786865234
10.25,1.0358027219772339,-1.1873950958251953,-0.34244638681411743,0.9148565530776978,-1.4358298778533936,-1.4179878234863281
10.3,1.6343059539794922,-3.962097644805908,-0.38177990913391113,0.7282233238220215,-2.071742296218872,1.0065330266952515
10.35,0.4595751464366913,-3.315560817718506,0.08883820474147797,-0.08868885040283203,-2.635118007659912,1.1409088373184204
10.4,-1.6245595216751099,-1.2246850728988647,1.0172924995422363,-0.413843035697937,-1.5804908275604248,0.1981355994939804
10.45,-1.3449124097824097,0.7071219682693481,-1.0856229066848755,-0.31158870458602905,-0.7193633913993835,0.05470990389585495
10.5,0.7785841822624207,2.3333287239074707,-1.7398245334625244,-0.18230372667312622,-0.0444774255156517,0.3585108816623688
10.55,0.6250748634338379,1.3947468996047974,0.13612450659275055,-0.5166176557540894,0.2943061590194702,0.034199751913547516
10.6,0.5662834048271179,1.0849639177322388,0.4476504921913147,-0.41767585277557373,0.4384205639362335,-0.45169806480407715
10.65,-1.1134682893753052,0.5138386487960815,1.2925691604614258,-0.5225887298583984,0.9497531652450562,-0.42444533109664917
10.7,-2.4670257568359375,-0.3376763164997101,1.2124654054641724,-0.4945100247859955,1.295648217201233,-0.0546102412045002
10.75,-1.5071709156036377,-0.3398696482181549,0.5127637982368469,-0.1979791224002838,1.1817419528961182,-0.22419095039367676
10.8,-0.1578029990196228,-0.1247626543045044,0.8491308093070984,-0.29313796758651733,1.194254994392395,-0.3895600736141205
10.85,1.4189300537109375,-1.354432225227356,0.2996351420879364,-0.31936055421829224,1.091582179069519,-0.0939478725194931
10.9,1.9948227405548096,-2.0687990188598633,-1.2069153785705566,-0.3234891891479492,1.0626076459884644,0.14690810441970825
10.95,1.4295389652252197,-0.9317187070846558,-1.6293714046478271,-0.026566969230771065,1.425454020500183,0.17868734896183014
11.0,2.0696563720703125,2.694711923599243,1.23749840259552,0.28263598680496216,1.3925470113754272,0.33196645975112915
11.05,1.7866846323013306,3.3138632774353027,0.7985439896583557,0.5686256885528564,0.3136753439903259,1.1009780168533325
11.1,1.0954678058624268,1.281898856163025,-1.2587981224060059,0.4853205382823944,-0.030312933027744293,1.7151243686676025
11.15,1.2577285766601562,1.0363705158233643,-0.2896646559238434,-0.006622225046157837,-0.03170258179306984,1.284751296043396
11.2,0.21135824918746948,0.35972222685813904,-0.41561612486839294,0.058973364531993866,-0.09119337797164917,0.37897321581840515
11.25,0.2661045491695404,0.21605786681175232,-0.46055150032043457,0.1301310956478119,0.07949244230985641,0.2660565972328186
11.3,0.3652818202972412,0.08935746550559998,-0.5883228182792664,0.16367784142494202,0.15872904658317566,0.23765651881694794
11.35,0.2171073704957962,0.1218157708644867,-0.5694199204444885,0.1843145787715912,0.13137781620025635,0.03154287487268448
11.4,0.3337603211402893,0.24122533202171326,-0.3701622188091278,0.2097281515598297,0.09382627159357071,-0.10688081383705139
11.45,0.1918049156665802,0.15470224618911743,-0.3531985878944397,0.2620437443256378,0.05027662217617035,-0.22429999709129333
11.5,0.14516572654247284,0.05144984647631645,-0.48693642020225525,0.27417153120040894,0.054145220667123795,-0.2469635009765625
11.55,0.1376548856496811,0.08121402561664581,-0.5457346439361572,0.19508668780326843,0.06058891490101814,-0.15761125087738037
11.6,0.09820877015590668,0.10951622575521469,-0.5152731537818909,0.05322178825736046,0.0548478327691555,-0.021667513996362686
11.65,0.21254992485046387,0.10976702719926834,-0.3936980962753296,-0.053149811923503876,0.054245930165052414,0.06345212459564209
11.7,0.23602008819580078,0.10530000925064087,-0.2942333221435547,-0.09454309940338135,0.049015600234270096,0.058443233370780945
11.75,0.21355852484703064,0.12661463022232056,-0.3519818186759949,-0.07311292737722397,0.0374947153031826,0.03516977280378342
11.8,0.21158736944198608,0.1543942093849182,-0.30022338032722473,-0.028770267963409424,0.009633079171180725,0.030985893681645393
11.85,0.17195716500282288,0.17905430495738983,-0.18879039585590363,-0.006414605770260096,-0.015494806692004204,0.01337673980742693
11.9,0.20219513773918152,0.18586258590221405,-0.20075905323028564,0.03738395497202873,-0.030670149251818657,-0.022735176607966423
11.95,0.11131547391414642,0.1115294098854065,-0.3440665304660797,0.07827511429786682,-0.04513859003782272,-0.05695132166147232
12.0,0.08924639225006104,0.07894808799028397,-0.44995152950286865,0.020701682195067406,-0.06004764139652252,0.01195576786994934
12.05,0.21359629929065704,0.16276460886001587,-0.3365411162376404,-0.08746197074651718,-0.07615628838539124,0.11703603714704514
12.1,0.1811046600341797,0.19958409667015076,-0.39826786518096924,-0.15010425448417664,-0.08150076866149902,0.1164306253194809
12.15,0.22025066614151,0.2621794641017914,-0.4815601110458374,-0.22986486554145813,-0.06677402555942535,0.04907866567373276
12.2,0.34044089913368225,0.4740029573440552,-0.28907179832458496,-0.3708251416683197,0.0014589708298444748,-0.10509893298149109
12.25,0.3892732858657837,0.702363133430481,-0.46899059414863586,-0.5913887023925781,0.08988350629806519,-0.35539907217025757
12.3,-0.23164331912994385,-0.05866323038935661,-1.3137456178665161,-0.7088980078697205,-0.04465407133102417,-0.6432093977928162
12.35,0.4441010653972626,-2.657167434692383,-1.8792606592178345,-0.47926855087280273,-0.6631683111190796,-0.5515419840812683
12.4,-4.757259845733643,-3.7203288078308105,2.8974545001983643,0.47334110736846924,-2.1085968017578125,-0.37050825357437134
12.45,-16.558752059936523,-1.4190306663513184,5.404203414916992,1.1994237899780273,-3.165287971496582,-0.14174574613571167
12.5,-13.100852012634277,1.6529607772827148,-2.3575503826141357,0.49087363481521606,-3.496723175048828,-0.684013307094574
12.55,1.7811403274536133,2.0387537479400635,-7.8490095138549805,0.39021700620651245,-3.400751829147339,-2.435342788696289
12.6,14.138955116271973,-3.9672415256500244,-4.589661121368408,0.6316109895706177,-2.0049870014190674,-2.6245193481445312
12.65,22.463350296020508,0.23757511377334595,3.088189125061035,0.33510127663612366,-1.144193172454834,-0.9518784284591675
12.7,14.6462984085083,10.053762435913086,2.795435667037964,-0.4453468918800354,-0.3561778962612152,1.8553621768951416
12.75,1.432847499847412,2.882533550262451,-1.2556504011154175,-1.312756896018982,0.30595850944519043,2.8091931343078613
12.8,0.8269060850143433,0.6782007813453674,0.49731728434562683,-0.9967764616012573,-0.060768961906433105,1.3869309425354004
12.85,-0.49500608444213867,-0.12849904596805573,-0.15863502025604248,-0.22189964354038239,-0.06012328714132309,0.7420706748962402
12.9,0.4670852720737457,-0.0015124472556635737,-0.5354076623916626,-0.07171829044818878,0.015358900651335716,0.9974533915519714
12.95,1.1400325298309326,0.6848183870315552,0.04983225092291832,-0.31756725907325745,0.08549758791923523,0.6240180134773254
13.0,0.19302594661712646,0.3452129364013672,0.44268468022346497,-0.1493004411458969,0.13381440937519073,-0.006563166622072458
13.05,-0.14245115220546722,0.31017401814460754,-0.09244633466005325,0.19077777862548828,0.13941769301891327,-0.08868066221475601
13.1,-0.11045928299427032,0.0833636000752449,-0.5455132722854614,0.13525855541229248,0.20646445453166962,-0.04355969280004501
13.15,-0.09223426878452301,-0.043695393949747086,-0.5387027859687805,-0.18352524936199188,0.11612614244222641,0.04548265039920807
13.2,0.29960569739341736,0.3244943916797638,0.03373584896326065,-0.42391443252563477,-0.0277327261865139,0.05831364914774895
13.25,1.555410385131836,0.9384310245513916,-0.40870171785354614,-0.3381490707397461,0.037246186286211014,-0.2535160779953003
13.3,-1.8896691799163818,3.2855563163757324,-0.8320889472961426,0.274445116519928,-0.08317963778972626,-1.409989595413208
13.35,-4.893941879272461,3.19463849067688,-0.0992341861128807,1.1695208549499512,-0.5121708512306213,-1.6438058614730835
13.4,-3.152493476867676,-0.31642645597457886,0.2983691990375519,1.1736348867416382,-0.6018233299255371,0.08911533653736115
13.45,-6.876367092132568,-1.9390628337860107,2.2701804637908936,0.7346833944320679,-0.4463156759738922,1.5626152753829956
13.5,-11.778389930725098,-3.454129934310913,2.8501689434051514,0.5729162096977234,-1.0899769067764282,1.6510473489761353
13.55,-10.579585075378418,-0.18171443045139313,-0.4425969421863556,0.2101452499628067,-2.0275511741638184,0.11026489734649658
13.6,-2.8631770610809326,1.9851336479187012,-3.4264650344848633,-0.25574395060539246,-2.059307336807251,-1.4759019613265991
13.65,2.7202725410461426,1.0131174325942993,-3.565457820892334,-0.19049382209777832,-1.3766850233078003,-2.3206775188446045
13.7,5.653084754943848,0.25828784704208374,-1.5117772817611694,0.5025618076324463,-0.7164238691329956,-2.225574493408203
13.75,8.815338134765625,-1.5682076215744019,-0.16998668015003204,1.0793578624725342,-0.1858408898115158,-1.4006321430206299
13.8,9.683202743530273,-3.382770299911499,1.0948314666748047,1.0422016382217407,0.11705862730741501,-0.48169010877609253
13.85,7.792922496795654,-2.853003978729248,0.8720177412033081,0.4668412506580353,0.020022805780172348,0.462266743183136
13.9,2.0222508907318115,0.4043046236038208,0.027768364176154137,-0.6599863767623901,-0.19037307798862457,1.0777177810668945
13.95,-1.5166597366333008,2.0731499195098877,0.14046062529087067,-1.3187336921691895,-0.24575777351856232,1.410081386566162
14.0,0.05313016474246979,0.7954722046852112,0.623130738735199,-1.201138973236084,0.03173323720693588,1.626572608947754
14.05,0.8867461681365967,0.49174991250038147,-0.37123236060142517,-0.8771286606788635,0.23715515434741974,1.4014171361923218
14.1,0.5526468753814697,0.4119110703468323,0.16329003870487213,-0.7128395438194275,-0.08555958420038223,0.8035733699798584
14.15,-0.6410902142524719,0.10688203573226929,0.4132944941520691,-0.5394472479820251,-0.2677688002586365,0.3179284632205963
14.2,-0.13053756952285767,0.21707727015018463,0.12997598946094513,-0.37222498655319214,-0.1424374282360077,0.2230735421180725
14.25,-0.19803386926651,0.4880189895629883,0.5700324773788452,-0.3058704435825348,-0.04648438096046448,0.05882678180932999
14.3,-0.457017183303833,0.2987489700317383,0.15388506650924683,0.0036046691238880157,0.04495352506637573,-0.03214113041758537
14.35,-0.5301808714866638,0.12276839464902878,0.004542946815490723,0.11575374752283096,0.056279268115758896,-0.03325852006673813
14.4,-0.5968087911605835,-0.02678682468831539,-0.052592549473047256,0.07668715715408325,0.04173966869711876,-0.04139987751841545
14.45,-0.418355256319046,-0.0064725931733846664,-0.09887291491031647,-0.02251727133989334,0.01222920510917902,-0.045871034264564514
14.5,-0.3213970959186554,0.1823596954345703,-0.007523693144321442,-0.083125039935112,0.0034819277934730053,-0.0841159000992775
14.55,-0.47613662481307983,0.2154703289270401,0.0005270805559121072,-0.011484310030937195,0.028739750385284424,-0.09290117770433426
14.6,-0.47546055912971497,0.09596538543701172,-0.04227183386683464,0.036899082362651825,0.029289821162819862,-0.04516071826219559
14.65,-0.36231517791748047,0.05811596289277077,-0.09588394314050674,-0.016800805926322937,0.0031422905158251524,-0.023326534777879715
14.7,-0.35897865891456604,0.03060244396328926,0.015097130089998245,-0.1420714557170868,-0.0319698266685009,-0.052120283246040344
14.75,-0.42674314975738525,0.08538051694631577,0.2119864672422409,-0.1849076747894287,-0.0348573736846447,-0.13369536399841309
14.8,-0.45144376158714294,0.2376413345336914,0.14302124083042145,-0.11549519002437592,0.00099919771309942,-0.2317783385515213
14.85,-0.6977006196975708,0.256592720746994,0.1665196716785431,-0.09127935022115707,0.04335085302591324,-0.25813400745391846
14.9,-0.8823155164718628,0.12042136490345001,0.21280696988105774,-0.002761799842119217,0.09016413241624832,-0.12203984707593918
14.95,-0.6530353426933289,-0.05777456611394882,-0.08682672679424286,0.11882572621107101,0.06506083905696869,0.06615246832370758
15.0,-0.39133986830711365,-0.0919027328491211,-0.20228953659534454,0.009328141808509827,-0.02488688752055168,0.1163606345653534
15.05,-0.2600162625312805,0.06488321721553802,0.12026471644639969,-0.1892121434211731,-0.06576160341501236,0.07556075602769852
15.1,-0.4544711709022522,0.27510353922843933,0.3475069999694824,-0.16666683554649353,-0.03836731240153313,0.01329162996262312
15.15,-0.5314741730690002,0.25739189982414246,0.3043087422847748,0.004652839154005051,-0.001469500595703721,0.03351708501577377
15.2,-0.2743068039417267,0.08699130266904831,0.06678842753171921,0.12807826697826385,0.007711829151958227,0.10165272653102875
15.25,-0.2561562955379486,0.05231952667236328,-0.03248094022274017,0.12151647359132767,0.005785324610769749,0.06599791347980499
15.3,-0.24086394906044006,0.10547160357236862,0.1376841962337494,0.01112458948045969,-0.0036791746970266104,0.012688699178397655
15.35,-0.15503248572349548,0.1397542804479599,0.1605508178472519,-0.045212455093860626,-0.011312151327729225,-0.009797046892344952
15.4,-0.277417927980423,0.21554090082645416,0.06236451491713524,-0.019424188882112503,0.004568745847791433,-0.06140221655368805
15.45,-0.08974320441484451,0.010366405360400677,0.27146634459495544,0.004088977351784706,0.012771997600793839,-0.10278192162513733
15.5,-0.15420657396316528,-0.040652304887771606,0.16618601977825165,0.1114959567785263,6.284792470978573e-05,-0.2060774564743042
15.55,-0.4709056615829468,0.14484693109989166,-0.13221800327301025,0.08733633160591125,-0.02324214018881321,-0.2308574616909027
15.6,-0.39584195613861084,0.08871078491210938,-0.059635113924741745,-0.10045228898525238,-0.019074469804763794,-0.050407905131578445
15.65,-0.39605021476745605,0.05449577793478966,0.2357313334941864,-0.12028370797634125,-0.041146039962768555,0.10526452213525772
15.7,0.019670218229293823,-0.13622580468654633,0.7586795687675476,0.28950798511505127,-0.16245310008525848,-0.13335777819156647
15.75,0.03301273286342621,-0.06485659629106522,0.5499950051307678,0.8520151972770691,-0.2058234065771103,-0.5252159833908081
15.8,-0.45955726504325867,0.17145729064941406,-0.019594768062233925,0.6296099424362183,-0.13129089772701263,-0.34595173597335815
15.85,-0.384809672832489,0.06763932853937149,0.1304997056722641,0.029642438516020775,-0.06780154258012772,-0.006589857861399651
15.9,-0.4169157147407532,0.10362715274095535,0.4326245188713074,-0.11608380824327469,-0.024111222475767136,0.04758520796895027
15.95,-0.06375563144683838,0.2323274463415146,0.39071717858314514,-0.007811476476490498,0.011333244852721691,0.013676393777132034
16.0,3.1747078895568848,2.4289352893829346,0.1105164885520935,0.05391831696033478,0.322486937046051,-0.4150833487510681
16.05,14.820497512817383,6.135133743286133,-1.5662662982940674,1.0674350261688232,0.2836151719093323,-2.7634449005126953
16.1,31.000381469726562,-4.971579074859619,2.0602610111236572,1.8861145973205566,0.3857625722885132,-4.597758769989014
16.15,28.955093383789062,-5.805344104766846,-0.36839842796325684,0.743854284286499,1.2507601976394653,0.18994173407554626
16.2,-0.21306180953979492,7.607729434967041,-3.950874090194702,0.5113016366958618,1.7433956861495972,5.969052791595459
16.25,-31.098949432373047,-0.9424954056739807,-2.8164916038513184,1.3023179769515991,2.871952772140503,3.69427227973938
16.3,-42.999855041503906,1.9907963275909424,10.224217414855957,0.6058240532875061,4.3442535400390625,-1.706687092781067
16.35,-21.741384506225586,8.037163734436035,13.766083717346191,-1.0306847095489502,3.4726293087005615,-2.3852829933166504
16.4,-4.8250651359558105,1.108723521232605,0.8128370046615601,-1.0826973915100098,1.3609966039657593,-0.9785404205322266
16.45,-2.492734670639038,-1.5125107765197754,1.1275783777236938,0.06430596113204956,0.3562537133693695,-0.80753493309021
16.5,-1.4891103506088257,-0.31674012541770935,0.13009773194789886,0.15593387186527252,0.4446844756603241,-0.09122028201818466
16.55,0.27792879939079285,1.2518666982650757,-1.8961589336395264,-0.3078159987926483,0.003371594240888953,0.3024608790874481
16.6,1.4454243183135986,1.4544689655303955,-0.3468254506587982,-1.0020776987075806,-1.4359575510025024,-0.11965449154376984
16.65,2.4720964431762695,0.1723407804965973,-2.361704111099243,-0.6064696311950684,-2.6203081607818604,-0.19415263831615448
16.7,2.992495536804199,-2.5641849040985107,-2.4227404594421387,0.2620318830013275,-1.9285504817962646,1.171116590499878
16.75,-1.0081113576889038,-4.739452362060547,3.7975685596466064,0.5242294073104858,-0.5535117983818054,2.055887222290039
16.8,-4.944620132446289,-5.082571983337402,6.271264553070068,0.24899214506149292,-0.2933669686317444,1.742843747138977
16.85,-6.53797721862793,1.167382836341858,1.9335507154464722,-0.7839221358299255,0.35545846819877625,0.8521730303764343
16.9,1.3890938758850098,8.68514633178711,-11.933782577514648,-0.5643450617790222,0.6536043882369995,1.4004123210906982
16.95,2.7987937927246094,4.947752952575684,-9.753108024597168,-0.5418894290924072,0.12069063633680344,0.677412748336792
17.0,-2.6481823921203613,0.33156266808509827,2.140733003616333,-0.4410162568092346,-0.28133249282836914,-0.6985881924629211
17.05,-1.4114584922790527,1.1008976697921753,1.6637226343154907,0.6707897186279297,-0.06350678205490112,-0.09371884912252426
17.1,-1.205765962600708,0.6000393033027649,1.4388927221298218,1.4685662984848022,0.1004549041390419,0.31776341795921326
17.15,0.054780907928943634,-0.28774067759513855,-0.5509241223335266,1.8265814781188965,0.1658797413110733,0.6251023411750793
17.2,0.9628776907920837,-0.4527348577976227,-1.0605320930480957,1.064072847366333,-0.017667850479483604,0.5163001418113708
17.25,-0.3259871006011963,-0.30085673928260803,0.8068773150444031,-0.03246419504284859,-0.3641585111618042,0.1501927375793457
17.3,-1.1146843433380127,-0.25465425848960876,2.213186502456665,-0.48377156257629395,-0.48964306712150574,-0.10998828709125519
17.35,0.9751484990119934,-0.5931273102760315,0.35118773579597473,-0.38411271572113037,-0.9796050786972046,-0.14920854568481445
17.4,2.008824586868286,0.7104014158248901,-5.730834484100342,-0.8939932584762573,-2.903611660003662,-0.6759290099143982
17.45,-0.0377962589263916,0.7022358775138855,-5.004980564117432,-1.1638004779815674,-2.529078960418701,-0.9071286916732788
17.5,-2.823779344558716,0.007841666229069233,2.4816365242004395,-0.9846352934837341,-0.40014079213142395,-0.5788242220878601
17.55,-1.5578670501708984,0.31457003951072693,2.9865944385528564,-0.4401770234107971,-0.13113130629062653,-0.1350296586751938
17.6,0.512525200843811,-0.10344307869672775,-0.5525500774383545,0.27665945887565613,-0.35501015186309814,0.23179464042186737
17.65,-0.07058623433113098,-0.2968501150608063,-0.948342502117157,0.06958312541246414,-0.5467910170555115,-0.07711105793714523
17.7,-0.5541095733642578,-0.2099170684814453,-0.4482506513595581,-0.29341983795166016,-0.5489968061447144,-0.40687596797943115
17.75,-0.9494404792785645,0.12143892049789429,0.34749969840049744,-0.5302822589874268,-0.3279048800468445,-0.561111569404602
17.8,-1.4456853866577148,0.45557767152786255,1.5559124946594238,-0.5374796390533447,0.0555499792098999,-0.3748457431793213
17.85,0.03259319067001343,1.4034174680709839,1.7748225927352905,-0.09587626159191132,0.5109477043151855,-0.04313914105296135
17.9,6.6364240646362305,4.924169063568115,0.6226845979690552,0.4779854118824005,1.7670907974243164,-1.2576711177825928
17.95,18.774927139282227,5.5697407722473145,-0.3550169765949249,0.7579649686813354,2.220231056213379,-5.701756477355957
18.0,30.0966796875,-5.765778541564941,-17.874542236328125,-1.4573312997817993,3.6580893993377686,-3.9921658039093018
18.05,12.024259567260742,9.58499813079834,-40.29225540161133,1.0511423349380493,6.085019588470459,4.726111888885498
18.1,-42.6768913269043,25.195884704589844,-17.83221435546875,5.40928316116333,7.511944770812988,4.403504848480225
18.15,-45.5137939453125,-5.985958576202393,26.90102195739746,2.964543581008911,7.63763952255249,-0.32425493001937866
18.2,-5.71097469329834,-6.076256275177002,32.9102897644043,-2.8288261890411377,6.285582542419434,-2.277146100997925
18.25,6.958524703979492,6.195306777954102,0.9571676850318909,-4.094505786895752,3.4566659927368164,0.29412931203842163
18.3,0.456390380859375,-1.3431276082992554,-6.334317684173584,-2.2230117321014404,3.575685977935791,2.0371127128601074
18.35,-0.7732899188995361,0.14845336973667145,2.8174493312835693,-2.4752864837646484,4.541881561279297,0.8525559306144714
18.4,-3.5059590339660645,0.5980872511863708,0.0014050742611289024,-1.4154703617095947,2.400545358657837,0.11590290069580078
18.45,-3.0733869075775146,-0.17341890931129456,-1.8986833095550537,-0.9418169260025024,2.473365068435669,0.7069304585456848
18.5,0.24298542737960815,-0.5986751914024353,3.0084621906280518,-0.9885188937187195,2.1604909896850586,0.9748528599739075
18.55,-1.0938130617141724,-0.2923367917537689,2.131096363067627,-0.22786954045295715,0.43742987513542175,0.6721912026405334
18.6,-4.065640926361084,-0.20499669015407562,-4.8038482666015625,0.4996156692504883,0.4928866922855377,1.4103690385818481
18.65,-6.617512226104736,3.587505578994751,-0.12789979577064514,-0.305778831243515,2.447814702987671,1.1049535274505615
18.7,0.2151165008544922,15.20374584197998,18.941164016723633,-3.0260579586029053,5.762397766113281,-2.0832467079162598
18.75,15.193601608276367,15.808545112609863,18.25193977355957,-4.711886405944824,7.508045673370361,-4.263089179992676
18.8,-3.642679452896118,-10.858609199523926,8.458510398864746,-1.862965703010559,5.556206226348877,-3.8009722232818604
18.85,-13.45017147064209,-12.848999977111816,3.193654775619507,1.365196943283081,1.9119716882705688,-2.827341079711914
18.9,-3.572291851043701,-1.5237010717391968,-0.5353771448135376,1.490086555480957,0.3784196674823761,-1.2211135625839233
18.95,-3.8946354389190674,-0.495484322309494,-1.9248416423797607,0.4349568784236908,0.2533402740955353,-0.2538442313671112
19.0,-2.820432662963867,0.0732090175151825,-2.6434972286224365,-0.2920970618724823,0.044190626591444016,-0.14488622546195984
19.05,-3.0857653617858887,0.021014239639043808,-1.2241955995559692,-0.8115291595458984,-0.04683546721935272,0.34429335594177246
19.1,-2.93363094329834,-0.129743754863739,0.41896918416023254,-0.9573065042495728,0.32905876636505127,0.40040770173072815
19.15,0.4188745617866516,1.7425071001052856,0.7759159803390503,-1.5498071908950806,2.271092176437378,0.05224476382136345
19.2,3.2775845527648926,0.522773265838623,-2.4935271739959717,-3.0992655754089355,6.050552845001221,-0.14157095551490784
19.25,-11.74856185913086,-6.5543060302734375,-5.568439960479736,-2.522369861602783,7.695102691650391,-0.8478410243988037
19.3,-16.450042724609375,-5.731405258178711,0.032603513449430466,-1.0539041757583618,4.296069622039795,-0.8404962420463562
19.35,-3.9445958137512207,-0.5387245416641235,3.2700634002685547,-0.9071072340011597,3.340890645980835,-1.0617910623550415
19.4,5.124439239501953,2.852079153060913,-1.5718364715576172,-1.1998368501663208,3.6248130798339844,-0.6753869652748108
19.45,-1.2726444005966187,0.26621192693710327,-3.71693754196167,-0.800033688545227,0.8944987654685974,-0.6940973997116089
19.5,-5.681547164916992,-1.287431001663208,-1.2003018856048584,-0.5034220814704895,-0.5814564228057861,-0.6921790838241577
19.55,-3.3773505687713623,-0.3721180260181427,-1.0745460987091064,-0.2563980221748352,-0.267896831035614,0.30551227927207947
19.6,-2.8408472537994385,-0.36175253987312317,-0.8129251003265381,-0.19794058799743652,-0.05526271462440491,0.5205137729644775
19.65,-0.7770798802375793,0.19638748466968536,-1.614464521408081,-0.2742267847061157,0.10667001456022263,0.19212420284748077
19.7,-4.249669551849365,-0.650985836982727,-0.877211332321167,-0.6152589321136475,0.6603537797927856,-0.6603338122367859
19.75,-6.205843925476074,-0.9213260412216187,-0.0985182449221611,-0.5643700957298279,0.5586385726928711,-0.8110049366950989
19.8,-4.250298500061035,-0.7265015840530396,-0.7564460635185242,-0.10398373007774353,0.13722476363182068,-0.21759650111198425
19.85,-3.5447254180908203,-0.96564120054245,-0.8936252593994141,0.14283007383346558,0.24581347405910492,0.2725350260734558
19.9,-3.6991872787475586,-1.0198919773101807,-0.3191736936569214,0.16377386450767517,0.4897474944591522,0.31882354617118835
19.95,-4.9820075035095215,-0.5217430591583252,0.04740851745009422,-0.009688150137662888,1.2590099573135376,-0.13795951008796692
20.0,-3.47410249710083,-0.9235050678253174,-0.09264688938856125,-0.5635349750518799,3.0800116062164307,-0.5785577297210693
20.05,2.3951995372772217,3.66794490814209,-10.7445707321167,-1.070137619972229,3.2933151721954346,0.16641820967197418
20.1,0.9034924507141113,3.7915589809417725,-9.565617561340332,-0.483773410320282,1.0456571578979492,0.7257083058357239
20.15,-1.8419041633605957,-0.3434542715549469,-1.5548940896987915,0.37871265411376953,0.13479745388031006,0.5645096898078918
20.2,-4.202252388000488,-0.6170254945755005,-0.9633433818817139,-0.1345340609550476,0.042032018303871155,-0.13174226880073547
20.25,-4.545444488525391,-0.2705794870853424,-0.5787444114685059,-0.48678988218307495,-0.16550341248512268,-0.4413241446018219
20.3,-3.3220741748809814,-0.3043651878833771,-0.9674818515777588,-0.08089472353458405,0.06219136342406273,-0.05018439143896103
20.35,-3.783886671066284,-0.7079821825027466,-0.6675551533699036,0.009201052598655224,0.07910605520009995,-0.014291319064795971
20.4,-4.262748718261719,-0.9571735262870789,-0.9182032346725464,-0.22153089940547943,-0.10733340680599213,-0.2885560393333435
20.45,-4.477558612823486,-0.7936479449272156,-1.091577410697937,-0.25106799602508545,-0.267800509929657,-0.46249303221702576
20.5,-4.048693656921387,-0.30811697244644165,-1.068981647491455,0.17836758494377136,-0.22644352912902832,-0.25769004225730896
20.55,-3.6370768547058105,-0.1887875348329544,-0.8670247793197632,0.4462350904941559,-0.07400552928447723,0.09408480674028397
20.6,-3.484943389892578,-0.2970286011695862,-0.8377903699874878,0.5643653869628906,0.049644194543361664,0.4294760525226593
20.65,-3.6595754623413086,-0.5862199664115906,-0.4090346693992615,0.7334423661231995,0.13962703943252563,0.599716305732727
20.7,-3.7837586402893066,-1.5603975057601929,-0.5304102301597595,0.8183806538581848,0.2939876317977905,0.5502924919128418
20.75,-3.9940881729125977,-1.9335272312164307,-1.4145605564117432,0.49049293994903564,0.8441329002380371,0.5422773957252502
20.8,-2.2811927795410156,-0.37991636991500854,0.3243219256401062,-0.1492789089679718,1.3901125192642212,0.5830814838409424
20.85,0.27941256761550903,2.5028419494628906,1.8316603899002075,-0.14058654010295868,1.9888663291931152,0.022625470533967018
20.9,3.1449644565582275,3.336637258529663,-0.17325764894485474,0.4981059432029724,2.228632688522339,-2.077516555786133
20.95,4.100260257720947,2.9108099937438965,-0.6102242469787598,1.4528908729553223,1.7915232181549072,-4.9614152908325195
21.0,6.643148422241211,2.854717969894409,5.845999717712402,0.6858813166618347,1.7653189897537231,-5.3688130378723145
21.05,5.159139156341553,-4.791500568389893,0.4130607843399048,-2.87080979347229,0.4561827778816223,-1.9282124042510986
21.1,1.4875341653823853,-7.254765033721924,-9.758440017700195,-2.2690906524658203,1.2282932996749878,0.8198542594909668
21.15,-11.036035537719727,-6.044975280761719,-9.443961143493652,-0.6203768253326416,1.8661426305770874,1.8367931842803955
21.2,-8.915243148803711,-7.613321781158447,-2.2114510536193848,-1.003385066986084,1.8246028423309326,1.4650294780731201
21.25,0.3042498826980591,-4.997323036193848,-2.099010705947876,-1.0702641010284424,2.4734625816345215,0.9661681652069092
21.3,1.1265132427215576,-0.24092727899551392,-3.5164103507995605,0.09168887138366699,1.5344611406326294,1.4137654304504395
21.35,0.5283854603767395,5.131552696228027,-4.527700424194336,0.960705578327179,0.5712777972221375,-0.3819943964481354
21.4,-18.996021270751953,19.50645637512207,-9.206878662109375,-0.3051300048828125,-0.0048179347068071365,-4.937919616699219
21.45,-11.89619255065918,19.88592529296875,-17.839189529418945,-3.4136784076690674,-0.8665685653686523,-6.72838020324707
21.5,6.625216007232666,-4.211599826812744,-12.834476470947266,-4.936580181121826,0.2971981167793274,-5.743582725524902
21.55,14.735638618469238,-18.840274810791016,-10.166040420532227,-3.72898006439209,0.8697726726531982,-4.248966217041016
21.6,12.642843246459961,-24.77353858947754,-12.8283109664917,-1.5466371774673462,2.575500726699829,-0.3134687840938568
21.65,2.18515944480896,-14.734591484069824,-17.044836044311523,2.017519474029541,4.861137390136719,4.76121187210083
21.7,-12.390385627746582,-0.7567439675331116,-16.804790496826172,6.206408500671387,4.897132396697998,6.036676406860352
21.75,-20.49514389038086,14.924310684204102,-0.4385128617286682,8.117277145385742,4.297195911407471,3.1744697093963623
21.8,-15.598047256469727,1.9759875535964966,28.679847717285156,6.107141494750977,1.4088516235351562,1.7470389604568481
21.85,16.509675979614258,-8.90058708190918,-6.791428089141846,1.5720536708831787,-1.158355951309204,2.914867877960205
21.9,15.087989807128906,-2.523256301879883,-17.26767349243164,-1.2533670663833618,-0.8983021974563599,1.6186494827270508
21.95,-4.86041259765625,-0.3863300085067749,1.0698440074920654,-0.5036548376083374,-0.14120130240917206,-0.6857811212539673
22.0,-5.128851890563965,-0.7348061800003052,-0.9300961494445801,0.5833560228347778,0.2682889401912689,-0.9463526606559753
22.05,-4.635582447052002,-1.3406020402908325,-1.6574651002883911,0.2328651398420334,0.1812106966972351,-0.3283877372741699
22.1,-3.546204090118408,-0.8144761919975281,-0.7775452136993408,-0.3235997259616852,-0.14262613654136658,0.221290722489357
22.15,-3.577301502227783,-0.2693158686161041,-0.05770305171608925,-0.18721884489059448,-0.27404525876045227,0.09445690363645554
22.2,-4.234530448913574,-0.06397079676389694,0.5349013805389404,0.3047584593296051,-0.40766337513923645,-0.14335376024246216
22.25,-2.726966381072998,0.12299924343824387,6.9487433433532715,1.1947059631347656,-1.2470062971115112,0.14700017869472504
22.3,-8.559520721435547,-2.942392587661743,-6.7146220207214355,2.1434056758880615,-5.200984954833984,1.0100762844085693
22.35,-4.767098426818848,-1.751887559890747,-9.781407356262207,0.7155267000198364,-4.150665283203125,0.7099120020866394
22.4,-3.148839235305786,2.0195257663726807,-0.5835517644882202,-0.40093743801116943,-0.8682846426963806,-0.25373074412345886
22.45,-2.493459701538086,5.606372356414795,-0.9230812788009644,0.4315738081932068,-0.4823843538761139,-2.096226930618286
22.5,-19.385454177856445,15.035445213317871,-5.437869548797607,0.9594588279724121,-1.1984621286392212,-6.737634658813477
22.55,-9.845368385314941,30.11370086669922,-0.2679194211959839,-2.3266029357910156,0.10274220257997513,-11.135015487670898
22.6,14.882169723510742,4.227166652679443,-1.5279712677001953,-3.730786085128784,1.1455397605895996,-8.779217720031738
22.65,19.66622543334961,-30.62666130065918,-4.475595951080322,-2.8932924270629883,1.7596793174743652,-2.7832190990448
22.7,15.058990478515625,-27.283464431762695,-11.872983932495117,-1.0427099466323853,4.0294976234436035,2.952816963195801
22.75,-1.142359733581543,-6.867738723754883,-17.597209930419922,2.724672317504883,5.259696960449219,6.458905220031738
22.8,-15.117431640625,13.312381744384766,-13.279666900634766,6.215432167053223,4.748254776000977,5.018455982208252
22.85,-25.116310119628906,17.03831672668457,20.84941291809082,6.247533321380615,3.213533639907837,3.4279377460479736
22.9,-28.374298095703125,-28.012773513793945,33.89528274536133,4.018566608428955,0.45265963673591614,1.5612637996673584
22.95,-12.825129508972168,-9.715673446655273,61.31791305541992,-1.471842646598816,-0.47516539692878723,2.956961154937744
23.0,-2.594813346862793,11.101067543029785,36.56821823120117,-1.3207309246063232,0.18020644783973694,0.8436644077301025
23.05,-0.6548097729682922,-2.642516851425171,-0.40383753180503845,0.6291491389274597,0.9114978313446045,-1.8551052808761597
23.1,-2.8926146030426025,-3.195843458175659,-2.99777889251709,-0.34197109937667847,0.8586862087249756,-0.19850489497184753
23.15,-3.700514078140259,-1.510306477546692,-2.28627347946167,-1.0393102169036865,0.0023353456053882837,1.1405985355377197
23.2,-4.903112411499023,-0.7653075456619263,-1.8296979665756226,-0.7328139543533325,-0.2971566319465637,0.5932157635688782
23.25,-7.03889274597168,-0.3083564043045044,-1.4715642929077148,-0.4810947775840759,-0.6928752660751343,0.279678612947464
23.3,-8.241076469421387,-0.7579606175422668,-1.0438886880874634,0.443434476852417,-2.551162004470825,-0.6945742964744568
23.35,-6.52787971496582,-2.7699217796325684,-0.7909917831420898,1.9002188444137573,-3.68064284324646,-1.2861311435699463
23.4,-4.181404113769531,-1.879585862159729,1.7055326700210571,1.4679334163665771,-2.932734251022339,0.05986526235938072
23.45,-3.512448310852051,1.6372663974761963,-1.381264567375183,0.21141105890274048,-0.8555704355239868,1.0151023864746094
23.5,-1.7220288515090942,5.581206321716309,-2.8440914154052734,-0.2437727153301239,0.20553430914878845,-0.8243144154548645
23.55,-4.599845886230469,2.7698476314544678,-5.190739631652832,1.0325140953063965,-0.5370671153068542,-5.567111015319824
23.6,-2.9421868324279785,13.9359712600708,-16.636510848999023,0.29670798778533936,-3.639423370361328,-7.566917419433594
23.65,16.455806732177734,4.7943854331970215,-12.039082527160645,-3.533376693725586,-2.3462817668914795,-5.207752227783203
23.7,29.309917449951172,-21.36374282836914,-4.179562568664551,-4.841838359832764,0.3302187919616699,-0.24482710659503937
23.75,18.07746124267578,-18.02444839477539,-14.409563064575195,-2.5659406185150146,0.9635889530181885,6.348935604095459
23.8,-34.31721115112305,3.780757427215576,-28.271028518676758,3.888061761856079,4.143972396850586,4.948775768280029
23.85,-57.94816589355469,-4.405979156494141,1.2894166707992554,5.390326976776123,6.673247337341309,2.2206056118011475
23.9,-42.3555908203125,8.950634002685547,-32.225460052490234,2.0596113204956055,2.7979161739349365,1.3658496141433716
23.95,-13.147392272949219,7.193425178527832,-29.06915855407715,-1.3949241638183594,0.3890049457550049,2.9127330780029297
24.0,-2.4348626136779785,0.12120325863361359,0.7270601987838745,-1.2794896364212036,-0.17055806517601013,2.7902991771698
24.05,-8.069710731506348,-0.6594995260238647,-0.14314277470111847,-0.09109239280223846,-0.370211660861969,0.43136024475097656
24.1,-5.364546775817871,-1.407781720161438,-2.2666358947753906,0.12720340490341187,-0.022266700863838196,-0.19811676442623138
24.15,-4.7568359375,-2.3833541870117188,-3.745692491531372,-0.19908402860164642,-0.10078291594982147,-0.1199592724442482
24.2,-4.524049758911133,-1.5073424577713013,-2.501636266708374,-0.9329745769500732,-0.4719369113445282,0.33927053213119507
24.25,-3.963179111480713,0.27237600088119507,-0.5785291790962219,-0.743837833404541,-0.46299993991851807,0.38588273525238037
24.3,-4.908259868621826,-0.5897723436355591,-1.2233902215957642,-0.06340457499027252,-0.1957070529460907,0.007895024493336678
24.35,-5.400652885437012,-0.9131738543510437,-1.4879236221313477,0.26643815636634827,-0.051185689866542816,-0.08560379594564438
24.4,-5.047433853149414,-0.9886189699172974,-1.7290953397750854,0.6927297711372375,0.059160951524972916,-0.3668929636478424
24.45,-6.0482378005981445,-2.65021014213562,-2.2457916736602783,0.4379498362541199,-0.14958921074867249,-0.269299179315567
24.5,-4.830728054046631,-0.5895282626152039,-0.47560983896255493,-0.5067283511161804,-0.3684100806713104,0.7948108315467834
24.55,-4.099619388580322,0.6271389722824097,-0.02564804069697857,-0.7463293075561523,-0.2503535747528076,0.8960891962051392
24.6,-4.814102649688721,0.11436440050601959,0.46012282371520996,-0.5839414000511169,-0.098321333527565,0.34913814067840576
24.65,-5.06616735458374,-3.538316249847412,-0.8423093557357788,0.3795849680900574,-0.07299231737852097,0.0787234827876091
24.7,-0.6410841941833496,-1.4392871856689453,-0.9868119359016418,0.7282930016517639,-1.1269197463989258,0.6729767322540283
24.75,-2.031968355178833,-0.0709988921880722,-2.890454053878784,0.744193434715271,-0.7285391688346863,0.4731670916080475
24.8,-5.345964431762695,-0.9176397323608398,-2.53867506980896,-0.016298703849315643,-0.03700646385550499,-0.10856001079082489
24.85,-4.306351184844971,-0.39707592129707336,0.42786139249801636,-0.38404160737991333,0.13915207982063293,-0.40576881170272827
24.9,-4.4623308181762695,-2.276308536529541,-0.13616137206554413,-0.5411574244499207,0.8340754508972168,-0.7814536094665527
24.95,-1.2900835275650024,-0.9048367142677307,-1.0870603322982788,-0.8645725250244141,0.6510494947433472,-0.1690831333398819
25.0,-2.772516965866089,0.6645764112472534,0.3857845366001129,-0.4799710512161255,0.04207827150821686,0.505614697933197
25.05,-5.03559684753418,-0.19711989164352417,-0.319886714220047,0.14394117891788483,0.24881090223789215,0.24696582555770874
25.1,-7.049911022186279,-1.7537883520126343,-1.055058240890503,0.29405441880226135,0.07503141462802887,-0.5973286628723145
25.15,-6.667806148529053,-1.6603137254714966,-2.7339184284210205,-0.3545658588409424,-0.19535017013549805,-0.16384872794151306
25.2,-5.597116947174072,-1.9956591129302979,-1.5648095607757568,-1.7617167234420776,-0.18658247590065002,0.5790412425994873
25.25,-4.3569111824035645,-1.39863121509552,-1.3927664756774902,-1.4234238862991333,-0.1113489493727684,0.8708497285842896
25.3,-3.2758240699768066,0.2081107795238495,-0.5302404761314392,-0.35437291860580444,-0.14294977486133575,0.37475550174713135
25.35,-3.632119655609131,0.4184826612472534,0.3331069350242615,0.5047299265861511,-0.14531321823596954,-0.31504759192466736
25.4,-4.208705902099609,0.8071680665016174,-0.6751222014427185,1.565494179725647,-0.5211549401283264,-1.0775035619735718
25.45,-4.394561290740967,-1.4148274660110474,-1.4695690870285034,3.5355942249298096,-1.9930894374847412,-0.9541545510292053
25.5,-9.378273010253906,-3.9797747135162354,-1.6428897380828857,3.2382023334503174,-5.228527545928955,1.1196812391281128
25.55,-7.6790666580200195,-3.3045058250427246,-2.519158363342285,2.8061130046844482,-2.7757833003997803,1.4811662435531616
25.6,-1.7447574138641357,-2.0272066593170166,-8.191566467285156,1.3663824796676636,-1.7389432191848755,1.1085944175720215
25.65,-0.4702659845352173,-1.8949798345565796,-6.815440654754639,-0.3728410601615906,-1.1247739791870117,-0.14577259123325348
25.7,-1.7210731506347656,0.2734508216381073,0.06973383575677872,-2.000797986984253,1.7102339267730713,-1.433807373046875
25.75,-1.9593768119812012,0.05909076705574989,-1.8858140707015991,-3.362698554992676,3.3403584957122803,-1.8115942478179932
25.8,-2.2741811275482178,-0.7008160352706909,-2.3171610832214355,-2.854548454284668,2.16929030418396,-0.5200694799423218
25.85,-1.4844095706939697,1.768012285232544,-0.9881923198699951,-1.3851613998413086,0.4819070100784302,0.2596396803855896
25.9,-1.032304286956787,1.3559467792510986,-1.5596214532852173,-0.5718497037887573,0.046845655888319016,-1.143258810043335
25.95,-1.2991828918457031,-2.617704391479492,-1.546397089958191,-0.49273186922073364,0.4551098942756653,-1.8741004467010498
26.0,-0.6659642457962036,-3.4026646614074707,0.3320704698562622,-0.39383837580680847,0.5485414266586304,-0.49898314476013184
26.05,-3.142146587371826,-2.027034044265747,-0.6556822061538696,0.08173806965351105,0.5996888279914856,0.7490409016609192
26.1,-2.009859561920166,1.5334123373031616,-1.5946812629699707,0.08114632964134216,0.5984819531440735,1.43380606174469
26.15,-2.601874828338623,0.20085816085338593,-0.9261660575866699,-0.2729465067386627,0.3191288113594055,0.4567353129386902
26.2,-3.9477415084838867,-0.0006991489208303392,-0.3953532576560974,-0.34128451347351074,0.07142867892980576,0.5044034123420715
26.25,-2.9827945232391357,0.5073899030685425,0.5168653130531311,-0.4371320605278015,0.15119260549545288,0.9480009078979492
26.3,-2.4356844425201416,-0.040635351091623306,1.2297017574310303,-0.17865967750549316,0.23645544052124023,0.4141426980495453
26.35,-2.8056931495666504,-0.06140826642513275,0.9417953491210938,0.6886551380157471,0.21447469294071198,-0.1414276510477066
26.4,-2.9772369861602783,-0.23133572936058044,-0.4174884855747223,1.1823170185089111,0.29629698395729065,-0.21570003032684326
26.45,-2.644629955291748,-0.3162049949169159,-1.2750612497329712,1.116431713104248,0.31559932231903076,-0.04427938908338547
26.5,-2.788867473602295,-0.028074074536561966,-2.581456184387207,0.6179670095443726,0.14576342701911926,-0.042737241834402084
26.55,-1.2940996885299683,-1.2886619567871094,-1.4465880393981934,0.4492093026638031,-1.0141412019729614,-0.31663498282432556
26.6,-0.48253384232521057,-1.3395657539367676,2.9660184383392334,0.736202597618103,-2.694420099258423,0.14277544617652893
26.65,-2.8384742736816406,-0.7575782537460327,0.8555041551589966,1.122330665588379,-2.270242929458618,0.10886562615633011
26.7,-4.883243083953857,-0.5260267853736877,-1.8421721458435059,1.4937931299209595,-1.5304151773452759,-0.14475618302822113
26.75,-5.365246295928955,-0.29490071535110474,-3.547271728515625,1.056694746017456,-0.6363620758056641,0.460238516330719
26.8,-2.9366533756256104,-3.050762176513672,-9.713217735290527,-0.8067953586578369,0.8376577496528625,0.90289306640625
26.85,-3.2767152786254883,-4.183544635772705,-3.5171499252319336,-3.1441049575805664,2.6442103385925293,0.2847916781902313
26.9,-3.4366965293884277,-1.2791613340377808,5.454103469848633,-3.154332399368286,3.525721311569214,0.2857886850833893
26.95,-3.161860466003418,0.9325452446937561,3.4070818424224854,-0.9792678952217102,3.173163890838623,0.04447856917977333
27.0,-0.7069433331489563,-1.175033688545227,0.12664784491062164,0.6685478687286377,2.8935751914978027,-0.8518837690353394
27.05,4.0831217765808105,0.17729413509368896,6.540313720703125,0.046809375286102295,3.127271890640259,-2.249922275543213
27.1,8.028546333312988,-6.030745983123779,0.15094158053398132,-1.5965299606323242,2.428886890411377,-2.375561237335205
27.15,-3.782992362976074,-3.400414228439331,-3.9535374641418457,-0.8854456543922424,1.1693618297576904,0.7514023780822754
27.2,-3.287684440612793,1.1038808822631836,0.10114456713199615,-0.21266499161720276,0.321603000164032,2.254563093185425
27.25,-1.6077275276184082,0.5301026701927185,0.6465760469436646,-0.032327041029930115,0.22448542714118958,0.8667041063308716
27.3,-1.7490391731262207,1.0323621034622192,-0.5595226883888245,-0.05838331952691078,0.5208771824836731,-0.03291841596364975
27.35,-1.1821463108062744,2.424948215484619,-2.015465021133423,-1.3034859895706177,1.0794955492019653,-0.26817572116851807
27.4,-3.6673970222473145,3.512955904006958,-6.991588115692139,-3.342921257019043,1.4436930418014526,-0.8420224785804749
27.45,-2.2791881561279297,5.322705268859863,-11.071366310119629,-6.557660102844238,0.44988858699798584,-0.4779757857322693
27.5,-7.793272495269775,-5.457860946655273,-20.58824920654297,-3.7898001670837402,3.3600125312805176,0.3758469223976135
27.55,-27.289417266845703,-4.540055751800537,-5.738000869750977,2.7504825592041016,6.68397331237793,-0.8223777413368225
27.6,-21.240062713623047,1.303993821144104,29.66228675842285,4.713671684265137,8.230016708374023,-3.6639723777770996
27.65,8.480621337890625,-6.095630168914795,39.57330322265625,1.0912158489227295,8.113582611083984,-4.738664150238037
27.7,21.982345581054688,-20.989999771118164,17.578948974609375,-3.2990217208862305,7.852726936340332,-1.768326759338379
27.75,-9.845137596130371,-7.695544719696045,40.796138763427734,-2.0701346397399902,3.606001853942871,2.5542142391204834
27.8,-10.412126541137695,-1.6432100534439087,24.442445755004883,1.0770078897476196,1.0221173763275146,1.8617037534713745
27.85,-2.157996416091919,-0.3586581349372864,1.4885343313217163,0.8702155351638794,0.566748321056366,0.2392871230840683
27.9,-2.6529998779296875,-0.6486266255378723,1.112881064414978,0.1152234748005867,0.21769408881664276,0.16477687656879425
27.95,-2.512416362762451,-0.9270002841949463,0.20267599821090698,0.18722817301750183,-0.004505777265876532,-0.056923363357782364
28.0,-3.025519847869873,-0.26269933581352234,0.5246699452400208,-0.048897095024585724,-0.31487947702407837,-0.34202125668525696
28.05,-2.9314846992492676,-0.14992357790470123,1.0530439615249634,-0.2148870974779129,-0.20387603342533112,-0.22812315821647644
28.1,-2.6044254302978516,-0.3132316470146179,0.40654078125953674,0.057112231850624084,0.05136791616678238,-0.0427316389977932
28.15,-2.4032444953918457,-0.24735847115516663,0.203084796667099,0.07952116429805756,0.04265282303094864,-0.014880254864692688
28.2,-2.214923858642578,-0.04462733119726181,0.4390031695365906,0.0660485327243805,0.06980571150779724,-0.09835883975028992
28.25,-2.232492685317993,-0.08562387526035309,0.3379192352294922,0.17275181412696838,0.15556520223617554,-0.15441063046455383
28.3,-2.317596912384033,-0.24208375811576843,0.7739371657371521,0.24336928129196167,0.20230643451213837,-0.18709710240364075
28.35,-2.355527877807617,-0.18645967543125153,0.2794250547885895,0.4372623562812805,0.25803640484809875,-0.16928663849830627
28.4,-2.322267770767212,-0.13870155811309814,0.13377539813518524,0.43282777070999146,0.24629539251327515,-0.08718878030776978
28.45,-2.463742256164551,-0.4242870807647705,0.6831824779510498,0.3819703459739685,0.21657365560531616,-0.0014275418361648917
28.5,-2.511890172958374,-0.28270450234413147,0.32149365544319153,0.5011529326438904,0.21358592808246613,0.0724838450551033
28.55,-2.5029194355010986,-0.33590906858444214,0.4653076231479645,0.5574197173118591,0.2647101879119873,0.0336749292910099
28.6,-2.4507482051849365,-0.12630002200603485,0.5266458988189697,0.49041497707366943,0.18916460871696472,0.1987491101026535
28.65,-1.9313515424728394,0.2161072939634323,0.26336076855659485,0.40576159954071045,0.370557576417923,0.31065240502357483
28.7,-1.970526099205017,-0.027781356126070023,-1.7981553077697754,0.17630591988563538,0.9779577255249023,0.2619677186012268
28.75,-2.5501043796539307,-0.259091317653656,-1.6687309741973877,-0.08521119505167007,0.9768786430358887,0.2184678614139557
28.8,-2.6163012981414795,0.24191582202911377,-1.6207306385040283,0.13771530985832214,0.9514790773391724,0.18664483726024628
28.85,-1.716249704360962,-0.043304651975631714,1.1748814582824707,0.16201910376548767,0.8962316513061523,0.09803832322359085
28.9,-1.4072471857070923,-0.11755015701055527,1.611797571182251,0.05340489000082016,0.5843855738639832,0.09617649018764496
28.95,-1.625726580619812,-0.031125206500291824,0.6195923686027527,0.06477610766887665,0.27134114503860474,0.10563105344772339
29.0,-1.5359808206558228,0.12232768535614014,0.6480520963668823,0.12701289355754852,0.1924181580543518,0.09012947976589203
29.05,-1.6370161771774292,-0.042796388268470764,1.583329200744629,0.1533031463623047,0.12097334116697311,0.027595899999141693
29.1,-1.9715923070907593,0.1492394208908081,0.45693841576576233,0.25424057245254517,0.03397328406572342,0.0008368981070816517
29.15,-1.6849956512451172,0.25341796875,-0.27872899174690247,0.12328371405601501,-0.04678981378674507,0.0713433250784874
29.2,-1.3407026529312134,0.1469067931175232,0.24262617528438568,-0.06541821360588074,-0.045374348759651184,0.08237126469612122
29.25,-1.5124458074569702,-0.046832215040922165,0.5716415643692017,-0.06268975883722305,0.011688271537423134,0.06444591283798218
29.3,-1.850547432899475,-0.08672252297401428,0.5938997268676758,-0.07659488171339035,0.0626382827758789,0.07244522869586945
29.35,-1.6301887035369873,0.01696671172976494,0.4080626368522644,-0.04165833443403244,0.025982793420553207,0.08595243841409683
29.4,-1.4278143644332886,0.023240936920046806,0.45831620693206787,-0.00445462204515934,-0.015529892407357693,0.0874929130077362
29.45,-1.5508503913879395,0.07756127417087555,0.4310986399650574,-0.030297720804810524,-0.04062657058238983,0.08882171660661697
29.5,-1.3161959648132324,-0.07585062086582184,0.6224488019943237,-0.07990110665559769,-0.10353449732065201,0.16566507518291473
29.55,-1.5386875867843628,0.137505441904068,0.43236005306243896,-0.08967795968055725,-0.1267154961824417,0.20820261538028717
29.6,-1.0786888599395752,0.03375987708568573,1.3225866556167603,-0.0802801176905632,-0.1448628008365631,0.2920089066028595
29.65,-1.4507200717926025,0.3321731984615326,1.0669327974319458,-0.01410597562789917,-0.1619788408279419,0.35159724950790405
29.7,-1.3930586576461792,0.11597912013530731,0.3079438805580139,0.08549483120441437,-0.010514672845602036,0.6295530200004578
29.75,-1.9884580373764038,0.2826012372970581,0.6382157802581787,0.05584040284156799,0.1020350456237793,0.7905044555664062
29.8,-1.408611536026001,-0.02532305382192135,0.7003742456436157,0.024661362171173096,0.27110517024993896,0.998777449131012
29.85,-0.7753244638442993,-0.32018202543258667,0.9057150483131409,0.061080485582351685,0.28975510597229004,0.9742241501808167
29.9,-0.759431779384613,-0.2865879237651825,1.1570919752120972,0.17646059393882751,0.15456174314022064,0.692366361618042
29.95,-1.332649827003479,-0.1807662844657898,0.9673774838447571,0.2959268391132355,0.04988032951951027,0.5379888415336609
30.0,-1.1422045230865479,-0.1310655176639557,0.761428713798523,0.37000930309295654,0.06265640258789062,0.5930830240249634
30.05,-0.9304616451263428,-0.14063942432403564,0.6490094065666199,0.4160633087158203,0.038345083594322205,0.5526038408279419
30.1,-0.9204658269882202,-0.1364661455154419,0.6044958233833313,0.4256601333618164,-0.04425673559308052,0.4490452706813812
30.15,-1.3058922290802002,0.1016339510679245,0.3076353967189789,0.3888286352157593,-0.134245827794075,0.4226553738117218
30.2,-1.460188388824463,0.0029209947679191828,0.46089664101600647,0.30169087648391724,-0.1836756318807602,0.6219444274902344
30.25,-1.077906847000122,-0.16374601423740387,0.6404460668563843,0.2127501219511032,-0.22358021140098572,0.8772802352905273
30.3,-0.9117457270622253,-0.2622491121292114,0.37031617760658264,0.12515941262245178,-0.2915689945220947,0.9521803259849548
30.35,-0.6455526351928711,-0.24895966053009033,0.5614234805107117,0.13571327924728394,-0.3381807506084442,0.7594736218452454
30.4,-1.0096803903579712,-0.12239467352628708,0.5208388566970825,0.24490179121494293,-0.3589455485343933,0.5242716073989868
30.45,-0.7748204469680786,-0.19684702157974243,0.030335774645209312,0.29742681980133057,-0.3065960705280304,0.44920262694358826
30.5,-0.8839414715766907,-0.21965031325817108,-0.21784742176532745,0.12383504211902618,-0.3764570653438568,0.504330575466156
30.55,-0.7445755004882812,-0.1482917219400406,0.7992697358131409,-0.11140046268701553,-0.3529168963432312,0.5513654351234436
30.6,-0.6771630048751831,-0.0932399183511734,0.8340701460838318,-0.19885000586509705,-0.4584874212741852,0.5864258408546448
30.65,-0.6258500814437866,-0.0668441653251648,1.2594201564788818,-0.22233827412128448,-0.4472525417804718,0.5633485913276672
30.7,-0.39578112959861755,-0.025150451809167862,1.139557957649231,-0.08590973168611526,-0.4027131199836731,0.3988278806209564
30.75,-0.8371758460998535,-0.08869185298681259,0.8538519740104675,0.017419882118701935,-0.3097841143608093,0.22506365180015564
30.8,-0.8628460168838501,-0.07230675965547562,0.7101733088493347,0.07154075056314468,-0.19919222593307495,0.25756874680519104
30.85,-0.918194591999054,-0.038489460945129395,0.672504186630249,0.19476796686649323,-0.12640748918056488,0.15741221606731415
30.9,-1.7476897239685059,-0.09242365509271622,1.2014020681381226,0.2346658706665039,-0.10199648886919022,0.2363366186618805
30.95,-0.8776614665985107,-0.48551079630851746,-1.1611526012420654,0.29448938369750977,0.09233790636062622,0.4108278155326843
31.0,-0.4921919107437134,-0.8016459345817566,-3.9481680393218994,0.036143817007541656,0.1977062225341797,0.26221394538879395
31.05,-0.9291263818740845,-0.23052023351192474,-0.6667833924293518,-0.8722841143608093,0.20995596051216125,0.43850645422935486
31.1,1.2010716199874878,0.5410867929458618,3.9194817543029785,-1.0926991701126099,0.08352384716272354,0.2745901644229889
31.15,0.6173992156982422,0.2368810772895813,2.0028672218322754,-0.2622048258781433,-0.24228310585021973,-1.0251586437225342
31.2,-1.8452776670455933,-0.5652484893798828,-0.8960989117622375,0.07432591915130615,-0.6491975784301758,-1.7195676565170288
31.25,-1.3463863134384155,-0.20163248479366302,-0.8261873722076416,-0.7037327289581299,-0.46403929591178894,-0.9257113337516785
31.3,-0.24183547496795654,-0.16393598914146423,2.6426022052764893,-1.3740086555480957,-0.21204933524131775,-0.2517753541469574
31.35,-0.4312235414981842,-0.07642297446727753,2.209446668624878,-1.0639357566833496,-0.7374023199081421,-0.6211207509040833
31.4,-1.8710402250289917,0.02959810383617878,0.5511436462402344,-0.6796966791152954,-0.9549107551574707,-0.7436048984527588
31.45,-1.3297864198684692,0.18989454209804535,1.0210789442062378,-0.7073928713798523,-0.42628157138824463,-0.14332467317581177
31.5,0.06518799066543579,0.03621179237961769,1.5653936862945557,-0.34345829486846924,0.019955534487962723,0.11934172362089157
31.55,-0.6712241768836975,-0.10489004850387573,1.1919399499893188,0.20022429525852203,0.21187609434127808,0.014174345880746841
31.6,-0.9435134530067444,-0.1835271120071411,0.5754385590553284,0.5756846070289612,0.5458593368530273,-0.006352551281452179
31.65,-1.558598279953003,-0.14596278965473175,-0.04471205547451973,0.7374223470687866,0.6174670457839966,0.1044183149933815
31.7,-0.6927492618560791,0.09362869709730148,1.4072306156158447,0.5838686227798462,0.8791670799255371,0.4742664098739624
31.75,-0.6751028895378113,0.20032301545143127,0.8118111491203308,0.8817159533500671,0.5567372441291809,0.08312476426362991
31.8,-0.7640461921691895,0.016863763332366943,0.28120169043540955,0.9193591475486755,0.22406984865665436,-0.1560259461402893
31.85,-0.9586254358291626,0.016419289633631706,0.7376088500022888,0.6196774244308472,0.09030938148498535,0.15325511991977692
31.9,-0.506763756275177,-0.22758111357688904,0.3205257058143616,0.4531647861003876,-0.08115959167480469,0.49284255504608154
31.95,0.26739776134490967,-0.26549527049064636,-0.45308932662010193,0.1717664748430252,-0.13652969896793365,0.6586790680885315
32.0,-0.3994530141353607,-0.24501602351665497,-0.9627123475074768,-0.2710486650466919,-0.15595771372318268,0.455301433801651
32.05,0.8357080221176147,-0.1200142353773117,0.530777633190155,-0.8345472812652588,0.04381142929196358,0.3481642007827759
32.1,1.9058589935302734,0.18202181160449982,3.2269539833068848,-0.9368678331375122,0.14308850467205048,-0.3930918276309967
32.15,1.1139843463897705,-0.2017376720905304,2.4179184436798096,-0.13613462448120117,0.19192487001419067,-1.9043786525726318
32.2,-2.2158026695251465,-0.6342201232910156,-1.4562760591506958,0.3990933299064636,0.3832593262195587,-2.6276891231536865
32.25,-4.0174241065979,0.10289662331342697,-0.6207323670387268,0.1161026656627655,1.1168476343154907,-1.8966025114059448
32.3,-3.504021644592285,0.3668259382247925,0.12521640956401825,-0.12951064109802246,1.050615906715393,-0.3680044710636139
32.35,-0.972398042678833,0.1288813203573227,0.9841277599334717,-0.30582955479621887,0.9139739274978638,1.1584217548370361
32.4,0.5593563318252563,-0.012091103009879589,3.7612998485565186,-0.1648992896080017,0.9779850840568542,1.3515950441360474
32.45,-1.106553316116333,0.8551238179206848,6.253884315490723,0.7158887386322021,0.6208789944648743,1.1040862798690796
32.5,-7.731497764587402,-11.09609317779541,13.209867477416992,0.24022802710533142,2.115896224975586,0.050953589379787445
32.55,1.1029534339904785,-4.9281721115112305,7.31168270111084,-3.328662633895874,3.799586296081543,-1.3543052673339844
32.6,7.276057243347168,5.487454414367676,-7.815984725952148,-4.4610090255737305,2.5737898349761963,-2.0175893306732178
32.65,1.7940620183944702,4.127089977264404,-9.257367134094238,-1.6121647357940674,1.3978255987167358,-1.2713755369186401
32.7,-5.174309730529785,0.7865539193153381,-5.270219802856445,-0.14090317487716675,2.3728322982788086,-0.31885209679603577
32.75,-4.532207489013672,-0.7096102237701416,0.17659977078437805,-0.10053083300590515,1.2242594957351685,0.33520427346229553
32.8,0.03355610370635986,-0.27160191535949707,1.9152445793151855,0.05937451869249344,-0.008780866861343384,0.20147593319416046
32.85,0.8413427472114563,0.49342620372772217,1.7730889320373535,0.2732656002044678,0.3111123740673065,-0.423085480928421
32.9,1.596352219581604,-0.6079494953155518,2.048785448074341,0.27291882038116455,0.5985225439071655,-0.4931558072566986
32.95,0.11257052421569824,-0.16199694573879242,0.7441909313201904,0.3559815585613251,0.161736860871315,-0.5388225317001343
33.0,1.217997431755066,-0.7544357776641846,1.2129898071289062,0.30810803174972534,-0.04985107108950615,-0.38246771693229675
33.05,0.8095216751098633,-0.13122087717056274,0.612033486366272,0.1604534238576889,-0.6636447310447693,-0.4527934789657593
33.1,1.1011991500854492,0.028969725593924522,0.7248504757881165,-0.021932870149612427,-1.3858442306518555,-0.7049794793128967
33.15,-4.461567401885986,-0.9461176991462708,0.29170143604278564,0.04411056637763977,-1.2882808446884155,-1.1845120191574097
33.2,0.8585114479064941,-0.8723884224891663,3.604086399078369,-0.38535627722740173,-0.46760958433151245,0.7904500365257263
33.25,-0.33656471967697144,0.3284100890159607,0.7430465221405029,-0.1770687997341156,0.10034661740064621,1.1612403392791748
33.3,-0.20100143551826477,0.009199976921081543,0.9649876356124878,-0.24089694023132324,-0.08357453346252441,0.887092113494873
33.35,1.1268068552017212,0.1346539407968521,1.3781702518463135,-0.38218972086906433,-0.246639221906662,0.6769461631774902
33.4,0.050131991505622864,0.1558370143175125,0.5898585915565491,-0.5737681984901428,-0.07907082885503769,0.21161983907222748
33.45,-0.7352939248085022,-0.12099083513021469,0.35799920558929443,-0.5556484460830688,0.009765642695128918,-0.008115514181554317
33.5,-1.3541021347045898,-0.14759166538715363,0.04083479568362236,-0.26009923219680786,0.03180057927966118,0.04155026003718376
33.55,-0.7741899490356445,-0.25337234139442444,0.762844979763031,-0.01518562063574791,-0.05668707564473152,-0.08558423817157745
33.6,0.3017076253890991,0.1381768435239792,0.8331011533737183,0.10019934177398682,-0.16394637525081635,-0.11966127157211304
33.65,0.26615411043167114,0.22929568588733673,0.7548230886459351,0.0685284286737442,-0.0916815996170044,-0.10353061556816101
33.7,0.9272114038467407,0.4904288947582245,1.0810370445251465,0.16903986036777496,-0.12367629259824753,-0.12478853762149811
33.75,-0.5957635641098022,0.3423575162887573,1.1455256938934326,0.341216504573822,-0.4643718898296356,-0.018521493300795555
33.8,-0.3872371017932892,0.4791392982006073,0.6094616055488586,0.6377615332603455,-0.8279111385345459,0.3224748969078064
33.85,-1.475166916847229,-0.5026714205741882,0.7072659134864807,1.0258766412734985,-1.4647318124771118,0.67402184009552
33.9,-1.5611872673034668,-0.28639909625053406,0.914951741695404,1.1145281791687012,-1.941827654838562,1.0269562005996704
33.95,-0.9464854001998901,0.45354345440864563,1.9322360754013062,1.3640806674957275,-2.341712713241577,1.2157347202301025
34.0,-2.1576077938079834,0.35001838207244873,0.5305305123329163,1.693204402923584,-2.169857978820801,1.2796151638031006
34.05,-2.817223072052002,-0.05342385545372963,-1.2281502485275269,1.684497356414795,-1.0524965524673462,1.6472033262252808
34.1,-3.737891674041748,-0.40294772386550903,0.7828057408332825,1.2776455879211426,-0.18729059398174286,2.2502708435058594
34.15,-3.2361762523651123,-1.6170308589935303,3.348696708679199,1.298353910446167,-0.18693344295024872,3.1991634368896484
34.2,0.4478797912597656,9.708849906921387,8.24258041381836,2.6825766563415527,-1.225490927696228,4.9542951583862305
34.25,-1.3690309524536133,7.193908214569092,2.440478801727295,3.761732578277588,-0.022776950150728226,4.574677467346191
34.3,-2.153430938720703,-3.2925925254821777,3.0884883403778076,0.5394917726516724,2.2307565212249756,1.6012654304504395
34.35,-2.0950427055358887,-11.540728569030762,4.212229251861572,-2.7952775955200195,2.793610095977783,-0.40226125717163086
34.4,-1.5391567945480347,-11.481523513793945,2.3928799629211426,-4.646397113800049,2.376077890396118,-2.1598808765411377
34.45,1.2135411500930786,-6.855706214904785,-1.3584437370300293,-6.362775802612305,1.8402000665664673,-2.9545400142669678
34.5,5.799319744110107,-0.12006644904613495,-8.059732437133789,-6.963456153869629,4.438161849975586,1.0649797916412354
34.55,4.1579976081848145,3.3945748805999756,-17.857160568237305,-3.748649835586548,8.498067855834961,2.897148370742798
34.6,-32.17333984375,17.763465881347656,2.8950445652008057,-0.8614711761474609,8.387728691101074,0.8426918387413025
34.65,-10.167552947998047,7.197475433349609,11.808313369750977,-3.687995672225952,1.3914762735366821,-0.9419957399368286
34.7,0.5906630754470825,0.5626082420349121,4.793608665466309,-1.7039016485214233,-0.30673646926879883,-0.30437755584716797
34.75,0.06273147463798523,0.42335405945777893,1.2362949848175049,0.00035850441781803966,0.12670478224754333,-0.0037548313848674297
34.8,0.021115779876708984,0.342864990234375,0.34081581234931946,0.285754531621933,0.15654733777046204,0.1385757327079773
34.85,-0.14480076730251312,0.2907705008983612,0.4994406998157501,0.4290231168270111,0.30255740880966187,0.1430579274892807
34.9,-1.5746464729309082,-0.2851583659648895,1.0876450538635254,0.7279813289642334,0.9731529951095581,0.14333468675613403
34.95,-0.9467504024505615,0.3371543288230896,0.4339849054813385,0.7197481989860535,2.8664724826812744,0.17775796353816986
35.0,0.060461997985839844,0.3908939063549042,0.8752301931381226,0.30330872535705566,4.361995697021484,0.009170666337013245
35.05,0.993082582950592,0.5767881870269775,-1.2615002393722534,0.09071511030197144,3.556584596633911,-0.009672385640442371
35.1,-0.0330718457698822,0.27589526772499084,-0.9392059445381165,-0.41109499335289,1.2596570253372192,0.10998831689357758
35.15,0.29863664507865906,0.17367827892303467,1.1889985799789429,-0.9976266026496887,0.18811921775341034,0.31437623500823975
35.2,-0.07629364728927612,0.07289112359285355,0.9810904860496521,-0.7650089263916016,-0.04880029335618019,0.23550288379192352
35.25,-0.15241681039333344,-0.09363086521625519,0.5172265768051147,-0.29674971103668213,0.010533777065575123,0.2511190176010132
35.3,0.02568782866001129,-0.13356783986091614,0.1352517455816269,-0.006736241281032562,0.1598619520664215,0.38054317235946655
35.35,-0.19309118390083313,0.1002320796251297,0.42564669251441956,-0.20505976676940918,0.11880715936422348,0.19299060106277466
35.4,-0.38440370559692383,0.5397423505783081,1.3570517301559448,-0.32909563183784485,0.08695320039987564,-0.012572010047733784
35.45,1.2100160121917725,0.24432440102100372,3.0606603622436523,-0.2065659761428833,0.620721161365509,-0.06163587421178818
35.5,1.6753382682800293,2.759364604949951,-0.9126285314559937,-0.5708519816398621,1.788891315460205,-0.8530285358428955
35.55,4.103238105773926,6.51023530960083,-3.245549440383911,-0.44193655252456665,0.976415753364563,-3.394179344177246
35.6,-6.788456439971924,-0.41098615527153015,-0.8948106169700623,-0.9630089998245239,3.4402904510498047,-4.8748674392700195
35.65,-2.736875057220459,-6.4600138664245605,-4.529170989990234,-2.108224868774414,2.984368085861206,-3.6221132278442383
35.7,3.860898494720459,-6.415249347686768,-4.496917247772217,-1.2968454360961914,1.1552983522415161,-1.7594376802444458
35.75,10.397436141967773,1.136900782585144,-10.788799285888672,-0.06833338737487793,0.10219600051641464,0.5110157132148743
35.8,7.66506290435791,-0.704254150390625,-6.323864459991455,4.683045387268066,0.2801533639431,2.9516441822052
35.85,-14.088085174560547,8.81281852722168,28.80681037902832,4.846220016479492,1.2025251388549805,2.8553173542022705
35.9,-30.190940856933594,-0.9499445557594299,22.239885330200195,-0.553617000579834,-3.010016441345215,3.0915632247924805
35.95,-10.117700576782227,17.486238479614258,0.009981159120798111,-3.704439163208008,-2.009705066680908,-2.553175449371338
36.0,17.56736946105957,2.830872058868408,-20.79480743408203,-2.967918872833252,-1.8564374446868896,-3.0290045738220215
36.05,17.99795913696289,-9.381501197814941,-26.35945701599121,1.609043836593628,0.7449389100074768,0.4918431043624878
36.1,10.869698524475098,-3.098806619644165,-15.759689331054688,2.6851139068603516,1.0860612392425537,3.1678647994995117
36.15,4.718620777130127,1.3649187088012695,2.210630416870117,0.5566491484642029,-1.2164947986602783,3.3144371509552
36.2,-0.6619863510131836,1.5707019567489624,-1.1640328168869019,0.6459434032440186,-0.6286296844482422,1.558951735496521
36.25,-0.8067967891693115,0.30242446064949036,-0.1465594321489334,-0.513093113899231,-0.05624896660447121,1.320736050605774
36.3,-0.004852592945098877,-0.17081961035728455,2.6662044525146484,-0.8666854500770569,-0.1727125346660614,1.3259199857711792
36.35,-0.1333022564649582,0.510495126247406,1.2247204780578613,0.29069018363952637,-0.27679070830345154,0.4396267533302307
36.4,-1.9851021766662598,1.7365648746490479,-0.23528644442558289,0.43406355381011963,-0.241927832365036,-0.6849492788314819
36.45,-2.4284536838531494,0.19078341126441956,0.2725989520549774,0.13207784295082092,-0.5261209607124329,-1.370671272277832
36.5,-1.660024881362915,-0.6897221207618713,-0.38241636753082275,0.7647724151611328,-0.2751365602016449,-0.7302916049957275
36.55,-0.2843623459339142,0.07342629879713058,-0.4517750144004822,0.433258980512619,0.030945636332035065,-0.009062509983778
36.6,0.42262768745422363,0.686012327671051,0.36805620789527893,0.005424933508038521,0.17684493958950043,0.09036646038293839
36.65,2.128516912460327,2.4186394214630127,0.3900296688079834,0.45378875732421875,0.583243191242218,-0.6035923957824707
36.7,0.35427770018577576,1.971259593963623,-2.2706754207611084,0.7837018370628357,2.289355754852295,-2.746245861053467
36.75,-3.563377857208252,2.665083885192871,8.35429573059082,-2.0853042602539062,3.924196481704712,-3.577247142791748
36.8,7.988838195800781,-14.764056205749512,-14.419686317443848,-4.968437671661377,1.7217544317245483,-0.9838724136352539
36.85,-4.358760356903076,-0.4357326030731201,-4.075141906738281,-1.4761401414871216,1.9857189655303955,-0.9344668388366699
36.9,-11.816607475280762,4.571430683135986,13.797266960144043,2.2057933807373047,1.3350625038146973,-0.41589677333831787
36.95,-17.840320587158203,0.7497235536575317,17.957481384277344,2.3323090076446533,-1.640293002128601,1.8910651206970215
37.0,-7.220963478088379,0.5664268136024475,1.7391259670257568,-1.017775535583496,-2.10786771774292,0.054044224321842194
37.05,5.747812271118164,-2.02641224861145,-6.349223613739014,-1.3817625045776367,-1.9568750858306885,-2.552973747253418
37.1,8.965375900268555,-3.8138742446899414,-9.063179969787598,-0.19764170050621033,-1.290434718132019,-1.5661506652832031
37.15,6.469876289367676,-7.37742280960083,-8.17987060546875,1.4910485744476318,0.005970329511910677,0.749043345451355
37.2,6.680880069732666,-12.342456817626953,-11.760610580444336,2.3858327865600586,-0.22275541722774506,2.4008007049560547
37.25,3.0583038330078125,-2.9289581775665283,-4.010383129119873,1.7269631624221802,-0.7468006014823914,2.6681642532348633
37.3,-0.6900061964988708,-0.567351222038269,-1.6261217594146729,0.8052787780761719,-0.060636792331933975,2.472142219543457
37.35,-1.334099292755127,-0.2783602178096771,6.080841064453125,-1.7985799312591553,-0.7658957242965698,3.572019338607788
37.4,-0.12937891483306885,0.7985998392105103,3.9459340572357178,-1.5712664127349854,-0.730318546295166,2.1467225551605225
37.45,-0.5544552803039551,0.5128965377807617,0.5040485262870789,0.22525519132614136,-0.2627909779548645,-0.22744688391685486
37.5,0.15890371799468994,0.6715524196624756,2.621987819671631,0.9535491466522217,-0.4345688223838806,-0.5461499094963074
37.55,-1.4792312383651733,0.027025287970900536,-1.015213131904602,1.5005615949630737,-0.8474304676055908,-0.2912423312664032
37.6,-0.29560965299606323,-0.06955904513597488,-0.6101943254470825,0.7077827453613281,-0.7803067564964294,0.1782047003507614
37.65,-0.9823539853096008,0.22886569797992706,-0.6547296047210693,0.20156453549861908,-0.6055490374565125,0.21527640521526337
37.7,-1.8208142518997192,0.8995818495750427,1.0569778680801392,-0.07792888581752777,-0.04305246099829674,0.18187658488750458
37.75,-1.3056917190551758,0.6379785537719727,0.1837567538022995,-0.0028221495449543,0.16815067827701569,0.20053675770759583
37.8,-1.3498915433883667,-0.06958664953708649,-1.3780871629714966,0.011382825672626495,0.37726467847824097,0.3166237473487854
37.85,-1.3517729043960571,-0.06810278445482254,-0.9680907726287842,-0.5692524909973145,0.6432690620422363,0.4241388142108917
37.9,0.04261887073516846,-0.22760413587093353,1.6212393045425415,-1.0889339447021484,0.8346294164657593,0.47827744483947754
37.95,0.24167034029960632,-0.5269586443901062,0.8453578948974609,-1.2537903785705566,0.6839272379875183,0.3939233720302582
38.0,-0.752798318862915,0.9166496992111206,1.7621126174926758,-1.1778169870376587,0.33391571044921875,0.486601322889328
38.05,-0.9122298955917358,0.7166976928710938,0.12597256898880005,-0.4977928400039673,0.1957811564207077,0.2514863610267639
38.1,0.6473665237426758,0.37398776412010193,3.901071786880493,0.6851427555084229,0.26465773582458496,-0.6292049288749695
38.15,0.5101739764213562,-0.6326907277107239,2.0544652938842773,0.3054182827472687,2.20784854888916,-1.1560109853744507
38.2,-1.1187409162521362,-1.2070081233978271,-3.40696120262146,-0.10855065286159515,2.6134088039398193,-0.6564458608627319
38.25,0.469471275806427,0.12304811179637909,-2.14605975151062,0.0004009529948234558,0.698820948600769,0.3920479714870453
38.3,-0.3795509934425354,0.39461714029312134,-0.17767727375030518,-0.41911736130714417,-0.07936866581439972,0.668856680393219
38.35,0.15479101240634918,0.4824218451976776,0.70223468542099,-0.30758148431777954,-0.042641445994377136,0.23720616102218628
38.4,0.011327356100082397,0.13557717204093933,0.422342985868454,-0.0384359210729599,-0.026364821940660477,-0.2320350706577301
38.45,-0.23609229922294617,0.19223111867904663,0.6976786255836487,0.11066844314336777,0.07320518046617508,-0.2029755562543869
38.5,-0.19354383647441864,0.2732066810131073,0.34545594453811646,0.31223568320274353,0.2424188256263733,0.06706864386796951
38.55,-0.9629266858100891,1.0337764024734497,-0.09380776435136795,0.3903334438800812,0.07171575725078583,-0.19414643943309784
38.6,-7.333064079284668,5.333756446838379,1.9439873695373535,-0.7646611928939819,-0.30192655324935913,-1.8767527341842651
38.65,-27.204086303710938,3.5254878997802734,3.7288436889648438,-1.7972825765609741,-0.7148347496986389,-2.7225074768066406
38.7,-1.8977104425430298,-15.20402717590332,-7.087283134460449,-0.27343881130218506,-1.7752842903137207,-3.427652359008789
38.75,-11.555055618286133,22.86319923400879,25.505983352661133,0.8957868814468384,-1.4205477237701416,-1.0089789628982544
38.8,-1.8698756694793701,4.849920272827148,2.913217544555664,0.5785866975784302,-0.03474458307027817,3.9117302894592285
38.85,6.460000038146973,0.449124276638031,3.1035749912261963,-0.8761107921600342,-0.19608427584171295,3.689518690109253
38.9,1.547597050666809,0.9843854308128357,2.1880228519439697,-0.44408297538757324,-0.16487757861614227,1.1055254936218262
38.95,-0.230736643075943,0.3897409737110138,0.30445295572280884,-0.12413673102855682,-0.002089856658130884,0.3289027214050293
39.0,0.3445333242416382,0.37150853872299194,0.8469116687774658,-0.19255603849887848,0.06314995139837265,0.2691768407821655
39.05,-0.43263736367225647,0.24736018478870392,0.43938755989074707,0.24855972826480865,0.0031713955104351044,-0.07422967255115509
39.1,-0.5921253561973572,0.10666666179895401,-0.8871760368347168,0.5990806818008423,0.016201836988329887,-0.15536439418792725
39.15,-0.8593535423278809,0.22408103942871094,-0.04328938201069832,0.3832286596298218,-0.06009775772690773,-0.15935760736465454
39.2,-1.8446807861328125,0.5219663381576538,-3.391526699066162,0.31610068678855896,-0.13304729759693146,-0.4224399924278259
39.25,-5.115849494934082,-0.1497897356748581,-2.462315559387207,-0.24356147646903992,-1.3376470804214478,-0.37642669677734375
39.3,-0.6244544386863708,0.31225091218948364,1.6302931308746338,-0.44639861583709717,-2.488863945007324,0.5909545421600342
39.35,-0.27857065200805664,0.8746850490570068,2.9973044395446777,-0.818118691444397,-0.9728876948356628,0.9023666381835938
39.4,0.40715837478637695,0.8542354106903076,3.1464271545410156,-0.09755939245223999,0.08332924544811249,0.38056376576423645
39.45,0.42373818159103394,0.38296014070510864,2.2201743125915527,0.58156418800354,0.07529699057340622,-0.19815154373645782
39.5,-0.6021047234535217,0.21673473715782166,1.337638020515442,1.0645899772644043,-0.04564832150936127,-0.5696907043457031
39.55,-1.6387156248092651,0.11495306342840195,-0.6111303567886353,0.9822050333023071,-0.1000085175037384,-0.5561004877090454
39.6,-1.5788403749465942,-0.022421739995479584,-1.3643262386322021,0.41899624466896057,-0.008054379373788834,-0.22282253205776215
39.65,-0.08254009485244751,0.0412302240729332,-0.18522387742996216,-0.4107818603515625,0.08860376477241516,0.3190445303916931
39.7,0.6014785766601562,0.5286920666694641,2.211107015609741,-0.36324962973594666,-0.10292840749025345,0.08408753573894501
39.75,0.04681861400604248,0.7618817687034607,1.4249204397201538,0.6063999533653259,-0.30346858501434326,-0.5408346056938171
39.8,0.0959557294845581,0.08726565539836884,2.750267505645752,1.267428994178772,-0.4496115744113922,-0.5282471776008606
39.85,0.19180381298065186,-0.5638337731361389,4.1605963706970215,1.003483533859253,-1.3210560083389282,0.05577346682548523
39.9,-1.234141230583191,-0.8143448829650879,-5.382203578948975,0.16109631955623627,-2.7686166763305664,0.39470064640045166
39.95,-0.7718389630317688,-0.8602731227874756,-3.5400750637054443,0.3030988872051239,-0.8875830173492432,0.1992766410112381
40.0,-1.0255699157714844,-0.2146739363670349,-1.0718433856964111,0.09321971237659454,0.058916959911584854,0.17955386638641357
40.05,-0.017387837171554565,-0.7285031080245972,-1.4778339862823486,-0.2771223783493042,0.13558191061019897,0.19140464067459106
40.1,-1.0146472454071045,0.5177669525146484,0.36794576048851013,-0.6186603307723999,0.14043991267681122,0.25933074951171875
40.15,-0.19625696539878845,-0.13569167256355286,0.07074898481369019,-0.6420274972915649,0.14942990243434906,0.3735915422439575
40.2,-0.8238627910614014,0.2731027603149414,-0.05254336819052696,-0.5219722986221313,0.1254597157239914,0.291131854057312
40.25,-0.9482713341712952,0.30056092143058777,0.29723089933395386,-0.3127644956111908,0.14498092234134674,0.1895281970500946
40.3,-0.42321157455444336,0.22965802252292633,1.0492953062057495,-0.09151098132133484,0.10645551979541779,0.08025164902210236
40.35,-0.17528635263442993,0.15133853256702423,0.514505922794342,0.2700861692428589,0.044857874512672424,-0.07053285092115402
40.4,-0.8872963190078735,0.26915067434310913,0.4459393322467804,0.4315072000026703,0.04722818732261658,-0.18426097929477692
40.45,-0.8317123651504517,0.26964372396469116,0.500603973865509,0.3323609232902527,0.016511715948581696,-0.19028805196285248
40.5,-0.4472925662994385,0.13531586527824402,0.25842487812042236,0.24272438883781433,-0.021389750763773918,-0.2018113136291504
40.55,-0.7954634428024292,0.2871084213256836,-0.031427349895238876,0.32818540930747986,-0.037554871290922165,-0.2665354013442993
40.6,-0.8187339305877686,0.07596498727798462,-0.7434580326080322,0.2018720954656601,0.06264430284500122,-0.21545566618442535
40.65,-0.609505295753479,0.11264317482709885,0.491878867149353,-0.47218960523605347,0.34110352396965027,-0.058357466012239456
40.7,-0.8927843570709229,-0.00782591663300991,0.2573156952857971,-0.5103198289871216,0.14146603643894196,0.0799306184053421
40.75,-0.4737432599067688,0.3250874876976013,0.5174489617347717,-0.4035080075263977,-0.11487570405006409,0.24555723369121552
40.8,-1.6271517276763916,0.4659792482852936,2.8592357635498047,-0.8291527628898621,-0.19354936480522156,-0.07822097092866898
40.85,-1.7368172407150269,-0.6977759599685669,0.04862532392144203,-0.261421799659729,-0.21137958765029907,-0.3759101927280426
40.9,-1.2034205198287964,0.13557343184947968,-0.6859341263771057,0.14260539412498474,-0.2292032688856125,-0.22542399168014526
40.95,-1.3466026782989502,-0.12440406531095505,0.36960524320602417,0.03860120102763176,-0.14434745907783508,-0.051427509635686874
41.0,-0.5426396727561951,0.07381728291511536,-0.3818449378013611,0.19861766695976257,0.011929275467991829,0.26010221242904663
41.05,-0.13056832551956177,-0.3227597773075104,0.9266653656959534,0.06836561113595963,0.3130719065666199,0.31737884879112244
41.1,-2.069878339767456,0.3407803177833557,-0.8178680539131165,0.20669066905975342,0.21990247070789337,0.08148707449436188
41.15,-0.3715534806251526,-0.5520421862602234,0.895592451095581,0.04670339822769165,0.21704083681106567,0.09595347195863724
41.2,-0.4320301115512848,-0.4928293824195862,-0.17388278245925903,0.41585808992385864,0.0731722041964531,0.04059342294931412
41.25,-0.19086220860481262,0.08645251393318176,-0.23470602929592133,0.5704996585845947,-0.03524104878306389,0.007290105801075697
41.3,-0.24240067601203918,0.004618634935468435,0.00710623012855649,0.48513761162757874,0.2671520709991455,-0.08546939492225647
41.35,-0.7039811611175537,0.21685700118541718,-0.3260557949542999,0.6579499244689941,0.16485828161239624,-0.16380301117897034
41.4,-0.5395200848579407,0.23780536651611328,0.06304942071437836,0.2500019669532776,0.08893358707427979,-0.11540976166725159
41.45,-0.3845451772212982,0.19642826914787292,0.3535066246986389,0.08231449127197266,-0.021754717454314232,-0.19064626097679138
41.5,-1.045074701309204,-0.08234500885009766,-0.40450841188430786,0.18347272276878357,0.0352453850209713,-0.133538156747818
41.55,-0.5662088990211487,-0.034679338335990906,-0.8632702231407166,-0.18263289332389832,0.030692309141159058,0.22865737974643707
41.6,-0.858202338218689,0.2385120987892151,-0.5230967998504639,-0.8016192317008972,-0.02188069000840187,0.25727832317352295
41.65,-0.6578617095947266,0.5873470902442932,-0.28693678975105286,-1.181419849395752,0.015140366740524769,0.2893827259540558
41.7,-0.7726228833198547,0.4264955520629883,0.1675606071949005,-1.1824092864990234,0.03627685084939003,0.3799542188644409
41.75,-1.5226571559906006,0.669577956199646,-3.216496467590332,-1.4557807445526123,-0.02988801710307598,0.3739868104457855
41.8,-0.8813531398773193,6.836045265197754,7.9007391929626465,-3.3945400714874268,-0.2328740656375885,-0.05855253338813782
41.85,3.031726837158203,3.0848042964935303,-8.299482345581055,-2.8856332302093506,-1.5672065019607544,-1.5489957332611084
41.9,8.474888801574707,-1.1153477430343628,-7.480568885803223,-1.043339729309082,1.131447434425354,-2.658900737762451
41.95,11.971445083618164,1.065169095993042,-9.367362022399902,3.760680675506592,3.2942395210266113,-1.7497923374176025
42.0,7.27922248840332,-2.7715742588043213,-2.4994373321533203,4.479978561401367,2.8629531860351562,-1.6358723640441895
42.05,-10.130544662475586,3.075289011001587,15.13545036315918,0.36068910360336304,4.955055236816406,-3.1893348693847656
42.1,-17.399614334106445,-6.909724235534668,19.31311798095703,-1.8974941968917847,5.171864986419678,-1.350780725479126
42.15,-8.964903831481934,-5.140231609344482,0.7873662114143372,-2.485241174697876,4.130956649780273,-0.12605509161949158
42.2,-4.251821994781494,-5.048849582672119,-3.347076654434204,-0.3713795244693756,2.443922281265259,0.6707667112350464
42.25,0.18155109882354736,-3.098411798477173,1.205362319946289,0.7069757580757141,1.0269635915756226,0.07691038399934769
42.3,-4.55073356628418,0.13613519072532654,-2.1977615356445312,1.3480077981948853,-0.3478711247444153,-0.6299912333488464
42.35,0.13875031471252441,0.1090288758277893,-0.31867364048957825,1.051039218902588,0.2331981658935547,-0.34011027216911316
42.4,-3.168201208114624,-0.14627748727798462,-0.6885039806365967,0.8373494148254395,0.6340010166168213,-0.5730305910110474
42.45,-1.3002961874008179,-0.942979097366333,0.8474793434143066,1.0199575424194336,0.5048847794532776,-0.36948317289352417
42.5,0.5071032643318176,-0.3899088501930237,0.2146095335483551,1.4212348461151123,-0.11748968064785004,0.08342953026294708
42.55,0.6803919076919556,-0.38432398438453674,-0.9635756611824036,1.689396858215332,-0.5306586623191833,-0.0060662683099508286
42.6,-1.5081144571304321,0.15279874205589294,-1.1549224853515625,1.4089937210083008,-0.6806141138076782,-0.05199690908193588
42.65,-2.8239691257476807,-0.01401523221284151,-0.646436333656311,1.2389259338378906,-0.4707280695438385,0.49869632720947266
42.7,-1.0515656471252441,-0.5327462553977966,-1.3044884204864502,0.9877104759216309,-0.721557080745697,1.1352487802505493
42.75,-2.1127188205718994,-0.8476858735084534,-1.2453802824020386,0.2454797923564911,-0.4413350224494934,0.963888943195343
42.8,0.4922289252281189,0.7337380051612854,0.2052275687456131,-0.47405627369880676,-0.2759789228439331,1.6256567239761353
42.85,1.0811960697174072,6.43468713760376,-3.4599084854125977,-1.827101469039917,0.21433770656585693,1.6677607297897339
42.9,0.1880786418914795,0.24361981451511383,-6.901086330413818,-4.923919200897217,1.1374534368515015,0.18340934813022614
42.95,-3.997204542160034,-7.796850681304932,-5.1631879806518555,-6.471617221832275,1.742933750152588,0.47933754324913025
43.0,-7.816712856292725,-3.9626119136810303,-0.10448075085878372,-4.2473859786987305,0.7696943879127502,0.4907773435115814
43.05,10.970880508422852,6.161789417266846,15.913285255432129,-0.17680507898330688,-0.5248369574546814,-0.512498140335083
43.1,7.366080284118652,1.3714052438735962,6.416229724884033,0.4464048743247986,-0.37139105796813965,-0.5832360982894897
43.15,1.3200119733810425,-2.089599847793579,3.6281542778015137,0.7532760500907898,-0.06063554435968399,-2.0350239276885986
43.2,-3.90032958984375,-0.7917513847351074,1.6153852939605713,1.315068244934082,0.0669868141412735,-2.6755268573760986
43.25,-10.76223087310791,1.600432276725769,-0.8017938733100891,2.226442813873291,0.10105686634778976,-2.1167659759521484
43.3,-7.87608003616333,0.39150509238243103,-0.7416835427284241,2.3956406116485596,0.33324745297431946,-0.7691763639450073
43.35,-1.5375014543533325,-0.08747945725917816,-1.7015938758850098,2.4305789470672607,-0.17880164086818695,0.405346542596817
43.4,-0.510243833065033,-0.17534534633159637,-0.8816725015640259,1.9716130495071411,-0.4646202325820923,0.7263132333755493
43.45,-1.3558716773986816,-0.08835505694150925,-0.5734476447105408,1.7155747413635254,-0.08069147914648056,0.5736081600189209
43.5,-2.4245316982269287,0.4624919891357422,-0.1803748607635498,1.7130197286605835,-0.08742237836122513,0.5941110253334045
43.55,0.33109235763549805,0.7169467806816101,-0.8009279370307922,1.0532065629959106,-0.12066717445850372,0.8523688316345215
43.6,-0.10059487074613571,0.5585508346557617,0.6380046010017395,0.40956735610961914,-0.12196967750787735,-0.194369837641716
43.65,-1.5500472784042358,-2.0201268196105957,-1.786588191986084,0.1772180050611496,0.125702902674675,-0.4294935166835785
43.7,-3.8463735580444336,1.0302324295043945,-0.5714339017868042,-0.6655058860778809,-0.28678616881370544,0.7251901030540466
43.75,-3.9809892177581787,2.4279632568359375,0.3807750344276428,-1.4159976243972778,-0.8677477240562439,2.155837297439575
43.8,-3.0348520278930664,-2.2143356800079346,-1.5908188819885254,-1.12664794921875,-0.015948086977005005,1.3944642543792725
43.85,1.590667963027954,-3.8528478145599365,6.4374918937683105,-1.8685396909713745,6.32596492767334,-1.4969666004180908
43.9,23.174907684326172,9.432415962219238,-4.477405071258545,-3.9839682579040527,8.981026649475098,-1.697618842124939
43.95,1.9221689701080322,2.6092426776885986,0.1258997619152069,0.09891514480113983,5.997910976409912,-0.42331233620643616
44.0,-4.287328720092773,0.6865653395652771,7.601609706878662,3.277617931365967,2.3199191093444824,-1.3812243938446045
44.05,-3.8944191932678223,-0.8764176964759827,-6.103202819824219,3.529367685317993,0.5691505670547485,-0.3566409945487976
44.1,-0.47881537675857544,0.1900503933429718,-2.183023452758789,0.819753110408783,0.11283841729164124,-0.3821871280670166
44.15,-0.8558508157730103,0.18894948065280914,0.9159896969795227,-0.334047794342041,0.027755461633205414,-0.5196516513824463
44.2,-1.0362768173217773,-0.7106791734695435,0.26312804222106934,-0.6125933527946472,0.1807277649641037,-0.03068269044160843
44.25,-0.5293660163879395,0.5701885223388672,0.40765082836151123,-1.0006107091903687,0.19588498771190643,0.5301321744918823
44.3,-0.7034128308296204,0.5037344694137573,1.302584171295166,-0.678152859210968,0.7936618328094482,-0.02091412991285324
44.35,1.6294305324554443,0.322405606508255,2.6346797943115234,-0.2842220067977905,2.8460848331451416,0.03655832260847092
44.4,-2.5532612800598145,0.24209243059158325,-3.1131038665771484,-0.3183261752128601,5.434643268585205,0.20201945304870605
44.45,-4.158553600311279,-0.2842456102371216,-0.5126668214797974,0.029015902429819107,3.424239158630371,-0.07453849166631699
44.5,-3.3094229698181152,-0.43656057119369507,-2.094058036804199,0.5138933658599854,3.8365283012390137,-0.28864988684654236
44.55,2.21915864944458,0.23213090002536774,1.85139000415802,-0.1511387676000595,4.064773082733154,0.34673479199409485
44.6,1.6868062019348145,0.5129819512367249,4.864332675933838,-0.6243720650672913,1.818616271018982,0.41612154245376587
44.65,-1.8468595743179321,0.0002573136880528182,0.9198989868164062,-0.31192395091056824,0.16523538529872894,-0.12780924141407013
44.7,-0.9394614100456238,0.07026001065969467,0.053971923887729645,-0.06897382438182831,-0.09742090851068497,0.03726070374250412
44.75,-0.47764769196510315,-0.4324600398540497,1.1099506616592407,-0.045865293592214584,-0.1299852877855301,0.14716853201389313
44.8,-0.448053777217865,-0.4701586961746216,0.3215988874435425,-0.058809828013181686,-0.08324801921844482,0.2356254905462265
44.85,-0.5310862064361572,-0.21371950209140778,0.7112564444541931,-0.04782995209097862,-0.006319270934909582,0.08463489264249802
44.9,-0.6902618408203125,0.09976383298635483,0.24640892446041107,-0.021883517503738403,0.05366523936390877,-0.12200801074504852
44.95,-1.0188031196594238,-0.4396926462650299,0.32415536046028137,-0.07679587602615356,-0.07555505633354187,0.039205197244882584
45.0,-0.24788391590118408,0.07884109020233154,1.000207543373108,-0.17706143856048584,-0.13782386481761932,0.18025027215480804
45.05,-0.6450426578521729,-0.13035497069358826,0.46352866291999817,-0.022326039150357246,-0.07110226154327393,-0.05497853085398674
45.1,-0.9030629396438599,0.10798640549182892,0.21948426961898804,0.010324619710445404,-0.006434009876102209,-0.18391166627407074
45.15,-1.182714819908142,0.09294123202562332,0.11686576902866364,-0.014080841094255447,0.012237674556672573,-0.11216021329164505
45.2,-0.9064304232597351,0.14006803929805756,-0.0844716727733612,-0.07725744694471359,-0.001978333340957761,-0.0011117944959551096
45.25,-0.5847645401954651,0.10742467641830444,0.4517306685447693,-0.13667309284210205,-0.018044929951429367,0.06485339999198914
45.3,-0.5062931180000305,0.07049647718667984,0.5679413080215454,-0.043409645557403564,0.02004179172217846,0.045778561383485794
45.35,-0.5807578563690186,0.1830586940050125,0.31946858763694763,0.024629389867186546,0.05557892099022865,-0.050881534814834595
45.4,-0.8691047430038452,-0.0025282204151153564,-0.03209449350833893,-0.010278286412358284,0.06568299233913422,-0.08122067153453827
45.45,-0.8964438438415527,-0.10676108300685883,0.45210373401641846,-0.2353389412164688,0.016124220564961433,-0.020479166880249977
45.5,-1.0402253866195679,0.10227487981319427,-0.11650845408439636,-0.22715377807617188,0.025264624506235123,-0.01728411391377449
45.55,-1.1666159629821777,0.02764791063964367,0.17305245995521545,-0.25453007221221924,-0.0038959921803325415,0.24515722692012787
45.6,0.17659446597099304,0.04350557550787926,0.8935573101043701,-0.26164883375167847,-0.0880732461810112,0.5703731775283813
45.65,-0.10222586244344711,0.1350984126329422,0.4258022606372833,-0.0837070569396019,-0.013066112995147705,0.15073901414871216
45.7,-0.9187719821929932,0.33497902750968933,0.08207105100154877,0.04953150078654289,0.03427518531680107,0.02167348936200142
45.75,-0.6233072876930237,0.3837624788284302,-0.7185752987861633,0.02493082359433174,0.03000395931303501,0.17855805158615112
45.8,-0.5567017197608948,-0.07930479943752289,0.6476373672485352,-0.10483648627996445,-0.03413723409175873,0.3237431049346924
45.85,0.1888183355331421,0.1105412170290947,1.3045769929885864,-0.017378181219100952,-0.10965198278427124,0.24994438886642456
45.9,4.926718711853027,0.6923550367355347,3.2725090980529785,0.04223461449146271,-0.014308171346783638,0.1357632428407669
45.95,11.669893264770508,-0.2969103157520294,3.7992982864379883,0.49639037251472473,2.1583902835845947,-1.0685299634933472
46.0,-7.280777931213379,-1.635992169380188,-3.88051438331604,0.32445231080055237,6.379467010498047,-0.3019571900367737
46.05,-7.369444370269775,1.601710319519043,-0.6757063269615173,0.3813038468360901,1.849518060684204,-1.0171234607696533
46.1,0.5207468271255493,0.7556648850440979,0.4588482677936554,0.07177024334669113,0.0863080769777298,-0.2276088297367096
46.15,-0.631791353225708,0.31263065338134766,0.060479290783405304,-0.023549167439341545,0.009759766981005669,0.0793997049331665
46.2,0.10321259498596191,0.2657336890697479,0.6067918539047241,0.0427791066467762,-0.10269060730934143,0.20536556839942932
46.25,-2.3562581539154053,0.183012917637825,-0.3250140845775604,-0.01365823857486248,-0.05759415030479431,0.05815910920500755
46.3,0.08203163743019104,-0.2095690667629242,0.501706600189209,-0.11998631060123444,-0.08774023503065109,0.8253712058067322
46.35,1.0076005458831787,0.16998380422592163,0.9599823951721191,-0.19089019298553467,-0.10168573260307312,0.5723258852958679
46.4,-0.5523390769958496,0.33008480072021484,-0.050486620515584946,0.07143644243478775,-0.07347197830677032,-0.31834009289741516
46.45,-0.8009462356567383,0.0925760567188263,-0.4562300443649292,0.1952330619096756,-0.12167682498693466,-0.6315934062004089
46.5,-0.3799436688423157,0.23984429240226746,0.37251728773117065,0.011622518301010132,-0.03512050211429596,-0.6688688397407532
46.55,-1.4750840663909912,0.32834142446517944,0.1673673540353775,0.1105252280831337,0.14883455634117126,-0.7090782523155212
46.6,-1.0938923358917236,-0.3066263198852539,-0.49244895577430725,0.14618632197380066,0.13255575299263,-0.5233914256095886
46.65,-1.2186224460601807,0.35002419352531433,0.01892535202205181,-0.49837344884872437,-0.1002824530005455,0.14238771796226501
46.7,0.2159113734960556,0.5744486451148987,-0.1757361888885498,-0.41774868965148926,0.004954672884196043,0.5739730000495911
46.75,0.9242421984672546,0.16317836940288544,1.0264980792999268,-0.009450234472751617,0.1601848602294922,0.3137366771697998
46.8,0.02402597665786743,0.20656707882881165,-2.0274434089660645,0.09867659211158752,1.492382287979126,-0.647280216217041
46.85,-5.714864730834961,-2.008368968963623,0.8345779180526733,0.04877248406410217,2.4310519695281982,0.022643746808171272
46.9,-3.2730302810668945,-0.042931754142045975,0.5909236669540405,0.2060302346944809,0.1372552365064621,-0.10727525502443314
46.95,0.07234984636306763,0.42391881346702576,-0.23587127029895782,0.15806089341640472,-0.3169330656528473,0.44950783252716064
47.0,0.1124463826417923,0.24625593423843384,-0.20286798477172852,0.20280802249908447,-0.18241754174232483,0.9503954648971558
47.05,-0.27467411756515503,0.1384439915418625,-0.3737853169441223,0.0035192370414733887,-0.026216566562652588,0.9898019433021545
47.1,-0.9728092551231384,0.21224400401115417,0.1329164206981659,-0.27246537804603577,0.1926792412996292,0.02939836122095585
47.15,-0.6588423252105713,0.555931031703949,0.8810258507728577,-0.3683568835258484,0.1504189819097519,-0.2842661142349243
47.2,6.100227355957031,0.18537487089633942,5.105031967163086,0.3124770522117615,-0.17335453629493713,-0.4500543177127838
47.25,13.632372856140137,2.945739507675171,-6.819633960723877,2.0502636432647705,-2.1304714679718018,-0.4217313230037689
47.3,3.876249313354492,-4.008686065673828,-9.47406005859375,2.860807180404663,-1.5140069723129272,1.5593154430389404
47.35,-27.125089645385742,-7.9488654136657715,25.930133819580078,-0.21487553417682648,-1.0911184549331665,1.3251663446426392
47.4,-0.9247876405715942,6.645095348358154,4.3427934646606445,-3.3663573265075684,-1.0096495151519775,-1.8757784366607666
47.45,-4.091977596282959,0.9943809509277344,-0.5689845085144043,-0.9785518050193787,0.01956990361213684,-1.5864249467849731
47.5,-0.0985339879989624,0.2616797089576721,-0.32107627391815186,-0.20378230512142181,-0.03947240486741066,-0.07292300462722778
47.55,1.4206117391586304,0.7081843018531799,0.4593161344528198,-0.17432743310928345,-0.022939521819353104,0.1158793494105339
47.6,-0.10125438868999481,0.611575186252594,0.19989526271820068,-0.2764713168144226,0.07306268811225891,-0.05516640096902847
47.65,1.2599643468856812,1.0880978107452393,-0.8831993341445923,-0.16414371132850647,0.19722312688827515,-0.09931845963001251
47.7,5.126791954040527,-0.07135453820228577,-1.167138934135437,0.04114140197634697,1.5259077548980713,-0.2541793882846832
47.75,-15.42969036102295,0.14790084958076477,0.9682631492614746,0.20400357246398926,3.971210241317749,-0.27981510758399963
47.8,-5.508113861083984,-0.12979651987552643,2.2268495559692383,0.038697563111782074,1.5439636707305908,-0.26798611879348755
47.85,-5.629822731018066,-0.8392528295516968,-0.044425949454307556,-0.03152194619178772,0.4038594663143158,-0.9461501240730286
47.9,-2.264331579208374,0.39621439576148987,0.514350950717926,0.06346002221107483,-0.08946488797664642,-0.2839007079601288
47.95,0.19717159867286682,0.48414719104766846,-0.33170750737190247,0.1976192593574524,-0.1702476143836975,0.42418476939201355
48.0,2.1963844299316406,0.2227470725774765,-0.9231560826301575,0.20676295459270477,-0.141525536775589,0.5928600430488586
48.05,1.9314420223236084,0.11445728689432144,-0.5708940029144287,0.10933344066143036,-0.06387071311473846,0.48341888189315796
