Time [s],Acc_x [m/s^2],Acc_y [m/s^2],Acc_z [m/s^2],Gyro_x [1/s],Gyro_y [1/s],Gyro_z [1/s]
0.0,-0.0029063266701996326,0.02533913031220436,-0.003422100329771638,-0.00672517204657197,0.0008745642262510955,0.0057068923488259315
0.05,-0.005254487972706556,0.0251159705221653,-0.005743018817156553,-0.00672512874007225,0.0008745742379687726,0.005706944968551397
0.1,-0.0026075507048517466,0.019431114196777344,0.008275237865746021,-0.0053606051951646805,0.0027577904984354973,0.003564572660252452
0.15,0.0002770284190773964,0.004651064518839121,0.04671521112322807,-0.0009530287352390587,0.006255693268030882,-0.002077418612316251
0.2,-0.022508161142468452,0.008157722651958466,0.06402941048145294,0.0001464280649088323,0.0024518552236258984,0.0013516589533537626
0.25,-0.03119855746626854,0.025151239708065987,0.12778806686401367,-0.0007438764441758394,0.006114511750638485,0.003937038592994213
0.3,-0.0778798758983612,0.04865837097167969,0.044787198305130005,-0.004616090562194586,-0.0024310820735991,0.0006338501698337495
0.35,-0.026861129328608513,0.03279590606689453,0.0254764873534441,-0.005030432250350714,0.0036800489760935307,-0.0011071742046624422
0.4,0.02104591764509678,0.0023136092349886894,0.04967692494392395,-0.0030482879374176264,0.0010805866913869977,0.0011405335972085595
0.45,-0.016248777508735657,0.034778594970703125,0.016402503475546837,-0.00365245109423995,-0.005678617861121893,0.0026087146252393723
0.5,-0.05685136094689369,0.050975799560546875,0.02986721880733967,-0.0075381239876151085,-0.004033736884593964,0.0006203452940098941
0.55,-0.047484155744314194,0.030626285821199417,0.10922634601593018,-0.005037990398705006,0.002389537403360009,0.0008568436023779213
0.6,-0.04001437872648239,0.012274735607206821,0.05792883783578873,-0.004128449130803347,-0.0035598278045654297,0.00032267512870021164
0.65,-0.03890492394566536,0.011815068311989307,0.027093155309557915,-0.006999928969889879,-0.0009081379976123571,0.0015186573145911098
0.7,-0.062037356197834015,0.04975033178925514,0.01880563050508499,-0.004015036392956972,0.0008116737008094788,0.0015846830792725086
0.75,-0.026467999443411827,0.011325828731060028,0.06518594175577164,-0.001508439308963716,0.0023871257435530424,0.0019731915090233088
0.8,-0.017036110162734985,0.022525781765580177,0.05410416051745415,-0.0027860961854457855,0.0014602156588807702,0.0014600199647247791
0.85,-0.054134368896484375,0.05907249450683594,0.03914183750748634,-0.002694813534617424,0.00021092435054015368,0.003510169917717576
0.9,-0.06862771511077881,0.05842876806855202,0.01172000914812088,-0.0008511215564794838,-0.0024385584983974695,0.0048788320273160934
0.95,-0.08257196843624115,0.007865897379815578,0.05439034476876259,-0.002509369282051921,-0.0037768438924103975,0.0015707577113062143
1.0,-0.0284322090446949,0.02950000762939453,0.01944376528263092,0.0016990212025120854,-0.0067168110981583595,0.001672584330663085
1.05,-0.07059969007968903,0.0800771713256836,0.04038013890385628,0.0015553958946838975,0.0006259820656850934,0.00620447751134634
1.1,-0.044425345957279205,0.07952690869569778,-0.002503087278455496,0.00533127598464489,0.0052396804094314575,0.008798829279839993
1.15,-0.03491171449422836,0.07152747362852097,0.09578727185726166,0.022426635026931763,0.016438018530607224,0.010519134812057018
1.2,-0.1502431333065033,-0.029977822676301003,0.12143679708242416,0.030215658247470856,0.023641908541321754,0.019810490310192108
1.25,-0.11393041908740997,-0.16039948165416718,0.1676577776670456,0.005705309100449085,0.037951674312353134,0.017281847074627876
1.3,-0.11936474591493607,0.017302513122558594,-0.018926825374364853,-0.03817128390073776,0.04976211488246918,0.004303833935409784
1.35,-0.16313378512859344,0.13672734797000885,-0.046003732830286026,-0.036144815385341644,0.08241434395313263,0.009027695283293724
1.4,-0.26503869891166687,0.03363895043730736,-0.03781270235776901,-0.006998536176979542,0.09954102337360382,0.026771310716867447
1.45,-0.2879173755645752,-0.06887628138065338,-0.004686684347689152,0.01816800981760025,0.0955028235912323,0.04260687157511711
1.5,-0.4621013104915619,-0.010472324676811695,0.07228808104991913,0.006381918676197529,0.137209951877594,0.04874677583575249
1.55,-0.45708173513412476,-0.15987877547740936,0.14636118710041046,-0.011591685935854912,0.17698225378990173,0.07655517011880875
1.6,-0.4442075490951538,-0.09069541841745377,0.11817188560962677,-0.057837046682834625,0.18146756291389465,0.08031878620386124
1.65,-0.234087273478508,0.052150726318359375,-0.028402680531144142,-0.0720396414399147,0.15124696493148804,0.10528891533613205
1.7,-0.15519994497299194,-0.008308421820402145,0.03266484662890434,-0.060869090259075165,0.030796799808740616,0.10948154330253601
1.75,-0.1542988419532776,0.1379690170288086,0.013306526467204094,-0.06261362135410309,-0.0784459114074707,0.13358266651630402
1.8,-0.07879728078842163,0.5679989457130432,0.22454652190208435,-0.0252386424690485,-0.08386419713497162,0.17305219173431396
1.85,0.3170349895954132,0.7653722763061523,1.071123719215393,0.1317710280418396,-0.24633172154426575,0.21389368176460266
1.9,0.47663185000419617,0.7127818465232849,1.4254150390625,0.2928600311279297,-0.58387690782547,0.28037282824516296
1.95,0.5538323521614075,0.41752904653549194,1.1649715900421143,0.20846208930015564,-0.7367278337478638,0.35059139132499695
2.0,0.6391190886497498,-0.46463969349861145,-0.11994379758834839,-0.06107176095247269,-0.7581220269203186,0.29085466265678406
2.05,0.6096816658973694,0.18876007199287415,-1.8561336994171143,-0.17084288597106934,-0.46912485361099243,0.17235000431537628
2.1,0.13883906602859497,0.1269066035747528,-1.5959856510162354,0.1835959553718567,0.003107838798314333,0.1410408318042755
2.15,-0.04056331515312195,-1.835217833518982,0.6360433101654053,0.7468903064727783,-0.06953397393226624,0.020318781957030296
2.2,-0.3950405716896057,-1.2727473974227905,1.7006018161773682,0.5372442007064819,-0.13674423098564148,-0.4516465365886688
2.25,-0.5704243183135986,-0.7190325260162354,1.1263799667358398,-0.020683124661445618,0.2786344885826111,-0.680444598197937
2.3,-1.1001982688903809,-0.7357742786407471,1.2953553199768066,-0.22209839522838593,0.36410003900527954,-0.7695126533508301
2.35,0.4908345937728882,-0.7688040733337402,2.9991486072540283,-0.1764536201953888,0.4463973939418793,-1.0193734169006348
2.4,0.9195996522903442,0.32137277722358704,2.4597907066345215,-0.2551105320453644,0.4882361590862274,-0.8604654669761658
2.45,-0.4254153072834015,2.9968349933624268,0.23170454800128937,-0.18655751645565033,0.3407253921031952,-0.6309691071510315
2.5,1.035212755203247,1.395336389541626,-0.8037452101707458,0.024470925331115723,0.2588251233100891,-0.27829235792160034
2.55,-0.1909623146057129,2.618720531463623,-3.0398120880126953,0.10851919651031494,0.529003381729126,-0.09407853335142136
2.6,-0.053569793701171875,0.22780928015708923,-2.5236716270446777,0.35377565026283264,0.8797632455825806,0.08060136437416077
2.65,-0.6642994284629822,-1.234039306640625,-0.9026776552200317,0.21232208609580994,1.275947093963623,-0.0780700296163559
2.7,0.16195932030677795,-1.2389183044433594,-1.1129462718963623,-0.13673633337020874,1.2307562828063965,-0.30045565962791443
2.75,-0.5488696098327637,-0.28258970379829407,-2.151601552963257,-0.18789014220237732,1.0955989360809326,-0.19280381500720978
2.8,-0.9704983234405518,0.5906555652618408,-1.9886146783828735,0.14686758816242218,1.535475254058838,0.03689220920205116
2.85,-0.7189748287200928,0.9787781834602356,-1.5239516496658325,0.5468686819076538,2.1257412433624268,0.18058063089847565
2.9,0.2617880403995514,0.019739264622330666,-0.8713679313659668,0.9239595532417297,2.2399966716766357,0.23127320408821106
2.95,0.3095487952232361,-0.17832081019878387,-0.6623336672782898,0.854322612285614,1.6198245286941528,0.18221043050289154
3.0,-1.2086330652236938,0.20627395808696747,0.522767186164856,0.5623082518577576,1.041222095489502,0.15777555108070374
3.05,-2.3717594146728516,-0.032561562955379486,1.4353842735290527,0.4688907861709595,1.1518415212631226,0.2824805974960327
3.1,-2.747509002685547,-0.2634405195713043,2.2363126277923584,0.4754253923892975,1.9716520309448242,0.509702742099762
3.15,-1.339113712310791,-0.765451967716217,2.9417638778686523,0.4810177683830261,2.5199296474456787,0.7229064106941223
3.2,-0.13894128799438477,-0.881161093711853,2.190277099609375,0.47893595695495605,2.553807258605957,0.8055011630058289
3.25,-1.4752731323242188,-0.7265914082527161,1.3105043172836304,0.4408513903617859,2.4369289875030518,0.9061172008514404
3.3,-4.5791473388671875,-0.529933750629425,4.573520183563232,0.4066925346851349,2.833282470703125,0.9991416931152344
3.35,-1.3758376836776733,-1.4989683628082275,8.396084785461426,0.2804446816444397,4.419881820678711,0.6898043751716614
3.4,5.869983673095703,3.723802089691162,2.3757243156433105,-0.5027604103088379,5.725449562072754,0.604530394077301
3.45,7.1092681884765625,5.96100378036499,-7.436067581176758,-0.5989612936973572,6.084145545959473,-0.19178809225559235
3.5,-0.262353777885437,-1.5173137187957764,-4.270566463470459,-0.4094948172569275,4.913477420806885,-2.044931173324585
3.55,2.3983700275421143,3.0088086128234863,1.1339476108551025,-1.1849391460418701,2.130161762237549,-1.9096055030822754
3.6,1.1252113580703735,4.560539245605469,-4.979581832885742,-1.4421499967575073,2.510511875152588,-1.79052734375
3.65,-1.9550299644470215,4.129941463470459,-1.7561895847320557,-0.869718611240387,1.5677438974380493,-1.8741333484649658
3.7,1.183800220489502,-1.1499991416931152,3.0263736248016357,-0.5961693525314331,1.464087963104248,-1.159798264503479
3.75,3.7504916191101074,-5.785719394683838,1.3451662063598633,0.22883696854114532,2.1201326847076416,0.3365919291973114
3.8,0.3197575807571411,-10.02259349822998,0.04366973787546158,0.5265798568725586,1.9786814451217651,0.40767908096313477
3.85,-0.7491191625595093,-9.795756340026855,0.6919495463371277,0.5153502225875854,1.2864563465118408,0.5946049094200134
3.9,2.1446735858917236,-2.2080893516540527,-0.6781654953956604,0.9007909297943115,1.968998908996582,0.6980292797088623
3.95,-0.21016842126846313,6.997286319732666,-2.6851563453674316,0.9776171445846558,2.75065279006958,0.008332262746989727
4.0,-4.425441741943359,6.755392551422119,-4.468228816986084,0.19549591839313507,1.3972281217575073,0.3893105983734131
4.05,-3.4162442684173584,1.7674754858016968,-1.877295732498169,-0.3202971816062927,-0.6677507162094116,1.2754496335983276
4.1,0.03914037346839905,-2.6042542457580566,-1.2184336185455322,0.047369927167892456,-1.3383803367614746,1.2152163982391357
4.15,2.939094066619873,0.7922853827476501,-1.6619404554367065,1.202967643737793,-0.949524998664856,1.2050620317459106
4.2,-2.538693428039551,4.585136413574219,1.6842046976089478,1.4379432201385498,-0.596762478351593,1.054503321647644
4.25,-0.8048017621040344,3.239942789077759,2.4159445762634277,0.8255742788314819,-1.565643072128296,0.7481576800346375
4.3,5.152419567108154,-1.922100305557251,2.1913533210754395,-0.00024580955505371094,-1.371691107749939,0.2715396583080292
4.35,-0.9860904216766357,-11.61521053314209,3.7167181968688965,-0.09164387732744217,-0.6158919930458069,-0.36293548345565796
4.4,-3.3212547302246094,-9.962544441223145,1.0163607597351074,1.121108055114746,-0.8797776103019714,0.2286955863237381
4.45,-9.96212387084961,-4.377427577972412,3.9353981018066406,0.8933538198471069,-0.8812555074691772,0.375338077545166
4.5,-4.8106818199157715,5.238702774047852,1.622170329093933,0.24830298125743866,-0.4327346086502075,0.14501307904720306
4.55,-0.36078155040740967,14.293720245361328,5.452991008758545,0.9735172390937805,-0.7958150506019592,0.46593421697616577
4.6,0.2961125373840332,-1.7655277252197266,5.893039703369141,0.049714505672454834,-0.13750804960727692,-0.9729073643684387
4.65,0.3218899965286255,-3.4400534629821777,4.7597246170043945,-0.3397753834724426,1.2775341272354126,-1.3668878078460693
4.7,0.7406935691833496,5.07428503036499,-0.4488903284072876,-0.9825183749198914,3.4430458545684814,-2.7949252128601074
4.75,1.907017469406128,10.547295570373535,-5.925885200500488,-2.1805365085601807,1.9789953231811523,-2.7727177143096924
4.8,1.847193956375122,-2.7422335147857666,-2.9126205444335938,-3.122772455215454,0.5463052988052368,-1.4384140968322754
4.85,5.071887969970703,-7.641684532165527,2.345649242401123,-1.6712380647659302,0.9840348958969116,-0.32034796476364136
4.9,1.414982795715332,-12.165670394897461,-0.5504881739616394,0.41762685775756836,2.5878818035125732,-0.6010787487030029
4.95,-0.781955361366272,-11.398096084594727,-2.5583975315093994,1.0428255796432495,1.2456411123275757,0.40334221720695496
5.0,-2.251664400100708,-4.693140029907227,-3.249772548675537,0.8046431541442871,-0.2567371129989624,1.4280424118041992
5.05,-3.7518038749694824,6.368291854858398,-0.9637044072151184,0.49258697032928467,0.2654252350330353,1.2234091758728027
5.1,-1.6802525520324707,8.92292594909668,0.5810456871986389,-0.48095208406448364,0.2688118517398834,0.22797679901123047
5.15,-0.8699414730072021,2.9486496448516846,0.6427810192108154,-0.07582496106624603,0.10379522293806076,-0.08355355262756348
5.2,-1.2248146533966064,-0.7409646511077881,5.165949821472168,0.7343363165855408,0.15385757386684418,0.25447845458984375
5.25,0.6688197255134583,-1.1069077253341675,-2.052792549133301,0.7557923793792725,-0.026797089725732803,0.5685684680938721
5.3,-0.5048257112503052,-0.9961856603622437,-6.251453876495361,0.018957793712615967,-0.5110443830490112,0.5502626299858093
5.35,-3.454098701477051,-1.3664058446884155,1.052033543586731,0.28532010316848755,-0.8197166323661804,-0.0035016650799661875
5.4,4.581089973449707,5.382724285125732,1.4507125616073608,1.1815987825393677,-2.727534055709839,1.0044804811477661
5.45,6.725872039794922,6.392394542694092,6.220469951629639,1.580998182296753,-1.743650197982788,1.1283879280090332
5.5,0.04147601127624512,-2.318221092224121,2.485316514968872,0.999282956123352,1.3479079008102417,0.4914325773715973
5.55,-3.756533622741699,-10.289993286132812,-2.921687364578247,0.5807766318321228,0.998517632484436,0.3150341808795929
5.6,-1.0265955924987793,-8.448123931884766,0.43337559700012207,1.0504176616668701,0.010414672084152699,-0.19475984573364258
5.65,-4.995978355407715,-2.842941999435425,6.1584882736206055,0.9013081192970276,0.03803078457713127,-0.2554483711719513
5.7,-3.386274814605713,2.8873603343963623,11.595389366149902,0.5152239799499512,-0.14401516318321228,-0.05534166470170021
5.75,3.3379058837890625,9.165069580078125,15.638237953186035,0.7342488765716553,0.10829124599695206,0.0336785614490509
5.8,4.00398588180542,-0.6395424008369446,-0.631563127040863,-0.9857738614082336,2.7705066204071045,-0.6822214126586914
5.85,5.50734806060791,-1.3784502744674683,-0.2823871970176697,-0.6424528360366821,3.4178879261016846,-0.8312358260154724
5.9,6.661322593688965,4.279763698577881,0.2900694012641907,-1.3656854629516602,3.743859052658081,-1.1282589435577393
5.95,0.30809253454208374,8.190191268920898,-2.633307933807373,-1.271780252456665,3.4882729053497314,-0.3549495041370392
6.0,-1.742372751235962,5.211828231811523,-4.175688743591309,-1.3945753574371338,2.8662664890289307,0.1809886395931244
6.05,2.0745105743408203,-3.7380576133728027,-3.1926867961883545,-1.667834997177124,3.1777737140655518,0.04742378368973732
6.1,1.576032042503357,-10.840977668762207,-4.221860408782959,-0.9847780466079712,4.418377876281738,-0.6614161133766174
6.15,-0.8184806704521179,-11.891066551208496,-0.7365121245384216,-0.2723456621170044,3.3512558937072754,-0.7579686045646667
6.2,0.3886137902736664,-5.967121124267578,1.5215225219726562,0.1352018564939499,1.5010632276535034,-0.28611019253730774
6.25,-1.5405241250991821,4.28693151473999,0.13127891719341278,0.6063185930252075,1.854360580444336,-0.7813957929611206
6.3,-5.227670669555664,6.272264003753662,0.5731168389320374,0.6745075583457947,2.1894967555999756,-0.5588797926902771
6.35,-1.1404993534088135,-3.3448069095611572,1.9503248929977417,0.4554479718208313,1.7376999855041504,0.5375828146934509
6.4,0.8749838471412659,-7.030075550079346,-0.18774284422397614,1.3136825561523438,1.2407970428466797,0.2513875663280487
6.45,-1.9067705869674683,0.9854881167411804,-1.1954373121261597,1.7053427696228027,0.5623403191566467,-0.7422934770584106
6.5,-1.6096184253692627,7.773921966552734,-1.4777361154556274,1.036736011505127,0.4273310601711273,-1.0342857837677002
6.55,-0.8559436798095703,5.0843186378479,-0.9283255338668823,0.8118288516998291,1.0507011413574219,-0.6248040795326233
6.6,0.6365100145339966,0.9984493255615234,0.9968459606170654,0.46557626128196716,1.1860437393188477,-0.9232578873634338
6.65,3.949096202850342,-4.81681489944458,-2.073763132095337,-0.010243088006973267,0.9641256928443909,-0.30020496249198914
6.7,3.800534963607788,-10.531294822692871,-4.167420864105225,0.16983230412006378,0.8080699443817139,0.2977791130542755
6.75,-0.3227807283401489,-9.482173919677734,-1.9557771682739258,-0.2682144343852997,2.3802847862243652,-0.0027940997388213873
6.8,2.87040114402771,-5.091172218322754,3.499135971069336,-0.4881492555141449,3.3921377658843994,-0.33121705055236816
6.85,3.056583881378174,7.295196056365967,5.214730739593506,0.4705681800842285,2.283766984939575,0.33815672993659973
6.9,1.936809778213501,14.379355430603027,3.561915159225464,1.0836020708084106,0.8103079795837402,0.7363184690475464
6.95,-1.6296741962432861,3.3826711177825928,-1.8941712379455566,0.04539169371128082,0.8529858589172363,0.39526253938674927
7.0,-4.052781105041504,-2.2094414234161377,-0.6021064519882202,-0.08257640153169632,2.738037109375,0.21551264822483063
7.05,1.8148021697998047,-11.08703899383545,1.8153451681137085,0.270504891872406,2.7987935543060303,0.29783862829208374
7.1,-1.7860922813415527,-10.3711519241333,1.256508708000183,-0.3788566291332245,1.0993766784667969,-0.6422274708747864
7.15,-0.060554586350917816,2.226060152053833,-0.35075095295906067,-0.1425577998161316,1.0193536281585693,-0.9082262516021729
7.2,1.8336713314056396,6.71391487121582,2.4888694286346436,0.5724135637283325,2.2483110427856445,0.8719132542610168
7.25,-3.2815957069396973,5.001910209655762,3.2000677585601807,0.8893833160400391,1.261108636856079,0.8525250554084778
7.3,-3.118605613708496,5.613890171051025,-1.8849155902862549,0.3665313720703125,-0.1975659430027008,-0.6031911969184875
7.35,0.5751649141311646,-2.767657518386841,0.24520663917064667,-0.5473192930221558,1.097536325454712,-0.20617897808551788
7.4,0.8501721620559692,-2.4608218669891357,-0.5664673447608948,-0.951228141784668,0.6322609782218933,-0.5143235921859741
7.45,1.6530628204345703,-2.324545383453369,-0.8982842564582825,0.171827033162117,0.40139731764793396,-0.059753451496362686
7.5,0.9091680645942688,0.9842910766601562,1.1130083799362183,0.6240069270133972,0.020156027749180794,0.3014354407787323
7.55,-1.7292615175247192,4.988400936126709,0.9791000485420227,0.07990442961454391,-0.4849356710910797,0.09545111656188965
7.6,-1.73467218875885,2.4704182147979736,0.008064812049269676,-0.3906410038471222,0.04440823569893837,-0.17569763958454132
7.65,0.33036676049232483,-3.406165599822998,-0.42598170042037964,-0.6287941932678223,0.746733546257019,-0.12452749162912369
7.7,0.6422220468521118,-4.295100212097168,-1.0901248455047607,-0.6762382388114929,0.11801521480083466,-0.3248597979545593
7.75,-0.35416704416275024,-1.2464570999145508,-1.1138333082199097,0.30764612555503845,0.05947025120258331,0.3465709388256073
7.8,-0.7912271022796631,0.3553028404712677,-0.3609525263309479,0.723272442817688,0.16553446650505066,0.5450283288955688
7.85,0.5126314759254456,0.5470982193946838,0.09091585129499435,0.35854408144950867,-0.05285293981432915,-0.09528210759162903
7.9,1.1890697479248047,-0.7862836718559265,0.8118078708648682,0.08415710180997849,0.3946884870529175,-0.2542681396007538
7.95,0.36825403571128845,-1.6239951848983765,1.1565732955932617,-0.43346771597862244,0.2840568721294403,-0.12174008786678314
8.0,0.1312783658504486,0.8566429018974304,-0.5720784068107605,-0.31315183639526367,-0.26423969864845276,-0.04253433272242546
8.05,0.7590600848197937,-0.7483397722244263,0.8760790824890137,0.0936419889330864,0.11893027275800705,0.055689290165901184
8.1,-0.06923452019691467,-1.1354230642318726,1.786672830581665,-0.17087064683437347,0.10739033669233322,0.011137356981635094
8.15,-0.43096452951431274,0.05708030238747597,-0.35906124114990234,-0.4365074932575226,-0.022495152428746223,-0.16802284121513367
8.2,-0.2731223404407501,0.9335442781448364,-0.2835124135017395,-0.3433319330215454,0.25016534328460693,-0.12459820508956909
8.25,1.6953585147857666,1.1957523822784424,-0.6440539360046387,-0.020867235958576202,0.5350756049156189,0.08306489884853363
8.3,2.4712882041931152,-0.15198884904384613,-0.5095036625862122,0.2925183176994324,0.060418322682380676,0.1850818395614624
8.35,-1.0811669826507568,-0.057250868529081345,-1.3313318490982056,0.28917989134788513,-0.3507160544395447,0.14898888766765594
8.4,-0.9902681708335876,0.1689196676015854,-1.0731985569000244,0.3596392571926117,0.11687719076871872,0.009831107221543789
8.45,2.066732168197632,-0.48705974221229553,1.3761042356491089,0.5381699204444885,0.30795955657958984,0.009310700930655003
8.5,1.2277816534042358,-0.4560072124004364,1.716778039932251,0.49595335125923157,-0.0824618861079216,0.1739417016506195
8.55,-2.1958491802215576,-0.08359261602163315,0.927869439125061,-0.009333707392215729,-0.26765361428260803,0.07971222698688507
8.6,-2.431818962097168,-0.4181530475616455,0.8501464128494263,-0.6526350975036621,0.29907694458961487,-0.3398752510547638
8.65,0.37953388690948486,-0.19066910445690155,0.22447876632213593,-0.8908629417419434,0.8147905468940735,-0.5054802298545837
8.7,1.1207355260849,0.5494081974029541,-1.0062243938446045,-0.6365781426429749,0.7476835250854492,-0.17574851214885712
8.75,0.40222781896591187,0.6470968127250671,-0.941216230392456,-0.19099247455596924,0.46157506108283997,-0.01928820088505745
8.8,0.4040590524673462,0.38409245014190674,-0.4919617176055908,-0.006177255883812904,0.3108028471469879,-0.0926453247666359
8.85,0.1373705416917801,-0.00155634677503258,-0.38292258977890015,0.14348836243152618,0.35828259587287903,-0.059101346880197525
8.9,0.4426336884498596,-0.16532716155052185,0.7955207824707031,0.29917871952056885,0.38194864988327026,-0.0014776416355744004
8.95,0.5608155727386475,-0.10518282651901245,1.6195545196533203,0.32298436760902405,0.16286098957061768,0.05574933439493179
9.0,-0.12671351432800293,-0.10138153284788132,1.824764370918274,0.2337079793214798,-0.2619073688983917,-0.012357424013316631
9.05,-0.30339357256889343,-0.03785533085465431,1.4194414615631104,-0.10687681287527084,-0.5755605101585388,-0.16108621656894684
9.1,-0.10719261318445206,-0.12004763633012772,0.418011873960495,-0.4115157127380371,-0.611624002456665,-0.19648388028144836
9.15,0.3637383282184601,-0.6085319519042969,-0.15959356725215912,-0.43090659379959106,-0.6674767136573792,-0.12641708552837372
9.2,-0.08869729936122894,0.4761859178543091,-0.6652857065200806,-0.3994625508785248,-0.7393779158592224,-0.018745237961411476
9.25,-0.012590229511260986,1.2257578372955322,-1.4329854249954224,-0.2055433839559555,-0.56125408411026,-0.017299829050898552
9.3,0.30573585629463196,0.4134829044342041,-1.3377124071121216,0.17457254230976105,-0.4237413704395294,-0.009159281849861145
9.35,0.09320500493049622,-0.03519440442323685,0.05170401558279991,0.45144668221473694,-0.5298063158988953,0.042853113263845444
9.4,-0.5430936813354492,-0.17693345248699188,1.0506651401519775,0.5505579113960266,-0.4615723788738251,0.18763749301433563
9.45,-1.5192736387252808,-0.2807476222515106,1.0045956373214722,0.39705803990364075,-0.27404728531837463,0.24793866276741028
9.5,-1.0773271322250366,0.10760199278593063,0.8684968948364258,0.05831804871559143,-0.24763956665992737,-0.01063734944909811
9.55,-0.016434580087661743,0.03885833919048309,0.6664476990699768,-0.2284301519393921,-0.3043971061706543,-0.20493534207344055
9.6,0.3912836015224457,-0.7397327423095703,-0.20768257975578308,-0.37985268235206604,-0.5059033632278442,-0.18202057480812073
9.65,-0.05592288076877594,-0.42293354868888855,-0.7658476233482361,-0.2771165072917938,-0.5370851159095764,0.03065774030983448
9.7,-0.5806381106376648,0.5055028796195984,-1.0055269002914429,-0.10394173860549927,-0.4772993326187134,0.18503564596176147
9.75,-1.1458832025527954,0.5531102418899536,-0.943056583404541,-0.03745166212320328,-0.4858294427394867,0.14666782319545746
9.8,-1.2687721252441406,0.3536415696144104,-0.6253082156181335,-0.026849746704101562,-0.26376771926879883,0.16125987470149994
9.85,-0.3288362920284271,-0.27645963430404663,-0.8571426868438721,0.13830283284187317,0.032199494540691376,0.32537469267845154
9.9,-1.195426344871521,-0.4832802414894104,-0.486526757478714,0.5457600355148315,-0.048514995723962784,0.6581392884254456
9.95,-1.7035813331604004,-0.5994921326637268,-0.3358958661556244,0.8682372570037842,-0.33938130736351013,0.8308933973312378
10.0,-0.7894082069396973,0.3477868437767029,0.6000608801841736,0.747170090675354,-0.3165920376777649,0.6946640014648438
10.05,0.5190167427062988,1.369735598564148,2.3032941818237305,0.2625525891780853,-0.2073846310377121,0.44713643193244934
10.1,1.2205662727355957,1.2105836868286133,1.5411847829818726,-0.15922056138515472,-0.526168167591095,0.3361033797264099
10.15,0.9276968836784363,0.9275895357131958,0.298858106136322,0.007029592990875244,-0.7961597442626953,0.855689525604248
10.2,1.9064325094223022,1.2521553039550781,1.578840732574463,0.4773876965045929,-0.6356224417686462,1.5891424417495728
10.25,2.0640387535095215,0.49044695496559143,1.9063448905944824,0.7894562482833862,-1.0006157159805298,1.696978211402893
10.3,0.45419734716415405,-1.5009509325027466,-0.8906009793281555,0.8215388059616089,-1.7972451448440552,1.0052597522735596
10.35,0.017084240913391113,-2.822113275527954,-3.7380363941192627,0.33936363458633423,-1.5390172004699707,0.14176952838897705
10.4,0.1239117980003357,-2.608689308166504,-2.270284414291382,-0.45631110668182373,-0.38858070969581604,-0.3048350512981415
10.45,1.0321446657180786,-0.1881352663040161,1.0607222318649292,-0.6343824863433838,0.3270069360733032,-0.384247750043869
10.5,0.9034340381622314,1.2662382125854492,1.7121248245239258,-0.112330362200737,0.16688264906406403,-0.3073585331439972
10.55,-0.1562676876783371,2.3984193801879883,1.066270351409912,0.054081641137599945,-0.17301926016807556,-0.276518315076828
10.6,0.14463195204734802,1.6363860368728638,0.9866412281990051,0.016419649124145508,-0.16257153451442719,-0.07398294657468796
10.65,-0.2647446095943451,-0.6239453554153442,0.2893727123737335,0.0670699030160904,0.12566179037094116,0.2678704559803009
10.7,-0.5936890244483948,-1.0594607591629028,-0.2701791226863861,0.1117367148399353,0.5823333263397217,0.46056243777275085
10.75,0.17757728695869446,-0.6709957122802734,-0.2011418342590332,0.11058029532432556,0.9201880097389221,0.38607048988342285
10.8,1.1956552267074585,-0.4677533805370331,-0.3162667453289032,-0.13592012226581573,1.0125658512115479,0.05382581800222397
10.85,1.131974697113037,-1.373158574104309,0.22637923061847687,-0.5313800573348999,0.9933610558509827,-0.1901913434267044
10.9,0.664286196231842,-2.6376354694366455,0.028535787016153336,-0.7778434157371521,0.7775419354438782,-0.3762749135494232
10.95,0.6181246042251587,-2.5123250484466553,-0.786572277545929,-0.8176333904266357,0.39537331461906433,-0.816011369228363
11.0,0.386107861995697,-0.2789495885372162,-1.326050877571106,-0.8940169811248779,0.3925238847732544,-1.2659897804260254
11.05,0.1624487042427063,2.7585089206695557,-0.41891607642173767,-0.7765790820121765,0.730000913143158,-1.2456218004226685
11.1,2.427673816680908,3.832458019256592,0.6926493048667908,-0.4321395754814148,1.2777708768844604,-0.7317233681678772
11.15,2.2849576473236084,2.3831627368927,0.7041016221046448,-0.038830190896987915,1.2232099771499634,-0.08462867140769958
11.2,-2.7105555534362793,-1.1393073797225952,1.3294068574905396,0.4813617467880249,0.16985194385051727,-0.05122930556535721
11.25,-3.1193020343780518,-0.10450385510921478,0.7883523106575012,-0.06216965615749359,0.4286583364009857,-0.7408806681632996
11.3,0.001167893409729004,0.43989455699920654,1.4643588066101074,-0.32997211813926697,1.5867700576782227,-0.7274536490440369
11.35,0.9854243993759155,-0.09219755232334137,1.422122836112976,-0.06373895704746246,1.4021522998809814,-0.42575573921203613
11.4,-0.7802029252052307,-0.17589667439460754,-0.10728896409273148,-0.11220332980155945,0.46685147285461426,-0.40078747272491455
11.45,-2.2844150066375732,-0.45350080728530884,-0.8049538731575012,-0.31602123379707336,0.022176917642354965,-0.43647539615631104
11.5,-1.3813600540161133,-0.2041005939245224,-0.8767029047012329,-0.43161413073539734,0.18842308223247528,-0.45119574666023254
11.55,-0.19551312923431396,0.3467027246952057,-0.9846631288528442,-0.39167797565460205,0.2007843255996704,-0.37746289372444153
11.6,0.0023305416107177734,0.7065240740776062,-0.9509812593460083,-0.12028496712446213,0.08235792815685272,-0.09954000264406204
11.65,-0.7278346419334412,0.40227895975112915,-0.21624641120433807,0.14922483265399933,-0.04717862233519554,0.052620939910411835
11.7,-0.7036454677581787,0.003807930974289775,0.5489017963409424,0.22565120458602905,0.05574490502476692,0.009659613482654095
11.75,0.1948324292898178,0.03020660951733589,0.7054448127746582,0.16860121488571167,0.05393383651971817,-0.05177028477191925
11.8,-0.12591353058815002,-0.1256762593984604,0.7226296067237854,0.15782123804092407,-0.14561176300048828,0.01284633670002222
11.85,-0.431567907333374,-0.3625584840774536,0.49838826060295105,0.11265377700328827,-0.09641646593809128,0.10175779461860657
11.9,-0.18454164266586304,-0.10851094126701355,-0.4403195381164551,-0.10104522854089737,-0.09300994873046875,0.11151524633169174
11.95,-0.31232553720474243,0.18508730828762054,-0.8789477348327637,-0.24723975360393524,-0.49313583970069885,0.1285824477672577
12.0,-0.43258368968963623,0.41501444578170776,-1.0945098400115967,-0.166749507188797,-0.831619381904602,0.209222674369812
12.05,-0.43500325083732605,0.33295169472694397,-1.1124293804168701,0.013782225549221039,-1.1531877517700195,0.3280327022075653
12.1,-1.3575644493103027,0.31304171681404114,-0.5571086406707764,0.22530518472194672,-1.3755147457122803,0.4525974690914154
12.15,-2.099608898162842,0.23614010214805603,0.7888768315315247,0.47953903675079346,-1.1126229763031006,0.4875285029411316
12.2,-1.3293869495391846,-0.16529682278633118,1.7506133317947388,0.6580897569656372,-0.34613001346588135,0.5624337792396545
12.25,-0.7595701217651367,0.23432426154613495,1.7147976160049438,0.5262959599494934,-0.0712699294090271,0.6136013865470886
12.3,-0.10254037380218506,1.2072981595993042,1.757791519165039,0.49186426401138306,-0.5388526320457458,0.5208316445350647
12.35,1.808821678161621,1.0052679777145386,2.8360774517059326,0.46820878982543945,-1.1916900873184204,0.3630274832248688
12.4,1.9777716398239136,-1.4844896793365479,1.3700840473175049,0.029789261519908905,-1.772324562072754,0.2531418800354004
12.45,-0.005907416343688965,0.5872490406036377,-1.7513046264648438,-0.7463064789772034,-1.8450400829315186,0.10079780220985413
12.5,0.8914604783058167,0.8003038763999939,-2.027280807495117,-0.5017237067222595,-0.9977871775627136,-0.09514185041189194
12.55,1.8274164199829102,-3.2012109756469727,1.0622578859329224,0.876928448677063,-2.2275478839874268,-0.25427424907684326
12.6,-0.9595237970352173,-4.387855529785156,3.6240313053131104,0.9236476421356201,-2.6059536933898926,-0.16702349483966827
12.65,-3.623549222946167,-1.8423429727554321,-2.0722310543060303,-0.4818844199180603,-1.5924029350280762,-0.16834041476249695
12.7,-1.4283406734466553,5.617405891418457,-3.216305732727051,-0.1139657199382782,-1.6199798583984375,-1.161360502243042
12.75,1.3165267705917358,5.476810932159424,0.7772197127342224,0.22893856465816498,-0.5184164643287659,-0.8014786839485168
12.8,0.5544978976249695,0.9316244721412659,0.45998677611351013,0.04174824059009552,0.5464048385620117,-0.3516552448272705
12.85,0.6721258163452148,-1.5445939302444458,-0.6600578427314758,0.16251228749752045,0.5221100449562073,-0.3223634958267212
12.9,3.2787575721740723,-1.2740226984024048,-2.540907621383667,0.09949012845754623,0.5726631283760071,-0.06644363701343536
12.95,2.5529487133026123,2.702146530151367,-4.868923187255859,0.12769947946071625,0.8307327032089233,0.533195972442627
13.0,0.9711431264877319,0.521355926990509,-1.6609693765640259,0.5381391644477844,0.9617146253585815,0.7318136096000671
13.05,-0.1281961053609848,-0.847641110420227,0.20046357810497284,0.05451824888586998,0.8338544368743896,0.187314972281456
13.1,-1.3466377258300781,0.45378410816192627,-0.9634937644004822,-0.20464041829109192,0.3015403747558594,-0.060984428972005844
13.15,-1.0600481033325195,0.1454630196094513,-0.5373378992080688,0.09480796009302139,-0.11616493761539459,-0.03215416893362999
13.2,-1.4800260066986084,0.5607336759567261,1.1746079921722412,0.11978942155838013,0.6404844522476196,0.7415277361869812
13.25,-2.1220083236694336,0.6158959269523621,2.3848578929901123,-0.022119522094726562,1.0261008739471436,1.2734812498092651
13.3,-1.6734094619750977,1.884000539779663,3.4752581119537354,0.10966074466705322,0.653506875038147,1.2539883852005005
13.35,-0.9467880129814148,-0.008417642675340176,4.076009273529053,0.48822471499443054,-0.03022720105946064,1.229124665260315
13.4,0.07797589898109436,-3.5607945919036865,1.6078921556472778,0.6902672648429871,-1.4714479446411133,0.6301166415214539
13.45,0.8629853129386902,-3.620427370071411,-0.8026325106620789,0.34881579875946045,-2.2580618858337402,-0.38952937722206116
13.5,2.1715118885040283,1.3416162729263306,-3.35514235496521,-0.36223387718200684,-2.1177148818969727,-0.9121071100234985
13.55,2.3279943466186523,2.5249478816986084,-2.4063057899475098,-0.503074049949646,-1.4632004499435425,-0.6576409935951233
13.6,1.6486393213272095,-0.8740102052688599,0.39199551939964294,-0.1383708417415619,-0.8626688122749329,-0.18523690104484558
13.65,0.39076972007751465,-2.3389461040496826,0.6367995738983154,-0.008709341287612915,-1.3451167345046997,-0.29198068380355835
13.7,-0.17172148823738098,-1.5821373462677002,0.3522525131702423,-0.04677070677280426,-1.5329750776290894,-0.6642031669616699
13.75,-0.05923782289028168,0.591250479221344,0.18124189972877502,-0.14452089369297028,-1.3811523914337158,-0.6371598839759827
13.8,-0.09788051247596741,0.8269616961479187,-0.4344620108604431,-0.14603956043720245,-1.1731140613555908,-0.43620821833610535
13.85,0.34124207496643066,0.12206949293613434,-0.8936576843261719,0.07108145207166672,-1.025076150894165,-0.5988852977752686
13.9,0.9394544959068298,-0.2851238250732422,0.10210520774126053,0.4497998356819153,-0.9112409353256226,-0.8082990050315857
13.95,0.5855264067649841,0.05860225111246109,0.9565582275390625,0.5844962000846863,-0.5615432262420654,-0.7993144392967224
14.0,0.021837562322616577,0.26032915711402893,1.1510525941848755,0.3000708520412445,-0.4926222264766693,-0.518271267414093
14.05,0.8303919434547424,0.9060642123222351,-0.23194943368434906,0.15305957198143005,-0.7785689830780029,-0.5110986828804016
14.1,0.709457278251648,0.5658571124076843,-0.7863608002662659,0.34143930673599243,-0.658614456653595,-0.4718972146511078
14.15,0.5286358594894409,0.021676981821656227,0.4918516278266907,0.3974907398223877,-0.46772292256355286,-0.32524022459983826
14.2,1.1063315868377686,-0.3686522841453552,-0.46347761154174805,0.09157069027423859,-0.15308350324630737,-0.1093650683760643
14.25,1.518049955368042,1.158043384552002,-2.785670757293701,0.011218737810850143,-0.02283061295747757,0.11057145148515701
14.3,1.734683871269226,-0.01853928342461586,-0.6896165609359741,0.2792477607727051,0.0703059583902359,0.11793649941682816
14.35,0.5036042332649231,-0.30910003185272217,-1.0457392930984497,0.27602916955947876,0.04173378646373749,0.0381852351129055
14.4,0.9059780836105347,0.21262753009796143,-0.47194790840148926,0.21837767958641052,0.3462221622467041,0.08163127303123474
14.45,0.7112116813659668,-0.09569281339645386,1.6522836685180664,0.16232800483703613,0.09621173143386841,0.2753199338912964
14.5,-0.8363279700279236,-0.13341325521469116,-0.940662145614624,-0.06479871273040771,-0.26586028933525085,0.3369380533695221
14.55,-1.3198020458221436,0.16561612486839294,-1.1011345386505127,0.08526904881000519,0.007419764529913664,0.17775112390518188
14.6,-1.2145721912384033,-0.6878274083137512,1.5403563976287842,0.33156508207321167,0.23818279802799225,-0.13384191691875458
14.65,0.05126580595970154,-0.052093639969825745,1.087347388267517,0.1827469766139984,-0.08549797534942627,-0.3727787435054779
14.7,2.110987901687622,0.25113698840141296,-0.7517327070236206,-0.0891064703464508,-0.20859196782112122,-0.09932003170251846
14.75,1.7012717723846436,0.26329928636550903,-1.6204791069030762,-0.2261858880519867,-0.06827786564826965,0.40047258138656616
14.8,0.8076303005218506,-0.39576229453086853,-1.4363007545471191,-0.17526665329933167,0.22972287237644196,0.5934533476829529
14.85,-2.064532995223999,0.5530844330787659,-0.67918461561203,-0.0012328475713729858,0.22451359033584595,0.33664777874946594
14.9,-2.175354242324829,0.28628605604171753,2.027146100997925,0.3348034918308258,0.4654189944267273,-0.2146102488040924
14.95,-0.9555255174636841,-0.13025887310504913,2.2102749347686768,0.12994661927223206,-0.06299785524606705,-0.47769689559936523
15.0,0.0395461767911911,-0.47689446806907654,0.2489684522151947,-0.2851235866546631,-0.21563516557216644,-0.1372438669204712
15.05,-0.2621840834617615,0.1794157475233078,-0.32509297132492065,-0.22053173184394836,0.11605804413557053,0.1638503521680832
15.1,-0.1995757520198822,0.3478058874607086,0.9153855443000793,-0.029224002733826637,0.1697414517402649,0.19059573113918304
15.15,0.2923831045627594,0.4839182496070862,0.18757976591587067,-0.06491503864526749,0.014713486656546593,-0.053962960839271545
15.2,0.4098024368286133,0.00951963011175394,-0.3081691861152649,-0.10147859156131744,-0.027749095112085342,-0.2589362859725952
15.25,0.5120334625244141,-0.6610336899757385,0.10142657905817032,-0.045502834022045135,-0.11420954018831253,-0.27295035123825073
15.3,0.40877336263656616,0.12892630696296692,-0.005418992601335049,0.004800915718078613,-0.17224973440170288,-0.20850497484207153
15.35,0.47408327460289,0.2719869911670685,0.13595229387283325,-0.056460607796907425,-0.012271614745259285,0.035024240612983704
15.4,-0.11170989274978638,-0.021132420748472214,-0.4605931341648102,-0.05631467327475548,0.20022587478160858,0.1538442075252533
15.45,-0.347301185131073,0.035430870950222015,0.23457121849060059,0.07087283581495285,0.13854540884494781,0.05161351338028908
15.5,-0.144434854388237,-0.14480313658714294,0.6463872194290161,0.03139400854706764,0.06608235090970993,0.011976609006524086
15.55,-0.37288814783096313,0.1412811577320099,-0.2219419926404953,-0.06752582639455795,0.11467985808849335,-0.005915235728025436
15.6,-0.9462474584579468,-0.11035933345556259,0.7611687183380127,-0.035327233374118805,0.09453994780778885,0.034692250192165375
15.65,-0.7631562948226929,-0.22070807218551636,1.0807615518569946,-0.02599409595131874,-0.04964379593729973,-0.021706221625208855
15.7,0.08402173966169357,0.4771186113357544,-0.48340848088264465,-0.17010115087032318,-0.21336856484413147,-0.08530011773109436
15.75,1.2157049179077148,-0.20584943890571594,-1.6464334726333618,-0.13945508003234863,-0.20471975207328796,-0.14401686191558838
15.8,1.9149692058563232,-0.6111533045768738,-2.4054460525512695,-0.12104162573814392,0.1310453712940216,-0.17711113393306732
15.85,2.4741735458374023,-0.9538372755050659,-1.274738073348999,-0.17613664269447327,0.7497977614402771,-0.1730310320854187
15.9,2.9323270320892334,-0.9417676329612732,-0.5854532122612,-0.14924755692481995,0.47858551144599915,-0.6273229122161865
15.95,3.017864465713501,-0.3063627779483795,-2.0902340412139893,-0.27477529644966125,0.2746348977088928,-0.7054898142814636
16.0,4.351395130157471,1.748753309249878,-2.653160810470581,-0.11838336288928986,0.4457331895828247,-0.31963050365448
16.05,-2.1028010845184326,5.370650291442871,-5.583841800689697,0.10426673293113708,1.7214492559432983,1.0341238975524902
16.1,-6.471630096435547,0.567356526851654,2.9732160568237305,0.28099608421325684,5.219653606414795,2.93910551071167
16.15,-3.2262117862701416,3.2152109146118164,3.500842809677124,-0.47932904958724976,2.9363081455230713,3.603801965713501
16.2,-3.378297805786133,0.12018637359142303,2.7177531719207764,0.4935727119445801,-0.05561238154768944,4.148642063140869
16.25,0.925794243812561,-2.3699307441711426,1.5788651704788208,2.426445484161377,-1.9777772426605225,2.729989767074585
16.3,8.277703285217285,3.2056071758270264,-8.073424339294434,3.262542247772217,-1.2561227083206177,1.2777146100997925
16.35,-3.007546901702881,-1.6964807510375977,-11.559020042419434,0.3517310619354248,1.6821831464767456,-0.07747961580753326
16.4,-14.742225646972656,-5.8314666748046875,1.6179440021514893,-3.338000535964966,4.01533317565918,-0.5668890476226807
16.45,4.04872989654541,-5.5871429443359375,10.530060768127441,-3.9468655586242676,5.047852039337158,-0.140013188123703
16.5,2.5822248458862305,-4.054157257080078,8.84276294708252,-1.03104829788208,1.3195457458496094,0.14841456711292267
16.55,-2.33817982673645,-1.1976732015609741,1.3238991498947144,1.0807842016220093,-1.4065465927124023,-0.03313048928976059
16.6,-2.581709623336792,0.45815834403038025,0.8954410552978516,1.4971222877502441,-1.3172056674957275,0.3350890576839447
16.65,-0.43235576152801514,-1.3317691087722778,-0.05169368535280228,1.9070175886154175,-1.588181495666504,1.4478669166564941
16.7,-0.41770613193511963,-2.5831212997436523,-2.1635003089904785,1.558628797531128,-1.5035285949707031,0.7966029047966003
16.75,1.3843188285827637,-1.4897183179855347,-1.6821434497833252,1.270882248878479,-0.7905796766281128,0.2174225002527237
16.8,2.437124729156494,-0.43434223532676697,-1.0680615901947021,0.7226143479347229,-0.14642205834388733,-0.4193761646747589
16.85,4.035007953643799,-0.9653421640396118,-2.8208489418029785,0.23769766092300415,-0.06115899980068207,-0.6379421353340149
16.9,6.36383056640625,1.15156888961792,-1.1465814113616943,0.15032382309436798,0.48811307549476624,-0.7244716286659241
16.95,2.8586368560791016,8.024835586547852,4.372384548187256,0.6580842137336731,0.5222959518432617,-0.7289007902145386
17.0,-2.16795015335083,1.3179283142089844,0.16394124925136566,0.004182100296020508,0.3276478350162506,-1.1428191661834717
17.05,-4.788599491119385,-1.7686944007873535,0.6405820846557617,-1.5302462577819824,0.6944573521614075,-1.57096529006958
17.1,-5.583992958068848,1.6291900873184204,3.5272514820098877,-2.57881760597229,1.7073595523834229,-1.6275174617767334
17.15,4.068405628204346,-1.718306064605713,3.56801438331604,-1.3093125820159912,0.06070829555392265,-1.2411118745803833
17.2,-5.1957902908325195,-4.8232197761535645,-3.2822108268737793,-0.722846508026123,-1.818264365196228,-1.1092092990875244
17.25,0.271997332572937,-3.2189085483551025,-1.0359734296798706,-0.1681712567806244,-1.6176230907440186,-1.06949782371521
17.3,-0.07606351375579834,-0.8560623526573181,2.4022200107574463,0.16012905538082123,-1.1794123649597168,-0.3369981348514557
17.35,-3.5457613468170166,-0.5545043349266052,-2.376316547393799,-0.07233311235904694,-1.872093677520752,0.22849538922309875
17.4,3.708775043487549,-3.2282307147979736,-0.9370638728141785,-0.07663102447986603,-1.983479619026184,0.4624861776828766
17.45,-1.28028404712677,3.4607179164886475,5.121803283691406,0.3848836123943329,-4.073571681976318,0.07028832286596298
17.5,0.8597646355628967,3.7868502140045166,-5.132684230804443,1.5550129413604736,-4.755320072174072,-0.00933544710278511
17.55,4.685518741607666,-2.561537981033325,-5.76194953918457,-0.6400845050811768,0.5986231565475464,-0.5599853992462158
17.6,-0.7735363245010376,-3.7334582805633545,6.560087203979492,-1.53892183303833,4.247280597686768,-0.5616463422775269
17.65,0.20239830017089844,-3.7176899909973145,4.145246982574463,-1.0998693704605103,1.2447495460510254,-0.17023581266403198
17.7,0.5713485479354858,0.9184860587120056,-2.2154691219329834,0.0001100003719329834,-0.6890249848365784,-0.600519597530365
17.75,2.5596771240234375,-1.1947813034057617,-8.507349014282227,0.2510914206504822,-0.29038140177726746,-0.4433155357837677
17.8,2.229764223098755,-0.19788387417793274,-5.4105682373046875,-0.10954338312149048,1.721107840538025,-0.9015864729881287
17.85,2.521327495574951,1.2966097593307495,-5.188541412353516,-0.8166372776031494,2.605273485183716,-1.3980809450149536
17.9,1.0022964477539062,3.816490888595581,-9.006997108459473,-1.2002290487289429,2.976242780685425,-0.6343371272087097
17.95,-2.491156816482544,2.889695644378662,-3.636793375015259,0.2563406229019165,3.4795081615448,1.079170823097229
18.0,-9.857300758361816,1.7937456369400024,-5.869972229003906,1.039177656173706,6.59402322769165,3.379429340362549
18.05,-8.2138671875,-3.340322494506836,5.2833662033081055,2.146820068359375,6.7430267333984375,2.288731336593628
18.1,-1.5066202878952026,-5.794377326965332,6.816368103027344,1.3244889974594116,5.914482116699219,0.764211893081665
18.15,2.562180519104004,-0.6552922129631042,5.694765090942383,0.11393940448760986,4.617238998413086,-0.12016534805297852
18.2,-1.4613673686981201,6.9735894203186035,-2.8104825019836426,-0.274865984916687,2.8711798191070557,1.0131694078445435
18.25,-4.809873104095459,2.8144161701202393,-1.1957060098648071,2.4965157508850098,5.26617431640625,2.0610921382904053
18.3,-2.8941445350646973,-10.468472480773926,6.802122116088867,0.8029565811157227,2.7569580078125,-1.2465730905532837
18.35,-0.9626626968383789,-2.592871904373169,12.289483070373535,-2.7851431369781494,2.842686653137207,2.060941219329834
18.4,7.25642204284668,-0.1121872216463089,0.8355783224105835,-0.09987473487854004,6.622927665710449,4.336355686187744
18.45,6.044801712036133,1.1007781028747559,-8.967046737670898,-1.7474441528320312,2.678818464279175,1.7604581117630005
18.5,2.3629698753356934,-4.640749931335449,-0.6305208206176758,0.3158053457736969,0.08798263967037201,-1.2853087186813354
18.55,-0.9086645841598511,-3.8697023391723633,3.919217109680176,0.2342216819524765,-1.0676541328430176,-1.3583005666732788
18.6,1.4446803331375122,-4.697934627532959,2.5884599685668945,-0.26371532678604126,1.0355799198150635,-1.071815848350525
18.65,2.1118085384368896,-11.41910171508789,-1.4867048263549805,-0.5950979590415955,1.9992241859436035,-1.489420771598816
18.7,-1.3155958652496338,-18.870054244995117,-3.6825790405273438,-1.3248876333236694,0.4758155941963196,-1.8442399501800537
18.75,0.051105111837387085,-12.935211181640625,0.4100821614265442,-1.761152744293213,-0.09139666706323624,-0.34895241260528564
18.8,5.791444301605225,8.560386657714844,5.491545677185059,-1.3764444589614868,1.8535348176956177,2.7031514644622803
18.85,-5.2598981857299805,10.606207847595215,-9.705353736877441,-1.1149123907089233,3.712873935699463,2.096808910369873
18.9,-9.955057144165039,-1.0937070846557617,-3.8237082958221436,-0.4631117582321167,2.9514694213867188,0.3734632134437561
18.95,-0.06255006790161133,-2.5967836380004883,9.8161039352417,-0.30449792742729187,0.48736295104026794,0.47007519006729126
19.0,0.4706614017486572,-1.2658206224441528,8.697840690612793,-0.2532869577407837,2.5814173221588135,0.01274870801717043
19.05,3.2437665462493896,0.11487468332052231,2.5302436351776123,0.07332400232553482,4.177687644958496,0.27857881784439087
19.1,3.7650582790374756,0.3083508014678955,-0.44525012373924255,0.4470517337322235,4.752213001251221,-0.25685182213783264
19.15,5.630123615264893,-0.21667464077472687,0.2241705358028412,-0.14578962326049805,4.4174346923828125,-0.3213331699371338
19.2,15.517023086547852,1.8637828826904297,-1.4928433895111084,0.010934017598628998,4.509410381317139,0.17308001220226288
19.25,6.83096981048584,-0.303805947303772,-9.322752952575684,-0.6524690985679626,6.8339128494262695,0.5335977673530579
19.3,-10.724608421325684,-0.7199199795722961,-5.489513874053955,-1.0873725414276123,8.199295043945312,0.052277859300374985
19.35,-4.06215763092041,-4.348762512207031,2.2710070610046387,-2.104304552078247,6.584934234619141,-0.7292431592941284
19.4,-5.394020080566406,0.2539612948894501,0.666654646396637,-1.0502195358276367,2.7944114208221436,-0.44649434089660645
19.45,-4.1900482177734375,0.26988092064857483,1.8004353046417236,-0.42523473501205444,0.2591456174850464,-0.7360847592353821
19.5,-2.916347026824951,0.9152849316596985,1.4104276895523071,0.28035539388656616,-0.4923495650291443,-0.4678795635700226
19.55,-0.3899548053741455,-0.24798977375030518,0.5923072099685669,0.10564005374908447,-0.898213803768158,-0.9103121757507324
19.6,3.0213687419891357,-2.516481637954712,-2.560055732727051,-0.6320692896842957,0.3234756290912628,-0.7941824197769165
19.65,-1.4920201301574707,1.6338694095611572,-0.31469252705574036,0.19634798169136047,2.5845534801483154,-1.5822361707687378
19.7,-1.403688669204712,0.3167063593864441,2.3276944160461426,0.2251938134431839,1.6287574768066406,-0.5708389282226562
19.75,-1.1007565259933472,-0.0037023068871349096,0.8599957823753357,0.29266172647476196,0.21377262473106384,0.10966888070106506
19.8,-0.3072369694709778,1.6324777603149414,2.300391435623169,0.2681981325149536,0.29634445905685425,0.11521045118570328
19.85,-1.307450294494629,0.5496156811714172,1.468265175819397,-0.43596285581588745,-0.4378335177898407,0.2936984598636627
19.9,0.8510025143623352,-1.0622578859329224,-0.12240716814994812,-0.13569828867912292,-0.6308197379112244,0.5700415372848511
19.95,0.32920041680336,0.5015381574630737,1.424538254737854,0.30163082480430603,-0.031202640384435654,0.41596484184265137
20.0,1.426558256149292,1.3010095357894897,-1.4279483556747437,0.6086334586143494,0.48011648654937744,0.36066895723342896
20.05,-2.2612695693969727,3.2449188232421875,-5.195132732391357,0.9879497289657593,1.6584550142288208,-0.06676778942346573
20.1,-1.0531041622161865,0.8651620745658875,-0.818480372428894,0.7433761358261108,3.43829083442688,-1.5581965446472168
20.15,6.998723030090332,4.44442081451416,4.735811710357666,-0.23914313316345215,2.658853530883789,-2.2065236568450928
20.2,-3.6037583351135254,-0.6759727597236633,-3.4150586128234863,0.14945080876350403,-0.257609099149704,1.0462294816970825
20.25,-1.634648084640503,3.115013599395752,0.16713863611221313,0.8946195840835571,0.5284261107444763,0.7486817240715027
20.3,-0.5864561796188354,1.8532947301864624,-0.9776574969291687,0.5226625800132751,0.42607301473617554,-0.08399102836847305
20.35,2.364044666290283,-0.4458265006542206,0.0381629504263401,0.16200484335422516,-0.11588091403245926,-0.2787137031555176
20.4,-0.01552814245223999,-0.2687734365463257,2.7217423915863037,0.3302128314971924,-0.0743388682603836,0.04582049325108528
20.45,-1.7953530550003052,-0.28605276346206665,-0.44410163164138794,-0.09636154770851135,0.09709329158067703,0.7142035961151123
20.5,0.20603570342063904,0.6146736145019531,0.4734751284122467,-0.028144773095846176,0.8886482119560242,0.24594499170780182
20.55,1.1579177379608154,-0.37650278210639954,-1.8560948371887207,-0.04883383959531784,0.3655877709388733,-0.15953780710697174
20.6,1.900489330291748,-1.7172564268112183,-2.098742723464966,0.12577591836452484,0.23752816021442413,-0.6833294630050659
20.65,1.3233146667480469,-0.3373306095600128,-1.6293795108795166,0.24043019115924835,0.1967620700597763,-1.4579499959945679
20.7,1.799447774887085,-0.28609561920166016,0.22074416279792786,0.0017275810241699219,0.8904867172241211,-1.3269829750061035
20.75,4.907822608947754,-3.250972032546997,-1.3253620862960815,-0.8136105537414551,1.016362190246582,-0.9246729612350464
20.8,1.9093828201293945,1.4669195413589478,-3.133967638015747,-0.8661034107208252,0.8383045792579651,-0.972830057144165
20.85,4.696953773498535,4.437187671661377,-5.037188529968262,-0.09549103677272797,0.47600454092025757,-0.37625402212142944
20.9,2.7066993713378906,5.1424760818481445,-3.9840967655181885,0.5689507126808167,2.9189698696136475,0.2810502350330353
20.95,2.103632926940918,0.030947662889957428,0.9219228625297546,0.6758804321289062,2.483715772628784,1.078212022781372
21.0,2.202913999557495,-3.043269395828247,3.4342870712280273,-0.07944414019584656,2.6867802143096924,1.6593750715255737
21.05,2.7933766841888428,3.63012433052063,3.8445706367492676,-0.16853711009025574,0.7761455774307251,2.03531551361084
21.1,-3.999056577682495,2.1403701305389404,1.8336822986602783,1.022284984588623,-2.2688591480255127,1.9278836250305176
21.15,-11.727992057800293,-5.671957492828369,-1.19655179977417,0.10928189754486084,0.6726679801940918,0.75942063331604
21.2,-3.7252655029296875,-4.3037848472595215,3.11112904548645,-0.524597704410553,1.4905004501342773,-1.0763763189315796
21.25,5.574708461761475,-8.330682754516602,6.299535751342773,-0.3295578956604004,1.6079580783843994,-1.8911182880401611
21.3,0.5558586120605469,5.681207656860352,-5.486928939819336,-2.1411235332489014,0.46153563261032104,-1.7115440368652344
21.35,4.663364887237549,6.243435859680176,-8.379541397094727,-1.2035164833068848,0.27960261702537537,-0.41537895798683167
21.4,2.0532147884368896,3.8291819095611572,-6.046302795410156,0.5399227142333984,0.7937405109405518,0.5612248182296753
21.45,2.207728862762451,1.2758482694625854,-4.912766933441162,1.8159189224243164,1.703791618347168,0.8216063380241394
21.5,-3.667482376098633,-0.22754982113838196,0.855494499206543,2.560579538345337,4.528116226196289,2.850182294845581
21.55,-0.84326171875,-3.478182792663574,-1.272400975227356,2.739276647567749,3.5936927795410156,1.567427635192871
21.6,2.703575611114502,4.236107349395752,2.4271252155303955,2.397878408432007,2.404611825942993,0.19019198417663574
21.65,-0.626279354095459,-0.57242351770401,3.687898635864258,2.8719372749328613,1.5007710456848145,-0.08210711926221848
21.7,-0.7744449973106384,-6.0161590576171875,-0.0668025091290474,2.051896095275879,0.8383463025093079,-1.5687305927276611
21.75,1.613802433013916,-8.07605266571045,-1.206080675125122,-0.9111160039901733,0.9304786324501038,-0.5680869221687317
21.8,2.633782148361206,-11.676666259765625,0.45862728357315063,-1.6439018249511719,1.395289659500122,0.2843668758869171
21.85,3.7064411640167236,5.9800639152526855,-5.362218856811523,-3.0363550186157227,-0.6103744506835938,-1.4538499116897583
21.9,-8.519956588745117,-7.223799228668213,12.175249099731445,2.221142292022705,-1.3378245830535889,-0.9419519901275635
21.95,-0.9554824829101562,-14.759425163269043,7.547438144683838,0.0721251517534256,0.09980735927820206,0.15106724202632904
22.0,0.5663876533508301,7.117660045623779,4.2020978927612305,-3.397979259490967,-1.2726200819015503,-1.162453293800354
22.05,4.829060077667236,-4.063163757324219,-2.0224287509918213,-2.054236888885498,-1.6245414018630981,-1.603435754776001
22.1,-11.72966194152832,-1.4270703792572021,1.0616286993026733,0.22149327397346497,-1.2652301788330078,0.7228381037712097
22.15,3.8218746185302734,-2.920182704925537,2.453436851501465,-0.48351386189460754,-1.0123792886734009,-0.5806103944778442
22.2,0.07357573509216309,-2.6619956493377686,4.357799053192139,-0.1456240862607956,-1.8162943124771118,-0.09331968426704407
22.25,-2.6703786849975586,1.141377568244934,-0.5078567266464233,-1.7162206172943115,-3.601316452026367,-1.4167357683181763
22.3,-0.5306833386421204,-3.659332513809204,-2.31927490234375,-2.4678666591644287,-3.0292181968688965,-0.5344283580780029
22.35,1.3469762802124023,4.352687835693359,-11.984162330627441,-2.674224853515625,-1.9421534538269043,0.1630711555480957
22.4,-1.368455410003662,-0.20975461602210999,-3.4911739826202393,-0.6405091881752014,-0.3403019905090332,-0.09004932641983032
22.45,-0.7175140380859375,21.9267635345459,-8.335103988647461,-0.7462171316146851,-0.5028495788574219,-0.7318496108055115
22.5,-0.4577282667160034,6.155788898468018,-3.575401544570923,1.1964192390441895,2.656834840774536,1.1264150142669678
22.55,3.0886316299438477,0.5221951007843018,-0.5510802268981934,1.9183768033981323,3.614116668701172,2.8043503761291504
22.6,-5.167655944824219,4.496103763580322,-0.31390443444252014,3.671841859817505,4.164304256439209,3.4068856239318848
22.65,1.5069613456726074,-4.488382816314697,7.011517524719238,3.927450180053711,1.0571478605270386,1.031811237335205
22.7,-3.3237557411193848,4.7463579177856445,4.948118686676025,3.164630174636841,0.8727697134017944,0.06583617627620697
22.75,-1.990681529045105,-8.146186828613281,1.8476829528808594,2.8186254501342773,1.5108219385147095,-0.22113150358200073
22.8,1.9506396055221558,-10.698441505432129,1.153462529182434,-0.7582566738128662,1.8800328969955444,0.027823589742183685
22.85,3.2312073707580566,-12.85869026184082,2.3745062351226807,-2.5758533477783203,2.1081185340881348,1.0078332424163818
22.9,3.995661497116089,-11.418022155761719,1.3622887134552002,-3.181591510772705,-0.5611217021942139,-0.9084859490394592
22.95,9.402322769165039,28.566518783569336,-12.031722068786621,-1.8112735748291016,-1.178828477859497,-2.0004770755767822
23.0,-12.233449935913086,-3.718109130859375,8.023458480834961,2.559443950653076,1.2869044542312622,2.604566812515259
23.05,-1.3649654388427734,-9.987478256225586,-2.2370946407318115,-1.5345497131347656,-1.752663016319275,-3.8519322872161865
23.1,12.130546569824219,-9.327746391296387,-0.28284090757369995,-2.6943371295928955,-1.2372167110443115,0.05130365118384361
23.15,-22.422697067260742,0.4559660851955414,8.764488220214844,-0.757554292678833,-1.6107105016708374,-0.06616402417421341
23.2,6.394316673278809,-4.26375675201416,3.77248477935791,-0.6036465167999268,-2.409350633621216,-1.0924811363220215
23.25,-0.21221548318862915,-2.463853120803833,3.2908482551574707,-0.49092167615890503,-1.8026320934295654,-0.4221011698246002
23.3,-4.477952003479004,-0.45605748891830444,-2.4166030883789062,-0.8484256863594055,-3.543668746948242,-1.3451100587844849
23.35,0.07916629314422607,-3.940464973449707,-4.1090803146362305,-1.337388038635254,-1.5956002473831177,-1.1125282049179077
23.4,1.9205554723739624,-7.58726167678833,-2.3379905223846436,-1.0893837213516235,-0.1777067929506302,-0.6398292779922485
23.45,3.9673094749450684,4.175220489501953,-1.4495118856430054,-1.453234314918518,-0.582617461681366,-0.598930299282074
23.5,3.92226505279541,13.149539947509766,-9.698623657226562,-0.6291614174842834,0.4961688220500946,-0.019364265725016594
23.55,7.592263221740723,4.214922904968262,-2.571788787841797,1.5651509761810303,1.7430306673049927,0.4829433858394623
23.6,1.7772752046585083,-2.8971152305603027,1.7006781101226807,2.3439059257507324,1.6128575801849365,1.6134400367736816
23.65,-1.6848512887954712,2.0152299404144287,4.341883659362793,2.6606743335723877,3.61445689201355,4.296945571899414
23.7,-1.2948353290557861,5.234556674957275,7.061855316162109,3.157956600189209,1.1632460355758667,4.707470417022705
23.75,-0.3797621726989746,-3.0961458683013916,9.87276554107666,4.848796844482422,-2.400221109390259,2.848818063735962
23.8,-4.407961845397949,-11.509870529174805,-3.1657633781433105,2.7898402214050293,-2.644090414047241,-1.0305949449539185
23.85,-0.943789005279541,-12.615705490112305,-12.255784034729004,-1.028111219406128,0.5463076829910278,-1.5342334508895874
23.9,-4.304251194000244,-11.302970886230469,0.3547556698322296,-7.390295505523682,3.94565486907959,-0.0490565225481987
23.95,6.879318714141846,16.908063888549805,4.534643173217773,-1.9429349899291992,-2.477534770965576,-4.823734760284424
24.0,-0.38123440742492676,-0.22809594869613647,-9.121082305908203,1.2762985229492188,0.9117342233657837,1.599018931388855
24.05,6.349082946777344,-2.2898106575012207,4.536593914031982,0.5126452445983887,-0.09339870512485504,-0.6316531300544739
24.1,-0.10968637466430664,-1.936227798461914,6.2443389892578125,-0.5174465179443359,0.10100339353084564,0.33940473198890686
24.15,-4.914007186889648,-0.7598422169685364,-0.228064626455307,-0.8453772068023682,-2.0739543437957764,-1.4410463571548462
24.2,-0.12315357476472855,-2.799928903579712,-0.3950279653072357,-0.22524085640907288,0.5319036841392517,-0.027887461706995964
24.25,-1.9010720252990723,4.722704887390137,2.309776782989502,0.18509165942668915,0.6033467054367065,0.12041496485471725
24.3,-0.2205365002155304,-0.29436516761779785,1.678014874458313,-0.018947362899780273,0.9512518048286438,0.5437121987342834
24.35,-5.128964424133301,3.2285056114196777,-1.98477303981781,-0.7200397253036499,0.189991757273674,0.3404448330402374
24.4,-3.037651300430298,-0.23871442675590515,0.4748348891735077,-0.8282650113105774,0.2435123771429062,-0.1683785319328308
24.45,-0.07714541256427765,0.778277575969696,-0.5976077914237976,-0.3912171721458435,0.25291892886161804,-0.003286710474640131
24.5,-1.41167151927948,-5.470996856689453,0.7889846563339233,0.9373055696487427,-0.6092100143432617,1.1244438886642456
24.55,3.839303493499756,1.2956535816192627,0.7356321811676025,0.18278487026691437,-1.1300852298736572,0.5889246463775635
24.6,6.007080078125,6.049469470977783,-0.5318102836608887,-0.5701485276222229,-0.9449390172958374,-0.35681942105293274
24.65,0.805863618850708,-2.27860164642334,-2.223987102508545,-0.32287734746932983,-0.6698551774024963,0.7343289852142334
24.7,3.4139211177825928,-4.837856769561768,-1.3112609386444092,-1.1727982759475708,-0.4339693784713745,0.48716139793395996
24.75,2.479440212249756,4.421156406402588,-6.4247050285339355,-0.982666015625,-1.0635830163955688,-0.9291470646858215
24.8,0.6654195785522461,2.907918930053711,1.7902929782867432,0.5844709873199463,-0.3033832013607025,0.07679562270641327
24.85,-1.1590054035186768,-0.4690398871898651,-1.1891037225723267,0.2453596293926239,1.1009916067123413,0.4074642062187195
24.9,1.262234091758728,-3.810650110244751,1.7569725513458252,-0.13624899089336395,2.560018301010132,0.47503554821014404
24.95,4.474843978881836,-1.6471349000930786,0.8622151017189026,0.0073662251234054565,2.0476086139678955,-0.5826479196548462
25.0,11.172014236450195,2.3537328243255615,6.821081638336182,0.9632931351661682,4.108907699584961,-0.03144654631614685
25.05,-5.77669620513916,3.7671077251434326,-4.014730453491211,1.640848994255066,-0.3347412049770355,0.7464381456375122
25.1,-6.022711753845215,-2.994622230529785,-4.645184516906738,0.20354318618774414,-0.5666446089744568,-0.06364437937736511
25.15,-13.755783081054688,1.1425862312316895,0.9943119287490845,-0.3359435498714447,0.2633647918701172,-0.8904832601547241
25.2,3.8808743953704834,0.5766010284423828,1.85109281539917,-0.6202934980392456,2.4540011882781982,-1.0865095853805542
25.25,11.311813354492188,-1.3753302097320557,4.85001802444458,0.29359105229377747,0.6075928807258606,-0.7971474528312683
25.3,1.6641358137130737,4.494053363800049,1.6402512788772583,0.7819238901138306,-2.4022057056427,0.10902009904384613
25.35,-5.0859832763671875,-0.26125380396842957,1.853448748588562,1.1108711957931519,-3.2939019203186035,0.761675238609314
25.4,-1.230034351348877,-0.6394165754318237,-1.7318925857543945,0.4686794579029083,-2.09537672996521,1.1344884634017944
25.45,2.2785234451293945,-0.3215804696083069,5.000426292419434,-0.5792106986045837,-0.9463926553726196,1.8226841688156128
25.5,-0.5647742748260498,-1.2740987539291382,1.3646702766418457,0.9562145471572876,-3.2165639400482178,3.3132190704345703
25.55,4.9727067947387695,-5.4040303230285645,-5.1831955909729,2.5529935359954834,-5.224645137786865,3.3982012271881104
25.6,-12.088629722595215,-0.600756049156189,-26.05446434020996,1.1875,-3.5582640171051025,-0.8125703930854797
25.65,4.192503929138184,4.046510219573975,-8.415783882141113,-1.1330440044403076,2.405559778213501,0.3513448238372803
25.7,5.899251937866211,-0.6944772601127625,2.9873907566070557,-1.9011647701263428,2.627365827560425,-0.17483589053153992
25.75,1.8178248405456543,-5.409127235412598,1.5552997589111328,1.4877572059631348,1.365054965019226,-2.5215096473693848
25.8,3.0111870765686035,0.028803938999772072,0.04475933685898781,0.7509473562240601,1.255239486694336,-2.1831576824188232
25.85,-2.7382454872131348,12.150238990783691,2.005903959274292,-1.867873191833496,1.3675717115402222,-0.801805853843689
25.9,4.500303268432617,1.5222055912017822,1.6802358627319336,-0.46008220314979553,2.854576349258423,0.18442265689373016
25.95,5.544435501098633,0.0906456932425499,2.734562397003174,0.060909003019332886,2.2992019653320312,0.24047021567821503
26.0,2.6992177963256836,-4.383183479309082,3.9821901321411133,0.3241371512413025,1.5386525392532349,0.31861990690231323
26.05,-0.16469764709472656,-1.756781816482544,-0.4153752028942108,0.38259628415107727,0.3893495798110962,0.09406526386737823
26.1,-6.001336097717285,1.0697892904281616,-3.7234721183776855,-0.11439327895641327,-0.7276595830917358,0.49087607860565186
26.15,-10.207562446594238,4.412478923797607,-2.0837416648864746,0.08707448840141296,0.5851491689682007,-0.3016361594200134
26.2,-0.7671681642532349,3.5287058353424072,2.6034035682678223,-0.4027484655380249,2.6009767055511475,-0.9413184523582458
26.25,-4.15235710144043,0.3991415202617645,-2.7182626724243164,-0.24269205331802368,0.8652440905570984,-1.4683494567871094
26.3,3.1509265899658203,-1.877455711364746,-0.71208655834198,-1.1010091304779053,1.552620530128479,-0.3668432831764221
26.35,15.065649032592773,0.6181030869483948,4.904764175415039,-1.5230097770690918,0.8587139844894409,0.9068015813827515
26.4,0.20267605781555176,1.3408743143081665,3.6835248470306396,1.2748167514801025,-4.293682098388672,0.7171772122383118
26.45,-9.13085651397705,-3.900984525680542,-5.823140621185303,0.8373898267745972,-5.025804042816162,-0.15793807804584503
26.5,-4.833917140960693,-5.42171573638916,-4.376383304595947,-0.07937251776456833,-1.7272275686264038,0.2542175352573395
26.55,-1.6545329093933105,-2.015230655670166,2.2792062759399414,-1.1944639682769775,-0.002241623355075717,0.7283199429512024
26.6,4.135347843170166,9.518213272094727,-1.3668209314346313,-0.012697398662567139,-0.6788193583488464,1.975803017616272
26.65,0.9590435028076172,-3.1744534969329834,1.7177151441574097,1.7592787742614746,-3.6957404613494873,2.539043664932251
26.7,-10.279128074645996,4.1361403465271,-9.899702072143555,2.911924123764038,-5.113229751586914,-0.46637627482414246
26.75,0.686957597732544,-7.169471263885498,-11.332500457763672,-0.166582390666008,-0.41102293133735657,-0.39552807807922363
26.8,4.972351551055908,-0.6106347441673279,0.4559157192707062,-2.2293097972869873,1.9358141422271729,-1.7070980072021484
26.85,-0.29131683707237244,3.5110132694244385,2.117095470428467,-0.8689085841178894,1.3744813203811646,-3.1602067947387695
26.9,2.025620698928833,-0.3610782027244568,-0.019818052649497986,0.3087179362773895,1.2991567850112915,-2.382746458053589
26.95,5.418197154998779,2.799933671951294,2.511530876159668,-0.904049277305603,2.4942071437835693,-1.1115094423294067
27.0,1.2710118293762207,1.517121434211731,1.1120660305023193,-0.7970723509788513,2.441561698913574,0.30777978897094727
27.05,-0.056630939245224,-3.3448357582092285,-0.3771522641181946,0.4929068088531494,2.4879262447357178,0.2570043206214905
27.1,-0.11287821829319,-3.20943021774292,0.02400008775293827,1.8312897682189941,2.157822370529175,-1.0699307918548584
27.15,-2.562697410583496,0.05099129304289818,5.365170955657959,1.0590007305145264,2.8984694480895996,-1.813340187072754
27.2,3.0217530727386475,2.9975032806396484,-4.762302398681641,-1.4253363609313965,4.16465425491333,-0.8262970447540283
27.25,-7.226129055023193,6.977243423461914,-0.7584723234176636,-1.3932162523269653,3.6854898929595947,0.11909622699022293
27.3,-2.539557933807373,-4.906062126159668,-6.610838890075684,-0.3948251008987427,4.345641613006592,0.5152744650840759
27.35,-10.355432510375977,7.156386375427246,4.233726501464844,-1.6199805736541748,1.7290912866592407,0.9410746097564697
27.4,-6.389893531799316,-0.9196996688842773,5.1378068923950195,-0.25765031576156616,4.446440696716309,-0.29418104887008667
27.45,7.513186931610107,-2.7980244159698486,5.746937274932861,1.7106306552886963,7.5895609855651855,-1.0821540355682373
27.5,1.7231206893920898,1.3762927055358887,-2.252824068069458,2.4523990154266357,7.230373859405518,-1.1304482221603394
27.55,8.686107635498047,3.441746711730957,-0.9123495221138,1.989959478378296,3.5699849128723145,-1.7194547653198242
27.6,1.5929999351501465,-7.234349250793457,-4.067258358001709,-1.2566832304000854,1.3927335739135742,-1.68228018283844
27.65,-2.087397575378418,-8.47851848602295,4.550421714782715,-3.104924201965332,0.05617113783955574,0.4072648286819458
27.7,8.189358711242676,2.908290147781372,2.3375742435455322,1.3778855800628662,3.748448133468628,2.979100465774536
27.75,-4.781971454620361,6.986083030700684,5.534433364868164,2.383146286010742,10.02106761932373,-1.7708423137664795
27.8,-5.4316935539245605,-0.03002815879881382,-19.738962173461914,-1.1003788709640503,5.411581516265869,0.22654996812343597
27.85,5.7083892822265625,3.6824560165405273,6.113478183746338,1.0937230587005615,-0.7070924639701843,-0.6103097796440125
27.9,8.52717399597168,-2.8449788093566895,-6.76171350479126,0.7600950598716736,0.5778782963752747,1.4704970121383667
27.95,-3.119011640548706,3.325544595718384,1.7852026224136353,1.3500815629959106,-0.05158519744873047,1.5782716274261475
28.0,-0.6366063356399536,-1.7298839092254639,-3.9663703441619873,0.4484007656574249,0.49263203144073486,0.12196820974349976
28.05,2.465639352798462,4.450720310211182,0.5673897862434387,0.7426151037216187,0.0008400366059504449,0.39142316579818726
28.1,0.2744888663291931,-0.05271746963262558,2.244561195373535,0.3519366979598999,0.09836079180240631,-0.08707069605588913
28.15,2.848101854324341,-2.0931942462921143,0.4035482704639435,0.27968499064445496,1.2189322710037231,0.06207124888896942
28.2,-0.9794347882270813,1.0562011003494263,-0.5496578812599182,0.7337498664855957,1.9914203882217407,0.3412720561027527
28.25,-0.779049277305603,-0.1777133047580719,-1.1101503372192383,0.5073840618133545,2.012970209121704,0.13881024718284607
28.3,-1.8176333904266357,0.8446646928787231,-0.5567710399627686,0.564826250076294,1.1371294260025024,0.3026312291622162
28.35,-0.9389826059341431,0.37469106912612915,-0.5282676815986633,0.176039919257164,0.7982815504074097,0.019748317077755928
28.4,0.6008946299552917,-0.14618019759655,0.4148428738117218,0.12936411798000336,0.3538287281990051,0.03009483404457569
28.45,-0.06495550274848938,-0.07276253402233124,0.29601040482521057,0.06975176185369492,0.4616014063358307,0.11010132730007172
28.5,-1.508832335472107,0.9223700165748596,0.07185360044240952,0.06897496432065964,0.886062502861023,0.142661914229393
28.55,-1.5267462730407715,0.9545212984085083,-0.3292458653450012,-0.267539918422699,0.4810294210910797,0.09763035923242569
28.6,-0.6453055739402771,0.19186601042747498,-0.694426417350769,-0.6535912752151489,0.11098632216453552,-0.07973907142877579
28.65,-0.284892201423645,-0.875188946723938,-0.23289676010608673,-0.8705222606658936,0.023135989904403687,-0.12166212499141693
28.7,0.04756070673465729,-1.0229188203811646,-0.364683598279953,-0.8625429272651672,-0.03645404428243637,-0.03557746484875679
28.75,-0.19580644369125366,-0.2528514564037323,-0.4485570192337036,-0.7184350490570068,0.059980060905218124,0.032702140510082245
28.8,-0.3703911602497101,-1.0869159698486328,-0.7591521739959717,-0.4214937686920166,0.1522969752550125,0.11798959225416183
28.85,0.5061816573143005,-0.08768846094608307,0.22871719300746918,-0.05711405351758003,0.3080297112464905,0.21597297489643097
28.9,-0.18048277497291565,1.1864739656448364,0.2116900086402893,0.016479134559631348,0.7562412023544312,0.1546565592288971
28.95,-0.955610990524292,0.38432401418685913,0.7824500203132629,-0.2937895357608795,0.7768635153770447,0.1163569837808609
29.0,-0.49731355905532837,-0.02103426866233349,0.060061391443014145,-0.4441174268722534,0.41378623247146606,0.12736786901950836
29.05,-0.13485118746757507,0.5486249923706055,0.22132955491542816,-0.4626087546348572,0.011581862345337868,0.18933893740177155
29.1,0.15580172836780548,-0.624387800693512,0.04457646608352661,-0.5374683141708374,0.09598013013601303,0.0892663449048996
29.15,0.4146668314933777,-0.35247802734375,-0.22577416896820068,-0.43037381768226624,0.27980419993400574,-0.022672105580568314
29.2,-0.6131281852722168,0.1582203209400177,-0.2715766131877899,-0.38533270359039307,0.40534406900405884,-0.07406861335039139
29.25,-0.31527915596961975,-0.15260031819343567,0.08009827136993408,-0.44738465547561646,0.16207356750965118,-0.09419021755456924
29.3,0.07343392074108124,-0.29671481251716614,0.13554853200912476,-0.4673230051994324,0.05545460805296898,-0.05045740306377411
29.35,0.49442994594573975,-0.2746849060058594,0.02294265851378441,-0.45047786831855774,0.03126786649227142,-0.020168107002973557
29.4,0.2965453863143921,-0.1408081352710724,0.21811912953853607,-0.42242488265037537,-0.0024301717057824135,0.03180021792650223
29.45,0.1658620834350586,-0.043395042419433594,0.0354422926902771,-0.4131121039390564,-0.059224341064691544,0.020686037838459015
29.5,0.2136547714471817,-0.045916564762592316,0.0904199630022049,-0.4733164608478546,-0.14881682395935059,0.05455244705080986
29.55,0.30927011370658875,0.13703443109989166,0.11947055906057358,-0.4004032611846924,-0.2370690107345581,0.008094758726656437
29.6,0.8584045171737671,-0.2851848900318146,0.38069865107536316,-0.38762176036834717,-0.2626515328884125,-0.08292736113071442
29.65,1.1071717739105225,0.2072611004114151,0.46004384756088257,-0.30506017804145813,-0.177771657705307,-0.09675980359315872
29.7,0.6422070860862732,0.4636287987232208,0.4305550456047058,-0.32032904028892517,-0.040240395814180374,-0.050614144653081894
29.75,-0.3899991512298584,-0.4858342111110687,0.16960769891738892,-0.4291769862174988,0.14733780920505524,-0.031244907528162003
29.8,0.049046676605939865,-0.1874246746301651,0.014599989168345928,-0.3709433376789093,-0.09807705879211426,-0.004816477186977863
29.85,0.045746542513370514,-0.1477946937084198,-0.40452736616134644,-0.38253480195999146,-0.07081747055053711,-0.017612749710679054
29.9,-0.11202017962932587,-0.49806126952171326,0.15235073864459991,-0.4661271572113037,-0.030200745910406113,-0.09026867151260376
29.95,0.210256889462471,0.14161109924316406,0.24652151763439178,-0.43371614813804626,-0.05029413849115372,-0.13483120501041412
30.0,0.23288185894489288,0.20825104415416718,-0.0927971675992012,-0.4593171775341034,-0.044728245586156845,-0.08653061836957932
30.05,-0.07074566185474396,-0.1412535011768341,0.09656272083520889,-0.508538544178009,0.09111234545707703,-0.0017063505947589874
30.1,-0.3474203944206238,0.05814936012029648,-0.2477215975522995,-0.4729834198951721,0.012446623295545578,-0.02412080578505993
30.15,-0.37494727969169617,0.20715047419071198,-0.031999196857213974,-0.5446115732192993,0.0005464189453050494,-0.0583169087767601
30.2,-0.2456016093492508,0.6440591812133789,0.33812761306762695,-0.5154576897621155,0.0005840748781338334,-0.11843612790107727
30.25,-0.3216489255428314,0.3925057053565979,-0.045543573796749115,-0.47223061323165894,-0.009133674204349518,-0.2233232855796814
30.3,-0.4479619860649109,0.0014486325671896338,-0.15724778175354004,-0.4602290391921997,0.10848352313041687,-0.38903099298477173
30.35,-0.20657438039779663,0.5733090043067932,-0.2809346616268158,-0.39036840200424194,0.01916464976966381,-0.47620129585266113
30.4,0.22199007868766785,0.5810118913650513,-0.32851916551589966,-0.4563583731651306,-0.09695279598236084,-0.3748399019241333
30.45,-0.055240511894226074,0.4348498284816742,-0.3463577926158905,-0.47046586871147156,0.004359083715826273,-0.29921042919158936
30.5,-0.8447206616401672,0.12821297347545624,-0.49939000606536865,-0.49210670590400696,0.04081188887357712,-0.3118375539779663
30.55,-0.148294135928154,0.4624033570289612,-0.16112765669822693,-0.5191147923469543,-0.16767555475234985,-0.3190525472164154
30.6,0.5976019501686096,0.4546061158180237,0.2045709639787674,-0.45391449332237244,-0.17413944005966187,-0.4276244342327118
30.65,0.528006911277771,-0.6666269302368164,-0.27580520510673523,-0.3820563554763794,-0.17160505056381226,-0.49767419695854187
30.7,0.14519119262695312,0.6442471146583557,0.18803635239601135,-0.2798020839691162,-0.1257329136133194,-0.5849007964134216
30.75,0.37558090686798096,-0.14636608958244324,-0.2555049955844879,-0.3387625813484192,-0.1422562450170517,-0.3463453948497772
30.8,0.1840091496706009,-0.33624181151390076,0.5570433735847473,-0.2437727451324463,-0.130051851272583,-0.08392861485481262
30.85,0.1901160031557083,0.0525989793241024,-0.09889426082372665,-0.18017464876174927,-0.07377593219280243,-0.1413240134716034
30.9,0.41549983620643616,0.2682867646217346,0.008079583756625652,-0.12979617714881897,0.008805064484477043,-0.14371010661125183
30.95,2.3672783374786377,0.10199291259050369,-1.7081472873687744,-0.23738694190979004,0.1472172737121582,-0.44908538460731506
31.0,-0.632239043712616,-2.264986991882324,-2.095543622970581,-0.6010149121284485,0.30196163058280945,-0.619831383228302
31.05,-0.34491169452667236,2.575056314468384,0.21764245629310608,-0.7019230127334595,0.1354818046092987,-0.39802661538124084
31.1,1.2454731464385986,6.83787727355957,1.8453329801559448,-0.4905925691127777,0.22575123608112335,-0.483111709356308
31.15,-2.047224283218384,4.032609462738037,0.9970435500144958,-0.24510058760643005,0.4503239095211029,-0.2782291769981384
31.2,-1.6663100719451904,0.9595844149589539,-1.1506205797195435,0.03702118992805481,-0.2600080072879791,0.7514766454696655
31.25,0.46278253197669983,-0.9164954423904419,0.34136664867401123,0.09643539786338806,-0.6998060941696167,1.127551555633545
31.3,-0.4649003744125366,-1.811735987663269,0.8725402355194092,0.42241236567497253,-0.759501039981842,0.4765335023403168
31.35,-0.6182224154472351,-1.6047823429107666,0.08838281035423279,0.9328278303146362,-0.9501059651374817,-0.3578490614891052
31.4,-0.9496445059776306,-2.613109827041626,0.23233097791671753,0.8092375993728638,-1.41736900806427,-0.8272473812103271
31.45,1.4920886754989624,-1.5075361728668213,0.824526846408844,0.5700217485427856,-1.4919028282165527,-0.14057672023773193
31.5,3.5888917446136475,-1.8017476797103882,2.071873188018799,0.24326640367507935,-1.090405821800232,0.20786423981189728
31.55,1.8967024087905884,-1.4097949266433716,0.7382200956344604,0.28726527094841003,-0.007413480430841446,-0.0404704213142395
31.6,0.1887483298778534,0.5647708773612976,-0.7877081036567688,-0.019396118819713593,0.6567277908325195,0.13653165102005005
31.65,-1.0462939739227295,-0.09996889531612396,-0.6309546232223511,-0.6743987202644348,0.8154162168502808,0.6528993844985962
31.7,-0.8308737874031067,-0.9641429781913757,0.0691276341676712,-1.2025635242462158,0.6437320709228516,1.0040136575698853
31.75,0.0658872202038765,-0.6268826127052307,0.03377315774559975,-0.7809063196182251,0.6408634781837463,0.9047455787658691
31.8,1.4266945123672485,-1.1473082304000854,-1.2728911638259888,-0.36429935693740845,0.6311780214309692,0.3295789659023285
31.85,-1.0417002439498901,0.2903481125831604,-0.5013604164123535,-0.06041286885738373,0.8353336453437805,-0.49364298582077026
31.9,-0.5499905347824097,0.6494486331939697,-1.743152379989624,-0.052747368812561035,0.656408429145813,-1.0325713157653809
31.95,-0.1591658592224121,-0.26837998628616333,-1.7246475219726562,-0.25396716594696045,-0.007911581546068192,-0.698650062084198
32.0,1.2635475397109985,0.8193486928939819,-1.3940482139587402,-0.6974217891693115,-0.4135028123855591,-0.6257103681564331
32.05,0.6825942993164062,2.7325997352600098,-1.5468555688858032,-0.6706531643867493,-0.20269331336021423,-0.9853935241699219
32.1,0.810127854347229,4.826608180999756,-0.14834608137607574,-0.763489842414856,-0.031767867505550385,-0.8621584177017212
32.15,0.8698492050170898,4.152599811553955,2.0092520713806152,-0.055997155606746674,0.3915572166442871,-0.05558686703443527
32.2,-1.349326252937317,1.4008709192276,3.7546024322509766,0.8529318571090698,0.8283242583274841,1.08279550075531
32.25,0.8825860023498535,-1.2050769329071045,5.2752366065979,1.7883203029632568,0.6729448437690735,2.1955926418304443
32.3,0.652250349521637,0.7168223857879639,2.5405173301696777,2.3348686695098877,0.7618778944015503,1.1217402219772339
32.35,-1.9796977043151855,-0.6251587271690369,2.156935453414917,2.0352783203125,0.9915730357170105,0.27316993474960327
32.4,2.9056897163391113,-0.7199050188064575,1.6352556943893433,2.2809484004974365,-0.3812532424926758,0.47491779923439026
32.45,9.254260063171387,3.097804546356201,-6.098309516906738,2.76124906539917,-0.30043062567710876,-0.6622229218482971
32.5,5.200286865234375,-3.0626981258392334,-4.643456935882568,2.278810977935791,2.319952964782715,-0.36573296785354614
32.55,-4.202939987182617,-3.0893030166625977,-1.8204823732376099,2.7921347618103027,3.5756640434265137,-0.05094436556100845
32.6,-5.718850135803223,-3.712641477584839,-0.41883227229118347,2.8224947452545166,2.1193017959594727,0.007818244397640228
32.65,-2.1874194145202637,-0.7174846529960632,0.0630473792552948,2.639721393585205,0.08806902915239334,-0.8042808175086975
32.7,0.8908165693283081,-4.468769073486328,1.2197060585021973,1.2592053413391113,-0.144789919257164,-0.4936506748199463
32.75,2.910325050354004,2.1561570167541504,-0.7133283019065857,1.6252332925796509,0.6777870059013367,0.24755355715751648
32.8,-2.1389317512512207,4.188551902770996,3.8227217197418213,0.7826308608055115,1.7682565450668335,0.20061244070529938
32.85,-1.125866174697876,0.26700302958488464,0.2388286292552948,-0.3602096140384674,0.7599940299987793,0.10887516289949417
32.9,1.278517723083496,-0.15322758257389069,-1.6211965084075928,0.3188121020793915,-0.36933642625808716,0.20202837884426117
32.95,0.18883928656578064,0.619145393371582,0.46050122380256653,0.3692970275878906,0.3015250861644745,0.17252740263938904
33.0,-3.2797322273254395,0.7960890531539917,0.7724980711936951,-0.04391534626483917,0.5682827234268188,0.6072651743888855
33.05,-3.539865255355835,0.9705139994621277,2.445373773574829,-0.1011686697602272,-0.4902351498603821,0.6050493717193604
33.1,-2.2522377967834473,1.1827718019485474,-0.6864413619041443,-0.8814405202865601,-0.7581894993782043,0.8932857513427734
33.15,-5.565762996673584,0.9401123523712158,-2.6682872772216797,-1.021666407585144,-0.9292066693305969,1.1872225999832153
33.2,-3.849307060241699,1.4750207662582397,-3.680438756942749,-0.8588031530380249,-1.474036693572998,0.9977478384971619
33.25,2.521744728088379,2.052342176437378,-2.8718888759613037,-0.9769702553749084,-1.1841102838516235,0.4302273094654083
33.3,0.2418106198310852,-2.395824432373047,3.0278944969177246,-1.1118918657302856,-0.9375423789024353,0.44436949491500854
33.35,1.9793477058410645,-1.6769403219223022,1.4235150814056396,-0.37255626916885376,-2.346316337585449,0.05302700772881508
33.4,6.080026626586914,-0.15981820225715637,-1.9523571729660034,0.21684223413467407,-2.3904263973236084,-0.15448087453842163
33.45,2.0547022819519043,-0.8115130662918091,0.6688671708106995,0.4834040701389313,-1.0393625497817993,-0.472301185131073
33.5,0.369585245847702,-1.1111185550689697,1.2831737995147705,0.9151490926742554,-1.494676947593689,-0.4062061905860901
33.55,2.7788684368133545,-2.138542890548706,0.9983769655227661,0.8278847932815552,-1.8977280855178833,-0.440665602684021
33.6,4.003134250640869,0.920596182346344,1.8569881916046143,0.9976177215576172,-1.5921941995620728,-0.20014338195323944
33.65,3.7497289180755615,-1.4959118366241455,2.697288751602173,0.934585690498352,-0.7139370441436768,-0.11321794986724854
33.7,2.1498420238494873,0.39178553223609924,2.065013885498047,1.0161737203598022,-0.35440656542778015,0.10285355150699615
33.75,0.5110112428665161,0.4092825651168823,1.7358328104019165,0.9961025714874268,-0.5240775346755981,0.15078866481781006
33.8,0.8142158389091492,1.3480958938598633,0.9146856665611267,0.851740837097168,-0.3953014314174652,0.17807817459106445
33.85,0.8973766565322876,1.2142552137374878,2.0758914947509766,0.2971898913383484,-0.024566587060689926,0.18421277403831482
33.9,-3.1637041568756104,-0.9815123081207275,-0.15399694442749023,-0.2676445245742798,0.017116552218794823,0.3831723630428314
33.95,-2.66347074508667,1.9397844076156616,-1.436703085899353,-0.5346994400024414,-0.8872112035751343,0.027465829625725746
34.0,-0.06102070212364197,1.202505350112915,-1.0140087604522705,-0.6542714834213257,-1.1393377780914307,-0.5378308296203613
34.05,-0.13424989581108093,-0.5159615874290466,-0.9659996032714844,-0.7831072807312012,-0.42771872878074646,-0.6449944376945496
34.1,-0.6220043301582336,0.9206525683403015,-0.5846959948539734,-0.5395854711532593,0.23633892834186554,-0.6933819055557251
34.15,0.42995214462280273,0.6252890825271606,-0.27891799807548523,-0.9033888578414917,-0.057600196450948715,-0.8864766359329224
34.2,3.1960909366607666,-0.18218611180782318,0.7826933860778809,-1.3209630250930786,0.5480206608772278,-0.8093158602714539
34.25,-0.7643882036209106,2.4555389881134033,-0.9386541247367859,-2.210655927658081,2.1673057079315186,-0.9597715139389038
34.3,0.465420126914978,5.257041931152344,-4.900537967681885,-4.00521183013916,1.1090959310531616,-0.4976045787334442
34.35,6.3466877937316895,-2.4146547317504883,-3.187177896499634,-4.683778285980225,-0.19554656744003296,1.816851019859314
34.4,6.23750638961792,-0.2952795624732971,2.3153862953186035,-2.6110410690307617,1.7206674814224243,2.142732620239258
34.45,1.9649556875228882,-5.521237850189209,-0.9837246537208557,-0.25681164860725403,3.8810830116271973,-0.9868580102920532
34.5,-1.578397274017334,-6.863958358764648,0.8423806428909302,0.5393205285072327,4.511383533477783,-1.7033770084381104
34.55,0.013713061809539795,-5.457931041717529,1.645424485206604,2.457362174987793,3.553593873977661,-0.6338167786598206
34.6,1.8741291761398315,0.5791499018669128,-4.245368480682373,4.027807235717773,2.721845865249634,-0.8679652214050293
34.65,-4.4912567138671875,8.083934783935547,-1.6620789766311646,3.3881936073303223,2.883115291595459,-2.7165260314941406
34.7,0.538496732711792,1.9764583110809326,3.9143736362457275,0.05520215630531311,4.671868801116943,-1.6428711414337158
34.75,0.4277708828449249,-2.296903610229492,-1.0144095420837402,0.08956097811460495,4.17144250869751,-0.5375879406929016
34.8,-1.0824798345565796,-0.17213773727416992,-4.5225629806518555,-0.3051721453666687,3.2644689083099365,-0.3404422104358673
34.85,-0.6200029253959656,-1.0256291627883911,-0.3688338100910187,0.631302535533905,3.227916717529297,-0.5039165616035461
34.9,-0.989240825176239,1.265754222869873,-3.0535619258880615,0.11916837096214294,3.021608591079712,-0.7632483839988708
34.95,-2.1753060817718506,1.2949327230453491,-2.403348922729492,0.23336106538772583,3.5539603233337402,-0.35391196608543396
35.0,-1.5387024879455566,-0.22713781893253326,1.3882149457931519,0.4675566554069519,3.8023858070373535,-0.03283160552382469
35.05,-0.8223457932472229,-0.1526562124490738,4.78814697265625,0.2467849999666214,3.1367666721343994,0.11267948150634766
35.1,1.102948546409607,-0.18221984803676605,3.205951690673828,0.043894920498132706,1.8812825679779053,0.07852188497781754
35.15,0.15480643510818481,0.4090631902217865,1.845064640045166,0.14710059762001038,0.43122389912605286,-0.13416843116283417
35.2,-0.047684162855148315,1.4153728485107422,0.9282400012016296,0.21546143293380737,0.4566652178764343,0.026957232505083084
35.25,-0.016830742359161377,-0.9830601215362549,0.9731951951980591,0.0701274573802948,0.7461647391319275,0.4152916967868805
35.3,0.03479905426502228,0.6010924577713013,-0.547855794429779,-0.08112234622240067,0.6670880913734436,0.401261568069458
35.35,0.24193596839904785,0.5558682084083557,0.17612779140472412,0.30189457535743713,0.4396802484989166,0.5907216668128967
35.4,-1.381748914718628,-0.9413262009620667,-1.2098757028579712,0.8088024258613586,0.3482590913772583,0.5100868344306946
35.45,-1.01236891746521,0.45611780881881714,-1.228103518486023,0.774369478225708,1.1124041080474854,0.33175206184387207
35.5,-0.9608705639839172,2.7136356830596924,-0.10251597315073013,0.8451152443885803,2.0057573318481445,0.6233952045440674
35.55,0.9143925905227661,0.47130003571510315,1.6234052181243896,1.6770308017730713,2.7125139236450195,1.2610663175582886
35.6,5.724010467529297,0.4774456322193146,2.2116053104400635,2.321458101272583,2.593517780303955,2.2461659908294678
35.65,4.233933448791504,-1.4669232368469238,4.213271617889404,3.107255697250366,-0.8147029876708984,1.5382453203201294
35.7,-8.51394271850586,-10.424650192260742,4.8474225997924805,2.5384864807128906,-1.1753195524215698,-0.5338294506072998
35.75,-4.067380428314209,-7.071099758148193,0.8951831459999084,0.3582272529602051,0.887100875377655,-0.2261255532503128
35.8,10.522281646728516,-0.24793817102909088,3.360262155532837,-0.13860416412353516,1.0125983953475952,1.5275825262069702
35.85,3.8774051666259766,2.476837396621704,1.8820792436599731,-0.498119056224823,-1.0552935600280762,-1.4268091917037964
35.9,-2.381911516189575,4.4999918937683105,-1.8097199201583862,-1.3931201696395874,-2.981227159500122,-2.524264335632324
35.95,-0.17929738759994507,-2.8919410705566406,-2.0175583362579346,-1.5314103364944458,-1.3880234956741333,-0.5346826314926147
36.0,4.366677761077881,-9.608379364013672,5.489333152770996,-1.357550024986267,-0.4767538011074066,0.41262465715408325
36.05,-3.0515451431274414,-1.140620231628418,5.6441731452941895,-2.493004083633423,-2.23047137260437,-0.959549605846405
36.1,-6.702683448791504,5.315807342529297,-5.11401891708374,-2.5544402599334717,-3.365407943725586,-2.386225938796997
36.15,1.6977754831314087,4.37548303604126,1.2981263399124146,-0.5644022226333618,-0.792036771774292,-1.000233769416809
36.2,-5.3388752937316895,1.0517497062683105,-5.2379655838012695,-0.6944444179534912,-0.32762616872787476,-0.7506399154663086
36.25,1.2664515972137451,-0.5347880125045776,-1.335404634475708,0.1982152909040451,0.9119889736175537,-0.33599603176116943
36.3,3.636658191680908,-2.0227303504943848,2.491518497467041,-0.11969415843486786,0.41398224234580994,-0.43034565448760986
36.35,1.2020081281661987,-3.0289416313171387,0.004971161484718323,-0.5654824376106262,-0.09202665090560913,0.20528294146060944
36.4,-1.671458125114441,-1.131321907043457,-1.676787257194519,-0.3668193221092224,-0.12727126479148865,0.6603538393974304
36.45,-2.4798223972320557,0.12996429204940796,-4.267359733581543,0.6888148188591003,0.06989192217588425,-0.5036678910255432
36.5,-3.227290630340576,-2.9984965324401855,-2.3140103816986084,0.5909907221794128,1.3109246492385864,0.030040351673960686
36.55,-0.44719162583351135,0.0694970190525055,0.6519858837127686,0.4421119689941406,2.4548113346099854,0.6474874019622803
36.6,-0.5266305208206177,2.0382776260375977,1.0426640510559082,0.4004281163215637,2.6213889122009277,0.5876860618591309
36.65,-1.7602109909057617,2.9009170532226562,1.403668761253357,0.6891168355941772,2.5131959915161133,0.719819962978363
36.7,1.4299803972244263,1.762513279914856,1.2255617380142212,1.5995876789093018,3.490819215774536,1.2082948684692383
36.75,8.777630805969238,-0.7451663017272949,-1.8771170377731323,2.4205236434936523,1.8170427083969116,1.4602341651916504
36.8,4.708734035491943,-4.971406936645508,0.41450414061546326,3.668008327484131,-0.2685202956199646,1.5875964164733887
36.85,-2.8501245975494385,-2.6563618183135986,-0.25659915804862976,2.8300461769104004,-1.4750241041183472,-0.25881487131118774
36.9,-3.528329372406006,3.8955790996551514,-3.7350354194641113,0.6562412977218628,-1.6687871217727661,-2.428283929824829
36.95,-3.3437020778656006,-0.20801039040088654,-3.802699089050293,-1.5559043884277344,-1.184416651725769,-0.08364886045455933
37.0,2.3097782135009766,-7.353090763092041,-3.106003761291504,-1.5538725852966309,0.9939929842948914,1.1130273342132568
37.05,2.0360164642333984,-1.5842294692993164,6.455716133117676,-1.996938705444336,0.6944674253463745,-0.17996233701705933
37.1,-0.6865544319152832,9.447340965270996,11.234770774841309,-2.054798126220703,-1.7758558988571167,-1.303773283958435
37.15,-0.10104995965957642,-1.2436593770980835,2.429227590560913,-0.3559114634990692,-3.3854284286499023,-0.4764872193336487
37.2,-7.3911824226379395,0.6582887768745422,-0.5715742707252502,-1.3366680145263672,-3.3173935413360596,-1.4944120645523071
37.25,0.15873128175735474,1.539599061012268,-2.723520040512085,-1.6704206466674805,-0.6205704808235168,-1.5150593519210815
37.3,1.231069564819336,-1.3814973831176758,-0.9131492972373962,-0.5880640745162964,-0.12366686761379242,-0.7661756277084351
37.35,-2.0045061111450195,-0.45379722118377686,-2.165701389312744,-0.1322373002767563,0.7859487533569336,-0.43148162961006165
37.4,5.332979202270508,-3.1371021270751953,-1.68403959274292,0.34310105443000793,0.8517938256263733,0.6718326807022095
37.45,0.22244030237197876,-6.169147968292236,2.054105043411255,0.4100823402404785,-0.1824006289243698,0.6652660965919495
37.5,-6.2006144523620605,0.21140088140964508,-0.9309955835342407,-0.4046887457370758,-0.75849449634552,0.09850045293569565
37.55,-0.25069165229797363,-0.24126185476779938,2.8126275539398193,0.2840847969055176,0.8621490001678467,-0.7329182624816895
37.6,2.978242874145508,-0.17776770889759064,0.4397382438182831,0.0452035516500473,1.1524518728256226,0.21652734279632568
37.65,-0.03287839889526367,0.4265816807746887,-2.1087088584899902,0.21941867470741272,0.438872754573822,0.4400632977485657
37.7,-2.6694278717041016,0.05059169605374336,-2.753309726715088,0.195443257689476,0.3810734152793884,0.10367318987846375
37.75,-2.7707431316375732,-0.01990111544728279,-2.305359125137329,-0.018238745629787445,1.2633699178695679,0.05157556012272835
37.8,-3.091348648071289,-0.5969439744949341,-0.5493230223655701,-0.18467006087303162,1.8478699922561646,0.41206610202789307
37.85,-1.0286402702331543,-0.028922293335199356,1.4441543817520142,-0.09709087759256363,1.8231526613235474,0.4576196074485779
37.9,0.9406567811965942,-0.28937533497810364,0.2940894067287445,0.0333879292011261,1.520088791847229,0.4698222875595093
37.95,1.3766376972198486,-0.1366444230079651,0.8763190507888794,0.1982487440109253,1.0377404689788818,0.5132497549057007
38.0,1.976404070854187,-0.6403457522392273,1.716256022453308,0.23598071932792664,0.9124186635017395,0.45280522108078003
38.05,3.251483917236328,1.093853235244751,-0.07563750445842743,-0.10426685214042664,0.7474691271781921,0.23635515570640564
38.1,4.31607723236084,0.6253361105918884,-1.502482295036316,0.10682293027639389,-0.17785035073757172,0.03272997587919235
38.15,1.9774231910705566,-0.36099424958229065,-0.4955742061138153,0.7891215085983276,-1.1077160835266113,0.29551079869270325
38.2,-0.2252160608768463,-2.79089093208313,0.05947527289390564,1.20233952999115,-1.17133367061615,0.20014409720897675
38.25,-0.48261725902557373,0.630101203918457,0.15894263982772827,0.7233412265777588,-0.37956681847572327,-0.4884222745895386
38.3,2.739969253540039,1.198288083076477,0.6083300709724426,0.839846670627594,0.8267368078231812,-0.5332149267196655
38.35,2.1261441707611084,-1.4551023244857788,2.3122012615203857,1.2792257070541382,0.9830330014228821,-0.2552947998046875
38.4,-3.2203550338745117,-0.5156376957893372,1.1009608507156372,0.9235931634902954,0.4479060471057892,0.38476014137268066
38.45,-5.008594989776611,-0.37850117683410645,-0.008652733638882637,0.2803689241409302,1.4512370824813843,1.02151358127594
38.5,-4.6275787353515625,1.670821189880371,0.4162209928035736,-0.2790507674217224,2.37996768951416,1.457244634628296
38.55,-1.4218424558639526,4.134859085083008,1.8081824779510498,-0.7355839610099792,2.367109537124634,1.6730016469955444
38.6,4.424052715301514,6.968486785888672,0.17784453928470612,-0.5444669723510742,0.6476842761039734,0.7464998960494995
38.65,5.205842971801758,1.4297540187835693,-3.266705274581909,0.95203697681427,-3.0595691204071045,-2.0371756553649902
38.7,-4.355354309082031,-6.117130279541016,-0.5474678874015808,1.7792237997055054,-5.000288009643555,-2.6893513202667236
38.75,-6.728732109069824,-12.356576919555664,-1.5775684118270874,-0.11358195543289185,-2.154104709625244,-0.3963501751422882
38.8,-2.8145487308502197,-14.25312614440918,-5.671357154846191,-2.4031577110290527,0.7318167090415955,-0.9869852662086487
38.85,-0.3019183874130249,-7.970608234405518,-5.487463474273682,-2.4342494010925293,3.0033457279205322,-1.2224286794662476
38.9,9.932867050170898,0.76485675573349,0.5318378210067749,-1.0905659198760986,2.6100401878356934,-0.5810945630073547
38.95,4.303799152374268,-2.0146989822387695,3.762178659439087,-0.003002569079399109,-0.5649842619895935,0.4947545528411865
39.0,-7.0262579917907715,1.1233776807785034,-0.6061934232711792,-0.16525781154632568,-2.1679153442382812,0.3104216754436493
39.05,-5.12465238571167,-0.47588467597961426,-0.2608644366264343,-0.009109333157539368,-0.1367434859275818,0.49590206146240234
39.1,-0.6363343596458435,-0.26588723063468933,-0.7778694033622742,-0.6398949027061462,1.2765647172927856,1.032166838645935
39.15,1.2522742748260498,0.08086591958999634,-0.011806090362370014,-0.31529897451400757,0.6447060108184814,0.6172772645950317
39.2,3.077664613723755,-0.0407743826508522,1.3098831176757812,0.30437591671943665,-0.9667091369628906,-0.0016502361977472901
39.25,0.5174427628517151,0.4720144271850586,0.6333973407745361,0.9173085689544678,-3.078636884689331,0.172434002161026
39.3,-0.5935214757919312,1.6014635562896729,-0.15479129552841187,1.4073238372802734,-3.8000617027282715,0.13876686990261078
39.35,-3.222299814224243,-1.0297166109085083,-0.8316019177436829,1.2861627340316772,-1.802109956741333,-0.41758081316947937
39.4,1.0238147974014282,2.374758720397949,1.747982144355774,-0.06477218866348267,1.183327555656433,-0.9252394437789917
39.45,8.233139038085938,2.1601059436798096,2.880979299545288,-0.28204345703125,2.033888578414917,-0.18612883985042572
39.5,3.637176275253296,-1.8651808500289917,1.9469473361968994,0.16882748901844025,0.8982290029525757,0.6190953850746155
39.55,-6.678610801696777,-1.2760039567947388,-2.4401612281799316,0.003926366567611694,-0.40489840507507324,0.8389739394187927
39.6,-7.7525506019592285,0.38753989338874817,-2.390784978866577,0.009250327944755554,0.6788959503173828,0.8273715972900391
39.65,1.9366540908813477,0.09236875921487808,3.431088447570801,0.4760719835758209,0.6025387644767761,-0.32460537552833557
39.7,4.759782314300537,-3.0732109546661377,11.52005672454834,1.2118635177612305,-1.4523227214813232,-0.6526563167572021
39.75,-3.352410078048706,-2.438344955444336,8.753255844116211,1.318679690361023,-3.848191738128662,0.27537301182746887
39.8,-6.698171615600586,0.5998943448066711,-0.07752911746501923,1.0083063840866089,-4.961520195007324,0.31179139018058777
39.85,-6.910646438598633,1.4286541938781738,-5.126101493835449,1.152714729309082,-3.8819243907928467,0.06187275052070618
39.9,-4.046709060668945,-0.15483787655830383,-7.325233459472656,0.8020269274711609,-1.2332179546356201,0.7273340821266174
39.95,-0.13529586791992188,-0.4376066029071808,-2.235077142715454,-0.5219513177871704,1.0174956321716309,1.3301299810409546
40.0,-0.045392632484436035,0.35099974274635315,1.0816490650177002,-0.9625824093818665,1.1464667320251465,0.7028853893280029
40.05,0.914628267288208,-0.5767136216163635,0.2933557629585266,-0.4421440660953522,0.5993034839630127,-0.354953795671463
40.1,2.442009210586548,-0.38389304280281067,0.6420246958732605,-0.45387083292007446,0.5273078083992004,-0.7755635976791382
40.15,2.8923580646514893,-0.35630980134010315,-0.0913277119398117,-0.7351073026657104,0.43740710616111755,-0.7384596467018127
40.2,1.8249938488006592,-0.057560745626688004,-0.9545726776123047,-0.8941941261291504,0.5730447173118591,-0.5745816230773926
40.25,1.638796329498291,0.30616018176078796,-0.9334685206413269,-0.8010513782501221,1.0318996906280518,-0.5341830253601074
40.3,1.8618208169937134,0.5028860569000244,-0.776856005191803,-0.8151571750640869,1.3870166540145874,-0.4607371687889099
40.35,2.0502209663391113,0.38052287697792053,-0.16670401394367218,-0.9699214696884155,1.6639149188995361,-0.271221786737442
40.4,2.408485174179077,-0.013221744447946548,0.8068814873695374,-0.9889423251152039,1.658798098564148,-0.1009758934378624
40.45,1.6035022735595703,-0.4837847054004669,0.3954017460346222,-1.0004100799560547,1.0860862731933594,-0.13923116028308868
40.5,0.039971724152565,-0.6024712920188904,-0.8312522768974304,-1.1586817502975464,0.19111274182796478,-0.4595649540424347
40.55,-2.474424123764038,0.6665623188018799,-2.1489295959472656,-1.4343928098678589,-0.18736915290355682,-0.5140169858932495
40.6,-4.562131881713867,1.1777403354644775,-2.5710437297821045,-1.3069658279418945,0.4165538251399994,-0.0569458082318306
40.65,-2.831789493560791,2.12444806098938,-0.5690178871154785,-0.5447128415107727,1.151362657546997,0.3006685674190521
40.7,1.4196739196777344,2.5187158584594727,3.440333127975464,0.5033045411109924,0.7798058390617371,0.4144028127193451
40.75,2.036914825439453,-1.416314721107483,5.185008525848389,1.8487048149108887,-0.8434313535690308,0.5281069874763489
40.8,-1.2974594831466675,-3.1670114994049072,2.439657688140869,2.653630018234253,-2.4147374629974365,0.6572609543800354
40.85,-2.613872766494751,-2.7656497955322266,1.4947079420089722,2.7138772010803223,-3.378356456756592,0.8535179495811462
40.9,-6.774465084075928,1.6888686418533325,-1.4580891132354736,2.1121721267700195,-4.312174320220947,0.14374980330467224
40.95,-6.70879602432251,1.9649614095687866,-3.5849106311798096,0.6095502376556396,-1.5860596895217896,0.07336212694644928
41.0,1.2336976528167725,0.3191118836402893,0.06640324741601944,-1.0276931524276733,1.6579831838607788,0.19727298617362976
41.05,6.241363048553467,0.38290685415267944,2.998054027557373,-1.477470874786377,1.7528303861618042,-0.4524589776992798
41.1,4.722298622131348,0.49112802743911743,1.608449935913086,-1.2332496643066406,0.6154165267944336,-0.772094190120697
41.15,2.755875825881958,0.21567077934741974,-0.5569593906402588,-0.546057403087616,-0.16534996032714844,-0.778024435043335
41.2,0.7119314670562744,-0.6854054927825928,-2.5545406341552734,-0.4058515429496765,-0.1766032874584198,-0.5991015434265137
41.25,0.08198779821395874,-0.0919911339879036,-2.5086238384246826,-0.7284437417984009,0.8014874458312988,-0.45965778827667236
41.3,0.23297721147537231,0.0826370045542717,-1.3318413496017456,-1.191616415977478,1.8086808919906616,-0.46143314242362976
41.35,0.6486037373542786,0.005024932324886322,0.02675098180770874,-1.2494655847549438,1.9288041591644287,-0.3901102840900421
41.4,0.26920464634895325,1.4572556018829346,-1.4045757055282593,-0.769300103187561,1.120499849319458,-0.3403626084327698
41.45,-0.9030614495277405,1.6943936347961426,-2.353947162628174,-0.4962412416934967,0.7650176286697388,-0.18676728010177612
41.5,-2.391977310180664,-1.0412492752075195,-1.373557448387146,-0.484087735414505,1.2129074335098267,0.18529559671878815
41.55,-4.748217582702637,-1.2160961627960205,-0.8953664898872375,-0.20644229650497437,1.3939913511276245,0.3242860436439514
41.6,-4.209666728973389,0.28822600841522217,-0.10012432187795639,0.04310397058725357,1.3339186906814575,0.2906949520111084
41.65,-0.4951532483100891,-0.49453291296958923,2.088955879211426,0.5504623055458069,0.9929938912391663,0.345951110124588
41.7,1.888370156288147,-0.9009924530982971,0.2056015282869339,0.718605101108551,0.0485742911696434,0.07673070579767227
41.75,-0.724256694316864,-0.9859455823898315,-2.407331705093384,0.7863345742225647,-0.8648620247840881,0.032820504158735275
41.8,-4.069362163543701,0.8027586936950684,-4.3020806312561035,1.3708893060684204,-1.1468857526779175,0.1752840131521225
41.85,-3.545448064804077,5.062951564788818,0.24775543808937073,1.9169979095458984,-0.39252880215644836,0.14736483991146088
41.9,1.861675500869751,1.5408252477645874,7.746155738830566,2.380319356918335,1.5782179832458496,0.46257516741752625
41.95,4.613088607788086,-2.7790446281433105,3.2069339752197266,2.67732572555542,1.878213882446289,0.7369256019592285
42.0,0.805178165435791,-2.5636467933654785,-1.1119892597198486,2.3969168663024902,-0.29270172119140625,-0.3503546416759491
42.05,-0.6246482133865356,-3.7358219623565674,-1.738093614578247,1.8242459297180176,0.18334941565990448,-1.125625729560852
42.1,1.0770862102508545,-0.8626024723052979,-6.933815002441406,0.9297754764556885,1.9541711807250977,-0.5535640716552734
42.15,-4.315579414367676,1.4687341451644897,-3.674107789993286,-0.14333145320415497,2.17026686668396,-0.6323505640029907
42.2,-7.303886413574219,-2.380703926086426,11.539102554321289,-1.8696693181991577,2.9917001724243164,1.2997037172317505
42.25,5.3261613845825195,-0.5864239931106567,10.462228775024414,-2.247553825378418,5.284437656402588,4.302001953125
42.3,8.383331298828125,-0.4522252380847931,-1.5758180618286133,-2.2311134338378906,4.5303215980529785,3.3788657188415527
42.35,3.2065744400024414,-2.683511972427368,0.45963338017463684,-1.6476271152496338,1.2109230756759644,1.1717969179153442
42.4,0.03037738800048828,-2.2938616275787354,4.711271286010742,-1.1366095542907715,-0.21977753937244415,0.4307386875152588
42.45,-0.22791752219200134,-0.5587142109870911,2.17964243888855,-0.9322752952575684,0.06694458425045013,0.8690047860145569
42.5,0.9341180324554443,-1.1163562536239624,1.9899924993515015,-1.009251356124878,-0.35852909088134766,0.2924572825431824
42.55,-0.7363272905349731,-0.05120771378278732,1.1691272258758545,-0.8396987915039062,-0.9835352897644043,0.1994713991880417
42.6,-1.8938572406768799,2.206732988357544,-0.1776810884475708,-0.3097056746482849,-1.2813966274261475,-0.015948014333844185
42.65,-2.3705291748046875,2.107592821121216,-0.039195574820041656,0.27655673027038574,-1.0776382684707642,-0.4321839213371277
42.7,-2.257110357284546,0.09173369407653809,1.381589412689209,0.7608261108398438,-0.9137619733810425,-0.8560893535614014
42.75,-2.6412155628204346,1.6840609312057495,1.8036214113235474,0.8917995095252991,-0.9563286900520325,-0.8563527464866638
42.8,-4.658770561218262,0.989013671875,-0.739026665687561,1.1814032793045044,-0.3589608371257782,-0.7322306036949158
42.85,-2.5296685695648193,2.394876003265381,-3.1744015216827393,2.097471237182617,0.7705028057098389,-1.3592990636825562
42.9,2.4288084506988525,3.3323769569396973,-6.599564552307129,2.75921630859375,0.6872879862785339,-2.2134039402008057
42.95,2.24190616607666,-1.3845245838165283,-6.780486106872559,2.238067865371704,-0.5910083055496216,-3.0998003482818604
43.0,0.6957383155822754,-3.5512685775756836,-4.808156967163086,0.9971756339073181,-1.1049641370773315,-2.592822551727295
43.05,0.31336653232574463,1.5740883350372314,-0.40703749656677246,-0.1415429264307022,-0.8116644620895386,-0.17057698965072632
43.1,-2.4891653060913086,-0.23357552289962769,4.5638957023620605,-0.2003389298915863,0.36536240577697754,1.7103805541992188
43.15,0.5481956005096436,-6.415737628936768,1.6946803331375122,-0.015273034572601318,2.5627777576446533,2.6228044033050537
43.2,3.932126998901367,-3.8175413608551025,-0.999735951423645,-0.8344628214836121,2.8751776218414307,3.181727409362793
43.25,2.7475626468658447,-0.5022068023681641,0.527481734752655,-1.4370930194854736,1.34708833694458,2.596296787261963
43.3,0.396328330039978,0.3396358788013458,0.1584567129611969,-1.7780616283416748,0.32407283782958984,1.7536778450012207
43.35,-0.4472365081310272,-0.8629735112190247,1.4789882898330688,-1.4069900512695312,-0.3003365099430084,1.085158348083496
43.4,-0.6531832814216614,-0.4703153669834137,2.685126304626465,-1.0896755456924438,0.42193400859832764,0.9769930839538574
43.45,-0.7087239027023315,1.2205973863601685,0.2550230324268341,-1.2126802206039429,0.49217405915260315,0.7976990342140198
43.5,-0.30382248759269714,1.7452996969223022,-1.0408068895339966,-0.4845690429210663,0.009998214431107044,0.18858134746551514
43.55,-1.164555311203003,3.691633462905884,1.7451616525650024,0.21247339248657227,-0.35808470845222473,-0.4829479455947876
43.6,-1.3212947845458984,0.8528679609298706,1.7863397598266602,0.48634102940559387,-0.6648445725440979,-1.0840411186218262
43.65,-0.5867269039154053,-2.9124858379364014,0.5806692242622375,0.7277905344963074,-0.6659322381019592,-1.2231285572052002
43.7,-3.908982753753662,-0.3206026554107666,0.42958828806877136,0.839165985584259,-0.48274657130241394,-0.9901962876319885
43.75,-1.4790096282958984,3.663926839828491,-1.8612457513809204,0.9921311140060425,-0.009086640551686287,-1.643120527267456
43.8,2.3289809226989746,-0.3143325448036194,-3.0005834102630615,0.9295697808265686,0.6797958016395569,-2.7374305725097656
43.85,-1.4793809652328491,-3.7390565872192383,-1.394460916519165,-0.1460731029510498,0.5865187048912048,-2.2927567958831787
43.9,-3.7299351692199707,-2.6477508544921875,0.5375946164131165,-1.4017876386642456,0.9160181283950806,-0.5800372362136841
43.95,0.06995105743408203,1.3334040641784668,4.7875494956970215,-1.991479516029358,2.744934320449829,1.4963864088058472
44.0,5.5322418212890625,6.089881896972656,-5.771050930023193,-1.9803931713104248,4.3397040367126465,3.133878231048584
44.05,-1.3395063877105713,3.483790636062622,-6.513342380523682,-0.16979512572288513,4.506591796875,2.13997220993042
44.1,-2.008859395980835,-1.073368787765503,4.4063591957092285,0.707384467124939,3.6319499015808105,-0.07597173750400543
44.15,0.7475488185882568,-3.1836745738983154,5.467406749725342,0.0946042537689209,3.1546504497528076,-0.22151340544223785
44.2,3.5531816482543945,-0.5661607980728149,5.581742763519287,-0.21906940639019012,3.2366557121276855,0.49571049213409424
44.25,4.38491153717041,1.9028569459915161,2.337350606918335,0.22671937942504883,4.239312648773193,0.47647348046302795
44.3,5.180816650390625,0.11674344539642334,-1.238366961479187,0.17798128724098206,5.219394683837891,-0.2467721700668335
44.35,3.486046314239502,-1.0751930475234985,-2.9709181785583496,-0.2952311336994171,4.70555305480957,-0.28720012307167053
44.4,-1.094529151916504,-0.1971680223941803,-3.448896646499634,-0.3366013765335083,4.146341323852539,0.04173323139548302
44.45,-3.4090123176574707,0.5568621754646301,-3.111860513687134,-0.20327484607696533,4.005793571472168,0.003962484188377857
44.5,-3.9308934211730957,-0.7837153077125549,-1.8953050374984741,-0.15607282519340515,3.5792276859283447,-0.5170730948448181
44.55,-4.823965549468994,-0.6649590730667114,-1.2419737577438354,0.26644787192344666,2.413477897644043,-0.7067865133285522
44.6,-2.125629425048828,0.7806560397148132,-1.1666840314865112,0.49940475821495056,1.4403740167617798,-0.7514525651931763
44.65,-2.3254384994506836,0.11347761005163193,0.1749638468027115,0.019321322441101074,1.2368731498718262,-0.4343634843826294
44.7,-3.9351935386657715,-0.1679251790046692,1.1158652305603027,-0.6458112597465515,0.40740829706192017,-0.2183762788772583
44.75,-1.4499304294586182,-0.22099986672401428,0.5579432845115662,-1.1640939712524414,-1.3375170230865479,-0.15224698185920715
44.8,0.6672967672348022,0.4815292954444885,0.17065681517124176,-1.3026829957962036,-2.1408212184906006,0.09577269107103348
44.85,2.1505048274993896,1.4634171724319458,0.5696251392364502,-1.1129591464996338,-1.8445005416870117,0.29608142375946045
44.9,2.7220287322998047,0.21029561758041382,1.708037257194519,-0.947451114654541,-0.9498308300971985,0.12091183662414551
44.95,0.8131468296051025,-0.49922487139701843,1.538775086402893,-0.6691936254501343,0.25411415100097656,-0.46070024371147156
45.0,-0.33664005994796753,0.2677916884422302,0.6221904158592224,-0.2791289687156677,0.41616344451904297,-0.5626432299613953
45.05,-1.0174472332000732,0.4176950752735138,-0.19310304522514343,-0.11741125583648682,0.04243775084614754,-0.17883384227752686
45.1,-1.8063316345214844,0.46005070209503174,-1.1823818683624268,-0.0564567930996418,-0.055509552359580994,0.18051473796367645
45.15,-1.0422475337982178,0.4117242097854614,-0.8583158850669861,-0.07657140493392944,-0.06881769001483917,0.19070762395858765
45.2,-0.6271864175796509,0.35941794514656067,-0.10400119423866272,-0.0627327412366867,0.026801224797964096,-0.01269439235329628
45.25,-0.5147030353546143,0.00019164092373102903,0.23853713274002075,-0.11229569464921951,0.0612051859498024,-0.16709911823272705
45.3,-0.3081044852733612,-0.2474108338356018,0.21571829915046692,-0.155546635389328,-0.06274433434009552,-0.134628564119339
45.35,-0.5471271276473999,0.26442620158195496,0.3335126042366028,-0.04284622520208359,-0.16620378196239471,0.06809345632791519
45.4,-1.0510444641113281,1.156326174736023,1.2078601121902466,0.057286374270915985,0.14086301624774933,0.13068817555904388
45.45,-1.1614725589752197,1.094309687614441,1.1732035875320435,0.24819053709506989,0.8470358848571777,0.12176686525344849
45.5,0.20941856503486633,0.6936522722244263,-0.30282819271087646,0.6720936298370361,1.407791256904602,0.002615967532619834
45.55,2.457758903503418,0.5693085193634033,-0.9643887877464294,1.0056893825531006,1.444767713546753,-0.7460276484489441
45.6,1.1135601997375488,-2.160445213317871,-0.7899177074432373,0.4647398591041565,1.5305196046829224,-1.0753769874572754
45.65,-0.7085539102554321,-0.6461000442504883,-0.8616646528244019,0.032502539455890656,0.9033812284469604,-0.42753198742866516
45.7,-2.542726516723633,0.5496053695678711,-0.4033633768558502,-0.5499269962310791,-0.7729592323303223,0.28053614497184753
45.75,-2.124992847442627,-1.519080400466919,-0.5408666729927063,-1.487621545791626,-3.110462188720703,0.7843584418296814
45.8,3.1343021392822266,-0.8958912491798401,0.4759625792503357,-1.2530597448349,-4.338640213012695,0.9260988235473633
45.85,4.943475723266602,-0.02721141092479229,3.5001840591430664,-0.5474753379821777,-2.5442070960998535,0.5341984033584595
45.9,3.3331401348114014,-0.5264647603034973,3.251436233520508,0.1573406457901001,0.3968859910964966,0.44562429189682007
45.95,1.5335330963134766,-0.46105191111564636,-0.30345913767814636,1.0329118967056274,2.439635992050171,1.1481983661651611
46.0,0.2989475727081299,1.3198426961898804,-2.2636821269989014,1.9021344184875488,3.280212640762329,1.5807377099990845
46.05,-4.100244998931885,4.551990985870361,-1.075250267982483,1.5620020627975464,3.3818094730377197,0.9743325114250183
46.1,-5.227189064025879,-0.6990487575531006,3.7980165481567383,-0.38341253995895386,3.45414662361145,-0.35765108466148376
46.15,0.4386675953865051,-0.780178427696228,2.238525152206421,-0.5435508489608765,1.205635905265808,-0.8527439832687378
46.2,7.091860294342041,3.58022403717041,-1.6053013801574707,0.6123012900352478,-0.9682042598724365,-0.15388721227645874
46.25,6.394342422485352,0.4547751545906067,-0.024258557707071304,0.7357707023620605,-0.6157721877098083,-0.29177138209342957
46.3,-2.390151023864746,0.17577296495437622,-3.2240970134735107,-0.1736963391304016,1.1191105842590332,-1.095313549041748
46.35,-4.90842866897583,0.12711115181446075,0.9105159044265747,-0.14673800766468048,0.44763216376304626,-0.4118412733078003
46.4,1.2301421165466309,-2.090930223464966,0.7183306217193604,0.20250186324119568,-1.7704527378082275,0.5318551659584045
46.45,6.526131629943848,-1.6893982887268066,-3.807664632797241,0.16455239057540894,-1.506160855293274,0.462778240442276
46.5,5.803974628448486,-0.42851677536964417,-3.3268890380859375,0.5149844884872437,0.2720325291156769,0.06376773118972778
46.55,-0.24274221062660217,-0.361959308385849,-1.6509803533554077,0.4996413290500641,1.9491325616836548,-0.18347348272800446
46.6,-5.991350173950195,-0.7080017924308777,2.8936991691589355,0.5216524600982666,2.310915470123291,-0.23813873529434204
46.65,-4.293262481689453,1.1220325231552124,4.632671356201172,0.2907220423221588,1.3198562860488892,-0.48714926838874817
46.7,0.35503679513931274,1.5067825317382812,2.4749672412872314,-0.6323093771934509,0.004350669682025909,-0.43577277660369873
46.75,0.6908512711524963,-0.951037585735321,0.8150282502174377,-0.9473989009857178,0.24828268587589264,0.27026891708374023
46.8,-0.4691735804080963,0.43151000142097473,0.17695751786231995,-0.44693523645401,1.1359385251998901,0.8764217495918274
46.85,-0.3876743018627167,3.728219509124756,0.2907120883464813,0.25241467356681824,1.751659870147705,1.0661059617996216
46.9,-4.156251430511475,-0.16532672941684723,3.693309783935547,-0.6452527642250061,3.2579472064971924,0.7414299845695496
46.95,-2.0847604274749756,-3.883847236633301,8.346497535705566,-1.2576221227645874,3.262572765350342,0.33826151490211487
47.0,2.647244930267334,-0.9727147221565247,2.4090611934661865,-0.5251661539077759,0.012862170115113258,-0.23479564487934113
47.05,6.411534309387207,2.7207322120666504,-7.712374210357666,0.3223821222782135,-2.200740098953247,-0.9991970658302307
47.1,4.5271077156066895,-0.6164186000823975,-8.982710838317871,0.22276146709918976,-1.2525994777679443,-0.6159130930900574
47.15,-0.968514621257782,1.7234249114990234,2.223606586456299,-0.9947032928466797,0.8623853325843811,-0.15614216029644012
47.2,-4.077176570892334,1.2991148233413696,2.498593330383301,-0.7319948673248291,-0.5844548344612122,0.8910506963729858
47.25,-1.9874423742294312,-0.6101875901222229,-0.6795493364334106,-0.4178295433521271,-3.0781304836273193,1.9083173274993896
47.3,3.420933723449707,-1.720748782157898,-1.571260929107666,-0.2390148639678955,-4.279478073120117,1.6859380006790161
47.35,9.607593536376953,-13.15683650970459,-8.962486267089844,0.1358688771724701,-1.8817424774169922,0.9717832803726196
47.4,-13.45026683807373,6.304209232330322,-7.175628662109375,2.8612043857574463,2.2801270484924316,-1.5051312446594238
47.45,-12.966198921203613,8.510153770446777,2.045632839202881,1.4115409851074219,3.688718795776367,-1.762600302696228
47.5,-2.0047056674957275,-3.29062557220459,0.061831604689359665,-0.5576063990592957,1.5793514251708984,-0.6448156237602234
47.55,0.28376293182373047,1.6733843088150024,-2.8638174533843994,-0.6274787187576294,-0.09299648553133011,-0.9746690988540649
47.6,1.5526962280273438,2.2989516258239746,-0.9270374178886414,0.2435612976551056,-0.7330124974250793,-0.13000372052192688
47.65,3.007518768310547,-1.6494220495224,2.1985433101654053,0.3198539912700653,-1.3083016872406006,0.5156440138816833
47.7,2.6009020805358887,-2.0566294193267822,0.5280590057373047,-0.31432488560676575,-0.9514123797416687,0.056617122143507004
47.75,3.19268798828125,-0.9633648991584778,2.6683149337768555,-0.34963107109069824,0.1558503955602646,0.4076744616031647
47.8,-0.7102105021476746,3.890362024307251,2.286130428314209,0.31056973338127136,0.7957487106323242,0.36764565110206604
47.85,-5.453394889831543,2.650616407394409,2.3368425369262695,0.4210112988948822,1.7413450479507446,0.7865543961524963
47.9,-4.756855487823486,-2.116745710372925,1.9484682083129883,-0.5482486486434937,1.8497170209884644,0.9594623446464539
47.95,-1.3871808052062988,-1.0091736316680908,0.569815993309021,-1.312381386756897,1.0240769386291504,0.397830992937088
48.0,4.530781269073486,0.3201681673526764,-3.544074773788452,-1.0807557106018066,0.5007360577583313,0.15123453736305237
48.05,4.363099575042725,0.42113372683525085,-4.0161261558532715,-0.8071684241294861,1.469721794128418,0.05228709056973457
48.1,1.910274863243103,-0.2451324313879013,0.18356934189796448,-1.1780298948287964,0.9967746734619141,-0.3608364462852478
48.15,-1.2514315843582153,3.786349296569824,-4.603384971618652,-0.3727669417858124,-1.5723038911819458,-0.009822718799114227
48.2,-0.8392913341522217,5.574273586273193,-7.462380886077881,-0.13171851634979248,-1.895329475402832,0.20279543101787567
48.25,-4.03663444519043,4.59242582321167,0.23910662531852722,-0.49005675315856934,-1.0702284574508667,0.9822513461112976
48.3,-5.664755344390869,-8.32585334777832,7.353033542633057,-0.6689875721931458,-2.1582236289978027,2.572392463684082
48.35,5.2590107917785645,-17.664424896240234,-2.629850149154663,1.7372336387634277,-3.9779770374298096,2.4183671474456787
48.4,7.970285415649414,10.997818946838379,-6.193314075469971,4.768706321716309,-2.4570486545562744,-0.660821259021759
48.45,2.869271993637085,6.807910442352295,5.642636299133301,2.1906259059906006,2.7065258026123047,-2.238260269165039
