Time [s],Acc_x [m/s^2],Acc_y [m/s^2],Acc_z [m/s^2],Gyro_x [1/s],Gyro_y [1/s],Gyro_z [1/s]
0.0,0.11296048015356064,1.0550528764724731,-0.07421401143074036,-0.013435721397399902,0.012675978243350983,-0.020545991137623787
0.025,0.11895692348480225,1.0517522096633911,-0.0661715716123581,-0.013550261966884136,0.012687353417277336,-0.020628152415156364
0.05,0.1255759447813034,1.0378981828689575,-0.028287941589951515,-0.016603346914052963,0.012936711311340332,-0.02262069098651409
0.075,0.12945082783699036,1.0127249956130981,0.020967386662960052,-0.024516841396689415,0.013997326605021954,-0.025839654728770256
0.1,0.12484406679868698,0.988744854927063,0.026767050847411156,-0.023478208109736443,0.015488064847886562,-0.016520941630005836
0.125,0.10861554741859436,0.9708157777786255,0.010435630567371845,-0.02242264896631241,0.013518588617444038,-0.006767584476619959
0.15,0.10069835186004639,0.9645854234695435,-0.017219947651028633,-0.022772986441850662,0.0037129949778318405,-0.0073852152563631535
0.175,0.10562760382890701,0.9678784608840942,-0.018752843141555786,-0.01932024396955967,0.0011636399431154132,-0.009259972721338272
0.2,0.11630355566740036,0.9811640977859497,-0.0026353192515671253,-0.012856930494308472,0.0052060773596167564,-0.0061569917015731335
0.225,0.1299818903207779,0.9932795763015747,-0.004504450596868992,-0.006925537716597319,0.006868505850434303,-0.0016741655999794602
0.25,0.14818501472473145,1.0098963975906372,0.0018504068721085787,-0.0038465142715722322,0.004774332512170076,-0.0015441934810951352
0.275,0.18089403212070465,1.0242396593093872,0.02309291809797287,-0.0028348062187433243,0.0012618020409718156,-0.0038744567427784204
0.3,0.2068408578634262,1.002416729927063,0.02882155403494835,-0.004558690823614597,0.002157619222998619,-0.0022816720884293318
0.325,0.19656270742416382,0.9721461534500122,0.013214623555541039,-0.0026568023022264242,0.00421270402148366,0.002632095478475094
0.35,0.174879789352417,0.9797717332839966,-0.012290292419493198,0.00134450220502913,0.001768774352967739,0.005889375228434801
0.375,0.16250917315483093,0.9981414079666138,-0.019922176375985146,0.0020269015803933144,-0.00017117720562964678,0.005424764472991228
0.4,0.17755700647830963,0.9948006868362427,-0.020825251936912537,0.001533386530354619,0.0025295084342360497,0.008328113704919815
0.425,0.19184483587741852,0.9755812883377075,-0.010650387965142727,0.0026915520429611206,0.004769290331751108,0.007947348058223724
0.45,0.1862606704235077,0.9708443880081177,0.00034154977765865624,0.005231777671724558,0.003653086256235838,0.006792774423956871
0.475,0.18940582871437073,0.989054799079895,-0.015949951484799385,0.004356108605861664,0.0034768003970384598,0.006801305804401636
0.5,0.2165105789899826,0.9957133531570435,-0.03202025219798088,0.005423355847597122,0.005864178761839867,0.008192654699087143
0.525,0.23977282643318176,1.0020638704299927,-0.02083512768149376,0.008478989824652672,0.007956575602293015,0.008495799265801907
0.55,0.25795724987983704,1.0151950120925903,0.0013123732060194016,0.011948789469897747,0.009173182770609856,0.008545215241611004
0.575,0.2683321237564087,1.0199156999588013,0.012351441197097301,0.015908468514680862,0.01020435243844986,0.013568074442446232
0.6,0.2720393240451813,1.0048600435256958,-0.0023069377057254314,0.016329536214470863,0.01038420107215643,0.017951296642422676
0.625,0.2768140435218811,0.9689360857009888,-0.017098192125558853,0.016638752073049545,0.010136949829757214,0.0181709136813879
0.65,0.2887558937072754,0.9672290086746216,-0.013818714767694473,0.019923003390431404,0.011874902062118053,0.013967903330922127
0.675,0.313946008682251,0.9810305833816528,-0.0010807834332808852,0.020953921601176262,0.019515618681907654,0.013796426355838776
0.7,0.3422137498855591,0.9899493455886841,0.03628912568092346,0.01732775568962097,0.021992770954966545,0.012452839873731136
0.725,0.3499125838279724,1.0105429887771606,0.056595996022224426,0.015486040152609348,0.02272900566458702,0.01678147166967392
0.75,0.3289533257484436,1.0002909898757935,0.02851596660912037,0.012540756724774837,0.023960717022418976,0.028919225558638573
0.775,0.3071384131908417,0.9786292314529419,0.012872138060629368,0.009614109992980957,0.015986694023013115,0.02959371916949749
0.8,0.29019078612327576,0.9872370958328247,0.0031035749707370996,0.013602841645479202,0.01255522109568119,0.025600453838706017
0.825,0.29272687435150146,1.0136290788650513,-0.009238043799996376,0.018406176939606667,0.020324980840086937,0.028118731454014778
0.85,0.317789226770401,1.031997799873352,-0.011409293860197067,0.019437678158283234,0.023327775299549103,0.03331597521901131
0.875,0.33504146337509155,1.0382014513015747,0.010376197285950184,0.018670231103897095,0.020648417994379997,0.03183732554316521
0.9,0.3526740074157715,1.0202027559280396,0.04229719564318657,0.015665600076317787,0.017042944207787514,0.030641695484519005
0.925,0.37551820278167725,0.985885739326477,0.04364466667175293,0.012334095314145088,0.015262247063219547,0.03247222676873207
0.95,0.39371439814567566,0.9693938493728638,0.03478265926241875,0.016534898430109024,0.016805188730359077,0.03624694049358368
0.975,0.3955279588699341,0.9751044511795044,0.025019720196723938,0.024844273924827576,0.01608828268945217,0.038141880184412
1.0,0.3855767548084259,0.9737731218338013,0.02219526842236519,0.030681299045681953,0.015331145375967026,0.03627968952059746
1.025,0.3808835744857788,0.9779750108718872,0.03106687031686306,0.03502748906612396,0.017954573035240173,0.036506298929452896
1.05,0.3828754425048828,0.9971085786819458,0.037413738667964935,0.03510333597660065,0.018471447750926018,0.03853902965784073
1.075,0.3928489685058594,1.0064822435379028,0.04244384914636612,0.033768847584724426,0.01612839289009571,0.03717055544257164
1.1,0.42009034752845764,0.9970618486404419,0.024431034922599792,0.031034061685204506,0.011591177433729172,0.032135918736457825
1.125,0.44773977994918823,0.9755088090896606,-0.005453708581626415,0.025163132697343826,0.008898448199033737,0.023602206259965897
1.15,0.46542438864707947,0.9645329713821411,0.026933591812849045,0.023413928225636482,0.010066287592053413,0.016973327845335007
1.175,0.4675740599632263,0.9634600877761841,0.08553885668516159,0.023489197716116905,0.01275197695940733,0.01353239081799984
1.2,0.4798598289489746,0.975709080696106,0.09318076819181442,0.022827981039881706,0.009798465296626091,0.013772617094218731
1.225,0.4891071617603302,0.9884434938430786,0.06332198530435562,0.020711785182356834,0.003400178160518408,0.015524601563811302
1.25,0.4840632379055023,0.9700337648391724,0.04933434724807739,0.013052793219685555,-0.001401750254444778,0.012003801763057709
1.275,0.5005918145179749,0.9631854295730591,0.06942395120859146,0.01170326117426157,-0.0035533506888896227,0.0006443820311687887
1.3,0.5442895293235779,0.969671368598938,0.1012570932507515,0.009620251134037971,-0.0009977429872378707,-0.008416296914219856
1.325,0.5948920845985413,0.988113522529602,0.1295747011899948,0.0024928650818765163,-0.0024159904569387436,-0.01792450062930584
1.35,0.6390297412872314,1.0256444215774536,0.11180591583251953,0.0004370862152427435,-0.004504721146076918,-0.01710418425500393
1.375,0.6495220065116882,1.0354167222976685,0.08093568682670593,-0.006135125178843737,-0.008803342469036579,-0.007481241598725319
1.4,0.6376397609710693,1.0438939332962036,0.09281541407108307,-0.012650638818740845,-0.018826447427272797,-0.003918678034096956
1.425,0.6321326494216919,1.0539084672927856,0.11807093024253845,-0.01917092315852642,-0.023297959938645363,0.0017461767420172691
1.45,0.6575541496276855,1.0448428392410278,0.11307474970817566,-0.025706671178340912,-0.023439252749085426,0.011885392479598522
1.475,0.6867039799690247,1.029790997505188,0.08133473992347717,-0.03535793721675873,-0.02756648138165474,0.022197213023900986
1.5,0.7026528716087341,1.04395592212677,0.047608327120542526,-0.04293259605765343,-0.03535211458802223,0.027391334995627403
1.525,0.7421928644180298,1.1466952562332153,-0.020364848896861076,-0.053760990500450134,-0.05031825229525566,0.02794708125293255
1.55,0.7580406665802002,1.403260350227356,-0.16531768441200256,-0.10201287269592285,-0.08866675198078156,0.02285712957382202
1.575,0.5899503827095032,1.4971171617507935,-0.23659853637218475,-0.24771583080291748,-0.13556504249572754,0.01901121996343136
1.6,0.29790619015693665,1.037293553352356,-0.04040656238794327,-0.41583117842674255,-0.11025483906269073,0.037082359194755554
1.625,0.14416390657424927,0.3461008369922638,0.12513640522956848,-0.3855019211769104,-0.030525153502821922,0.06535704433917999
1.65,0.003037331160157919,-0.16744329035282135,-0.020310189574956894,-0.23812252283096313,-0.019071491435170174,0.048909012228250504
1.675,-0.15852251648902893,-0.1619882881641388,-0.19614842534065247,-0.08696947991847992,-0.12126033753156662,-0.09197475016117096
1.7,-0.08880507946014404,0.180633544921875,-0.18201376497745514,0.023254944011569023,-0.24222666025161743,-0.26509472727775574
1.725,0.13029402494430542,0.5110378861427307,-0.14391905069351196,0.11312533915042877,-0.33348923921585083,-0.34494027495384216
1.75,0.29156139492988586,0.7164316773414612,-0.07247457653284073,0.18048620223999023,-0.42051780223846436,-0.3592666983604431
1.775,0.42038148641586304,0.8414870500564575,0.12811031937599182,0.22674879431724548,-0.49679166078567505,-0.3718637228012085
1.8,0.5951566696166992,0.9157658815383911,0.29392144083976746,0.22548624873161316,-0.555247962474823,-0.40372100472450256
1.825,0.794876754283905,0.9180690050125122,0.3077583312988281,0.19659116864204407,-0.5978094339370728,-0.4414549767971039
1.85,0.9192360043525696,0.8962680101394653,0.26498931646347046,0.202592670917511,-0.61595219373703,-0.45526084303855896
1.875,0.9152726531028748,0.9179631471633911,0.2952250838279724,0.2371830940246582,-0.6309388279914856,-0.442209929227829
1.9,0.8699211478233337,0.986728847026825,0.42756325006484985,0.2620387077331543,-0.6615270376205444,-0.43367284536361694
1.925,0.8623479604721069,1.0525161027908325,0.6048345565795898,0.24924027919769287,-0.7055688500404358,-0.42814165353775024
1.95,0.8988382816314697,1.1298248767852783,0.7526788711547852,0.2158389538526535,-0.7708348035812378,-0.41446182131767273
1.975,1.0093532800674438,1.2833397388458252,0.8343607783317566,0.19534379243850708,-0.8485231399536133,-0.3885372579097748
2.0,1.1829266548156738,1.3811733722686768,0.8031266927719116,0.16201691329479218,-0.9073086977005005,-0.33527714014053345
2.025,1.3788681030273438,1.3030787706375122,0.7243542075157166,0.11143453419208527,-0.9388917684555054,-0.2641231417655945
2.05,1.567678451538086,1.1487380266189575,0.6411122679710388,0.08309558033943176,-0.9500348567962646,-0.19542574882507324
2.075,1.721129298210144,1.0473538637161255,0.4626714587211609,0.07217615842819214,-0.9305897355079651,-0.1186797022819519
2.1,1.8230936527252197,1.0391026735305786,0.1721772849559784,0.08380848914384842,-0.9001268148422241,-0.038624051958322525
2.125,1.7976669073104858,1.1089116334915161,-0.07831935584545135,0.1319444179534912,-0.8611377477645874,0.015565665438771248
2.15,1.6451221704483032,1.2007304430007935,-0.18808257579803467,0.18923644721508026,-0.7840391397476196,0.05180899053812027
2.175,1.4189975261688232,1.3114863634109497,-0.20625180006027222,0.21017788350582123,-0.6797397136688232,0.10064202547073364
2.2,1.1823824644088745,1.3687487840652466,-0.1690824180841446,0.1872258484363556,-0.5825024247169495,0.1659906953573227
2.225,1.0094493627548218,1.2680655717849731,-0.1652480959892273,0.1376294642686844,-0.5193778872489929,0.20945560932159424
2.25,0.9060527086257935,1.075109601020813,-0.2716315686702728,0.10565803200006485,-0.4990827143192291,0.20329627394676208
2.275,0.8186343908309937,0.9959784150123596,-0.41134724020957947,0.11607378721237183,-0.501422107219696,0.17563308775424957
2.3,0.7667951583862305,1.1417779922485352,-0.4303567409515381,0.15635664761066437,-0.5139886140823364,0.14041686058044434
2.325,0.8185661435127258,1.3734828233718872,-0.3172350823879242,0.16224436461925507,-0.5183695554733276,0.08796346932649612
2.35,0.9131146669387817,1.4735690355300903,-0.15191373229026794,0.09682170301675797,-0.5078878998756409,0.03016059286892414
2.375,0.9061868786811829,1.4614201784133911,0.005172888748347759,0.03146025910973549,-0.501568615436554,0.008820736780762672
2.4,0.7711092233657837,1.514125108718872,0.038136474788188934,-0.0014143603621050715,-0.5204373002052307,-0.0008790120482444763
2.425,0.5390955209732056,1.6239979267120361,-0.09422516822814941,-0.05297907441854477,-0.5816954374313354,-0.08147629350423813
2.45,0.21436837315559387,1.6502296924591064,-0.2753114104270935,-0.15371906757354736,-0.6808989644050598,-0.2540624737739563
2.475,-0.10852456092834473,1.4465667009353638,-0.3566679358482361,-0.2806045413017273,-0.7702968716621399,-0.4700438976287842
2.5,-0.1358223855495453,0.9773302674293518,-0.3165515661239624,-0.42187830805778503,-0.7678250074386597,-0.6371644139289856
2.525,0.43167364597320557,0.5154266357421875,-0.2517434358596802,-0.5243721008300781,-0.6415296792984009,-0.6557314395904541
2.55,1.4247397184371948,0.5914421081542969,-0.22132006287574768,-0.4575846195220947,-0.4420621395111084,-0.520923912525177
2.575,2.0350096225738525,1.315382957458496,-0.22704322636127472,-0.21405601501464844,-0.2860240042209625,-0.3290804624557495
2.6,1.6145495176315308,1.9944889545440674,-0.19550764560699463,0.01921009086072445,-0.2683922350406647,-0.1463436335325241
2.625,0.5637468099594116,1.998297929763794,-0.10866785794496536,0.06560444831848145,-0.38195303082466125,-0.11797645688056946
2.65,-0.18696247041225433,1.4756661653518677,-0.08689329773187637,-0.07350882887840271,-0.5339953303337097,-0.3185860812664032
2.675,-0.29225432872772217,0.8555566072463989,-0.01375008188188076,-0.24060344696044922,-0.6408262848854065,-0.549666702747345
2.7,0.058685991913080215,0.5456152558326721,0.21255698800086975,-0.26583391427993774,-0.6553192138671875,-0.5743497014045715
2.725,0.5496866703033447,0.6498022675514221,0.30734315514564514,-0.21577924489974976,-0.6247602105140686,-0.45283186435699463
2.75,0.9028469920158386,0.9306870698928833,0.2701081335544586,-0.14866897463798523,-0.6496305465698242,-0.3871136009693146
2.775,0.9757009744644165,1.1601516008377075,0.28175050020217896,-0.09531009942293167,-0.6902645826339722,-0.4459710419178009
2.8,0.8467594981193542,1.1852465867996216,0.4420017898082733,-0.04652782529592514,-0.6566586494445801,-0.4965246021747589
2.825,0.745094358921051,1.0350534915924072,0.6890066266059875,-0.004534602165222168,-0.5985339879989624,-0.5380232930183411
2.85,0.7674760818481445,0.9174606204032898,0.8157324194908142,0.017932318150997162,-0.5689391493797302,-0.5950907468795776
2.875,0.7853059768676758,0.9241439700126648,0.757388174533844,0.03355041891336441,-0.5506624579429626,-0.6168070435523987
2.9,0.7194565534591675,1.010132908821106,0.5768930912017822,0.0520910769701004,-0.5359618663787842,-0.5883904695510864
2.925,0.5972731709480286,1.177510380744934,0.337223082780838,0.08038405328989029,-0.5220755338668823,-0.5480779409408569
2.95,0.48525986075401306,1.453786015510559,0.1482987403869629,0.14765100181102753,-0.5449227094650269,-0.5430470108985901
2.975,0.4182797968387604,1.5982334613800049,0.065909244120121,0.2169799506664276,-0.6043710112571716,-0.6115998029708862
3.0,0.4549199640750885,1.4475003480911255,0.018967291340231895,0.23094488680362701,-0.645937979221344,-0.66643887758255
3.025,0.5639532208442688,1.2313138246536255,0.01676914654672146,0.21116745471954346,-0.6882849931716919,-0.6400458216667175
3.05,0.6435569524765015,1.0610181093215942,0.20722994208335876,0.17136579751968384,-0.7286567091941833,-0.64369136095047
3.075,0.8151056170463562,1.0108453035354614,0.6212360858917236,0.13748802244663239,-0.7609136700630188,-0.669832170009613
3.1,1.153151035308838,1.0049059391021729,1.1246999502182007,0.06691329181194305,-0.7618484497070312,-0.7026455402374268
3.125,1.5180665254592896,0.939124345779419,1.3745437860488892,-0.0405217707157135,-0.7364630699157715,-0.6823910474777222
3.15,1.5980899333953857,0.6567451357841492,1.2299526929855347,-0.11065647006034851,-0.7194518446922302,-0.5482783913612366
3.175,1.3261624574661255,0.25500595569610596,1.0166795253753662,-0.0778745710849762,-0.6827911138534546,-0.3839424252510071
3.2,0.9473061561584473,0.06949340552091599,1.0415610074996948,0.026324879378080368,-0.5914012789726257,-0.36718976497650146
3.225,0.8501116633415222,0.31407463550567627,1.026421070098877,0.15093295276165009,-0.5146187543869019,-0.43983471393585205
3.25,0.9428564310073853,0.7402812838554382,0.952122151851654,0.28605929017066956,-0.4993146061897278,-0.410933256149292
3.275,0.8582738637924194,0.8710310459136963,0.9154123067855835,0.30380743741989136,-0.38587790727615356,-0.3126663267612457
3.3,0.7560011744499207,0.531927227973938,0.5795910954475403,0.18877053260803223,-0.14263765513896942,-0.2647026479244232
3.325,0.7894603610038757,-0.007660858333110809,0.20748382806777954,0.1806618571281433,-0.10478769987821579,-0.20096305012702942
3.35,0.6488640904426575,-0.23922637104988098,0.09574612975120544,0.26026490330696106,-0.2233036607503891,-0.10645784437656403
3.375,0.45232298970222473,0.0532694011926651,0.1294417679309845,0.3240126669406891,-0.3069269359111786,0.00975703913718462
3.4,0.47629687190055847,0.19915775954723358,0.2393723726272583,0.38389095664024353,-0.32440194487571716,0.07272151112556458
3.425,0.6111742258071899,-0.0728750005364418,0.3672710359096527,0.4396410584449768,-0.3036918342113495,0.09777615964412689
3.45,0.5880053043365479,-0.2734365463256836,0.2695218026638031,0.4608897864818573,-0.2469969242811203,0.18537074327468872
3.475,0.18700666725635529,-0.0610819049179554,-0.0717088058590889,0.47779980301856995,-0.22326946258544922,0.34489020705223083
3.5,-0.6807044148445129,0.3978443443775177,-0.38255369663238525,0.47532883286476135,-0.20378004014492035,0.4836675226688385
3.525,-1.734427809715271,0.7545920610427856,-0.4438316524028778,0.4176413416862488,-0.16743949055671692,0.5188301801681519
3.55,-2.5531742572784424,0.6736422181129456,-0.3364979326725006,0.311916708946228,-0.15120096504688263,0.43386515974998474
3.575,-3.0021209716796875,0.236542746424675,-0.38439473509788513,0.13940919935703278,-0.13174748420715332,0.3163180947303772
3.6,-3.0363426208496094,-0.2589750587940216,-0.5664241313934326,0.017496583983302116,-0.16657830774784088,0.16675125062465668
3.625,-2.5059804916381836,-0.6117811799049377,-0.35798126459121704,-0.011277083307504654,-0.2813277244567871,-0.03225008025765419
3.65,-1.2807517051696777,-0.8295450210571289,0.5731607675552368,0.07658697664737701,-0.41105005145072937,-0.26539966464042664
3.675,0.21400588750839233,-0.784242570400238,1.5011283159255981,0.13628098368644714,-0.37579870223999023,-0.40619441866874695
3.7,1.1666945219039917,-0.010071576572954655,1.724839448928833,0.18293219804763794,-0.25442153215408325,-0.22445373237133026
3.725,1.107978105545044,1.0439426898956299,1.559922695159912,0.22839531302452087,-0.09845685213804245,0.07263118773698807
3.75,0.19879645109176636,1.2632039785385132,1.641613245010376,0.18928584456443787,0.1102442517876625,0.24051952362060547
3.775,-0.7766839265823364,0.6101763844490051,1.8852089643478394,0.0354962982237339,0.27227330207824707,0.32002827525138855
3.8,-1.2260407209396362,-0.08004166185855865,1.7669836282730103,-0.13047999143600464,0.2684822082519531,0.3867930769920349
3.825,-1.2935056686401367,-0.42292967438697815,1.0754245519638062,-0.284762442111969,0.17956578731536865,0.4859045743942261
3.85,-1.3657218217849731,-0.4725189507007599,0.06077994778752327,-0.4510524570941925,0.07935434579849243,0.6131016612052917
3.875,-1.5352768898010254,-0.37861931324005127,-0.7670320868492126,-0.5449756979942322,-0.07820940017700195,0.7128618359565735
3.9,-1.4613943099975586,-0.06302080303430557,-1.0323116779327393,-0.45696765184402466,-0.3078470528125763,0.7031964063644409
3.925,-1.0853477716445923,1.167007565498352,-0.6609028577804565,-0.18349720537662506,-0.5897773504257202,0.6154159903526306
3.95,-1.1535695791244507,3.469132900238037,0.6445934176445007,0.12077076733112335,-0.8211542963981628,0.5551198720932007
3.975,-1.6618614196777344,5.592038154602051,2.7495293617248535,0.28349655866622925,-0.8289480209350586,0.5066871047019958
4.0,-0.9305354356765747,6.1805195808410645,3.8962242603302,0.335564523935318,-0.7970892786979675,0.5260657072067261
4.025,0.656711220741272,4.981145858764648,2.8285651206970215,0.13137134909629822,-1.0400956869125366,0.6024882793426514
4.05,1.1821482181549072,3.555081844329834,0.9944544434547424,-0.25879400968551636,-1.2667787075042725,0.813879132270813
4.075,1.233686923980713,3.5751185417175293,0.12629984319210052,-0.18026860058307648,-1.365124225616455,1.1424287557601929
4.1,1.4191335439682007,4.264547824859619,0.2699512243270874,0.07424664497375488,-1.3418720960617065,1.203913927078247
4.125,1.6566256284713745,3.8321566581726074,0.7193471193313599,0.00618821382522583,-1.0448675155639648,0.9263214468955994
4.15,2.0716958045959473,2.1927006244659424,0.9418289661407471,-0.2598194479942322,-0.6007692813873291,0.6901617646217346
4.175,2.7059779167175293,1.2146607637405396,0.442888081073761,-0.37036287784576416,-0.2875993847846985,0.8295478224754333
4.2,2.9991040229797363,1.6875334978103638,-0.5895076394081116,-0.32496732473373413,-0.16317056119441986,1.0317782163619995
4.225,2.2487449645996094,2.583070755004883,-1.2283366918563843,-0.22715824842453003,-0.10269516706466675,0.9630430936813354
4.25,0.8571454882621765,2.903510093688965,-1.0346553325653076,-0.21458260715007782,-0.11400669068098068,0.6638221740722656
4.275,0.042700812220573425,2.4333508014678955,-0.5094274878501892,-0.275206595659256,-0.2660539448261261,0.22715792059898376
4.3,0.4216732680797577,1.4759799242019653,-0.09006866812705994,-0.25493374466896057,-0.4653443396091461,-0.3209473490715027
4.325,1.4901078939437866,0.42852506041526794,0.43126052618026733,-0.16125178337097168,-0.522833526134491,-0.7703503370285034
4.35,2.2698161602020264,-0.3196248412132263,1.032533884048462,-0.1176719218492508,-0.38734206557273865,-0.8447923064231873
4.375,2.3649816513061523,-0.19874948263168335,1.1609976291656494,-0.14911147952079773,-0.24500828981399536,-0.5914274454116821
4.4,1.952349305152893,0.7610084414482117,0.7200785875320435,-0.1827002912759781,-0.24339088797569275,-0.3465981185436249
4.425,1.365215539932251,1.7133686542510986,0.27087706327438354,-0.16625189781188965,-0.2907990515232086,-0.26743200421333313
4.45,0.9289438128471375,1.7798216342926025,0.11499299108982086,-0.1338711977005005,-0.26654598116874695,-0.42889347672462463
4.475,0.7835352420806885,1.1334582567214966,0.2844686210155487,-0.09925565123558044,-0.195625439286232,-0.6955210566520691
4.5,0.7352220416069031,0.7520439624786377,0.9231775999069214,-0.11520686745643616,-0.12586702406406403,-0.7241163849830627
4.525,0.747926652431488,1.0168412923812866,1.7176077365875244,-0.2505035698413849,-0.06726473569869995,-0.5288846492767334
4.55,0.9524615406990051,1.355897307395935,1.8518959283828735,-0.4482347071170807,-0.040628183633089066,-0.4514293670654297
4.575,1.1406797170639038,1.2501308917999268,1.1328431367874146,-0.5498529672622681,-0.006222972646355629,-0.546492874622345
4.6,1.0479204654693604,0.7455263733863831,0.2190672755241394,-0.5081320405006409,0.0672639012336731,-0.6542008519172668
4.625,0.7443253397941589,0.22307489812374115,-0.23091036081314087,-0.40269309282302856,0.1280623823404312,-0.6659480333328247
4.65,0.5301861763000488,-0.01898958534002304,-0.0824555903673172,-0.2931784987449646,0.16805525124073029,-0.6309530138969421
4.675,0.5203481316566467,0.0955687016248703,0.35074663162231445,-0.20449207723140717,0.225458562374115,-0.5653513669967651
4.7,0.5973259806632996,0.3834916353225708,0.6587074995040894,-0.18856990337371826,0.2975456416606903,-0.43759649991989136
4.725,0.6750562191009521,0.5612441301345825,0.628385066986084,-0.22102989256381989,0.33371415734291077,-0.3184841275215149
4.75,0.6719908714294434,0.5438643097877502,0.32372575998306274,-0.1974959671497345,0.3350752592086792,-0.2789929211139679
4.775,0.54559326171875,0.42923837900161743,0.0730799213051796,-0.10598438233137131,0.34784549474716187,-0.2991923987865448
4.8,0.3132481575012207,0.32979491353034973,0.1205182746052742,-0.014419861137866974,0.3878578841686249,-0.3235205411911011
4.825,0.13141250610351562,0.36108407378196716,0.4888545572757721,0.016601234674453735,0.44710835814476013,-0.3093566298484802
4.85,0.08710922300815582,0.7253181338310242,0.9031223058700562,0.011565037071704865,0.48441681265830994,-0.22201630473136902
4.875,-0.005370736122131348,1.2905628681182861,1.0056324005126953,0.014444392174482346,0.48387712240219116,-0.14884749054908752
4.9,-0.3239845037460327,1.5390924215316772,0.8656201362609863,0.006909536197781563,0.47115278244018555,-0.17861461639404297
4.925,-0.734187126159668,1.357586145401001,0.7825530171394348,-0.04113240912556648,0.46533074975013733,-0.2783734202384949
4.95,-0.9206861853599548,1.0909998416900635,0.9220272302627563,-0.11074553430080414,0.436086505651474,-0.3786466717720032
4.975,-0.6805137991905212,0.9748795032501221,1.0652220249176025,-0.1752062439918518,0.3875647783279419,-0.49707719683647156
5.0,-0.10415124893188477,0.9519150257110596,0.8624369502067566,-0.23362156748771667,0.3494739830493927,-0.6040820479393005
5.025,0.5672672986984253,0.8652717471122742,0.6034184098243713,-0.24699386954307556,0.3285221755504608,-0.6019653081893921
5.05,0.9990097284317017,0.9196674227714539,0.49845242500305176,-0.2086494266986847,0.43608129024505615,-0.49221131205558777
5.075,0.49287763237953186,1.5197441577911377,0.04569419473409653,-0.12860581278800964,0.6884660720825195,-0.20131099224090576
5.1,-0.8986068964004517,2.3045694828033447,-0.6887350678443909,-0.038079530000686646,0.7264496088027954,0.1584223061800003
5.125,-1.9462345838546753,2.3293240070343018,-1.1807782649993896,-0.14489474892616272,0.4572392404079437,0.1687917709350586
5.15,-2.005756378173828,1.3438987731933594,-1.1014280319213867,-0.4063582420349121,0.24685950577259064,-0.19604602456092834
5.175,-1.4235405921936035,0.17256544530391693,-0.45999619364738464,-0.5341103672981262,0.20283040404319763,-0.5800877809524536
5.2,-0.4500737190246582,-0.301665335893631,0.015664132311940193,-0.46569108963012695,0.1984548270702362,-0.624373197555542
5.225,0.5529348254203796,-0.10405641049146652,-0.25236976146698,-0.29707854986190796,0.2067035436630249,-0.38121047616004944
5.25,0.8847618103027344,0.3472498953342438,-0.9573071002960205,-0.10144733637571335,0.2299170196056366,-0.16624046862125397
5.275,0.3699408769607544,0.7409714460372925,-1.3889234066009521,0.02176031842827797,0.2767862379550934,-0.08897912502288818
5.3,-0.3693482279777527,0.8990440368652344,-1.3034083843231201,0.002309497445821762,0.3378048539161682,-0.09431234747171402
5.325,-0.7310090065002441,0.8863506317138672,-1.100495457649231,-0.08158280700445175,0.3542780578136444,-0.1349632889032364
5.35,-0.6186179518699646,0.8662786483764648,-1.2059061527252197,-0.11846689134836197,0.3032635450363159,-0.19898128509521484
5.375,-0.30060267448425293,0.8552483916282654,-1.579563021659851,-0.09961137175559998,0.22756317257881165,-0.2601301670074463
5.4,-0.13973775506019592,0.8740357160568237,-1.8041423559188843,-0.046740803867578506,0.16911481320858002,-0.2595177888870239
5.425,-0.2553408443927765,1.0020674467086792,-1.5798861980438232,0.026271555572748184,0.12288841605186462,-0.19287645816802979
5.45,-0.41055822372436523,1.1465864181518555,-1.0631883144378662,0.08285095542669296,0.07644637674093246,-0.1702834814786911
5.475,-0.3744719624519348,1.1525964736938477,-0.6378352642059326,0.10152904689311981,0.04464016482234001,-0.22839239239692688
5.5,-0.2321375012397766,1.0156537294387817,-0.4547022581100464,0.09697094559669495,0.025517506524920464,-0.2861771583557129
5.525,-0.16401827335357666,0.8455124497413635,-0.3621326982975006,0.08205859363079071,0.009087148122489452,-0.28382426500320435
5.55,-0.1921571046113968,0.6849270462989807,-0.17726586759090424,0.06184883788228035,-0.0042585814371705055,-0.24605117738246918
5.575,-0.21093346178531647,0.5592308640480042,0.028258152306079865,0.046817079186439514,-0.010598761960864067,-0.22161661088466644
5.6,-0.17732563614845276,0.5216065049171448,0.08440851420164108,0.04871324077248573,-0.004728720989078283,-0.22216267883777618
5.625,-0.1436847299337387,0.6144972443580627,0.01671728864312172,0.07946515083312988,0.009507445618510246,-0.23337581753730774
5.65,-0.1485651433467865,0.7497883439064026,-0.05220995098352432,0.11670749634504318,0.018137596547603607,-0.24158988893032074
5.675,-0.18265113234519958,0.7444000840187073,-0.047318510711193085,0.11154021322727203,0.01882258802652359,-0.24381640553474426
5.7,-0.21042980253696442,0.6332111954689026,0.042061761021614075,0.070755735039711,0.017535576596856117,-0.2345515638589859
5.725,-0.1850491762161255,0.5290136933326721,0.1596493422985077,0.03199528157711029,0.024130914360284805,-0.22081433236598969
5.75,-0.05630799010396004,0.4427548348903656,0.27934613823890686,0.01718754507601261,0.044974226504564285,-0.20495060086250305
5.775,0.17032161355018616,0.3709412217140198,0.37599802017211914,0.010749608278274536,0.07814109325408936,-0.18069331347942352
5.8,0.34779486060142517,0.3315888047218323,0.3945605158805847,-0.015300383791327477,0.12027125060558319,-0.13046905398368835
5.825,0.3402954041957855,0.31211382150650024,0.32658398151397705,-0.049870673567056656,0.16644461452960968,-0.05245847627520561
5.85,0.18866495788097382,0.3062639832496643,0.20930907130241394,-0.07726668566465378,0.21075819432735443,0.02068481780588627
5.875,0.04203877970576286,0.33657553791999817,0.07597339898347855,-0.10215556621551514,0.24073456227779388,0.053960900753736496
5.9,-0.015199858695268631,0.38578706979751587,-0.0686836987733841,-0.13451337814331055,0.25480562448501587,0.05613759160041809
5.925,-0.023669708520174026,0.45729735493659973,-0.2050277590751648,-0.15548351407051086,0.2609032392501831,0.07470439374446869
5.95,-0.08825648576021194,0.5325202941894531,-0.28849825263023376,-0.15167227387428284,0.26515716314315796,0.10315486788749695
5.975,-0.2508854269981384,0.5850058197975159,-0.27733200788497925,-0.13295701146125793,0.2632693350315094,0.10861381888389587
6.0,-0.38768547773361206,0.6343746781349182,-0.16514460742473602,-0.11881653219461441,0.2601836919784546,0.10717218369245529
6.025,-0.37928882241249084,0.6787462830543518,-0.038283102214336395,-0.12293526530265808,0.2653324604034424,0.11680767685174942
6.05,-0.28243422508239746,0.6862688660621643,0.03903988003730774,-0.12639552354812622,0.27029210329055786,0.12929457426071167
6.075,-0.19452372193336487,0.6476650834083557,0.09740176796913147,-0.10809307545423508,0.27673575282096863,0.1581801176071167
6.1,-0.1043967753648758,0.5778322815895081,0.1384516805410385,-0.08295661211013794,0.29698827862739563,0.20893341302871704
6.125,-0.06075800210237503,0.5237265229225159,0.16361016035079956,-0.0678231418132782,0.3290235996246338,0.2475680708885193
6.15,-0.10714256018400192,0.5019894242286682,0.18060404062271118,-0.060610491782426834,0.3677213490009308,0.2628524601459503
6.175,-0.15560348331928253,0.4447060525417328,0.11547480523586273,-0.06825491040945053,0.39916032552719116,0.2686162292957306
6.2,-0.168852299451828,0.3703441917896271,-0.08271072059869766,-0.08622051775455475,0.412911593914032,0.27737030386924744
6.225,-0.23292213678359985,0.4015522301197052,-0.36592915654182434,-0.0974036306142807,0.41146644949913025,0.2972530126571655
6.25,-0.43819597363471985,0.5528421401977539,-0.6131988167762756,-0.0907500684261322,0.39408212900161743,0.33026787638664246
6.275,-0.6716904640197754,0.7050895690917969,-0.7119482159614563,-0.06854301691055298,0.3597438633441925,0.3497886061668396
6.3,-0.7601727843284607,0.764411985874176,-0.6352934241294861,-0.04509865492582321,0.3151584565639496,0.3262102007865906
6.325,-0.6615017056465149,0.7252035140991211,-0.374824196100235,-0.026705212891101837,0.28291210532188416,0.27918702363967896
6.35,-0.4229687750339508,0.6581974625587463,0.03352231904864311,-0.02271626703441143,0.27674904465675354,0.24023787677288055
6.375,-0.17861342430114746,0.6561022996902466,0.4288176894187927,-0.03685330972075462,0.2953087091445923,0.2424129843711853
6.4,-0.08023378252983093,0.741944432258606,0.5952863097190857,-0.053891751915216446,0.3280715346336365,0.2881680727005005
6.425,-0.19763681292533875,0.8609592318534851,0.45705917477607727,-0.060625165700912476,0.35707396268844604,0.3383716940879822
6.45,-0.4638558626174927,0.9577943682670593,0.18351569771766663,-0.05045913904905319,0.3729131817817688,0.36914554238319397
6.475,-0.706673264503479,0.9919930696487427,0.006134531460702419,-0.04493982344865799,0.37024635076522827,0.35990044474601746
6.5,-0.7812783718109131,0.9460564851760864,0.021023819223046303,-0.06568417698144913,0.34774088859558105,0.32004085183143616
6.525,-0.6637378334999084,0.8826733827590942,0.12722688913345337,-0.09876130521297455,0.3096538782119751,0.2792229652404785
6.55,-0.46167564392089844,0.8641091585159302,0.17125916481018066,-0.1257937103509903,0.2655613124370575,0.2677011489868164
6.575,-0.3311360478401184,0.8687773942947388,0.1210302859544754,-0.1467430293560028,0.22612617909908295,0.2898324728012085
6.6,-0.33894214034080505,0.8206397294998169,0.031083131209015846,-0.16345174610614777,0.18578870594501495,0.309509813785553
6.625,-0.4081929922103882,0.7113161683082581,-0.04673190787434578,-0.16727414727210999,0.13876038789749146,0.3116869032382965
6.65,-0.416914165019989,0.6546946167945862,-0.12415903061628342,-0.15662772953510284,0.09293734282255173,0.3088366389274597
6.675,-0.3565160930156708,0.7208567261695862,-0.20375537872314453,-0.14110130071640015,0.05555550009012222,0.3058190643787384
6.7,-0.28806304931640625,0.8585063219070435,-0.24449513852596283,-0.13243281841278076,0.026559123769402504,0.28585103154182434
6.725,-0.26052507758140564,0.9724932909011841,-0.2226877212524414,-0.13205184042453766,0.0005975899985060096,0.24135272204875946
6.75,-0.28388404846191406,1.0104056596755981,-0.14198824763298035,-0.13957157731056213,-0.026694053784012794,0.18541093170642853
6.775,-0.28316056728363037,0.9812184572219849,-0.04318463057279587,-0.15717323124408722,-0.05808594450354576,0.13315336406230927
6.8,-0.22856108844280243,0.8889352083206177,0.03209315240383148,-0.17932458221912384,-0.09361192584037781,0.09738650172948837
6.825,-0.15776880085468292,0.7459097504615784,0.0770663395524025,-0.19589410722255707,-0.11834390461444855,0.08328484743833542
6.85,-0.08219648897647858,0.6165533661842346,0.11751032620668411,-0.19328108429908752,-0.12518475949764252,0.08052428811788559
6.875,0.009046036750078201,0.5274496674537659,0.20439577102661133,-0.1694490611553192,-0.11929942667484283,0.08316120505332947
6.9,0.11762551218271255,0.4507475793361664,0.33109042048454285,-0.14299364387989044,-0.10540081560611725,0.09669840335845947
6.925,0.19989025592803955,0.40680134296417236,0.43934357166290283,-0.10745677351951599,-0.08457887917757034,0.13809049129486084
6.95,0.2178882360458374,0.44523918628692627,0.4660564959049225,-0.04732096195220947,-0.054817307740449905,0.2046516239643097
6.975,0.1783294975757599,0.5514250993728638,0.372980535030365,0.02163209393620491,-0.01850317232310772,0.26352620124816895
7.0,0.09847758710384369,0.6772604584693909,0.21657763421535492,0.06665553152561188,0.026477977633476257,0.29461669921875
7.025,-0.023402873426675797,0.8135796785354614,0.08234576135873795,0.07686983048915863,0.07247461378574371,0.3062378168106079
7.05,-0.182415172457695,0.9191313982009888,0.03942012041807175,0.06184272840619087,0.10483948141336441,0.3049236238002777
7.075,-0.33003926277160645,0.9455004930496216,0.08621756732463837,0.02376888319849968,0.12008368223905563,0.29021701216697693
7.1,-0.40158551931381226,0.9131938219070435,0.13722874224185944,-0.015905357897281647,0.12293914705514908,0.2776145040988922
7.125,-0.3748551607131958,0.8341265916824341,0.14499245584011078,-0.04263688623905182,0.125528022646904,0.2731568515300751
7.15,-0.28301942348480225,0.7703086137771606,0.11408261954784393,-0.05074342340230942,0.13204698264598846,0.27315032482147217
7.175,-0.19031426310539246,0.7965842485427856,0.06483014672994614,-0.03580780699849129,0.1446831375360489,0.2690354287624359
7.2,-0.15223820507526398,0.8349696397781372,0.048279665410518646,-0.019847845658659935,0.1697392612695694,0.2522977888584137
7.225,-0.14651183784008026,0.8181878328323364,0.03334326297044754,-0.010681189596652985,0.2085171639919281,0.24196907877922058
7.25,-0.13180793821811676,0.7840501070022583,-0.03600584343075752,0.004966482520103455,0.24431028962135315,0.2537509500980377
7.275,-0.06909250468015671,0.7731925249099731,-0.12806269526481628,0.02761220932006836,0.2746214270591736,0.28223922848701477
7.3,0.051286205649375916,0.8114367723464966,-0.1925191581249237,0.054228417575359344,0.30877935886383057,0.30930718779563904
7.325,0.12373840808868408,0.8849698305130005,-0.2194831520318985,0.09195400774478912,0.33955398201942444,0.32635796070098877
7.35,0.05332193896174431,0.9333478212356567,-0.224410742521286,0.13873791694641113,0.3509182631969452,0.32790663838386536
7.375,-0.12691447138786316,0.966964840888977,-0.17537149786949158,0.1868736892938614,0.3333420753479004,0.3217618763446808
7.4,-0.3154400587081909,0.9958411455154419,-0.06414889544248581,0.20885039865970612,0.299827516078949,0.3204095661640167
7.425,-0.4500506818294525,1.0123969316482544,0.05062347650527954,0.20570692420005798,0.25476548075675964,0.3135048449039459
7.45,-0.5211960077285767,1.0588990449905396,0.17767852544784546,0.2217012345790863,0.20468005537986755,0.2968314588069916
7.475,-0.5355340838432312,1.1034098863601685,0.3342779278755188,0.22271761298179626,0.16305038332939148,0.2541314959526062
7.5,-0.538964569568634,1.0723459720611572,0.477929025888443,0.1704043447971344,0.1341019570827484,0.17963683605194092
7.525,-0.5728655457496643,0.9768802523612976,0.5611076951026917,0.11351244896650314,0.11951929330825806,0.11434599757194519
7.55,-0.6284328103065491,0.9131214022636414,0.5465326905250549,0.09076671302318573,0.10528004914522171,0.07540635764598846
7.575,-0.6775568127632141,0.9022876620292664,0.4617407023906708,0.08140766620635986,0.07882639020681381,0.02728833071887493
7.6,-0.6858090162277222,0.8863555788993835,0.4158843457698822,0.061992138624191284,0.04701052978634834,-0.04093177616596222
7.625,-0.5819515585899353,0.8198863863945007,0.44481199979782104,0.0323270745575428,0.02394416183233261,-0.08631988614797592
7.65,-0.36008337140083313,0.6998015642166138,0.4642380475997925,-0.0016517899930477142,0.023437917232513428,-0.09436146914958954
7.675,-0.12575474381446838,0.6383849382400513,0.40443894267082214,-0.016497980803251266,0.0525520034134388,-0.08737798035144806
7.7,0.016840267926454544,0.7271968126296997,0.2652178108692169,-5.3306110203266144e-05,0.10068769752979279,-0.0776774138212204
7.725,0.029250917956233025,0.8951684236526489,0.12698452174663544,0.02768569439649582,0.16087248921394348,-0.0719020739197731
7.75,-0.03340180963277817,1.016266942024231,0.06116044521331787,0.03538432717323303,0.2272171527147293,-0.07665509730577469
7.775,-0.09738624840974808,1.0716315507888794,0.03057834878563881,0.026028674095869064,0.2850410044193268,-0.08532597124576569
7.8,-0.164072185754776,1.1216727495193481,0.011522918939590454,0.01796003431081772,0.32785677909851074,-0.10332637280225754
7.825,-0.22995571792125702,1.14374840259552,0.016650887206196785,0.0034335553646087646,0.3543616533279419,-0.1437014639377594
7.85,-0.24444501101970673,1.0828715562820435,-0.022918781265616417,-0.027078043669462204,0.3743530511856079,-0.19862481951713562
7.875,-0.23229239881038666,1.0450202226638794,-0.0915306955575943,-0.038266487419605255,0.39281418919563293,-0.25504249334335327
7.9,-0.27318620681762695,1.0757800340652466,-0.08315268158912659,-0.04004306718707085,0.4241338074207306,-0.3077451288700104
7.925,-0.2885909080505371,1.0692225694656372,-0.005213837139308453,-0.07237371057271957,0.46232715249061584,-0.3506145775318146
7.95,-0.15275274217128754,1.050369381904602,-0.010023986920714378,-0.1032211035490036,0.47185197472572327,-0.3850400447845459
7.975,0.07137313485145569,1.186341404914856,-0.14598976075649261,-0.08572719246149063,0.4571787118911743,-0.39749863743782043
8.0,0.2249639630317688,1.3757916688919067,-0.25530216097831726,-0.037921324372291565,0.45179224014282227,-0.39617112278938293
8.025,0.22216452658176422,1.2841960191726685,-0.22460724413394928,-0.03945436328649521,0.4880039393901825,-0.38068071007728577
8.05,0.1353866457939148,0.9809867143630981,-0.1695360392332077,-0.06700819730758667,0.5418709516525269,-0.3120616674423218
8.075,0.0056375861167907715,0.8022328615188599,-0.2495191991329193,-0.0336172841489315,0.5490559935569763,-0.21500654518604279
8.1,-0.23797959089279175,0.8026037812232971,-0.410810649394989,0.040066372603178024,0.4875154197216034,-0.15786153078079224
8.125,-0.5380873084068298,0.8588400483131409,-0.4030572474002838,0.06874435395002365,0.3808099329471588,-0.17281274497509003
8.15,-0.6982808113098145,0.8947039842605591,-0.10204237699508667,0.035112664103507996,0.27064400911331177,-0.25014621019363403
8.175,-0.5779948234558105,0.8702499270439148,0.25728121399879456,-0.010844144970178604,0.20799531042575836,-0.3145750164985657
8.2,-0.2404862940311432,0.804186999797821,0.3438946008682251,-0.03423956036567688,0.20310398936271667,-0.317699670791626
8.225,0.08966375887393951,0.7848807573318481,0.0975729450583458,-0.026555083692073822,0.22744719684123993,-0.2905438244342804
8.25,0.2470746636390686,0.8222971558570862,-0.22951331734657288,0.0026930049061775208,0.2611156404018402,-0.25621527433395386
8.275,0.21605943143367767,0.8329525589942932,-0.35024434328079224,0.03964177519083023,0.29251664876937866,-0.21321824193000793
8.3,0.04976729676127434,0.8146611452102661,-0.22172507643699646,0.07886238396167755,0.3070318102836609,-0.1687048226594925
8.325,-0.1617526113986969,0.8162976503372192,-0.008939942345023155,0.09624266624450684,0.2966867685317993,-0.1488308310508728
8.35,-0.3074283003807068,0.8378812074661255,0.14785604178905487,0.0908118188381195,0.27206137776374817,-0.1505848616361618
8.375,-0.3048718571662903,0.8460522890090942,0.16611139476299286,0.06737372279167175,0.23932819068431854,-0.1514647752046585
8.4,-0.20392321050167084,0.8197776079177856,0.07660899311304092,0.031640470027923584,0.20297491550445557,-0.13909216225147247
8.425,-0.12894482910633087,0.8206864595413208,-0.002963772974908352,0.01258844044059515,0.16902506351470947,-0.11862675845623016
8.45,-0.1521453857421875,0.8400346040725708,-0.016989443451166153,0.0016905693337321281,0.16304093599319458,-0.08787229657173157
8.475,-0.31546035408973694,0.8941079378128052,0.005907023791223764,0.0019998042844235897,0.1779852658510208,-0.03384155407547951
8.5,-0.5937968492507935,0.971258282661438,0.04490383341908455,0.01640901528298855,0.17268861830234528,0.0023043907713145018
8.525,-0.8188843727111816,0.8844282031059265,0.1286861151456833,0.02936122566461563,0.14713214337825775,-0.03543538972735405
8.55,-0.920974612236023,0.5944072008132935,0.1668146401643753,0.04147179424762726,0.14839914441108704,-0.07005983591079712
8.575,-1.0808697938919067,0.21040350198745728,0.11520443111658096,0.04249242693185806,0.18453678488731384,-0.053727734833955765
8.6,-1.3204625844955444,0.01181512326002121,0.19696515798568726,0.08787140995264053,0.21956723928451538,-0.04387057200074196
8.625,-1.3477795124053955,0.3266345262527466,0.5832206606864929,0.20980608463287354,0.22391001880168915,-0.13826188445091248
8.65,-0.9583733677864075,1.0415356159210205,1.1049503087997437,0.3306182622909546,0.21822015941143036,-0.2921115458011627
8.675,-0.350547730922699,1.5353158712387085,1.3424474000930786,0.32132649421691895,0.2187170386314392,-0.38090598583221436
8.7,0.09659554064273834,1.4279654026031494,1.1601892709732056,0.23072746396064758,0.23220473527908325,-0.335884690284729
8.725,0.3456210494041443,0.8490841388702393,0.919304370880127,0.16511519253253937,0.25925302505493164,-0.22405461966991425
8.75,0.5939477682113647,0.1701250970363617,0.7499919533729553,0.13351333141326904,0.31624552607536316,-0.14647887647151947
8.775,0.6098589897155762,0.11999228596687317,0.22344636917114258,0.1359289139509201,0.39105284214019775,-0.07195314764976501
8.8,-0.11337228864431381,1.0425578355789185,-0.5151509642601013,0.22733597457408905,0.34148669242858887,0.008661583065986633
8.825,-1.3390564918518066,1.8040401935577393,-0.6168249249458313,0.3406789004802704,0.1861082762479782,-0.016261029988527298
8.85,-1.9498400688171387,1.45514976978302,-0.14865362644195557,0.33732369542121887,0.12804749608039856,-0.12284360080957413
8.875,-1.2309647798538208,0.6985694169998169,0.3650963008403778,0.23426659405231476,0.1199631616473198,-0.18080581724643707
8.9,0.1690894216299057,0.4370233118534088,0.7282779812812805,0.1999051719903946,0.11551245301961899,-0.148664653301239
8.925,1.1118338108062744,0.7120200395584106,0.683402955532074,0.24824830889701843,0.15217801928520203,-0.07926443219184875
8.95,1.0504131317138672,1.0076886415481567,0.3137775957584381,0.2590044140815735,0.19173283874988556,-0.03307194635272026
8.975,0.2841457724571228,1.0113497972488403,0.04566613957285881,0.24564100801944733,0.1974913328886032,0.007766069378703833
9.0,-0.5201290249824524,0.874466061592102,-0.041103169322013855,0.25619399547576904,0.1760166734457016,0.08988144993782043
9.025,-0.9327405691146851,0.8067866563796997,-0.09842406958341599,0.2800123989582062,0.12619957327842712,0.16669534146785736
9.05,-0.8740261197090149,0.866517186164856,-0.0984330028295517,0.2904508113861084,0.07245766371488571,0.1611092984676361
9.075,-0.5380843281745911,0.9610682725906372,-0.021730046719312668,0.2565099596977234,0.050731364637613297,0.09437303245067596
9.1,-0.19470973312854767,0.9835673570632935,0.10010497272014618,0.20681913197040558,0.036770813167095184,0.06100115552544594
9.125,0.05151413381099701,0.9470254182815552,0.22215032577514648,0.1676911860704422,0.008142521604895592,0.08593063801527023
9.15,0.20169754326343536,0.9487411379814148,0.3215908408164978,0.16012929379940033,-0.021312154829502106,0.13754266500473022
9.175,0.28400635719299316,1.0411168336868286,0.4145863652229309,0.17792387306690216,-0.024802055209875107,0.19025181233882904
9.2,0.3002908229827881,1.1961623430252075,0.47180357575416565,0.1898425817489624,-0.0008691095863468945,0.22979401051998138
9.225,0.2546681761741638,1.3127480745315552,0.4412427544593811,0.1887151002883911,0.04281643033027649,0.2685602307319641
9.25,0.18851810693740845,1.3319636583328247,0.30807024240493774,0.17243288457393646,0.09009953588247299,0.30841800570487976
9.275,0.11010897159576416,1.2749415636062622,0.1631685197353363,0.14645300805568695,0.13174624741077423,0.3374204933643341
9.3,0.04883873835206032,1.1673823595046997,0.062085069715976715,0.11391455680131912,0.16566550731658936,0.35107913613319397
9.325,-0.005654802080243826,1.1007329225540161,-0.004796190187335014,0.10830901563167572,0.1816697120666504,0.358942449092865
9.35,-0.08012683689594269,1.1487456560134888,-0.03519989550113678,0.13344505429267883,0.2023969441652298,0.3767024278640747
9.375,-0.15771988034248352,1.2393161058425903,-0.03793694078922272,0.15458840131759644,0.241791233420372,0.39137253165245056
9.4,-0.18717829883098602,1.2336798906326294,-0.04365335777401924,0.14656256139278412,0.28962409496307373,0.3874131441116333
9.425,-0.1131729707121849,1.1329394578933716,-0.12042896449565887,0.12110016494989395,0.3432537913322449,0.379662424325943
9.45,0.012993402779102325,1.0347357988357544,-0.2915923297405243,0.12347132712602615,0.3964444100856781,0.4030021131038666
9.475,0.09000275284051895,1.0186986923217773,-0.5277071595191956,0.18294161558151245,0.453473299741745,0.4504357576370239
9.5,0.04097525775432587,1.1281499862670898,-0.6856617331504822,0.2790340185165405,0.5218526124954224,0.49343937635421753
9.525,-0.11829355359077454,1.2974271774291992,-0.6028661131858826,0.36133038997650146,0.6062223315238953,0.5181363224983215
9.55,-0.25068363547325134,1.3987151384353638,-0.3697579801082611,0.3834412693977356,0.7019922137260437,0.5422136783599854
9.575,-0.2779785692691803,1.4237605333328247,-0.2199835330247879,0.35878193378448486,0.7810399532318115,0.571570098400116
9.6,-0.2662544548511505,1.4717265367507935,-0.2647109925746918,0.32835832238197327,0.830575168132782,0.5858480930328369
9.625,-0.3346318304538727,1.6281635761260986,-0.42201223969459534,0.3184828758239746,0.8608691096305847,0.5695090889930725
9.65,-0.5701128840446472,1.9035656452178955,-0.45513689517974854,0.32426917552948,0.87828129529953,0.5071067214012146
9.675,-0.9033890962600708,2.1619999408721924,-0.20092454552650452,0.29077011346817017,0.8826383352279663,0.4112577438354492
9.7,-1.1634998321533203,2.166334390640259,0.27248772978782654,0.17491121590137482,0.8652159571647644,0.32241174578666687
9.725,-1.1798532009124756,1.9144700765609741,0.7773030400276184,0.04546261578798294,0.8195676207542419,0.2786383032798767
9.75,-1.011154294013977,1.5176366567611694,0.9979678988456726,-0.07458516955375671,0.7558447122573853,0.2919752597808838
9.775,-0.8907404541969299,1.0783054828643799,0.8145642280578613,-0.15596504509449005,0.6827524900436401,0.33351778984069824
9.8,-0.8496053218841553,0.7806283831596375,0.4678296148777008,-0.1528140902519226,0.6325615644454956,0.366048663854599
9.825,-0.744691789150238,0.731080174446106,0.16321811079978943,-0.08806074410676956,0.6344262957572937,0.3761996924877167
9.85,-0.5546078085899353,0.8636904954910278,-0.07913617789745331,-0.024286001920700073,0.6645991802215576,0.35547173023223877
9.875,-0.4468285143375397,1.0513430833816528,-0.2727274000644684,0.0096200630068779,0.6900740265846252,0.3203016221523285
9.9,-0.5134643316268921,1.2387124300003052,-0.35885941982269287,0.03589228540658951,0.7049391269683838,0.29592353105545044
9.925,-0.6347727179527283,1.383015751838684,-0.2767511010169983,0.0568193681538105,0.7174566984176636,0.28541332483291626
9.95,-0.6794944405555725,1.4217597246170044,-0.11090583354234695,0.042940910905599594,0.7215276956558228,0.26743176579475403
9.975,-0.6787512898445129,1.404713749885559,-0.034960780292749405,-0.00048235803842544556,0.7049055099487305,0.2327088713645935
10.0,-0.7164525389671326,1.3990594148635864,-0.06247083842754364,-0.03656807169318199,0.6708909869194031,0.20131443440914154
10.025,-0.7855861186981201,1.3906298875808716,-0.06551532447338104,-0.04721926152706146,0.6268330812454224,0.18441441655158997
10.05,-0.8360699415206909,1.3497439622879028,0.04342041537165642,-0.06329487264156342,0.5689073204994202,0.16928856074810028
10.075,-0.8349840641021729,1.2612544298171997,0.2308833748102188,-0.10646829009056091,0.4887619912624359,0.15298104286193848
10.1,-0.7712286114692688,1.132106065750122,0.42925795912742615,-0.16553668677806854,0.3932575583457947,0.13540753722190857
10.125,-0.6686224937438965,1.066331148147583,0.6117112636566162,-0.22202397882938385,0.2987237274646759,0.10730337351560593
10.15,-0.5890085697174072,1.164942979812622,0.7269929647445679,-0.2798742651939392,0.19865204393863678,0.053177788853645325
10.175,-0.5242065191268921,1.3354027271270752,0.5874919295310974,-0.3597441017627716,0.0938742458820343,-0.01841844990849495
10.2,-0.42485177516937256,1.3375388383865356,0.023590650409460068,-0.4619918763637543,0.024309363216161728,-0.07289444655179977
10.225,-0.4085434377193451,1.1676111221313477,-0.6913672089576721,-0.5084514021873474,0.05193644016981125,-0.0859791710972786
10.25,-0.620132327079773,1.044276237487793,-1.0889948606491089,-0.4308740198612213,0.18405787646770477,-0.06026066467165947
10.275,-0.912994921207428,0.9470939636230469,-1.091909408569336,-0.29746368527412415,0.34221431612968445,-0.050634343177080154
10.3,-1.0854555368423462,0.7324190139770508,-0.7611209750175476,-0.16976496577262878,0.49592646956443787,-0.058672964572906494
10.325,-1.126442313194275,0.5607615113258362,-0.09268216788768768,-0.03449630364775658,0.6215641498565674,-0.055260688066482544
10.35,-1.0767160654067993,0.6912443041801453,0.6295934319496155,0.06540608406066895,0.6407362818717957,-0.07736358791589737
10.375,-1.0501242876052856,1.0977203845977783,0.9041585922241211,0.06178257241845131,0.5486577153205872,-0.1523461788892746
10.4,-1.0858128070831299,1.4696152210235596,0.6835733652114868,-0.04129764065146446,0.42050406336784363,-0.23022209107875824
10.425,-1.0771970748901367,1.568764090538025,0.37050962448120117,-0.16013938188552856,0.3270300328731537,-0.260405957698822
10.45,-0.9903552532196045,1.460969090461731,0.29719382524490356,-0.2119680643081665,0.2721569836139679,-0.24308615922927856
10.475,-0.8554295897483826,1.3624165058135986,0.46581217646598816,-0.2104577124118805,0.22348608076572418,-0.1979481428861618
10.5,-0.6568446755409241,1.286078691482544,0.622268557548523,-0.20357578992843628,0.16644319891929626,-0.1355247050523758
10.525,-0.39505282044410706,1.1660711765289307,0.5618321299552917,-0.19249053299427032,0.1030881404876709,-0.07646514475345612
10.55,-0.24107414484024048,1.0862513780593872,0.3188859820365906,-0.1528579443693161,0.05141603946685791,-0.035481005907058716
10.575,-0.28957876563072205,1.0826102495193481,0.03122917003929615,-0.10247276723384857,0.015789229422807693,-0.001682342030107975
10.6,-0.44767996668815613,1.125799298286438,-0.2260226458311081,-0.06061019003391266,0.0016175982309505343,0.030209172517061234
10.625,-0.6079418063163757,1.1606017351150513,-0.3519390821456909,-0.007638353854417801,0.02138245664536953,0.05351408198475838
10.65,-0.7183604836463928,1.1892482042312622,-0.28600600361824036,0.06007959693670273,0.056561555713415146,0.06795524060726166
10.675,-0.7651534080505371,1.2267829179763794,-0.11885712295770645,0.10377344489097595,0.07533808797597885,0.07683799415826797
10.7,-0.750558614730835,1.2246047258377075,0.041358646005392075,0.11582829058170319,0.06287811696529388,0.0800413265824318
10.725,-0.6845723986625671,1.1724635362625122,0.13474933803081512,0.11126759648323059,0.03370334953069687,0.07644414156675339
10.75,-0.6211568117141724,1.1260367631912231,0.1174815371632576,0.10839410126209259,0.00857133511453867,0.07975190877914429
10.775,-0.5814151763916016,1.099265217781067,0.028980303555727005,0.13181282579898834,-0.006921313237398863,0.09694959968328476
10.8,-0.5566572546958923,1.0736905336380005,-0.03639035299420357,0.17849738895893097,-0.0071802204474806786,0.11211752891540527
10.825,-0.5519331097602844,1.019990086555481,-0.03150622546672821,0.21410028636455536,0.009979324415326118,0.10489283502101898
10.85,-0.5213104486465454,1.0169192552566528,-0.0005039030802436173,0.2417723685503006,0.02306944504380226,0.06459391862154007
10.875,-0.4437146782875061,1.0812522172927856,0.038345132023096085,0.24154144525527954,0.03737702965736389,0.025821276009082794
10.9,-0.3291148841381073,1.13398277759552,0.13246624171733856,0.21950192749500275,0.04186436906456947,-0.012819035910069942
10.925,-0.2128550112247467,1.14985191822052,0.2291608601808548,0.1930273324251175,0.03260284662246704,-0.0440039336681366
10.95,-0.1819654256105423,1.1041194200515747,0.20586641132831573,0.17787012457847595,0.020293494686484337,-0.05137857794761658
10.975,-0.2408600002527237,1.0745211839675903,0.08025964349508286,0.17228421568870544,0.012872603721916676,-0.06404857337474823
11.0,-0.270701140165329,1.195949673652649,0.017916372045874596,0.16494879126548767,0.024453019723296165,-0.11000003665685654
11.025,-0.20114825665950775,1.3823081254959106,0.14167527854442596,0.14417433738708496,0.04949977993965149,-0.14589844644069672
11.05,-0.11539436876773834,1.41602623462677,0.34063073992729187,0.1419280469417572,0.06798694282770157,-0.11891329288482666
11.075,-0.11585628986358643,1.2911206483840942,0.40466976165771484,0.1558888852596283,0.06062348559498787,-0.06751015782356262
11.1,-0.21106334030628204,1.185080647468567,0.3079908490180969,0.1439303457736969,0.026933427900075912,-0.049032825976610184
11.125,-0.2838858366012573,1.230519413948059,0.2179015427827835,0.12236183881759644,0.0033289960119873285,-0.0677989274263382
11.15,-0.2479785978794098,1.363425374031067,0.22997815907001495,0.12797746062278748,0.007148319855332375,-0.08254028111696243
11.175,-0.1424061357975006,1.4578238725662231,0.31147852540016174,0.13446643948554993,0.010968144051730633,-0.06606245785951614
11.2,-0.05902143940329552,1.4808789491653442,0.39687681198120117,0.11061663180589676,-0.011923874728381634,-0.05115469917654991
11.225,-0.03482767939567566,1.4335318803787231,0.4051772654056549,0.06447142362594604,-0.0599910244345665,-0.041953444480895996
11.25,-0.043551333248615265,1.349448323249817,0.31390833854675293,0.022025004029273987,-0.10986655205488205,-0.028342537581920624
11.275,-0.027820857241749763,1.3028565645217896,0.1946425586938858,0.0022631045430898666,-0.15301643311977386,-0.023148177191615105
11.3,0.05787072330713272,1.3240901231765747,0.11300251632928848,-0.009222861379384995,-0.1879425346851349,-0.02466176263988018
11.325,0.18248416483402252,1.3741227388381958,0.0434860996901989,-0.025493264198303223,-0.21275384724140167,-0.020361237227916718
11.35,0.2608981430530548,1.4230605363845825,-0.03893178701400757,-0.03382360562682152,-0.2326757311820984,-0.007326193153858185
11.375,0.2497284710407257,1.427601933479309,-0.11337744444608688,-0.04044915735721588,-0.25594645738601685,0.005415524356067181
11.4,0.18067628145217896,1.3765555620193481,-0.14197686314582825,-0.04960818588733673,-0.28380224108695984,0.008065642789006233
11.425,0.10892271250486374,1.3610955476760864,-0.10700234025716782,-0.04847363755106926,-0.3036569058895111,-0.0011389324208721519
11.45,0.08197042346000671,1.3967143297195435,-0.04924754798412323,-0.03990227356553078,-0.31108614802360535,-0.0008116437238641083
11.475,0.09068019688129425,1.3661643266677856,-0.046561289578676224,-0.039669424295425415,-0.31720802187919617,0.02298860065639019
11.5,0.07831548899412155,1.2847739458084106,-0.11507517099380493,-0.05416124686598778,-0.33260926604270935,0.038829319179058075
11.525,0.034711483865976334,1.235831379890442,-0.16177871823310852,-0.059309206902980804,-0.3485529124736786,0.0377550832927227
11.55,-0.011973652988672256,1.2498618364334106,-0.19577324390411377,-0.05318615213036537,-0.3572703003883362,0.028570907190442085
11.575,-0.05971534922719002,1.2687073945999146,-0.23081760108470917,-0.045815058052539825,-0.3602680265903473,0.02011556550860405
11.6,-0.10029223561286926,1.2515641450881958,-0.21857157349586487,-0.04500032588839531,-0.3634813725948334,0.0035627493634819984
11.625,-0.11008069664239883,1.2226229906082153,-0.1718781292438507,-0.047350116074085236,-0.37227311730384827,-0.017771374434232712
11.65,-0.0736386775970459,1.176749348640442,-0.13877983391284943,-0.046600379049777985,-0.3866225481033325,-0.03221184015274048
11.675,0.013542374595999718,1.158453106880188,-0.14877697825431824,-0.0402686782181263,-0.3964160680770874,-0.04796919226646423
11.7,0.12160756438970566,1.198827862739563,-0.14520849287509918,-0.038579441606998444,-0.4065517783164978,-0.07838932424783707
11.725,0.18991626799106598,1.2458430528640747,-0.1273213028907776,-0.043600987643003464,-0.4147036671638489,-0.1012018546462059
11.75,0.235662579536438,1.2685004472732544,-0.11502806842327118,-0.041235245764255524,-0.408502459526062,-0.09789320081472397
11.775,0.32759150862693787,1.310263752937317,-0.12067458778619766,-0.027244651690125465,-0.3984723687171936,-0.08440937101840973
11.8,0.4316112697124481,1.3601971864700317,-0.117330402135849,-0.022614561021327972,-0.39040952920913696,-0.06899821013212204
11.825,0.4665328860282898,1.3783646821975708,-0.10501096397638321,-0.031150463968515396,-0.3769455552101135,-0.0464627668261528
11.85,0.4461210370063782,1.3535395860671997,-0.10298649221658707,-0.038210395723581314,-0.3509288728237152,-0.01469658873975277
11.875,0.407532274723053,1.3163233995437622,-0.08120813965797424,-0.03547059744596481,-0.32476577162742615,0.011096587404608727
11.9,0.337848961353302,1.2969619035720825,-0.04463828355073929,-0.028160173445940018,-0.30465230345726013,0.031094621866941452
11.925,0.23397855460643768,1.282755970954895,-0.05206943303346634,-0.026799529790878296,-0.29065874218940735,0.05422968417406082
11.95,0.1611257791519165,1.2441474199295044,-0.08976059406995773,-0.028228726238012314,-0.28243306279182434,0.06612430512905121
11.975,0.13404470682144165,1.2094184160232544,-0.10021720081567764,-0.030185900628566742,-0.28343865275382996,0.059825997799634933
12.0,0.14842909574508667,1.218617558479309,-0.1163959726691246,-0.03228619322180748,-0.2882443070411682,0.05253950133919716
12.025,0.1890624314546585,1.2878695726394653,-0.15556974709033966,-0.030567403882741928,-0.2855690121650696,0.044392552226781845
12.05,0.2469598948955536,1.3606911897659302,-0.16885045170783997,-0.030225925147533417,-0.2685993015766144,0.039329756051301956
12.075,0.33015990257263184,1.369711995124817,-0.16262705624103546,-0.04026079177856445,-0.23434795439243317,0.044478464871644974
12.1,0.3649898171424866,1.3047877550125122,-0.20529647171497345,-0.049470968544483185,-0.18377962708473206,0.06245237961411476
12.125,0.31743061542510986,1.2121468782424927,-0.2518283426761627,-0.044554077088832855,-0.1316448450088501,0.07834288477897644
12.15,0.22442589700222015,1.1528350114822388,-0.23115701973438263,-0.02598978579044342,-0.08670083433389664,0.08172086626291275
12.175,0.13731618225574493,1.1485587358474731,-0.17901469767093658,-0.007129634264856577,-0.046562034636735916,0.07886293530464172
12.2,0.08408864587545395,1.1671439409255981,-0.15345294773578644,0.004482178017497063,-0.010235179215669632,0.07115646451711655
12.225,0.0682111531496048,1.1831523180007935,-0.14627325534820557,0.009379308670759201,0.019214052706956863,0.05531327798962593
12.25,0.06703510880470276,1.188801884651184,-0.11478126794099808,0.012066559866070747,0.0440070666372776,0.04016781970858574
12.275,0.04802852123975754,1.226735234260559,-0.06699938327074051,0.021434400230646133,0.06629496812820435,0.021090127527713776
12.3,0.009641519747674465,1.2941218614578247,-0.025693170726299286,0.02756955660879612,0.08197254687547684,0.005609836429357529
12.325,-0.027500584721565247,1.3115063905715942,0.03000354953110218,0.03438775613903999,0.07881307601928711,0.006544160190969706
12.35,-0.0690760612487793,1.2408496141433716,0.08248461037874222,0.04104632884263992,0.055950235575437546,0.013161047361791134
12.375,-0.13412442803382874,1.1795741319656372,0.08267686516046524,0.03981505706906319,0.022823626175522804,-0.0017339397454634309
12.4,-0.1578531563282013,1.1726771593093872,0.04935432970523834,0.0277713593095541,-0.009940923191606998,-0.045712366700172424
12.425,-0.08767883479595184,1.1795140504837036,0.047334615141153336,0.017456140369176865,-0.028291473165154457,-0.08279266953468323
12.45,0.03788439929485321,1.2180110216140747,0.07159776240587234,0.027217283844947815,-0.0271897129714489,-0.09435611218214035
12.475,0.13816644251346588,1.2874785661697388,0.09285034984350204,0.041582848876714706,-0.03179211914539337,-0.09228301048278809
12.5,0.18741370737552643,1.3254538774490356,0.12413615733385086,0.04073929414153099,-0.05396820977330208,-0.09233593195676804
12.525,0.2331789880990982,1.3558284044265747,0.13144788146018982,0.037466466426849365,-0.06508856266736984,-0.08322400599718094
12.55,0.30678966641426086,1.3828727006912231,0.09754453599452972,0.02690090984106064,-0.0653449147939682,-0.06711133569478989
12.575,0.37360113859176636,1.3932753801345825,0.009851159527897835,0.013520779088139534,-0.05402020737528801,-0.04525166004896164
12.6,0.3767443597316742,1.3727484941482544,-0.043526794761419296,-0.002050059847533703,-0.030591150745749474,-0.02209428697824478
12.625,0.3265548050403595,1.350422978401184,-0.03611056134104729,-0.007856622338294983,0.004229586571455002,-0.004601262975484133
12.65,0.28965169191360474,1.335368275642395,-0.03997121751308441,-0.006767723709344864,0.04910341650247574,0.014416624791920185
12.675,0.28973016142845154,1.333868145942688,-0.0582321360707283,-0.01173234824091196,0.09196969121694565,0.02901691384613514
12.7,0.279201865196228,1.3491955995559692,-0.10154469311237335,-0.02361929602921009,0.1295037716627121,0.034815214574337006
12.725,0.2404862344264984,1.3402453660964966,-0.1217028945684433,-0.03405740112066269,0.16119755804538727,0.037714120000600815
12.75,0.1922379434108734,1.32801353931427,-0.08797552436590195,-0.03497790917754173,0.18988138437271118,0.04401342570781708
12.775,0.1445649415254593,1.3381825685501099,-0.05325198546051979,-0.03952739015221596,0.22856533527374268,0.05703188478946686
12.8,0.10462448000907898,1.3507949113845825,-0.059121496975421906,-0.04322883114218712,0.27033093571662903,0.08455348014831543
12.825,0.05000380426645279,1.3256818056106567,-0.08467680960893631,-0.0521993413567543,0.3022468388080597,0.1131933405995369
12.85,-0.026371290907263756,1.292136311531067,-0.10613345354795456,-0.06058073788881302,0.32525351643562317,0.13297070562839508
12.875,-0.09743177145719528,1.3019133806228638,-0.1097482368350029,-0.06317465007305145,0.3487657606601715,0.1399572193622589
12.9,-0.1393546164035797,1.3594809770584106,-0.1074460819363594,-0.06390887498855591,0.37300077080726624,0.15062113106250763
12.925,-0.18525701761245728,1.35798180103302,-0.09718062728643417,-0.07335211336612701,0.3913513422012329,0.16467036306858063
12.95,-0.22756828367710114,1.2968932390213013,-0.08288024365901947,-0.076899953186512,0.40310370922088623,0.17734989523887634
12.975,-0.2721705734729767,1.253775715827942,-0.08356693387031555,-0.07080519944429398,0.41274258494377136,0.188227578997612
13.0,-0.3533257842063904,1.2090731859207153,-0.10043077915906906,-0.06404557079076767,0.41397854685783386,0.20307596027851105
13.025,-0.4574863314628601,1.1780959367752075,-0.1121850311756134,-0.05968248099088669,0.4072244465351105,0.20697344839572906
13.05,-0.5348752737045288,1.1969882249832153,-0.10742921382188797,-0.06411276757717133,0.3948528468608856,0.18545158207416534
13.075,-0.5689700245857239,1.2024794816970825,-0.09598589688539505,-0.06451169401407242,0.38091692328453064,0.16823725402355194
13.1,-0.5668070912361145,1.171652913093567,-0.0892837718129158,-0.056536681950092316,0.3762054145336151,0.17196349799633026
13.125,-0.5499594807624817,1.1404849290847778,-0.045000020414590836,-0.046065397560596466,0.3583671748638153,0.15894488990306854
13.15,-0.5422930121421814,1.157460331916809,0.029320452362298965,-0.038892440497875214,0.32602402567863464,0.13098877668380737
13.175,-0.5201054215431213,1.184867024421692,0.05415772646665573,-0.038199178874492645,0.30048054456710815,0.11726167798042297
13.2,-0.501477837562561,1.1769152879714966,0.04077942669391632,-0.041701532900333405,0.27587854862213135,0.11183412373065948
13.225,-0.4837303161621094,1.163798451423645,0.03857540711760521,-0.039137933403253555,0.2479998916387558,0.09497564285993576
13.25,-0.46706250309944153,1.1595231294631958,0.07462965697050095,-0.03306817263364792,0.21961452066898346,0.07383663952350616
13.275,-0.4610576629638672,1.1623831987380981,0.12109041213989258,-0.029241614043712616,0.1837879866361618,0.05502203106880188
13.3,-0.4332577884197235,1.179801106452942,0.13275478780269623,-0.02709112875163555,0.15112049877643585,0.04476777836680412
13.325,-0.3841645121574402,1.1804448366165161,0.12097621709108353,-0.02037092112004757,0.11722909659147263,0.03295290097594261
13.35,-0.3491635322570801,1.157537579536438,0.10670821368694305,-0.015875598415732384,0.07724188268184662,0.020429108291864395
13.375,-0.31665733456611633,1.1374703645706177,0.07359257340431213,-0.010302829556167126,0.040767449885606766,0.006080685183405876
13.4,-0.2735937237739563,1.140553593635559,0.06368698179721832,-0.001485378248617053,0.009165005758404732,-0.0049852547235786915
13.425,-0.1886027604341507,1.1625310182571411,0.09209387004375458,0.008965622633695602,-0.02317780628800392,-0.012246583588421345
13.45,-0.09181147068738937,1.238871693611145,0.1268208622932434,0.019606025889515877,-0.05588482692837715,-0.013984644785523415
13.475,-0.041271522641181946,1.3299857378005981,0.1670440137386322,0.0193545650690794,-0.09254078567028046,-0.009278383105993271
13.5,-0.021615102887153625,1.3638259172439575,0.1855577975511551,0.014510351233184338,-0.12220495939254761,0.015264024958014488
13.525,-0.04149102419614792,1.321041226387024,0.15599656105041504,0.011860724538564682,-0.14018382132053375,0.05476490780711174
13.55,-0.09584537148475647,1.2556582689285278,0.11722566187381744,0.005717792548239231,-0.15583695471286774,0.08725228905677795
13.575,-0.12022669613361359,1.2523261308670044,0.12009632587432861,-0.0024502500891685486,-0.17298278212547302,0.10091619193553925
13.6,-0.11177433282136917,1.2807780504226685,0.11346292495727539,-0.00889621302485466,-0.18891015648841858,0.11190085113048553
13.625,-0.08641370385885239,1.2930737733840942,0.11159778386354446,-0.015806645154953003,-0.19931699335575104,0.12811990082263947
13.65,-0.0479520708322525,1.3055459260940552,0.10257904976606369,-0.02959403768181801,-0.20593027770519257,0.14363934099674225
13.675,-0.038097210228443146,1.3361836671829224,0.06207423657178879,-0.04937975853681564,-0.20995043218135834,0.16121478378772736
13.7,-0.054660897701978683,1.358542561531067,0.014764772728085518,-0.07076910138130188,-0.2061838060617447,0.18800123035907745
13.725,-0.06277738511562347,1.324788212776184,-0.014566219411790371,-0.09682095795869827,-0.20025144517421722,0.2201031595468521
13.75,-0.05618342384696007,1.2456218004226685,-0.044750720262527466,-0.1186932772397995,-0.19516536593437195,0.23605313897132874
13.775,-0.08271508663892746,1.1622954607009888,-0.09649268537759781,-0.12498073279857635,-0.19498665630817413,0.23181474208831787
13.8,-0.15603002905845642,1.0560752153396606,-0.147538959980011,-0.12911885976791382,-0.18859313428401947,0.2277599722146988
13.825,-0.22714248299598694,1.0032035112380981,-0.22204047441482544,-0.11811445653438568,-0.1698879450559616,0.2281906008720398
13.85,-0.2511277496814728,1.0439177751541138,-0.27633222937583923,-0.07779254764318466,-0.1484946459531784,0.21772874891757965
13.875,-0.24123379588127136,1.0776969194412231,-0.2703843414783478,-0.03843734785914421,-0.12194382399320602,0.2126581370830536
13.9,-0.2033872753381729,1.0908499956130981,-0.20447148382663727,-0.008788401260972023,-0.09665880352258682,0.2144288569688797
13.925,-0.12649576365947723,1.1424399614334106,-0.1342458575963974,0.01452043280005455,-0.0733211562037468,0.22243167459964752
13.95,-0.01965869776904583,1.174357533454895,-0.1356886923313141,0.02216428518295288,-0.06601244956254959,0.2336825728416443
13.975,0.04217495769262314,1.1444674730300903,-0.20851126313209534,0.02149660885334015,-0.06088842451572418,0.24441419541835785
14.0,0.0025588013231754303,1.1187115907669067,-0.3186403512954712,0.02292829379439354,-0.03988872841000557,0.2492215782403946
14.025,-0.09961378574371338,1.09607994556427,-0.3931995630264282,0.012547113001346588,-0.005275645758956671,0.2483755350112915
14.05,-0.15078222751617432,1.056519627571106,-0.40614479780197144,-0.0021547116339206696,0.024960465729236603,0.22045089304447174
14.075,-0.1308678835630417,1.0504142045974731,-0.3651115894317627,0.012573480606079102,0.050623901188373566,0.18275432288646698
14.1,-0.11899031698703766,1.0488072633743286,-0.33035746216773987,0.030602063983678818,0.08107862621545792,0.15897522866725922
14.125,-0.15081505477428436,1.0125418901443481,-0.3250975012779236,0.03925294429063797,0.11057665944099426,0.13819561898708344
14.15,-0.2052675485610962,1.0206166505813599,-0.3534396290779114,0.05196024477481842,0.13050930202007294,0.10547236353158951
14.175,-0.24523642659187317,1.0520726442337036,-0.36003556847572327,0.057533860206604004,0.13451650738716125,0.06285437941551208
14.2,-0.23843832314014435,1.082205891609192,-0.285665899515152,0.03545442596077919,0.12505793571472168,0.00895409844815731
14.225,-0.13119517266750336,1.1112357378005981,-0.08779998123645782,0.03864465281367302,0.12384543567895889,-0.04700115695595741
14.25,0.03647187352180481,1.0977622270584106,0.07272831350564957,0.050973933190107346,0.14212433993816376,-0.04882435500621796
14.275,0.08915727585554123,1.0350199937820435,0.07234274595975876,0.06487555056810379,0.16857852041721344,-0.023613685742020607
14.3,-0.010489748790860176,0.9911681413650513,-0.004163049161434174,0.07701857388019562,0.1825510710477829,-0.014354762621223927
14.325,-0.09758332371711731,0.9818602800369263,-0.04727957025170326,0.09461329877376556,0.1983468234539032,-0.023732122033834457
14.35,-0.11765925586223602,1.011323094367981,-0.030051982030272484,0.11447285115718842,0.23141424357891083,-0.03626720979809761
14.375,-0.10504139214754105,1.1061030626296997,-0.004320131149142981,0.1287657916545868,0.25460076332092285,-0.045587118715047836
14.4,-0.05745605006814003,1.194067120552063,0.03778412193059921,0.13775019347667694,0.26310524344444275,-0.04435596987605095
14.425,-0.026352394372224808,1.226277470588684,0.10598088800907135,0.131548210978508,0.2650523781776428,-0.0350818857550621
14.45,-0.03137236461043358,1.2726680040359497,0.16414879262447357,0.12176066637039185,0.25380608439445496,-0.03531275689601898
14.475,-0.04477072134613991,1.2941561937332153,0.1894557923078537,0.09885173290967941,0.24279257655143738,-0.03200411796569824
14.5,-0.07123559713363647,1.2417594194412231,0.16447317600250244,0.07824370265007019,0.23909032344818115,-0.025531785562634468
14.525,-0.09506137669086456,1.1771785020828247,0.12433391064405441,0.07749415189027786,0.24727021157741547,-0.010852598585188389
14.55,-0.12192843109369278,1.1577006578445435,0.11019495874643326,0.083671435713768,0.2480165958404541,-0.0065103149972856045
14.575,-0.13411195576190948,1.1692973375320435,0.1376781314611435,0.08428502082824707,0.24245525896549225,-0.010619611479341984
14.6,-0.12984918057918549,1.1705275774002075,0.16740834712982178,0.08076320588588715,0.23968073725700378,-0.01152086816728115
14.625,-0.12350806593894958,1.1921244859695435,0.15648004412651062,0.0772976279258728,0.2385125756263733,-0.008584100753068924
14.65,-0.12358041852712631,1.23328697681427,0.11789774894714355,0.07283666729927063,0.23370791971683502,-0.005858505144715309
14.675,-0.13935375213623047,1.2789660692214966,0.1044541522860527,0.062766894698143,0.22382745146751404,-0.011340255849063396
14.7,-0.15632271766662598,1.3199492692947388,0.12581685185432434,0.04557586461305618,0.21109937131404877,-0.01522370520979166
14.725,-0.17525002360343933,1.3157416582107544,0.11961792409420013,0.030221717432141304,0.19897788763046265,-0.009522013366222382
14.75,-0.1800537109375,1.254888653755188,0.12844283878803253,0.022079041227698326,0.19056394696235657,-0.0038203420117497444
14.775,-0.1758114993572235,1.1948586702346802,0.15480341017246246,0.020382480695843697,0.182863250374794,-0.008219772949814796
14.8,-0.1958102583885193,1.1408826112747192,0.16392619907855988,0.020237604156136513,0.17647124826908112,-0.011692547239363194
14.825,-0.19894520938396454,1.119996190071106,0.17106091976165771,0.022746797651052475,0.1694265455007553,-0.01420930027961731
14.85,-0.1738085150718689,1.1460219621658325,0.18956512212753296,0.024527153000235558,0.1571272909641266,-0.02084544114768505
14.875,-0.16618305444717407,1.166347622871399,0.19889044761657715,0.021731220185756683,0.14579389989376068,-0.026513872668147087
14.9,-0.20335796475410461,1.1706782579421997,0.175209641456604,0.020158730447292328,0.13692118227481842,-0.030985543504357338
14.925,-0.2282981276512146,1.1709738969802856,0.14391379058361053,0.017651943489909172,0.12730470299720764,-0.033396556973457336
14.95,-0.21152278780937195,1.1928645372390747,0.12135236710309982,0.013603191822767258,0.11649712920188904,-0.03778742253780365
14.975,-0.1803046613931656,1.2088462114334106,0.09271957725286484,0.006876291707158089,0.10117917507886887,-0.043658338487148285
15.0,-0.1743316948413849,1.1766234636306763,0.05117045342922211,0.0013851937837898731,0.09339631348848343,-0.049902915954589844
15.025,-0.18329329788684845,1.1574870347976685,0.024744398891925812,0.0018644686788320541,0.09373550117015839,-0.0629371926188469
15.05,-0.15600977838039398,1.1952964067459106,0.0498046949505806,0.011623806320130825,0.09779917448759079,-0.0773596540093422
15.075,-0.09326579421758652,1.2295876741409302,0.09596239030361176,0.008392469957470894,0.10032616555690765,-0.08055536448955536
15.1,-0.07703275978565216,1.2306910753250122,0.09378540515899658,-0.0038486598059535027,0.09748833626508713,-0.07510235905647278
15.125,-0.10357451438903809,1.2119017839431763,0.048267241567373276,-0.0032242927700281143,0.08845473825931549,-0.07118774950504303
15.15,-0.13953842222690582,1.1981860399246216,0.03845231607556343,0.0045727211982011795,0.07585430145263672,-0.07728311419487
15.175,-0.18276137113571167,1.2148066759109497,0.10289200395345688,0.0121908038854599,0.0689924955368042,-0.08592772483825684
15.2,-0.22920897603034973,1.2081271409988403,0.16399210691452026,0.009065348654985428,0.059570807963609695,-0.08830041438341141
15.225,-0.230958953499794,1.1743842363357544,0.18616822361946106,0.003170119598507881,0.042236484587192535,-0.09583912044763565
15.25,-0.21732410788536072,1.1699200868606567,0.16274969279766083,-0.002558985725045204,0.01822969689965248,-0.11017647385597229
15.275,-0.19314993917942047,1.2336970567703247,0.11573602259159088,-0.010450497269630432,-0.004095926880836487,-0.12420449405908585
15.3,-0.15740081667900085,1.2632838487625122,0.08722856640815735,-0.019151095300912857,-0.01777864806354046,-0.12958970665931702
15.325,-0.1521318256855011,1.229758381843567,0.06918475776910782,-0.017465976998209953,-0.021320177242159843,-0.12314503639936447
15.35,-0.1484093815088272,1.2109767198562622,0.05749781057238579,-0.013377431780099869,-0.02650669775903225,-0.12064781039953232
15.375,-0.12326673418283463,1.2206546068191528,0.0648149773478508,-0.010404940694570541,-0.027399443089962006,-0.12379954010248184
15.4,-0.08694358170032501,1.2571593523025513,0.07196176797151566,-0.013108069077134132,-0.027912870049476624,-0.12845753133296967
15.425,-0.05788632482290268,1.2816773653030396,0.07040434330701828,-0.01942659728229046,-0.028867166489362717,-0.12985201179981232
15.45,-0.0529855452477932,1.2961150407791138,0.04918239638209343,-0.02604019269347191,-0.028461109846830368,-0.1266307532787323
15.475,-0.055269401520490646,1.3144313097000122,0.04429049789905548,-0.034157708287239075,-0.028890391811728477,-0.12066647410392761
15.5,-0.057178862392902374,1.3160697221755981,0.051416948437690735,-0.04330873861908913,-0.030732547864317894,-0.12016309797763824
15.525,-0.05289091542363167,1.315358281135559,0.033404815942049026,-0.06302464008331299,-0.031825605779886246,-0.11992081254720688
15.55,-0.003088404657319188,1.3066760301589966,0.009321511723101139,-0.07566769421100616,-0.03403925895690918,-0.12547364830970764
15.575,0.04216069355607033,1.2793885469436646,-0.0014091900084167719,-0.09265044331550598,-0.034512657672166824,-0.12680503726005554
15.6,0.043773140758275986,1.219518780708313,0.01080386620014906,-0.0815570205450058,-0.02410043589770794,-0.11869120597839355
15.625,0.004668165929615498,1.2119065523147583,-0.01046882476657629,-0.05860045552253723,-0.014196056872606277,-0.11883512139320374
15.65,-0.015779506415128708,1.2374240159988403,-0.018809175118803978,-0.048737943172454834,-0.004497843328863382,-0.1186610758304596
15.675,0.014578626491129398,1.232077717781067,0.011712361127138138,-0.045852258801460266,0.007564664352685213,-0.10645392537117004
15.7,0.053969841450452805,1.1946135759353638,0.011274431832134724,-0.044088199734687805,0.009060019627213478,-0.09516920894384384
15.725,0.0571206733584404,1.1839896440505981,-0.01729053631424904,-0.039600614458322525,0.008341322652995586,-0.08779259026050568
15.75,0.021364428102970123,1.2017375230789185,-0.036873139441013336,-0.024442415684461594,0.009352825582027435,-0.07904241979122162
15.775,-0.01955338940024376,1.229817509651184,-0.05074135586619377,-0.00845847837626934,0.001696075196377933,-0.07565746456384659
15.8,-0.024567753076553345,1.238134503364563,-0.06186007335782051,0.004491815343499184,-0.009303032420575619,-0.0760243684053421
15.825,-0.021863721311092377,1.2230063676834106,-0.07416394352912903,0.01255194190889597,-0.015430604107677937,-0.07018904387950897
15.85,-0.01851913332939148,1.2321196794509888,-0.0888080820441246,0.023480206727981567,-0.021662764251232147,-0.07098115980625153
15.875,-0.0012951120734214783,1.257050633430481,-0.07155640423297882,0.029865248128771782,-0.025492986664175987,-0.07587806135416031
15.9,0.034615181386470795,1.2694445848464966,-0.04692317917943001,0.028183195739984512,-0.0251238401979208,-0.07443108409643173
15.925,0.06474465131759644,1.2554980516433716,-0.027179211378097534,0.032213516533374786,-0.02395716682076454,-0.06721138954162598
15.95,0.07425566017627716,1.2561370134353638,-0.04013383761048317,0.04098539426922798,-0.024810295552015305,-0.060161422938108444
15.975,0.06900361180305481,1.2820502519607544,-0.04963867366313934,0.04648352414369583,-0.02564718946814537,-0.05613794922828674
16.0,0.0628863275051117,1.3057090044021606,-0.035044241696596146,0.04651261866092682,-0.027644392102956772,-0.05443308502435684
16.025,0.055383507162332535,1.325114369392395,-0.010032657533884048,0.048212070018053055,-0.025875534862279892,-0.04991716146469116
16.05,0.03109138086438179,1.3056737184524536,-0.011566623114049435,0.04818710312247276,-0.030041489750146866,-0.043435461819171906
16.075,0.016956057399511337,1.270264744758606,-0.029000917449593544,0.04357713460922241,-0.033912256360054016,-0.040635500103235245
16.1,0.03219478577375412,1.2690707445144653,-0.03796684741973877,0.042310092598199844,-0.037606380879879,-0.04083888605237007
16.125,0.07172464579343796,1.3108149766921997,-0.04170721024274826,0.0395706407725811,-0.042329542338848114,-0.04633645340800285
16.15,0.11315034329891205,1.3386203050613403,-0.0023825231473892927,0.036324843764305115,-0.04344410076737404,-0.043861664831638336
16.175,0.11698193103075027,1.367829442024231,0.022082215175032616,0.029138676822185516,-0.04499365761876106,-0.03630407154560089
16.2,0.07467551529407501,1.3566266298294067,0.017932333052158356,0.02059716172516346,-0.05016524717211723,-0.023948196321725845
16.225,0.05149078369140625,1.32313072681427,0.012119455263018608,0.016850583255290985,-0.05533808097243309,-0.017564259469509125
16.25,0.049948450177907944,1.321860432624817,0.010121815837919712,0.01481456309556961,-0.05435137823224068,-0.01662581041455269
16.275,0.07440315932035446,1.329487919807434,0.00973178818821907,0.006802313029766083,-0.05843077972531319,-0.01788591966032982
16.3,0.10463354736566544,1.342368245124817,-0.017803456634283066,-0.006468203850090504,-0.06324596703052521,-0.017413178458809853
16.325,0.08665171265602112,1.3702870607376099,-0.058586250990629196,-0.012591165490448475,-0.059038225561380386,-0.013489039614796638
16.35,0.06253626942634583,1.3589116334915161,-0.05264950916171074,-0.019471313804388046,-0.051837652921676636,-0.011581881903111935
16.375,0.07100047916173935,1.334753155708313,-0.013158168643712997,-0.02488277480006218,-0.049868009984493256,-0.011508693918585777
16.4,0.09079353511333466,1.2936965227127075,0.011416532099246979,-0.027867479249835014,-0.0408637635409832,-0.004356602672487497
16.425,0.0724877119064331,1.232136845588684,0.0010356621351093054,-0.027384959161281586,-0.02614191547036171,0.0071701896376907825
16.45,0.025396792218089104,1.187886357307434,-0.005667623598128557,-0.020374305546283722,-0.015289122238755226,0.011566415429115295
16.475,0.0023970252368599176,1.1895161867141724,-0.021900545805692673,-0.015221292153000832,-0.00936278235167265,-0.001061614602804184
16.5,0.026606393977999687,1.2348281145095825,-0.04096605256199837,-0.016759250313043594,-0.006525351665914059,-0.01858483999967575
16.525,0.04799347370862961,1.2655364274978638,-0.041092399507761,-0.016950877383351326,-0.0040300446562469006,-0.0272692684084177
16.55,0.04606068879365921,1.266677975654602,-0.028778081759810448,-0.015112191438674927,0.0061770593747496605,-0.024700455367565155
16.575,0.03162601590156555,1.2664366960525513,-0.026140131056308746,-0.014171971008181572,0.01712925359606743,-0.02325504831969738
16.6,0.05996042117476463,1.2852507829666138,-0.03268539905548096,-0.014810767024755478,0.026078516617417336,-0.0280683021992445
16.625,0.08709795773029327,1.2575503587722778,-0.020411616191267967,-0.01160665974020958,0.03892984241247177,-0.015595640987157822
16.65,0.0671563521027565,1.2164593935012817,-0.015359774231910706,-0.004026712384074926,0.04453907161951065,0.0023501713294535875
16.675,0.021536478772759438,1.2093077898025513,0.01110414694994688,-0.0026935283094644547,0.04145927354693413,-0.006639341823756695
16.7,-0.04597114771604538,1.2099276781082153,0.05444898083806038,-0.0078035807237029076,0.03940219804644585,-0.018602440133690834
16.725,-0.08955918997526169,1.246094822883606,0.088180311024189,-0.002328993286937475,0.04157517850399017,-0.03042559325695038
16.75,-0.07465670257806778,1.285573124885559,0.10085876286029816,-0.00030420441180467606,0.03601451218128204,-0.02965432032942772
16.775,-0.043613262474536896,1.2706938982009888,0.05818648636341095,0.0034835683181881905,0.01897483691573143,-0.015974508598446846
16.8,-0.020503239706158638,1.2226306200027466,0.008893447928130627,-0.011346546933054924,-0.00678903516381979,-0.026199890300631523
16.825,0.009440664201974869,1.2359744310379028,-0.008106224238872528,-0.02298012375831604,-0.015246575698256493,-0.049849994480609894
16.85,0.021005427464842796,1.2892810106277466,-0.013222020119428635,-0.012546412646770477,-0.0043048253282904625,-0.05440312251448631
16.875,0.03793885558843613,1.3261443376541138,0.00021650944836437702,-0.0069813113659620285,0.009478426538407803,-0.0466906763613224
16.9,0.06743823736906052,1.316081166267395,0.034502480179071426,-0.012804918922483921,0.007876195013523102,-0.043633829802274704
16.925,0.07429243624210358,1.2899199724197388,0.05336931720376015,-0.019707143306732178,0.008106333203613758,-0.034605663269758224
16.95,0.06141340732574463,1.286610722541809,0.046443622559309006,-0.019617756828665733,0.012304876931011677,-0.0184407290071249
16.975,0.04179706797003746,1.298819661140442,0.041312120854854584,-0.016761790961027145,0.005263512954115868,-0.0061433687806129456
17.0,-0.00930761732161045,1.2898913621902466,0.0240352600812912,-0.01269925944507122,-0.004377669654786587,0.001452296506613493
17.025,-0.04578787088394165,1.2976943254470825,0.02978515438735485,-0.012260251678526402,-0.013125788420438766,0.003246581181883812
17.05,-0.05924657732248306,1.3152247667312622,0.04970253258943558,-0.015447408892214298,-0.017940310761332512,0.009363850578665733
17.075,-0.06960003077983856,1.3219348192214966,0.05546717718243599,-0.017681168392300606,-0.022870246320962906,0.019887281581759453
17.1,-0.06285928934812546,1.3129464387893677,0.05288916081190109,-0.024301685392856598,-0.0318819135427475,0.023844443261623383
17.125,-0.04618168622255325,1.298909306526184,0.034405212849378586,-0.030853677541017532,-0.04247695952653885,0.027765056118369102
17.15,-0.0447113998234272,1.3102456331253052,0.013715207576751709,-0.02989821881055832,-0.0473007969558239,0.029660826548933983
17.175,-0.03771865367889404,1.3539172410964966,0.02819708175957203,-0.02622755616903305,-0.047552283853292465,0.03478928282856941
17.2,-0.03091568872332573,1.3678361177444458,0.06646383553743362,-0.020197167992591858,-0.04816274344921112,0.05221061781048775
17.225,-0.05709867179393768,1.345633625984192,0.0851401835680008,-0.017149668186903,-0.06256148219108582,0.07470427453517914
17.25,-0.08931947499513626,1.318827748298645,0.09095974266529083,-0.018894240260124207,-0.0841619223356247,0.09431571513414383
17.275,-0.10336005687713623,1.277608036994934,0.08200594782829285,-0.017953554168343544,-0.09902887046337128,0.11627010256052017
17.3,-0.19842955470085144,1.2204886674880981,0.008266981691122055,-0.010981395840644836,-0.11356354504823685,0.11902889609336853
17.325,-0.3125357925891876,1.0997172594070435,-0.10075701773166656,-0.00922215636819601,-0.13192833960056305,0.0878543108701706
17.35,-0.3496994376182556,0.9940940141677856,-0.12761084735393524,-0.009005906991660595,-0.12955288589000702,0.03879290819168091
17.375,-0.2848348617553711,1.1280184984207153,-0.04365776106715202,0.012884431518614292,-0.11787862330675125,-0.031383246183395386
17.4,-0.15383288264274597,1.3063679933547974,0.06228522211313248,0.003084893338382244,-0.11882779002189636,-0.07695995271205902
17.425,0.015347745269536972,1.3488551378250122,0.13927558064460754,-0.02036518231034279,-0.12046850472688675,-0.07480543851852417
17.45,0.11657780408859253,1.386750340461731,0.09980131685733795,-0.02423466555774212,-0.12308996170759201,-0.05485477298498154
17.475,0.1435670107603073,1.4359771013259888,0.025327932089567184,-0.025157149881124496,-0.13422317802906036,-0.04855271428823471
17.5,0.11384522914886475,1.4021788835525513,-0.0005226978100836277,-0.029141584411263466,-0.1389411985874176,-0.02861565724015236
17.525,0.054218266159296036,1.2762500047683716,0.00884556956589222,-0.030725756660103798,-0.1272696852684021,-0.001138780964538455
17.55,-0.011817766353487968,1.194020390510559,0.03764146938920021,-0.008077149279415607,-0.12385255843400955,-0.007639305200427771
17.575,-0.08625765144824982,1.210011601448059,0.07883530855178833,-0.027548912912607193,-0.1359437257051468,-0.04160687327384949
17.6,-0.11682482808828354,1.284403920173645,0.07970632612705231,-0.04635054990649223,-0.1530916839838028,-0.06543011963367462
17.625,-0.10618563741445541,1.3030396699905396,0.009210166521370411,-0.04326745495200157,-0.15506280958652496,-0.05975617095828056
17.65,-0.12308351695537567,1.2534648180007935,-0.10634427517652512,-0.060286976397037506,-0.16786041855812073,-0.0701066255569458
17.675,-0.13487368822097778,1.1652079820632935,-0.13790401816368103,-0.15271909534931183,-0.175211563706398,-0.10549172013998032
17.7,-0.04088887944817543,1.1570254564285278,-0.03770788386464119,-0.1975879967212677,-0.16288027167320251,-0.16634505987167358
17.725,0.17872953414916992,1.2665091753005981,0.11095582693815231,-0.2156084179878235,-0.14246423542499542,-0.21241995692253113
17.75,0.4419713318347931,1.3687688112258911,0.22780239582061768,-0.20635442435741425,-0.12921473383903503,-0.20241054892539978
17.775,0.5388688445091248,1.347631573677063,0.1508040577173233,-0.18846702575683594,-0.1146751269698143,-0.12261133641004562
17.8,0.457579642534256,1.2619277238845825,-0.04560105502605438,-0.18040359020233154,-0.13257619738578796,-0.06372983753681183
17.825,0.4105091094970703,1.216818928718567,-0.15843403339385986,-0.17395444214344025,-0.14384953677654266,-0.04411797225475311
17.85,0.3767871856689453,1.210206151008606,-0.19040727615356445,-0.15596596896648407,-0.11799424886703491,-0.019485274329781532
17.875,0.30980557203292847,1.2542458772659302,-0.18447084724903107,-0.1242535337805748,-0.09516416490077972,0.011026542633771896
17.9,0.27875959873199463,1.2925502061843872,-0.10830496996641159,-0.11228816956281662,-0.09290814399719238,0.032534755766391754
17.925,0.26677221059799194,1.3170768022537231,-0.05007104203104973,-0.1164480596780777,-0.1000237986445427,0.045747097581624985
17.95,0.23780833184719086,1.31495201587677,-0.011382311582565308,-0.12023580074310303,-0.11241936683654785,0.06139127165079117
17.975,0.20505261421203613,1.253956913948059,0.010193380527198315,-0.12065436691045761,-0.12134484201669693,0.08704310655593872
18.0,0.17754386365413666,1.1822882890701294,-0.013214587233960629,-0.12688884139060974,-0.13932695984840393,0.09936793893575668
18.025,0.13776668906211853,1.2010279893875122,-0.026349889114499092,-0.13319244980812073,-0.1652696132659912,0.09213540703058243
18.05,0.10819987952709198,1.2522650957107544,-0.015737496316432953,-0.1390371471643448,-0.17698034644126892,0.10070927441120148
18.075,0.1304882913827896,1.263417363166809,-0.011880241334438324,-0.1254759430885315,-0.1837872862815857,0.11914914101362228
18.1,0.17465099692344666,1.2461720705032349,-0.019039757549762726,-0.12331357598304749,-0.1994108110666275,0.14116929471492767
18.125,0.17388787865638733,1.2264491319656372,0.010982831008732319,-0.13532838225364685,-0.22740530967712402,0.1497892439365387
18.15,0.11791194975376129,1.1745330095291138,0.014309247955679893,-0.14778316020965576,-0.23371681571006775,0.16803982853889465
18.175,0.060117725282907486,1.1595832109451294,-0.04796485975384712,-0.14041778445243835,-0.2318265587091446,0.1845320761203766
18.2,0.04430418834090233,1.196518063545227,-0.08638627082109451,-0.12583734095096588,-0.22509965300559998,0.1955319494009018
18.225,0.06614865362644196,1.1796618700027466,-0.11600399762392044,-0.1197466254234314,-0.22075553238391876,0.2032722532749176
18.25,0.07676683366298676,1.1649237871170044,-0.15357837080955505,-0.11977227032184601,-0.22065526247024536,0.20637919008731842
18.275,0.04245299845933914,1.1601115465164185,-0.1659732162952423,-0.11763731390237808,-0.22040678560733795,0.20852172374725342
18.3,0.004056429490447044,1.140682339668274,-0.13483519852161407,-0.11031237244606018,-0.20541180670261383,0.2136712372303009
18.325,0.02687424048781395,1.102972149848938,-0.12971290946006775,-0.10359397530555725,-0.19017094373703003,0.21575558185577393
18.35,0.05825062841176987,1.102652668952942,-0.16149571537971497,-0.10304810851812363,-0.18470114469528198,0.20667453110218048
18.375,0.05245523527264595,1.1442519426345825,-0.17251092195510864,-0.09323923289775848,-0.18903234601020813,0.1880021095275879
18.4,0.011176659725606441,1.1378298997879028,-0.13135190308094025,-0.08552895486354828,-0.17916062474250793,0.19028347730636597
18.425,-0.0364300012588501,1.092286229133606,-0.11160708218812943,-0.07170765101909637,-0.1545506864786148,0.20778432488441467
18.45,-0.06903788447380066,1.0542765855789185,-0.12131691724061966,-0.06177052855491638,-0.1404002606868744,0.21366603672504425
18.475,-0.09552394598722458,1.0371876955032349,-0.14314325153827667,-0.06344275176525116,-0.13586868345737457,0.20722033083438873
18.5,-0.09887953847646713,1.0247069597244263,-0.1388891637325287,-0.05866982787847519,-0.13074417412281036,0.19704413414001465
18.525,-0.09687192738056183,1.0345803499221802,-0.10546465963125229,-0.05038104206323624,-0.12128817290067673,0.19615668058395386
18.55,-0.0987543836236,1.0269213914871216,-0.08811137080192566,-0.0484870970249176,-0.11293483525514603,0.196625217795372
18.575,-0.09891167283058167,1.0277634859085083,-0.09921145439147949,-0.04859329015016556,-0.11157902330160141,0.1954568326473236
18.6,-0.08836045861244202,1.0126734972000122,-0.1257859766483307,-0.04513612389564514,-0.11924998462200165,0.20340292155742645
18.625,-0.050908200442790985,0.9765158891677856,-0.15620994567871094,-0.036259911954402924,-0.12136507779359818,0.20981350541114807
18.65,-0.04149150103330612,1.0114165544509888,-0.172673761844635,-0.02240489423274994,-0.13045334815979004,0.1817692369222641
18.675,-0.03699525073170662,1.0150443315505981,-0.16115781664848328,-0.016061600297689438,-0.13484138250350952,0.16795046627521515
18.7,-0.025080589577555656,1.0043565034866333,-0.1496497541666031,-0.012406723573803902,-0.12528367340564728,0.163163423538208
18.725,-0.01638234220445156,1.0083590745925903,-0.14809250831604004,-0.005806213244795799,-0.12239112704992294,0.1436111479997635
18.75,-0.053413424640893936,1.0033236742019653,-0.17673662304878235,0.0009592175483703613,-0.11381813883781433,0.13733337819576263
18.775,-0.0954032838344574,0.9700042009353638,-0.22193339467048645,0.021605845540761948,-0.10211963206529617,0.14267022907733917
18.8,-0.12155377864837646,0.9314461946487427,-0.24612174928188324,0.048156142234802246,-0.09794386476278305,0.13440553843975067
18.825,-0.12748539447784424,0.9147768616676331,-0.2920985221862793,0.06772294640541077,-0.0882035419344902,0.11379004269838333
18.85,-0.11261042952537537,0.9050026535987854,-0.3652075529098511,0.09026547521352768,-0.05411845073103905,0.09257267415523529
18.875,-0.07978217303752899,0.8784609436988831,-0.41431066393852234,0.11690255254507065,-0.00567074166610837,0.0820319801568985
18.9,-0.07799912244081497,0.8596258759498596,-0.41459372639656067,0.15640448033809662,0.049893174320459366,0.06704453378915787
18.925,-0.13020874559879303,0.9148512482643127,-0.3705272674560547,0.20541179180145264,0.08994081616401672,0.0332062654197216
18.95,-0.1432597041130066,0.9653807878494263,-0.22542761266231537,0.23604716360569,0.12117307633161545,0.0066465395502746105
18.975,-0.08416815102100372,0.96351158618927,-0.03874168545007706,0.25135183334350586,0.14299499988555908,-0.008039375767111778
19.0,0.031910404562950134,0.9881936311721802,0.13598980009555817,0.26380404829978943,0.15087734162807465,-0.024900346994400024
19.025,0.1271262764930725,1.1305094957351685,0.3274475038051605,0.25106507539749146,0.1498410701751709,-0.04422185570001602
19.05,0.17544499039649963,1.4191304445266724,0.5040273070335388,0.2201477587223053,0.1318172961473465,-0.054062213748693466
19.075,0.23703569173812866,1.707358717918396,0.6276511549949646,0.15628640353679657,0.0796898603439331,-0.044381726533174515
19.1,0.35722261667251587,1.8659204244613647,0.6315600275993347,0.06507572531700134,-0.02562681771814823,-0.06102016195654869
19.125,0.425883412361145,1.801270842552185,0.6322812438011169,-0.03130984678864479,-0.11467540264129639,-0.047776948660612106
19.15,0.4058101177215576,1.4809496402740479,0.6968426704406738,-0.09039920568466187,-0.15977007150650024,0.03126446530222893
19.175,0.29496288299560547,1.1605656147003174,0.5671737194061279,-0.10312683880329132,-0.19000333547592163,0.10880206525325775
19.2,0.14522840082645416,0.9616023898124695,0.3003779351711273,-0.10277654230594635,-0.19801418483257294,0.1484030932188034
19.225,0.05464320629835129,0.8853226900100708,0.16216401755809784,-0.09810517728328705,-0.18324923515319824,0.1502845734357834
19.25,0.010329673066735268,0.9029141664505005,0.10671252757310867,-0.11816729605197906,-0.17746247351169586,0.11638572812080383
19.275,-0.029673980548977852,0.9893180131912231,0.040874332189559937,-0.15046343207359314,-0.17623601853847504,0.056929416954517365
19.3,-0.050332557410001755,1.1042243242263794,-0.028510814532637596,-0.20222404599189758,-0.166777566075325,-0.0021044102031737566
19.325,-0.002816658467054367,1.177949070930481,-0.027721013873815536,-0.2633799612522125,-0.14033100008964539,-0.028684545308351517
19.35,0.07350517809391022,1.2272788286209106,0.02407114766538143,-0.32667189836502075,-0.10715141147375107,-0.036302756518125534
19.375,0.12247902154922485,1.2463799715042114,0.01862183026969433,-0.3750866949558258,-0.07127844542264938,-0.03991897776722908
19.4,0.15670306980609894,1.3685351610183716,-0.17357973754405975,-0.4313514530658722,-0.03783964365720749,-0.04735172912478447
19.425,0.2293057143688202,1.7046319246292114,-0.5557406544685364,-0.46689316630363464,0.009811559692025185,-0.07656031847000122
19.45,0.3909839391708374,1.7006922960281372,-0.6592075824737549,-0.4887225329875946,0.11505036801099777,-0.08841981738805771
19.475,0.3799261450767517,0.8606730103492737,-0.46670815348625183,-0.536990761756897,0.36100783944129944,0.10335272550582886
19.5,0.17277765274047852,0.1291932761669159,-0.3965907692909241,-0.4544384181499481,0.51941978931427,0.2351781278848648
19.525,-0.251070111989975,0.3035564422607422,-0.40733304619789124,-0.2839420735836029,0.5062212347984314,0.16355085372924805
19.55,-0.6593573093414307,1.0854569673538208,-0.33351579308509827,-0.18647554516792297,0.3911568522453308,0.01215241476893425
19.575,-0.7372989058494568,1.6462910175323486,-0.056664202362298965,-0.2565632164478302,0.25325822830200195,-0.08418352901935577
19.6,-0.4577028155326843,1.458914875984192,0.3005087375640869,-0.39658236503601074,0.1135164350271225,-0.09216731786727905
19.625,-0.15135182440280914,0.8863422274589539,0.39848431944847107,-0.47882020473480225,0.0714893639087677,-0.04898415878415108
19.65,0.010035526007413864,0.4312754273414612,0.07945942133665085,-0.46580109000205994,0.15018534660339355,0.02250419184565544
19.675,0.05769989266991615,0.2863798141479492,-0.3428885042667389,-0.3715112805366516,0.24225099384784698,0.022176098078489304
19.7,-0.003973282873630524,0.44822216033935547,-0.5257384181022644,-0.27316099405288696,0.29528751969337463,-0.02166714146733284
19.725,-0.09615333378314972,0.7524996399879456,-0.3694305419921875,-0.21606861054897308,0.2845047414302826,-0.07521598786115646
19.75,-0.14379750192165375,0.968237042427063,-0.1112707331776619,-0.20162738859653473,0.2416459023952484,-0.09571906924247742
19.775,-0.24262936413288116,1.0125266313552856,0.06478545069694519,-0.2021007090806961,0.24218079447746277,-0.08702024817466736
19.8,-0.4208327829837799,0.9444981813430786,0.11409296840429306,-0.20519410073757172,0.2553335130214691,-0.05653141438961029
19.825,-0.5895977020263672,0.8619033098220825,0.11246746778488159,-0.1972355991601944,0.22925062477588654,-0.04594262316823006
19.85,-0.6038580536842346,0.75971519947052,0.13238726556301117,-0.179901584982872,0.1703038215637207,-0.05160218104720116
19.875,-0.4084163308143616,0.5667257905006409,0.1023043617606163,-0.17380499839782715,0.09568629413843155,-0.06454195827245712
19.9,-0.16691401600837708,0.3715868294239044,0.06791539490222931,-0.17034754157066345,0.05170454829931259,-0.062288641929626465
19.925,0.03993752598762512,0.4124470353126526,0.08908222615718842,-0.1326400339603424,0.04208454489707947,-0.05768300220370293
19.95,0.246250182390213,0.7347069382667542,0.09635059535503387,-0.08876074105501175,0.04562133178114891,-0.03538220748305321
19.975,0.3483808636665344,1.0737286806106567,0.05846206843852997,-0.054437629878520966,0.05604442581534386,0.018677251413464546
20.0,0.2749856114387512,1.201447606086731,0.10708919912576675,-0.034985918551683426,0.06183050572872162,0.06831323355436325
20.025,0.10054164379835129,1.192205548286438,0.24091950058937073,-0.02807379513978958,0.04773764684796333,0.10097204148769379
20.05,-0.06722719967365265,1.1446410417556763,0.33262476325035095,-0.049169015139341354,0.03698372468352318,0.13191835582256317
20.075,-0.17923861742019653,1.0569907426834106,0.28968074917793274,-0.07187122106552124,0.024452881887555122,0.15907594561576843
20.1,-0.21576422452926636,0.8861132860183716,0.15638978779315948,-0.08944018930196762,0.0044508203864097595,0.16900286078453064
20.125,-0.2332950085401535,0.7223063111305237,0.05983367934823036,-0.09438690543174744,-0.014711475931107998,0.1681625097990036
20.15,-0.27611228823661804,0.6423540711402893,0.03954310715198517,-0.08366508036851883,-0.029548829421401024,0.16222093999385834
20.175,-0.29047805070877075,0.6084957718849182,0.07152751088142395,-0.07901784032583237,-0.04605779051780701,0.15736323595046997
20.2,-0.24634091556072235,0.5673351883888245,0.10010343044996262,-0.07645999640226364,-0.06601285189390182,0.15344274044036865
20.225,-0.20671787858009338,0.548317015171051,0.06828538328409195,-0.0657811239361763,-0.08381788432598114,0.14391328394412994
20.25,-0.2032720148563385,0.6216240525245667,0.01563749834895134,-0.03329888731241226,-0.09988255053758621,0.13123472034931183
20.275,-0.20907455682754517,0.7205849289894104,-0.012236755341291428,-0.003670293837785721,-0.10251696407794952,0.13595958054065704
20.3,-0.20566976070404053,0.732917845249176,0.010807456448674202,0.0020471885800361633,-0.10667698085308075,0.1583591103553772
20.325,-0.19733752310276031,0.6840935349464417,0.07673002779483795,0.0036490634083747864,-0.12228536605834961,0.16936926543712616
20.35,-0.21918213367462158,0.656431257724762,0.10063441842794418,0.009903734549880028,-0.14303621649742126,0.16413277387619019
20.375,-0.24267002940177917,0.6396828293800354,0.05783083662390709,0.01187911443412304,-0.15981391072273254,0.14748930931091309
20.4,-0.2344687432050705,0.656436026096344,0.018067210912704468,0.010272594168782234,-0.1671968400478363,0.12358415871858597
20.425,-0.24647118151187897,0.7015991806983948,0.047874730080366135,0.018421243876218796,-0.16330328583717346,0.1166091337800026
20.45,-0.30413711071014404,0.6743956208229065,0.12239107489585876,0.02922697737812996,-0.16999122500419617,0.12571026384830475
20.475,-0.37863919138908386,0.6442204117774963,0.1575712263584137,0.06000328063964844,-0.1941680759191513,0.11099362373352051
20.5,-0.38939952850341797,0.663389265537262,0.07908888161182404,0.06874559819698334,-0.19774623215198517,0.08802063763141632
20.525,-0.3332120180130005,0.6890965104103088,0.05754464864730835,0.06304129213094711,-0.18993520736694336,0.0725773498415947
20.55,-0.2904183268547058,0.7108126282691956,0.14651916921138763,0.057129546999931335,-0.19759583473205566,0.06540635228157043
20.575,-0.21962642669677734,0.7675592303276062,0.21587716042995453,0.06461310386657715,-0.2230909764766693,0.05540606006979942
20.6,-0.11255744099617004,0.7867203950881958,0.21466314792633057,0.04951738566160202,-0.2290906310081482,0.06393081694841385
20.625,-0.04954877495765686,0.7883225679397583,0.15917716920375824,0.036032263189554214,-0.2382926493883133,0.07390987128019333
20.65,-0.041260816156864166,0.8125859498977661,0.09422949701547623,0.04566469043493271,-0.24696069955825806,0.06607585400342941
20.675,-0.05421482026576996,0.821792721748352,0.07539046555757523,0.03960403800010681,-0.24640969932079315,0.04618493467569351
20.7,-0.06737314909696579,0.7752124071121216,0.10250183194875717,0.017889544367790222,-0.2513960599899292,0.020499128848314285
20.725,-0.07641284167766571,0.7301207184791565,0.09206189215183258,0.015732435509562492,-0.24889536201953888,0.0028367049526423216
20.75,-0.08345546573400497,0.7014284729957581,0.03752446547150612,0.0041754222474992275,-0.24139446020126343,-0.003724758978933096
20.775,-0.0513969287276268,0.7391729950904846,0.04132268950343132,0.0001490588765591383,-0.23075266182422638,-0.014654898084700108
20.8,-0.03991841524839401,0.7433043122291565,0.011506609618663788,0.006128035485744476,-0.21739555895328522,-0.02905825898051262
20.825,-0.07424867898225784,0.7141161561012268,-0.045555029064416885,0.006586235947906971,-0.22694005072116852,-0.058573246002197266
20.85,-0.10620204359292984,0.6190796494483948,-0.102812759578228,-0.006635657511651516,-0.24143537878990173,-0.09335192292928696
20.875,-0.09134051948785782,0.49977976083755493,-0.11995430290699005,-0.022587943822145462,-0.2486819624900818,-0.13656453788280487
20.9,-0.011160239577293396,0.5334005951881409,-0.02539215236902237,-0.0715915709733963,-0.24826255440711975,-0.18970438838005066
20.925,0.04524938017129898,0.8520442247390747,0.1378023773431778,-0.05158032104372978,-0.23172393441200256,-0.24298828840255737
20.95,0.10551013052463531,0.968481183052063,0.23844246566295624,-0.06405578553676605,-0.20181868970394135,-0.22985221445560455
20.975,0.12971706688404083,0.7653380632400513,0.23435118794441223,-0.08167709410190582,-0.17027819156646729,-0.17979033291339874
21.0,0.11721614748239517,0.5590277314186096,0.13349175453186035,-0.07501795887947083,-0.17002011835575104,-0.15734447538852692
21.025,0.0932525023818016,0.6013346314430237,0.08204914629459381,-0.04766412824392319,-0.189555361866951,-0.18377788364887238
21.05,0.059700530022382736,0.7658940553665161,0.05201822146773338,-0.03285521641373634,-0.1964968889951706,-0.2024468332529068
21.075,0.03718523681163788,0.8118773698806763,0.06864739209413528,-0.04550783708691597,-0.17639894783496857,-0.19136419892311096
21.1,0.11090175807476044,0.8413115739822388,0.10060714930295944,-0.04264088720083237,-0.17565526068210602,-0.1890965700149536
21.125,0.23829695582389832,0.9109917879104614,0.19481365382671356,-0.051808033138513565,-0.1839791089296341,-0.1907234638929367
21.15,0.33634036779403687,0.9382239580154419,0.2627551555633545,-0.07314413040876389,-0.18125590682029724,-0.19530761241912842
21.175,0.36920681595802307,0.8625699281692505,0.18841122090816498,-0.08226300030946732,-0.1564628630876541,-0.18262876570224762
21.2,0.3298965096473694,0.7943450212478638,0.07949180901050568,-0.08332046866416931,-0.13938501477241516,-0.1749047487974167
21.225,0.27058467268943787,0.7400866150856018,0.035300906747579575,-0.0887962356209755,-0.14320695400238037,-0.1840672343969345
21.25,0.2457878142595291,0.6619969010353088,0.009442404843866825,-0.08838445693254471,-0.13898786902427673,-0.19801436364650726
21.275,0.23779703676700592,0.6548090577125549,-0.028528165072202682,-0.07282786071300507,-0.12754014134407043,-0.20482856035232544
21.3,0.20000618696212769,0.6862478852272034,-0.05175631120800972,-0.05460446700453758,-0.12034199386835098,-0.20352153480052948
21.325,0.1114175021648407,0.7348824143409729,-0.030757388100028038,-0.048576757311820984,-0.1198265478014946,-0.20720884203910828
21.35,0.05719011276960373,0.8023005723953247,-0.012012637220323086,-0.04846934974193573,-0.12903636693954468,-0.22531741857528687
21.375,0.05207984149456024,0.7909146547317505,-0.06348642706871033,-0.05710601434111595,-0.1421273946762085,-0.24206560850143433
21.4,0.06714988499879837,0.7344675660133362,-0.20984841883182526,-0.04692317545413971,-0.15685291588306427,-0.2497456967830658
21.425,0.009466554969549179,0.698613166809082,-0.34437137842178345,-0.006690561771392822,-0.16676728427410126,-0.27190831303596497
21.45,-0.04217012599110603,0.6223850250244141,-0.32511287927627563,0.03158053010702133,-0.16812750697135925,-0.3252856135368347
21.475,0.08119535446166992,0.498782217502594,-0.07822553813457489,0.04544208571314812,-0.17049288749694824,-0.3794703483581543
21.5,0.38646042346954346,0.44864949584007263,0.3364725112915039,0.0280158594250679,-0.15274295210838318,-0.3817282021045685
21.525,0.7485437989234924,0.6571542024612427,0.6880849599838257,0.04146607220172882,-0.10780388116836548,-0.3282175064086914
21.55,0.9629707336425781,1.0294649600982666,0.7771839499473572,0.08345530927181244,-0.062324408441782,-0.273131787776947
21.575,0.9286409020423889,1.1894932985305786,0.6423856616020203,0.10018493235111237,-0.026175567880272865,-0.22493676841259003
21.6,0.7424519062042236,0.9895927309989929,0.48286041617393494,0.09025140851736069,-0.018353551626205444,-0.15651945769786835
21.625,0.5544876456260681,0.6256142854690552,0.4745764136314392,0.0785733088850975,-0.018915558233857155,-0.07714783400297165
21.65,0.44991886615753174,0.3785620927810669,0.5585936307907104,0.07501222938299179,-0.014978241175413132,-0.02058934047818184
21.675,0.37383726239204407,0.3393946588039398,0.5293775796890259,0.07823694497346878,-0.0032628485932946205,0.01048346422612667
21.7,0.11547532677650452,0.6568766236305237,0.26369696855545044,0.10544668138027191,0.002032583113759756,0.03618040680885315
21.725,-0.33865177631378174,1.2052232027053833,-0.019331229850649834,0.16017615795135498,-0.05704466253519058,-0.0019522302318364382
21.75,-0.603956937789917,1.3322850465774536,-0.09606298804283142,0.21923770010471344,-0.15089447796344757,-0.10266350209712982
21.775,-0.3725433349609375,0.923141598701477,-0.06544666737318039,0.22428658604621887,-0.19296778738498688,-0.16220790147781372
21.8,0.2354537695646286,0.6190996766090393,0.03160826861858368,0.19241005182266235,-0.21342790126800537,-0.16421295702457428
21.825,0.7972116470336914,0.36562827229499817,0.21100535988807678,0.14074291288852692,-0.18073947727680206,-0.14045444130897522
21.85,0.9658563733100891,0.23737435042858124,0.26022660732269287,0.18310722708702087,-0.09699565172195435,-0.116218701004982
21.875,0.731993556022644,0.3892689347267151,0.19704915583133698,0.26742878556251526,-0.03708404675126076,-0.1318897306919098
21.9,0.32818838953971863,0.7374926209449768,0.1770441085100174,0.31109386682510376,-0.020910192281007767,-0.1463727056980133
21.925,0.053521864116191864,0.9907733201980591,0.12052736431360245,0.3196074068546295,-0.02606755681335926,-0.1174035370349884
21.95,0.03469197452068329,1.0922738313674927,0.06987371295690536,0.3327156603336334,-0.045776356011629105,-0.09871009737253189
21.975,0.1697879284620285,0.9746905565261841,0.15137948095798492,0.29256919026374817,-0.07394251227378845,-0.10823062062263489
22.0,0.334041953086853,0.8426638841629028,0.2906371057033539,0.27291759848594666,-0.08674761652946472,-0.10228981822729111
22.025,0.45920103788375854,0.818469226360321,0.33366522192955017,0.27932289242744446,-0.05974682420492172,-0.06901001185178757
22.05,0.5001797676086426,0.8915539979934692,0.21582679450511932,0.28877800703048706,-0.030470704659819603,-0.03852888569235802
22.075,0.43021243810653687,1.0245038270950317,0.061332181096076965,0.30075863003730774,-0.017777718603610992,-0.021475767716765404
22.1,0.27604958415031433,1.1347037553787231,0.03204987198114395,0.29791638255119324,-0.011703064665198326,-0.0024967282079160213
22.125,0.09753557294607162,1.1651488542556763,0.09737493097782135,0.28041911125183105,-0.0016661060508340597,0.022361304610967636
22.15,0.008329547941684723,1.1150676012039185,0.20595888793468475,0.25067028403282166,0.0023169438354671,0.03655226156115532
22.175,0.06219443306326866,1.0412970781326294,0.31298717856407166,0.2119755744934082,-0.009115268476307392,0.025268347933888435
22.2,0.1728159785270691,1.0178672075271606,0.33133164048194885,0.18927545845508575,-0.015692774206399918,0.022360622882843018
22.225,0.2647666335105896,1.0545607805252075,0.2645890712738037,0.18410032987594604,-0.0007068729610182345,0.03961770981550217
22.25,0.2726794481277466,1.1161824464797974,0.18258006870746613,0.17646363377571106,0.017785895615816116,0.058424632996320724
22.275,0.22491811215877533,1.157659649848938,0.18939365446567535,0.16294601559638977,0.03836708515882492,0.06978775560855865
22.3,0.16994255781173706,1.1791011095046997,0.26752692461013794,0.14284087717533112,0.05078373849391937,0.06072808802127838
22.325,0.12768375873565674,1.17414391040802,0.2820580303668976,0.12239151448011398,0.061589136719703674,0.05905400961637497
22.35,0.10086055099964142,1.1499062776565552,0.25616756081581116,0.10276912897825241,0.06932929158210754,0.07307080179452896
22.375,0.07532283663749695,1.1352206468582153,0.2636890411376953,0.0823417454957962,0.0631243884563446,0.07675234973430634
22.4,0.044322047382593155,1.1838370561599731,0.2638733983039856,0.05775739252567291,0.04739058390259743,0.06522809714078903
22.425,-0.0012305192649364471,1.1879512071609497,0.2574472427368164,0.024413514882326126,0.0403432734310627,0.06366724520921707
22.45,-0.05230003595352173,1.1505614519119263,0.2204260230064392,-0.0011900346726179123,0.04333438351750374,0.0835951417684555
22.475,-0.05281924456357956,1.1682969331741333,0.16725102066993713,-0.025518476963043213,0.03808809816837311,0.08899322152137756
22.5,-0.03966693952679634,1.1652814149856567,0.18629565834999084,-0.06645224988460541,0.025025513023138046,0.08167761564254761
22.525,-0.004287373274564743,1.1496678590774536,0.254940927028656,-0.09918277710676193,0.025120267644524574,0.07257013022899628
22.55,0.13890531659126282,1.1713868379592896,0.26942673325538635,-0.11010868847370148,0.027452552691102028,0.0766855776309967
22.575,0.2726077139377594,1.1255131959915161,0.1952940672636032,-0.12221306562423706,0.06602732092142105,0.10928000509738922
22.6,0.29646921157836914,1.0551491975784302,0.13047879934310913,-0.11286187916994095,0.12277322262525558,0.1437503546476364
22.625,0.2546643614768982,1.0622636079788208,0.12778222560882568,-0.10434338450431824,0.19159413874149323,0.16648338735103607
22.65,0.17869459092617035,1.0442382097244263,0.08375095576047897,-0.12430641055107117,0.2614041566848755,0.16038909554481506
22.675,0.1261078417301178,1.006999135017395,0.0010352627141401172,-0.15692557394504547,0.3294623792171478,0.13535524904727936
22.7,0.10078435391187668,1.0272713899612427,-0.000271510798484087,-0.17151711881160736,0.40657755732536316,0.12081507593393326
22.725,0.03570785000920296,1.0618468523025513,0.032204002141952515,-0.170452281832695,0.47037485241889954,0.12901486456394196
22.75,-0.041489992290735245,1.035441517829895,0.059155579656362534,-0.18679088354110718,0.5098901391029358,0.12714630365371704
22.775,-0.12665562331676483,0.9568387269973755,0.060447197407484055,-0.2124025523662567,0.5223856568336487,0.11000676453113556
22.8,-0.23275204002857208,0.8755894899368286,0.024013515561819077,-0.21675901114940643,0.5338910222053528,0.10054278373718262
22.825,-0.3370146155357361,0.8530169725418091,-0.043144144117832184,-0.20485717058181763,0.5490754246711731,0.0976170226931572
22.85,-0.41932156682014465,0.8574477434158325,-0.046393830329179764,-0.20032024383544922,0.5582825541496277,0.08586886525154114
22.875,-0.47148817777633667,0.8583308458328247,0.015788068994879723,-0.19615215063095093,0.5631584525108337,0.07384763658046722
22.9,-0.4750944674015045,0.8538933992385864,0.059268321841955185,-0.19133400917053223,0.5621982216835022,0.06262115389108658
22.925,-0.44008326530456543,0.8657275438308716,0.06603486090898514,-0.18221579492092133,0.5627108812332153,0.053867463022470474
22.95,-0.40068352222442627,0.8670340776443481,0.02253211848437786,-0.17136341333389282,0.557779848575592,0.04118487238883972
22.975,-0.3922223746776581,0.856537938117981,-0.031417250633239746,-0.16519826650619507,0.5336578488349915,0.015350116416811943
23.0,-0.38657474517822266,0.8534079790115356,-0.04565252736210823,-0.16626760363578796,0.51066654920578,-0.009021938778460026
23.025,-0.36778444051742554,0.8554354906082153,-0.025302520021796227,-0.16115890443325043,0.4940916895866394,-0.020696166902780533
23.05,-0.37819552421569824,0.8601866960525513,0.0035168956965208054,-0.14335855841636658,0.47353774309158325,-0.026018498465418816
23.075,-0.4070914387702942,0.8503676652908325,0.01787414774298668,-0.12410782277584076,0.4465274214744568,-0.031451620161533356
23.1,-0.41648513078689575,0.8635493516921997,0.01346545573323965,-0.11138255894184113,0.41374707221984863,-0.041170280426740646
23.125,-0.4134323000907898,0.8453904390335083,0.00021631662093568593,-0.12265288084745407,0.3928888440132141,-0.03970472887158394
23.15,-0.41868945956230164,0.797669529914856,0.01200372539460659,-0.11313379555940628,0.3736288547515869,-0.03698348626494408
23.175,-0.4405091106891632,0.7899819612503052,0.024426503106951714,-0.08917650580406189,0.34065860509872437,-0.03915294632315636
23.2,-0.43896055221557617,0.8179904222488403,0.0010231889318674803,-0.07280740141868591,0.30095455050468445,-0.0415065661072731
23.225,-0.37190642952919006,0.8290444612503052,-0.012727485969662666,-0.06386718153953552,0.2735240161418915,-0.03796667233109474
23.25,-0.3055371642112732,0.8425503969192505,-0.02831544540822506,-0.054550718516111374,0.25837504863739014,-0.03326910734176636
23.275,-0.27048349380493164,0.8468247652053833,-0.020261600613594055,-0.042340897023677826,0.24829480051994324,-0.02510066330432892
23.3,-0.2687976062297821,0.826884388923645,0.017142141237854958,-0.026893137022852898,0.24030543863773346,-0.019013768061995506
23.325,-0.280832976102829,0.7976876497268677,0.07674983888864517,-0.006435436196625233,0.23837004601955414,-0.01274192612618208
23.35,-0.29612046480178833,0.7776881456375122,0.11369685083627701,0.006659884937107563,0.23772431910037994,-0.0037544246297329664
23.375,-0.3051099181175232,0.8172265291213989,0.13414989411830902,0.01855737529695034,0.23974020779132843,-0.0026055320631712675
23.4,-0.29695531725883484,0.8906594514846802,0.1952728033065796,0.030832471325993538,0.23925340175628662,-0.0002535412786528468
23.425,-0.26915544271469116,0.9400016665458679,0.24409081041812897,0.038859594613313675,0.2346763014793396,0.008785474114120007
23.45,-0.24020767211914062,0.9547197222709656,0.2614209055900574,0.04868410900235176,0.2272694706916809,0.024393903091549873
23.475,-0.2531527876853943,0.9254676699638367,0.2670251131057739,0.0582444854080677,0.2221047431230545,0.04293368384242058
23.5,-0.29262039065361023,0.8670026659965515,0.2816797196865082,0.060908738523721695,0.21038959920406342,0.05545157194137573
23.525,-0.31939542293548584,0.8782960772514343,0.2643682062625885,0.07387427985668182,0.18696726858615875,0.05587024241685867
23.55,-0.3513963520526886,0.9326412081718445,0.25674036145210266,0.09014471620321274,0.1618146151304245,0.056430574506521225
23.575,-0.40204212069511414,0.9243471026420593,0.2596772313117981,0.09172698855400085,0.14118020236492157,0.06587431579828262
23.6,-0.43827638030052185,0.9178678393363953,0.2518247961997986,0.09031102061271667,0.1242021918296814,0.07369009405374527
23.625,-0.47636109590530396,0.9540502429008484,0.2465384304523468,0.09000390768051147,0.1063576191663742,0.07716164737939835
23.65,-0.4830970764160156,0.942609965801239,0.23395243287086487,0.08870342373847961,0.09028458595275879,0.08598538488149643
