Time [s],Acc_x [m/s^2],Acc_y [m/s^2],Acc_z [m/s^2],Gyro_x [1/s],Gyro_y [1/s],Gyro_z [1/s]
0.0,-0.0026490972377359867,0.13188649713993073,0.004853632301092148,0.008807499893009663,0.007817133329808712,0.00547269731760025
0.025,-0.0018273894675076008,0.13169004023075104,0.004412355832755566,0.00881459191441536,0.00795794278383255,0.0054319556802511215
0.05,0.006434430368244648,0.13162805140018463,0.002330110175535083,0.009045443497598171,0.011726495809853077,0.004296096973121166
0.075,0.015022335574030876,0.1336670070886612,-0.010007933713495731,0.0101704066619277,0.026204660534858704,-0.0015860139392316341
0.1,-0.0004129153676331043,0.1376066356897354,-0.03576551377773285,0.010692395269870758,0.0357971265912056,-0.010393578559160233
0.125,-0.019374918192625046,0.1428527981042862,-0.05767461284995079,0.00562543049454689,0.01711967960000038,-0.008694693446159363
0.15,-0.0007535964250564575,0.14931203424930573,-0.056156501173973083,-0.0025715951342135668,-0.008684355765581131,0.000648111046757549
0.175,0.02700425311923027,0.1359129101037979,-0.03410785272717476,-0.009255428798496723,-0.01095469668507576,0.0030449372716248035
0.2,0.007264032959938049,0.10300447046756744,-0.024313440546393394,-0.012548253871500492,0.003998353611677885,-0.0008539980044588447
0.225,-0.008911790326237679,0.07592964917421341,-0.02623377926647663,-0.010778073221445084,0.0021112021058797836,-0.00030087618506513536
0.25,0.02256082370877266,0.07619953900575638,-0.026717880740761757,-0.0065082055516541,-0.008995127864181995,0.000963884056545794
0.275,0.06193564087152481,0.09546280652284622,-0.05613292008638382,-0.0034681283868849277,-0.011242629028856754,-0.003531986614689231
0.3,0.06442978233098984,0.11144829541444778,-0.07685904949903488,-0.003287137486040592,-0.007033755537122488,-0.008771151304244995
0.325,0.04708590358495712,0.12307549268007278,-0.0553710050880909,-0.0013803241308778524,-0.009696134366095066,-0.007732548285275698
0.35,0.04386536031961441,0.12714196741580963,-0.02538522146642208,-0.0002864613779820502,-0.014415432699024677,-0.000872878241352737
0.375,0.055787343531847,0.108980193734169,-0.008428004570305347,0.0007615418871864676,-0.011315885931253433,0.0035410302225500345
0.4,0.05732119828462601,0.10242367535829544,-0.022112056612968445,0.001991697819903493,-0.0019497068133205175,0.0013196314685046673
0.425,0.05474907159805298,0.10904980450868607,-0.02994808554649353,0.006322652101516724,-0.000921268539968878,0.0011600875295698643
0.45,0.05054042860865593,0.11783410608768463,-0.014078313484787941,0.010944315232336521,-0.00828588753938675,-0.00015332450857385993
0.475,0.03869236633181572,0.12101460993289948,-0.013120639137923717,0.01639588363468647,-0.010156657546758652,-0.0019602219108492136
0.5,0.018656600266695023,0.12324239313602448,-0.006914485711604357,0.01706242747604847,-0.0036612360272556543,-0.0009451978257857263
0.525,0.007080711890012026,0.11378385126590729,0.012299885973334312,0.01541501097381115,0.007012871094048023,-0.0007669584592804313
0.55,0.017375357449054718,0.11095620691776276,0.024721164256334305,0.014050649479031563,0.01065784227102995,-0.0006123919738456607
0.575,0.0313400998711586,0.11701776832342148,0.0393487848341465,0.013552837073802948,0.006695414427667856,-0.00022100949718151242
0.6,0.026746686547994614,0.11870100349187851,0.038055386394262314,0.010898355394601822,-3.7163547972340893e-07,-0.0014097947860136628
0.625,0.006639410275965929,0.09783556312322617,0.03768828138709068,0.008955352008342743,-0.0014163400046527386,-0.0032759623136371374
0.65,0.006071426905691624,0.08448602259159088,0.05754977837204933,0.0060896556824445724,0.0026749526150524616,-0.0042122225277125835
0.675,0.02156798169016838,0.10447599738836288,0.09416826069355011,0.0057244496420025826,0.0067862095311284065,-0.0018023693701252341
0.7,0.030561523512005806,0.13471701741218567,0.09592147916555405,0.009517566300928593,0.024580897763371468,-0.006099858321249485
0.725,0.007684347219765186,0.15524674952030182,0.03888058289885521,0.010872900485992432,0.041955962777137756,-0.01674220897257328
0.75,-0.008631326258182526,0.1658029705286026,-0.006320653483271599,0.005486983805894852,0.0281894039362669,-0.015724077820777893
0.775,0.018628399819135666,0.1729879528284073,0.014946969226002693,-0.00793992169201374,-0.0002538770786486566,-0.0031757266260683537
0.8,0.057653654366731644,0.14196111261844635,0.05092359706759453,-0.018740855157375336,-0.004642589949071407,0.006788757164031267
0.825,0.02963816002011299,0.08818532526493073,0.04282829537987709,-0.02428974024951458,0.022746579721570015,0.0040502892807126045
0.85,-0.018230075016617775,0.054365165531635284,0.003853712696582079,-0.02131194807589054,0.03535213693976402,0.002413906389847398
0.875,-0.007017922587692738,0.06872082501649857,-0.024132773280143738,-0.018488941714167595,0.0215971190482378,0.004600147251039743
0.9,0.01592973805963993,0.10813237726688385,-0.026800084859132767,-0.018711743876338005,0.013624115847051144,0.0023549599573016167
0.925,0.007875338196754456,0.13697339594364166,-0.0298201572149992,-0.02254658378660679,0.016934342682361603,-0.0031359188724309206
0.95,-0.005003036465495825,0.13823606073856354,-0.03724392503499985,-0.024257279932498932,0.017554817721247673,-0.0019302063155919313
0.975,-0.011176273226737976,0.12183094769716263,-0.03826390951871872,-0.023463675752282143,0.01339756604284048,0.0056562223471701145
1.0,-0.016408296301960945,0.11063577234745026,-0.02029186114668846,-0.0211863424628973,0.016756579279899597,0.008642405271530151
1.025,-0.025751344859600067,0.11173345148563385,-0.005514810793101788,-0.017644602805376053,0.027456339448690414,0.003895303001627326
1.05,-0.03716174513101578,0.09954549372196198,-0.030729621648788452,-0.011685403995215893,0.028169361874461174,-0.0033337015192955732
1.075,-0.039774633944034576,0.09887314587831497,-0.06470809876918793,-0.00568527402356267,0.013539258390665054,-0.0047781397588551044
1.1,-0.02518463134765625,0.11448002606630325,-0.06637822091579437,-0.0009944495977833867,0.0049709416925907135,-0.004669130779802799
1.125,-0.032352957874536514,0.10967350751161575,-0.04034000635147095,0.002348910551518202,0.011708520352840424,-0.007244414184242487
1.15,-0.05606330558657646,0.09981633722782135,-0.03443072736263275,0.004666356835514307,0.019993310794234276,-0.009043852798640728
1.175,-0.05875338613986969,0.0917806625366211,-0.042662426829338074,0.006492456421256065,0.01649736613035202,-0.008132494054734707
1.2,-0.035128120332956314,0.08167362958192825,-0.027394909411668777,0.008064327761530876,0.006340541876852512,-0.007530375849455595
1.225,-0.016239963471889496,0.07627678662538528,-0.010222777724266052,0.009061804972589016,-0.0017326169181615114,-0.008708999492228031
1.25,-0.00034401228185743093,0.07497120648622513,-0.011653540655970573,0.009827913716435432,-0.0037685425486415625,-0.011578171513974667
1.275,0.011423103511333466,0.07940579205751419,-0.004606290720403194,0.009247146546840668,-0.005944391712546349,-0.014371330849826336
1.3,0.04035443440079689,0.0958404690027237,0.0111008295789361,0.010154512710869312,-0.013392954133450985,-0.009006691165268421
1.325,0.0518387034535408,0.11471273005008698,0.018776893615722656,0.013929741457104683,-0.0077384342439472675,-0.010060690343379974
1.35,0.027563339099287987,0.12219621241092682,0.0043732644990086555,0.014235532842576504,0.007575567811727524,-0.017361512407660484
1.375,0.01806263066828251,0.13538552820682526,-0.012092707678675652,0.008765446953475475,-0.0017885821871459484,-0.016544949263334274
1.4,0.045500997453927994,0.16987992823123932,0.006829552818089724,-0.005291189067065716,-0.025682149454951286,-0.00522201182320714
1.425,0.07488781213760376,0.20360282063484192,0.019444836303591728,-0.020808083936572075,-0.03437942638993263,0.0014799177879467607
1.45,0.04795471206307411,0.19886687397956848,-0.0028359987773001194,-0.038365237414836884,-0.022866137325763702,0.0013903119834139943
1.475,0.02700246497988701,0.17414475977420807,-0.056827861815690994,-0.05530873313546181,-0.025772560387849808,0.004305573645979166
1.5,0.04522891715168953,0.19259454309940338,-0.08671016991138458,-0.06824108213186264,-0.04564960300922394,0.009815935045480728
1.525,0.04600576311349869,0.26491931080818176,-0.11675506085157394,-0.07815919816493988,-0.0598645955324173,0.01081603579223156
1.55,-0.06201881170272827,0.38881877064704895,-0.21111474931240082,-0.085300013422966,-0.06170456483960152,0.004719452001154423
1.575,-0.34537118673324585,0.5646629333496094,-0.4884699881076813,-0.10692887008190155,-0.07916668802499771,0.007323397323489189
1.6,-0.6998454928398132,0.7242059111595154,-0.9123508334159851,-0.16433505713939667,-0.16091042757034302,0.059441860765218735
1.625,-0.8705252408981323,0.7686586380004883,-1.0960642099380493,-0.24908660352230072,-0.27977752685546875,0.13863860070705414
1.65,-0.9049045443534851,0.44506070017814636,-0.9305287599563599,-0.394273579120636,-0.29575350880622864,0.11382395029067993
1.675,-0.9516288042068481,-0.2744999825954437,-0.7872416973114014,-0.5748828649520874,-0.29737919569015503,0.1012318879365921
1.7,-0.690419614315033,-0.8506156802177429,-0.5986765623092651,-0.5934817790985107,-0.5588418245315552,0.2436220347881317
1.725,-0.28535112738609314,-1.132290005683899,-0.3718147873878479,-0.4723524749279022,-0.7307659387588501,0.32789966464042664
1.75,0.008152015507221222,-1.2518054246902466,-0.25268691778182983,-0.2558996379375458,-0.7566689848899841,0.2789371609687805
1.775,0.08714989572763443,-1.2416249513626099,-0.3500003218650818,-0.003879331052303314,-0.7048530578613281,0.1492779403924942
1.8,0.010440051555633545,-1.043555498123169,-0.6954452991485596,0.21089303493499756,-0.6201552748680115,-0.0084226718172431
1.825,-0.12121988832950592,-0.6515323519706726,-1.219629168510437,0.36437636613845825,-0.5628373622894287,-0.13668683171272278
1.85,-0.23423418402671814,-0.2028820514678955,-1.7802342176437378,0.4496045410633087,-0.5879191756248474,-0.1899939626455307
1.875,-0.27588704228401184,0.18185687065124512,-2.184058666229248,0.4852991998195648,-0.7188621163368225,-0.16697770357131958
1.9,-0.17676299810409546,0.3935745060443878,-2.2626492977142334,0.48869314789772034,-0.9365367889404297,-0.0892004519701004
1.925,0.03790253400802612,0.3913620114326477,-1.9893708229064941,0.48412424325942993,-1.1664806604385376,0.007465923670679331
1.95,0.24097417294979095,0.2704637944698334,-1.5283920764923096,0.49602511525154114,-1.2905315160751343,0.07254394143819809
1.975,0.34876924753189087,0.14651381969451904,-1.0735914707183838,0.5331876277923584,-1.284969687461853,0.09153982251882553
2.0,0.3787021040916443,0.0753268375992775,-0.7167089581489563,0.601272702217102,-1.2304409742355347,0.09822370111942291
2.025,0.41875797510147095,0.038385335355997086,-0.4430900812149048,0.6800364255905151,-1.1987806558609009,0.11139554530382156
2.05,0.4564695954322815,-0.006562262307852507,-0.16163460910320282,0.7505635023117065,-1.1860214471817017,0.12154021114110947
2.075,0.4362126588821411,-0.08457469940185547,0.14627397060394287,0.8035774230957031,-1.1779513359069824,0.12400773912668228
2.1,0.4098535478115082,-0.14839836955070496,0.4496127665042877,0.8360540866851807,-1.1814054250717163,0.12397924065589905
2.125,0.41870737075805664,-0.12255757302045822,0.7744582891464233,0.8525339365005493,-1.1976299285888672,0.13056105375289917
2.15,0.4361739754676819,0.009586461819708347,1.1519776582717896,0.8577093482017517,-1.2070834636688232,0.14138731360435486
2.175,0.43946337699890137,0.21804066002368927,1.5222822427749634,0.8572232127189636,-1.1640621423721313,0.14293110370635986
2.2,0.4037908613681793,0.4236138164997101,1.820277452468872,0.8447279334068298,-1.0581467151641846,0.1376798301935196
2.225,0.33021315932273865,0.543450653553009,2.015277862548828,0.7989034056663513,-0.9141715168952942,0.131311297416687
2.25,0.24673140048980713,0.5585635304450989,2.1081738471984863,0.6950671076774597,-0.7529222369194031,0.13427942991256714
2.275,0.20001298189163208,0.5820973515510559,2.099059581756592,0.5403618812561035,-0.5939183831214905,0.14379923045635223
2.3,0.20913752913475037,0.6932461857795715,2.0287604331970215,0.36550813913345337,-0.44624969363212585,0.14124813675880432
2.325,0.21963253617286682,0.8337644338607788,1.9133660793304443,0.1915212720632553,-0.3180932402610779,0.1155678853392601
2.35,0.22953999042510986,0.9099915623664856,1.7135177850723267,0.022766385227441788,-0.2465246021747589,0.0664292573928833
2.375,0.22743885219097137,0.8761027455329895,1.4379935264587402,-0.13852009177207947,-0.2454071193933487,0.009672149084508419
2.4,0.21709144115447998,0.749668300151825,1.1229385137557983,-0.29016000032424927,-0.29033809900283813,-0.03995731845498085
2.425,0.25533634424209595,0.6346169710159302,0.7995521426200867,-0.4248484969139099,-0.34939295053482056,-0.07372817397117615
2.45,0.3290488123893738,0.5663748979568481,0.47192490100860596,-0.5356287956237793,-0.3725121319293976,-0.10514453053474426
2.475,0.4119136333465576,0.5691347718238831,0.11082153767347336,-0.6162674427032471,-0.3617589771747589,-0.14736615121364594
2.5,0.5386104583740234,0.7468338012695312,-0.32929036021232605,-0.6631723046302795,-0.35038504004478455,-0.20153234899044037
2.525,0.7176443934440613,1.1113519668579102,-0.8434361815452576,-0.6647993326187134,-0.3875553011894226,-0.2644583582878113
2.55,0.8161323070526123,1.4344701766967773,-1.3412411212921143,-0.6162785291671753,-0.48876261711120605,-0.31008782982826233
2.575,0.7005183100700378,1.34685218334198,-1.6993693113327026,-0.554214596748352,-0.5929375886917114,-0.31446003913879395
2.6,0.4170265793800354,0.8250330686569214,-1.7929444313049316,-0.5109615921974182,-0.6455739140510559,-0.2487422376871109
2.625,0.17261621356010437,0.22447091341018677,-1.729126214981079,-0.4645814299583435,-0.5640999674797058,-0.14465902745723724
2.65,0.18476228415966034,-0.17884276807308197,-1.7502915859222412,-0.3836602568626404,-0.37297528982162476,-0.09983573108911514
2.675,0.4700256288051605,-0.35117557644844055,-1.8777574300765991,-0.24746868014335632,-0.2293751984834671,-0.13711339235305786
2.7,0.8236750364303589,-0.32028892636299133,-1.9177143573760986,-0.04292750358581543,-0.2681826055049896,-0.20671172440052032
2.725,1.022783637046814,-0.13269640505313873,-1.8313510417938232,0.20288841426372528,-0.4668070077896118,-0.2592276334762573
2.75,0.9809802770614624,0.0814683586359024,-1.7785489559173584,0.4307073950767517,-0.6701051592826843,-0.2816111147403717
2.775,0.8635120391845703,0.2924688458442688,-1.6584497690200806,0.5825167298316956,-0.8772502541542053,-0.25412893295288086
2.8,0.8069145679473877,0.4940556287765503,-1.3270927667617798,0.6637084484100342,-1.0291229486465454,-0.1816667914390564
2.825,0.7208960652351379,0.572628915309906,-0.8976197838783264,0.7324641942977905,-1.0040147304534912,-0.12848131358623505
2.85,0.4727396070957184,0.4767417907714844,-0.45394331216812134,0.8211029767990112,-0.9218053817749023,-0.0913880243897438
2.875,0.054713573306798935,0.25320056080818176,0.007134626153856516,0.893474280834198,-0.9010358452796936,-0.042982298880815506
2.9,-0.4374917149543762,-0.010340622626245022,0.5140761733055115,0.9452292323112488,-0.9368107318878174,0.011396117508411407
2.925,-0.9124228358268738,-0.20481862127780914,1.0203959941864014,1.008711814880371,-0.9496983885765076,0.05663340538740158
2.95,-1.3439233303070068,-0.28623566031455994,1.3679474592208862,1.0752291679382324,-0.8643226623535156,0.08672358095645905
2.975,-1.7096755504608154,-0.26038724184036255,1.538301706314087,1.1127210855484009,-0.7469391822814941,0.10268063098192215
3.0,-1.9223182201385498,-0.17350269854068756,1.6434266567230225,1.1036769151687622,-0.6806185841560364,0.091371089220047
3.025,-1.9465317726135254,-0.0838630348443985,1.6489179134368896,1.0436112880706787,-0.637516438961029,0.03114616684615612
3.05,-1.812502384185791,-0.029238497838377953,1.4506736993789673,0.9223224520683289,-0.5821176767349243,-0.08592932671308517
3.075,-1.5487654209136963,-0.014367897994816303,1.1024196147918701,0.7299294471740723,-0.5862805247306824,-0.2349422723054886
3.1,-1.2167730331420898,-0.05311192199587822,0.774593710899353,0.4923577308654785,-0.6919138431549072,-0.39726030826568604
3.125,-0.9387462735176086,-0.1798676699399948,0.5667048096656799,0.2449030727148056,-0.8228181004524231,-0.548633873462677
3.15,-0.7762989401817322,-0.356471985578537,0.4112870395183563,0.005319684743881226,-0.8972433805465698,-0.6636250615119934
3.175,-0.6713392734527588,-0.5351762771606445,0.17774462699890137,-0.1878618746995926,-0.8932737112045288,-0.7240664958953857
3.2,-0.617542564868927,-0.6890411972999573,-0.12296482175588608,-0.2961689829826355,-0.8240485787391663,-0.7281368374824524
3.225,-0.5989730358123779,-0.7051621675491333,-0.3739659786224365,-0.31533098220825195,-0.7422942519187927,-0.6739346385002136
3.25,-0.5964495539665222,-0.5434457063674927,-0.5457930564880371,-0.245651513338089,-0.6294103264808655,-0.5601004958152771
3.275,-0.6068233251571655,-0.35003861784935,-0.6966503262519836,-0.10811934620141983,-0.4703735113143921,-0.41342693567276
3.3,-0.6176071763038635,-0.2580806016921997,-0.8950991034507751,0.03424994647502899,-0.3230237662792206,-0.2545952796936035
3.325,-0.6507012248039246,-0.28500667214393616,-1.1158288717269897,0.1200738400220871,-0.2113945037126541,-0.09333857148885727
3.35,-0.6588727235794067,-0.3663417398929596,-1.1364469528198242,0.14467690885066986,-0.16848544776439667,0.04611831530928612
3.375,-0.5574281811714172,-0.4894181787967682,-0.917224645614624,0.16587576270103455,-0.172687366604805,0.1461109071969986
3.4,-0.3828403055667877,-0.6754962205886841,-0.7582314014434814,0.21547004580497742,-0.14833025634288788,0.20330007374286652
3.425,-0.2546926438808441,-0.9035331606864929,-0.7624214291572571,0.24815824627876282,-0.13522008061408997,0.2235756516456604
3.45,-0.23830051720142365,-1.0662453174591064,-0.6747448444366455,0.23459646105766296,-0.23062771558761597,0.2182513177394867
3.475,-0.31857043504714966,-1.0687466859817505,-0.47246596217155457,0.22389672696590424,-0.3429076671600342,0.21413718163967133
3.5,-0.411136656999588,-0.9369346499443054,-0.3647378087043762,0.24765145778656006,-0.34401169419288635,0.2296510487794876
3.525,-0.4829701781272888,-0.7903692126274109,-0.41037601232528687,0.2675570249557495,-0.30407559871673584,0.260041743516922
3.55,-0.5775288343429565,-0.6721268892288208,-0.5089560151100159,0.26240360736846924,-0.3022153675556183,0.3209986388683319
3.575,-0.7222915887832642,-0.620972752571106,-0.6600276827812195,0.24026453495025635,-0.28251558542251587,0.41942164301872253
3.6,-0.8176444172859192,-0.6735860705375671,-0.9246962666511536,0.20772212743759155,-0.1827082484960556,0.5190421342849731
3.625,-0.7098970413208008,-0.6756555438041687,-1.268546223640442,0.1704336702823639,-0.009146456606686115,0.5690236687660217
3.65,-0.38040244579315186,-0.35720083117485046,-1.6478554010391235,0.1356261521577835,0.14747439324855804,0.5358699560165405
3.675,-0.07663902640342712,0.18565918505191803,-2.051396608352661,0.10397361218929291,0.1742464005947113,0.44474756717681885
3.7,-0.1347777247428894,0.443499356508255,-2.4212546348571777,0.04988923296332359,0.014733212068676949,0.33847901225090027
3.725,-0.6051279902458191,0.11483355611562729,-2.554478645324707,-0.044137727469205856,-0.2418173849582672,0.2768794596195221
3.75,-1.2396390438079834,-0.48536044359207153,-2.2291059494018555,-0.11831186711788177,-0.45524123311042786,0.29798978567123413
3.775,-1.8891364336013794,-0.9074203968048096,-1.481506109237671,-0.10734573006629944,-0.5169583559036255,0.3990909457206726
3.8,-2.4979050159454346,-1.0153132677078247,-0.7071045637130737,-0.011804349720478058,-0.3257070779800415,0.5459463596343994
3.825,-3.055043935775757,-0.9158040285110474,-0.4191835820674896,0.07545282691717148,0.06680916249752045,0.6778215169906616
3.85,-3.71392822265625,-0.7038279175758362,-0.6621971726417542,0.07193360477685928,0.4797733724117279,0.7425829768180847
3.875,-4.487700462341309,-0.40336522459983826,-1.0027767419815063,-0.030688822269439697,0.7548220753669739,0.7215498685836792
3.9,-5.033109664916992,0.1431712806224823,-1.2297918796539307,-0.19554942846298218,0.9264025688171387,0.6208315491676331
3.925,-4.973604202270508,1.0704307556152344,-1.418229103088379,-0.3631836771965027,1.0366795063018799,0.4164731204509735
3.95,-4.361057758331299,2.2960331439971924,-1.5182716846466064,-0.5089726448059082,0.9912042617797852,0.10833952575922012
3.975,-3.488722324371338,3.6821837425231934,-1.420194387435913,-0.6627599000930786,0.8174595236778259,-0.2509961426258087
4.0,-2.474294424057007,4.978671550750732,-1.1557307243347168,-0.8369758129119873,0.6046848297119141,-0.6323042511940002
4.025,-1.3540433645248413,5.8206706047058105,-0.8148252964019775,-0.9450755715370178,0.3385390043258667,-0.9614335894584656
4.05,-0.2925419807434082,5.837459087371826,-0.596878170967102,-0.9287679195404053,0.08803211152553558,-1.1162893772125244
4.075,0.7152019143104553,5.141326427459717,-0.5030728578567505,-0.8488592505455017,-0.0862918496131897,-1.170853853225708
4.1,2.0387041568756104,4.032297611236572,-0.21956488490104675,-0.8281993865966797,-0.39776140451431274,-1.2579224109649658
4.125,3.8194122314453125,2.7819130420684814,0.4257228672504425,-0.7949042916297913,-0.7829701900482178,-1.2830508947372437
4.15,5.538930416107178,1.5272648334503174,0.9231192469596863,-0.5506116151809692,-0.8494516611099243,-1.2102562189102173
4.175,6.415109157562256,0.27978232502937317,1.0262324810028076,-0.17359645664691925,-0.7417786121368408,-1.0744450092315674
4.2,6.226329803466797,-0.6950741410255432,1.1984871625900269,0.12388068437576294,-0.7260448932647705,-0.8679822683334351
4.225,5.448963165283203,-1.1947765350341797,1.6681798696517944,0.2840487062931061,-0.7719959020614624,-0.5546321868896484
4.25,4.657691955566406,-1.2678403854370117,1.9603047370910645,0.4420495331287384,-0.6754919290542603,-0.18931372463703156
4.275,4.029487609863281,-1.0294733047485352,2.0029661655426025,0.6470696330070496,-0.5081908702850342,0.08343164622783661
4.3,3.3125786781311035,-0.6046379804611206,2.238070487976074,0.8005598187446594,-0.4891040325164795,0.2128143310546875
4.325,2.2494120597839355,-0.05591464787721634,2.417313814163208,0.9449289441108704,-0.4091111719608307,0.3033307194709778
4.35,1.0003055334091187,0.4781239628791809,2.1463160514831543,1.1036854982376099,-0.13506990671157837,0.37782248854637146
4.375,-0.1190614253282547,0.8326895833015442,1.7045578956604004,1.2007194757461548,0.07734891772270203,0.38617104291915894
4.4,-0.9432277679443359,0.8756354451179504,1.4184037446975708,1.1808629035949707,0.10927054286003113,0.33293890953063965
4.425,-1.418114185333252,0.709723711013794,1.387475848197937,1.0504541397094727,0.024238359183073044,0.24045254290103912
4.45,-1.588871955871582,0.6045487523078918,1.5797172784805298,0.9206991791725159,-0.09277887642383575,0.10532929748296738
4.475,-1.6251384019851685,0.6256068348884583,1.6621354818344116,0.8983906507492065,-0.059668708592653275,-0.05846179276704788
4.5,-1.714321494102478,0.7683880925178528,1.295893907546997,0.9569330811500549,0.14205165207386017,-0.22881221771240234
4.525,-1.9361087083816528,1.1148903369903564,0.6975594758987427,1.0014441013336182,0.25664135813713074,-0.4100131690502167
4.55,-2.260105848312378,1.6311115026474,0.3059329390525818,1.0258607864379883,0.23435938358306885,-0.5697004199028015
4.575,-2.494544267654419,2.21282696723938,0.28019315004348755,1.0844006538391113,0.2142075151205063,-0.6886926889419556
4.6,-2.4288718700408936,2.6830484867095947,0.49423566460609436,1.1701349020004272,0.23170074820518494,-0.8186095356941223
4.625,-1.9824446439743042,2.853548526763916,0.7800846099853516,1.2702553272247314,0.2960684895515442,-0.9934802055358887
4.65,-1.2829917669296265,2.5756335258483887,1.0516935586929321,1.349117636680603,0.34502002596855164,-1.239526629447937
4.675,-0.6593045592308044,1.9208329916000366,1.3787091970443726,1.3524456024169922,0.3310201168060303,-1.4875736236572266
4.7,-0.3120809495449066,1.2158502340316772,1.8464865684509277,1.3302297592163086,0.31148993968963623,-1.6267637014389038
4.725,-0.08958840370178223,0.6140798330307007,2.349144458770752,1.3066036701202393,0.3249511420726776,-1.696411371231079
4.75,0.22021180391311646,0.06390507519245148,2.6533403396606445,1.2417346239089966,0.4034106135368347,-1.7765825986862183
4.775,0.5961508750915527,-0.5384204387664795,2.7859034538269043,1.0788995027542114,0.5002904534339905,-1.9209429025650024
4.8,0.8322596549987793,-1.2633826732635498,2.94767165184021,0.7802655100822449,0.5547123551368713,-2.1098074913024902
4.825,0.8767502307891846,-1.8835524320602417,3.078636884689331,0.4717883765697479,0.6634304523468018,-2.184499740600586
4.85,0.8823620080947876,-2.1547155380249023,3.0341362953186035,0.2670002579689026,0.8696048855781555,-2.111516237258911
4.875,0.9035757184028625,-2.2088069915771484,2.8654136657714844,0.116346076130867,1.1127864122390747,-2.0099503993988037
4.9,0.9389863014221191,-2.226424217224121,2.699267625808716,-0.05047905445098877,1.3531620502471924,-1.9246445894241333
4.925,0.990632176399231,-2.153076171875,2.5574066638946533,-0.20662859082221985,1.5806801319122314,-1.7927361726760864
4.95,1.0914851427078247,-1.8718366622924805,2.4062955379486084,-0.260691374540329,1.8080053329467773,-1.5940335988998413
4.975,1.305202841758728,-1.4578007459640503,2.241162061691284,-0.21789313852787018,2.037843704223633,-1.3966000080108643
5.0,1.624029517173767,-1.0131348371505737,1.9609289169311523,-0.07386960089206696,2.284830093383789,-1.2321873903274536
5.025,1.9153294563293457,-0.6114510893821716,1.3978984355926514,0.12578964233398438,2.5139856338500977,-1.1343448162078857
5.05,1.8090676069259644,-0.37401580810546875,0.6106497049331665,0.22542378306388855,2.659635543823242,-1.107149600982666
5.075,1.310638666152954,-0.2587147355079651,0.016676900908350945,0.15029726922512054,2.7092909812927246,-1.051708698272705
5.1,1.0785161256790161,-0.052176523953676224,-0.16599273681640625,0.00029437243938446045,2.6652536392211914,-0.9128811955451965
5.125,1.3745640516281128,0.3462018668651581,-0.17930558323860168,-0.0929696261882782,2.541710138320923,-0.7515301704406738
5.15,1.8491042852401733,0.8560629487037659,-0.32660090923309326,-0.03034733235836029,2.433591842651367,-0.6358209848403931
5.175,2.2035744190216064,1.3844890594482422,-0.7684517502784729,0.1881246566772461,2.395799160003662,-0.625001847743988
5.2,2.318807601928711,1.7650861740112305,-1.3638975620269775,0.3753437399864197,2.4063608646392822,-0.6856959462165833
5.225,2.2313363552093506,1.8042383193969727,-1.8962769508361816,0.41479068994522095,2.434488534927368,-0.7242630124092102
5.25,2.0677170753479004,1.4956138134002686,-2.318634271621704,0.37013447284698486,2.4365570545196533,-0.7447832822799683
5.275,1.9624205827713013,0.8959243297576904,-2.603348970413208,0.24653969705104828,2.373295545578003,-0.755671501159668
5.3,1.898022174835205,0.18394912779331207,-2.749058723449707,0.08457498252391815,2.257796049118042,-0.7409778237342834
5.325,1.7801234722137451,-0.3077367842197418,-2.752012014389038,-0.02182348072528839,2.1351044178009033,-0.7467613220214844
5.35,1.6271491050720215,-0.4905542731285095,-2.6428847312927246,-0.08233405649662018,2.0383710861206055,-0.7888736724853516
5.375,1.4350612163543701,-0.4759887754917145,-2.553208589553833,-0.12322591245174408,1.9684401750564575,-0.8364991545677185
5.4,1.175063133239746,-0.3976415693759918,-2.5455076694488525,-0.15620674192905426,1.9047845602035522,-0.8603687882423401
5.425,0.881058931350708,-0.43493595719337463,-2.581395387649536,-0.20025202631950378,1.832608938217163,-0.8398503065109253
5.45,0.6191760301589966,-0.6102613210678101,-2.5967180728912354,-0.2450573742389679,1.733139157295227,-0.7602429986000061
5.475,0.48999279737472534,-0.7596525549888611,-2.5329489707946777,-0.25390034914016724,1.6024739742279053,-0.6249881982803345
5.5,0.5062335133552551,-0.793630063533783,-2.444200038909912,-0.2160680741071701,1.4574273824691772,-0.5009104013442993
5.525,0.5345845222473145,-0.7402070760726929,-2.3974831104278564,-0.1590999960899353,1.3229565620422363,-0.45960190892219543
5.55,0.45950859785079956,-0.6121972799301147,-2.359854221343994,-0.11430385708808899,1.2112075090408325,-0.47565221786499023
5.575,0.2753549814224243,-0.42919477820396423,-2.3030784130096436,-0.0731838047504425,1.108659267425537,-0.49481093883514404
5.6,0.03615754842758179,-0.269733726978302,-2.220860242843628,-0.04427317529916763,0.994897186756134,-0.49062880873680115
5.625,-0.18893134593963623,-0.2370789349079132,-2.0679919719696045,-0.05605175346136093,0.8624092936515808,-0.4409222900867462
5.65,-0.3590814173221588,-0.328049898147583,-1.828240156173706,-0.1025390475988388,0.7081360220909119,-0.35148298740386963
5.675,-0.5119706988334656,-0.44516682624816895,-1.5668190717697144,-0.14775407314300537,0.5416825413703918,-0.2654648721218109
5.7,-0.6798553466796875,-0.5182029604911804,-1.3293359279632568,-0.16817809641361237,0.3942089378833771,-0.20880110561847687
5.725,-0.794863224029541,-0.5493986010551453,-1.1324505805969238,-0.17832936346530914,0.27622121572494507,-0.163308247923851
5.75,-0.8191114068031311,-0.602883517742157,-0.9808539748191833,-0.18594364821910858,0.17900872230529785,-0.10081342607736588
5.775,-0.8244394659996033,-0.6943293809890747,-0.8467161059379578,-0.174037367105484,0.07988495379686356,-0.05775894224643707
5.8,-0.8384637832641602,-0.7720634341239929,-0.7005445957183838,-0.13697440922260284,-0.03573779761791229,-0.048054154962301254
5.825,-0.8131316304206848,-0.8372318148612976,-0.591815710067749,-0.08771587908267975,-0.16152925789356232,-0.0181572362780571
5.85,-0.7260584831237793,-0.8749915957450867,-0.5715232491493225,-0.03739665821194649,-0.28505006432533264,0.04122106730937958
5.875,-0.6005837917327881,-0.8457481265068054,-0.6012207865715027,0.010039839893579483,-0.38333022594451904,0.09583853930234909
5.9,-0.44644418358802795,-0.8274738192558289,-0.6500860452651978,0.0384017750620842,-0.4430560767650604,0.14420455694198608
5.925,-0.28077101707458496,-0.8951417803764343,-0.7150362730026245,0.03665674850344658,-0.47389599680900574,0.19608595967292786
5.95,-0.17113158106803894,-1.0300838947296143,-0.8088001012802124,0.019939124584197998,-0.49403706192970276,0.24006806313991547
5.975,-0.13693547248840332,-1.1361057758331299,-0.9050187468528748,0.004536248743534088,-0.5112833380699158,0.2700750529766083
6.0,-0.12004415690898895,-1.1915581226348877,-0.9497279524803162,-0.006999269127845764,-0.527860164642334,0.3234299421310425
6.025,-0.07666011154651642,-1.2908012866973877,-0.9766809344291687,-0.010780341923236847,-0.5507720112800598,0.42792612314224243
6.05,0.0033624470233917236,-1.4999821186065674,-1.0668456554412842,-0.004915706813335419,-0.582360029220581,0.5815224647521973
6.075,0.14173781871795654,-1.8443082571029663,-1.221915364265442,0.013346418738365173,-0.6250954270362854,0.7758809924125671
6.1,0.32122817635536194,-2.311964511871338,-1.409594178199768,0.07065492868423462,-0.6761215925216675,0.976127564907074
6.125,0.486148476600647,-2.7702889442443848,-1.6236518621444702,0.1757887601852417,-0.7242158651351929,1.1715975999832153
6.15,0.6243987083435059,-2.9886412620544434,-1.7756189107894897,0.3048052191734314,-0.7690830826759338,1.3853107690811157
6.175,0.7117304801940918,-2.8691372871398926,-1.7402276992797852,0.44974997639656067,-0.8097036480903625,1.5899070501327515
6.2,0.6699458360671997,-2.5691332817077637,-1.5215269327163696,0.5990486145019531,-0.8409944772720337,1.7446645498275757
6.225,0.5320354700088501,-2.3668761253356934,-1.255828857421875,0.7071750164031982,-0.8800327181816101,1.8678985834121704
6.25,0.47337520122528076,-2.3594160079956055,-1.0888925790786743,0.7643333077430725,-0.9636304378509521,2.003784418106079
6.275,0.5964536666870117,-2.3504385948181152,-1.024715542793274,0.8181668519973755,-1.1028807163238525,2.162890672683716
6.3,0.9135456085205078,-2.1639113426208496,-0.9743305444717407,0.8895162343978882,-1.2665778398513794,2.3084022998809814
6.325,1.358603596687317,-1.7638505697250366,-0.889763593673706,0.9710502624511719,-1.4373466968536377,2.401017189025879
6.35,1.7405818700790405,-1.1554033756256104,-0.7230795621871948,1.072091817855835,-1.581554651260376,2.4375264644622803
6.375,1.9803301095962524,-0.4296208918094635,-0.4742201566696167,1.1795927286148071,-1.668383002281189,2.4348127841949463
6.4,2.124748468399048,0.3636445701122284,-0.25390538573265076,1.268166422843933,-1.7143456935882568,2.3850181102752686
6.425,2.1982595920562744,1.1997671127319336,-0.12873220443725586,1.3164246082305908,-1.7587568759918213,2.314674139022827
6.45,2.0826520919799805,1.9909985065460205,-0.06281360983848572,1.3353532552719116,-1.790284514427185,2.237119674682617
6.475,1.7147623300552368,2.6677849292755127,-0.019619563594460487,1.3102962970733643,-1.8444702625274658,2.1793620586395264
6.5,1.3182252645492554,3.1908602714538574,0.11398433148860931,1.2053104639053345,-2.0014336109161377,2.165390968322754
6.525,0.9750708937644958,3.5956902503967285,0.3825221657752991,1.0676188468933105,-2.1730127334594727,2.139277935028076
6.55,0.5625948905944824,3.9081788063049316,0.7439196705818176,0.9319713711738586,-2.268206834793091,2.0639896392822266
6.575,0.03927348554134369,4.008848667144775,1.1563410758972168,0.8101911544799805,-2.2285420894622803,1.9296175241470337
6.6,-0.5534875988960266,3.874528646469116,1.5168818235397339,0.7082929015159607,-2.004995822906494,1.7659082412719727
6.625,-1.1654850244522095,3.632514715194702,1.7665992975234985,0.6068835854530334,-1.6647576093673706,1.613525152206421
6.65,-1.7643364667892456,3.3340089321136475,1.890222430229187,0.49467670917510986,-1.2904908657073975,1.4756009578704834
6.675,-2.3218882083892822,2.991298198699951,1.9045122861862183,0.36066919565200806,-0.9360902905464172,1.3340381383895874
6.7,-2.788741111755371,2.6031394004821777,1.8790966272354126,0.19945724308490753,-0.6329926252365112,1.1680457592010498
6.725,-3.1235687732696533,2.148648738861084,1.8432220220565796,0.019239649176597595,-0.39571720361709595,0.9811720252037048
6.75,-3.3100838661193848,1.6873211860656738,1.7740390300750732,-0.1455250233411789,-0.21754243969917297,0.781902015209198
6.775,-3.3417646884918213,1.3424161672592163,1.6234607696533203,-0.27093037962913513,-0.07822521030902863,0.5663474798202515
6.8,-3.2434356212615967,1.2243484258651733,1.3664661645889282,-0.3667307496070862,-0.006448253057897091,0.3334100544452667
6.825,-3.076551675796509,1.371050238609314,0.9910404086112976,-0.45103713870048523,-0.014427795074880123,0.07443196326494217
6.85,-2.853407859802246,1.6606038808822632,0.5096431374549866,-0.5473126173019409,-0.08682744204998016,-0.21785664558410645
6.875,-2.5270233154296875,1.8150360584259033,0.057567186653614044,-0.6739083528518677,-0.23191848397254944,-0.5116974115371704
6.9,-2.097411870956421,1.6466343402862549,-0.21530896425247192,-0.8073605298995972,-0.4188222885131836,-0.7519683241844177
6.925,-1.6558148860931396,1.2316819429397583,-0.26159176230430603,-0.9064730405807495,-0.5862113833427429,-0.8913346529006958
6.95,-1.2953314781188965,0.7582017183303833,-0.1366417557001114,-0.9407795667648315,-0.673718273639679,-0.9308509230613708
6.975,-1.0242359638214111,0.35597044229507446,0.051138754934072495,-0.9063854217529297,-0.6640714406967163,-0.9071632623672485
7.0,-0.7968161702156067,0.04039483144879341,0.23105935752391815,-0.8236478567123413,-0.5854917168617249,-0.8553573489189148
7.025,-0.5845138430595398,-0.2514486014842987,0.3754497468471527,-0.7025837302207947,-0.46658754348754883,-0.7942491173744202
7.05,-0.3604170083999634,-0.5229129791259766,0.4775572121143341,-0.5472418069839478,-0.33754757046699524,-0.7290129661560059
7.075,-0.10384102910757065,-0.6778135299682617,0.5268551111221313,-0.3707331717014313,-0.21980665624141693,-0.6630706787109375
7.1,0.17529737949371338,-0.7266454696655273,0.5001944303512573,-0.19446471333503723,-0.12128385156393051,-0.5939996838569641
7.125,0.43247175216674805,-0.7617769837379456,0.42561063170433044,-0.045039743185043335,-0.042828526347875595,-0.5164076089859009
7.15,0.6424213647842407,-0.787239134311676,0.38311195373535156,0.05229221284389496,-0.012036427855491638,-0.4189378619194031
7.175,0.7708927392959595,-0.7422704696655273,0.415028840303421,0.10534689575433731,-0.007225008215755224,-0.3029378056526184
7.2,0.7707289457321167,-0.6181955337524414,0.48810189962387085,0.14477597177028656,0.03467639535665512,-0.18568705022335052
7.225,0.7070840001106262,-0.4614133834838867,0.5725250840187073,0.16936707496643066,0.12103725969791412,-0.07529307156801224
7.25,0.6385208368301392,-0.3077640235424042,0.6447077989578247,0.18395042419433594,0.23979151248931885,0.020364729687571526
7.275,0.5544492602348328,-0.17734141647815704,0.6610532402992249,0.18875302374362946,0.36704882979393005,0.10181136429309845
7.3,0.46862685680389404,-0.07361310720443726,0.634479820728302,0.17087344825267792,0.4828249216079712,0.17383117973804474
7.325,0.36623647809028625,-0.020057614892721176,0.6225366592407227,0.13689841330051422,0.5855363011360168,0.2399374097585678
7.35,0.24517345428466797,0.009465288370847702,0.634430468082428,0.10567735135555267,0.681049108505249,0.2992170453071594
7.375,0.14035113155841827,0.09247978031635284,0.6165949106216431,0.0924425721168518,0.7705788016319275,0.3434867858886719
7.4,0.053456664085388184,0.19505223631858826,0.5349100828170776,0.09265060722827911,0.8421023488044739,0.3664814233779907
7.425,-0.027673177421092987,0.2677250802516937,0.4045371115207672,0.08903461694717407,0.8863909244537354,0.36909833550453186
7.45,-0.08224570751190186,0.37269502878189087,0.25104889273643494,0.07069623470306396,0.9042428135871887,0.3568103015422821
7.475,-0.09480082243680954,0.5534124970436096,0.07978922873735428,0.045054350048303604,0.9003382325172424,0.3312700390815735
7.5,-0.11296270787715912,0.7336521744728088,-0.13159814476966858,0.021927502006292343,0.8789530396461487,0.2873532474040985
7.525,-0.17147433757781982,0.8334360718727112,-0.37634190917015076,-0.014605540782213211,0.8355238437652588,0.22994151711463928
7.55,-0.23893210291862488,0.8806238770484924,-0.5985310077667236,-0.07991872727870941,0.7480931878089905,0.17962756752967834
7.575,-0.29522785544395447,0.9186850190162659,-0.7652400135993958,-0.1562453657388687,0.6266378164291382,0.1398869752883911
7.6,-0.3710513412952423,0.9311895370483398,-0.9026252031326294,-0.22641931474208832,0.5035985708236694,0.09810653328895569
7.625,-0.4567548632621765,0.8946208953857422,-0.9994745254516602,-0.2833481431007385,0.39351004362106323,0.05671592801809311
7.65,-0.5182316899299622,0.8067159652709961,-1.0232502222061157,-0.325219988822937,0.2927698493003845,0.02555483765900135
7.675,-0.5457059144973755,0.6962155699729919,-0.9634761214256287,-0.34561342000961304,0.2024480700492859,0.004591653123497963
7.7,-0.5550801157951355,0.5881957411766052,-0.8644953966140747,-0.3265764117240906,0.14630164206027985,-0.01896015740931034
7.725,-0.5811153054237366,0.4737367331981659,-0.7813143134117126,-0.261264830827713,0.12804697453975677,-0.04957498610019684
7.75,-0.6159652471542358,0.3581180274486542,-0.6981295943260193,-0.15947073698043823,0.11652509868144989,-0.07179564237594604
7.775,-0.6234486699104309,0.25418755412101746,-0.5518959164619446,-0.028690414503216743,0.09340973198413849,-0.0780240073800087
7.8,-0.6024277806282043,0.16880129277706146,-0.34650206565856934,0.12899531424045563,0.07007759064435959,-0.07413487881422043
7.825,-0.5483023524284363,0.1475677639245987,-0.1483473926782608,0.3101150095462799,0.05933956056833267,-0.07065393775701523
7.85,-0.4697656035423279,0.20527367293834686,0.01867016591131687,0.4997080862522125,0.06593586504459381,-0.0780542641878128
7.875,-0.40453675389289856,0.29243284463882446,0.1568002700805664,0.6805951595306396,0.09839228540658951,-0.10105506330728531
7.9,-0.3872298002243042,0.37369638681411743,0.2577447295188904,0.8335945010185242,0.15024574100971222,-0.13525499403476715
7.925,-0.41945305466651917,0.4390918016433716,0.34216198325157166,0.9385614395141602,0.19932259619235992,-0.16560246050357819
7.95,-0.42676109075546265,0.4870501756668091,0.4441172182559967,0.9830828309059143,0.23893044888973236,-0.1915736347436905
7.975,-0.3358307182788849,0.584091305732727,0.5508914589881897,0.9729843735694885,0.27784594893455505,-0.22225069999694824
8.0,-0.15474560856819153,0.7885410189628601,0.6353136301040649,0.9230653643608093,0.30596598982810974,-0.2635885775089264
8.025,0.011679664254188538,0.9945470690727234,0.6696606278419495,0.8430636525154114,0.29686686396598816,-0.3096960186958313
8.05,0.027890585362911224,1.004676103591919,0.7170259356498718,0.7306761741638184,0.23448322713375092,-0.33600106835365295
8.075,-0.08308199793100357,0.7262994647026062,0.8810357451438904,0.574708104133606,0.14801692962646484,-0.32389456033706665
8.1,-0.16993996500968933,0.2534896731376648,1.1769838333129883,0.38836541771888733,0.12360925227403641,-0.2742784023284912
8.125,-0.1308867335319519,-0.22260841727256775,1.4822713136672974,0.22629638016223907,0.2514289319515228,-0.20844104886054993
8.15,0.01669451594352722,-0.5402554273605347,1.6061034202575684,0.13643312454223633,0.5282373428344727,-0.1608109325170517
8.175,0.12691332399845123,-0.6263025999069214,1.4556927680969238,0.10161873698234558,0.8370659351348877,-0.15094885230064392
8.2,0.13400520384311676,-0.5183791518211365,1.10951828956604,0.04620645195245743,1.018540859222412,-0.1719016581773758
8.225,0.12387070804834366,-0.3618106245994568,0.7041328549385071,-0.08018086850643158,1.00079345703125,-0.20261505246162415
8.25,0.15117833018302917,-0.26760101318359375,0.35278552770614624,-0.2711119055747986,0.8263050317764282,-0.21637766063213348
8.275,0.18398919701576233,-0.209138885140419,0.12467523664236069,-0.4754059612751007,0.6099708676338196,-0.19523493945598602
8.3,0.18966896831989288,-0.1455392986536026,0.02305619977414608,-0.644856333732605,0.47655564546585083,-0.14964228868484497
8.325,0.20433199405670166,-0.0464182011783123,-0.01949384994804859,-0.7596076130867004,0.4622313976287842,-0.09063205868005753
8.35,0.20965184271335602,0.11725139617919922,-0.09605496376752853,-0.8006181716918945,0.5456716418266296,-0.030022526159882545
8.375,0.1352645456790924,0.28702259063720703,-0.2663806974887848,-0.772555410861969,0.6968732476234436,0.008809664286673069
8.4,-0.010385379195213318,0.35699841380119324,-0.5282032489776611,-0.7134190201759338,0.8575325012207031,0.032894689589738846
8.425,-0.18022651970386505,0.30598634481430054,-0.8401908874511719,-0.6560113430023193,0.9722034335136414,0.057939644902944565
8.45,-0.34663671255111694,0.21451272070407867,-1.142242670059204,-0.6121525168418884,1.0124037265777588,0.09204328060150146
8.475,-0.5036333799362183,0.125388965010643,-1.352416753768921,-0.5862290859222412,0.9775137901306152,0.13156408071517944
8.5,-0.6272485256195068,0.02262195013463497,-1.470685362815857,-0.5683109164237976,0.8992549180984497,0.1603555828332901
8.525,-0.7227627635002136,-0.08288686722517014,-1.5259675979614258,-0.5406987071037292,0.8054947853088379,0.1724240481853485
8.55,-0.8156488537788391,-0.22619934380054474,-1.5104130506515503,-0.48467135429382324,0.6817173361778259,0.16569222509860992
8.575,-0.9229342341423035,-0.42505189776420593,-1.4115699529647827,-0.3897010385990143,0.5279511213302612,0.15094640851020813
8.6,-1.060129165649414,-0.6372672915458679,-1.2429423332214355,-0.262676477432251,0.38031432032585144,0.1295483559370041
8.625,-1.1571717262268066,-0.7913811206817627,-0.9998649954795837,-0.11775240302085876,0.25484463572502136,0.11392734944820404
8.65,-1.1391962766647339,-0.7986175417900085,-0.7030588388442993,0.06343867629766464,0.13819631934165955,0.12459015846252441
8.675,-1.0805057287216187,-0.5986471772193909,-0.4387531280517578,0.3120562434196472,0.05190424993634224,0.11744192987680435
8.7,-1.1395916938781738,-0.3054676353931427,-0.2966420352458954,0.6040262579917908,0.021648500114679337,0.059826768934726715
8.725,-1.3226630687713623,-0.1255054622888565,-0.23904091119766235,0.8646162152290344,0.03203621506690979,0.001217309501953423
8.75,-1.4245597124099731,-0.14521408081054688,-0.12053169310092926,1.0395056009292603,0.026062263175845146,0.008138063363730907
8.775,-1.3445485830307007,-0.31241893768310547,0.13733386993408203,1.145114541053772,0.017712265253067017,0.05499621108174324
8.8,-1.1656386852264404,-0.4733390808105469,0.4171637296676636,1.2162529230117798,0.058139391243457794,0.07102114707231522
8.825,-0.9609249234199524,-0.4315900504589081,0.5834521651268005,1.2693867683410645,0.1070672944188118,0.038469087332487106
8.85,-0.8276048302650452,-0.18273727595806122,0.6214140057563782,1.2951557636260986,0.08280117064714432,-0.023146873340010643
8.875,-0.7707745432853699,0.1448908895254135,0.5889840126037598,1.245909333229065,-0.05069321393966675,-0.09638731926679611
8.9,-0.6662861108779907,0.4700233042240143,0.5202552676200867,1.0913400650024414,-0.24739862978458405,-0.16749103367328644
8.925,-0.4713401794433594,0.7178393602371216,0.46240681409835815,0.8523421883583069,-0.3976117670536041,-0.18962013721466064
8.95,-0.24156613647937775,0.8432647585868835,0.4725365936756134,0.5753652453422546,-0.4617743194103241,-0.15632599592208862
8.975,-0.05194643512368202,0.8318626284599304,0.5717136859893799,0.3264760971069336,-0.44279617071151733,-0.10114455968141556
9.0,0.012757539749145508,0.7075787782669067,0.7292046546936035,0.15399786829948425,-0.3678654134273529,-0.035486333072185516
9.025,-0.04104351997375488,0.47975459694862366,0.8623823523521423,0.03595058247447014,-0.3038349747657776,0.04926559329032898
9.05,-0.11106130480766296,0.15289413928985596,0.9054992198944092,-0.07770408689975739,-0.27739062905311584,0.14386914670467377
9.075,-0.06230302155017853,-0.18621817231178284,0.8937548995018005,-0.20084303617477417,-0.27753815054893494,0.22949868440628052
9.1,0.11801259219646454,-0.4460467994213104,0.8730353116989136,-0.2884539067745209,-0.25562021136283875,0.29733264446258545
9.125,0.22776584327220917,-0.5348234176635742,0.7656745314598083,-0.30312931537628174,-0.1403876096010208,0.32309383153915405
9.15,0.14761631190776825,-0.43196582794189453,0.5156968235969543,-0.27141043543815613,0.02869303524494171,0.2997521162033081
9.175,-0.03197767585515976,-0.24203205108642578,0.2154945433139801,-0.2631983160972595,0.11831920593976974,0.2637917995452881
9.2,-0.1635807454586029,-0.09139347821474075,0.002734478795900941,-0.3033670485019684,0.06568846106529236,0.2640514075756073
9.225,-0.18850693106651306,-0.03044319525361061,-0.03432910516858101,-0.3538672924041748,-0.04939741641283035,0.3042503893375397
9.25,-0.1383359730243683,-0.03143595904111862,0.06494791060686111,-0.3686444163322449,-0.11216330528259277,0.34599560499191284
9.275,-0.10396088659763336,-0.029064157977700233,0.19141548871994019,-0.3350071907043457,-0.08736646175384521,0.3646466135978699
9.3,-0.13869591057300568,-0.03549763187766075,0.2899135947227478,-0.27439582347869873,-0.009765398688614368,0.36124104261398315
9.325,-0.18523907661437988,-0.10033127665519714,0.3607134222984314,-0.21682313084602356,0.054171860218048096,0.35244429111480713
9.35,-0.1784135401248932,-0.1849355250597,0.4192500710487366,-0.16544780135154724,0.07937341183423996,0.3491435945034027
9.375,-0.08321671187877655,-0.24008652567863464,0.477128803730011,-0.1093173399567604,0.07816828787326813,0.35295742750167847
9.4,0.035796478390693665,-0.23237892985343933,0.5581738948822021,-0.041143983602523804,0.10134172439575195,0.3442474901676178
9.425,0.09662000834941864,-0.18119996786117554,0.6141151785850525,0.0319230817258358,0.16113215684890747,0.3118954002857208
9.45,0.11215852946043015,-0.10087103396654129,0.607878565788269,0.09764116257429123,0.21087191998958588,0.27863913774490356
9.475,0.1483304798603058,0.008481090888381004,0.5738170742988586,0.15468372404575348,0.23238378763198853,0.2545609474182129
9.5,0.2435162365436554,0.14813239872455597,0.5424267053604126,0.19826045632362366,0.23404555022716522,0.23699752986431122
9.525,0.361117959022522,0.2817622125148773,0.5276607871055603,0.23299264907836914,0.2453492283821106,0.22667910158634186
9.55,0.4519871473312378,0.36375054717063904,0.5524619817733765,0.2683722972869873,0.2899758517742157,0.22409425675868988
9.575,0.5281286239624023,0.39640629291534424,0.5807698369026184,0.30024123191833496,0.37594959139823914,0.22936971485614777
9.6,0.6366086602210999,0.4305001497268677,0.54756760597229,0.3132477104663849,0.482656329870224,0.24001643061637878
9.625,0.7795180082321167,0.45171651244163513,0.4531789720058441,0.2995354235172272,0.584870457649231,0.24820531904697418
9.65,0.9227898120880127,0.4650021493434906,0.33206504583358765,0.26851874589920044,0.6853461265563965,0.25092533230781555
9.675,1.0386066436767578,0.5234881043434143,0.18686676025390625,0.2250826060771942,0.7781527638435364,0.24362370371818542
9.7,1.1223249435424805,0.6285868287086487,0.006379247177392244,0.1704292893409729,0.8199397921562195,0.23355618119239807
9.725,1.1762281656265259,0.7848501801490784,-0.18632501363754272,0.10327759385108948,0.7980148792266846,0.22279919683933258
9.75,1.1698064804077148,0.9732275605201721,-0.39427649974823,0.02257090061903,0.7355411052703857,0.21054011583328247
9.775,1.1133052110671997,1.1420927047729492,-0.6167374849319458,-0.07232668995857239,0.6341183185577393,0.21530383825302124
9.8,1.0186257362365723,1.2413721084594727,-0.7513941526412964,-0.1691337525844574,0.5178647041320801,0.2489108443260193
9.825,0.8739456534385681,1.2208385467529297,-0.7642905116081238,-0.2538492679595947,0.43884918093681335,0.3054314851760864
9.85,0.6830357909202576,1.064600944519043,-0.6846071481704712,-0.3163454532623291,0.4195293188095093,0.37540528178215027
9.875,0.47759324312210083,0.8354864716529846,-0.5139151215553284,-0.34788402915000916,0.44912517070770264,0.4445821940898895
9.9,0.3149903416633606,0.5977249145507812,-0.29333072900772095,-0.34688225388526917,0.5231798887252808,0.4997108578681946
9.925,0.2263668328523636,0.36801719665527344,-0.1144699901342392,-0.31887033581733704,0.627173900604248,0.5213534235954285
9.95,0.17923910915851593,0.16384030878543854,-0.028717225417494774,-0.2744455933570862,0.7277259826660156,0.49759724736213684
9.975,0.11574511229991913,0.02482891082763672,-0.007576446048915386,-0.21914920210838318,0.7999336123466492,0.43239137530326843
10.0,0.030776429921388626,0.0030460343696177006,-0.01014748029410839,-0.16065320372581482,0.8260183334350586,0.33553439378738403
10.025,-0.05794043466448784,0.09029197692871094,-0.052896950393915176,-0.09999813139438629,0.8056173920631409,0.21473631262779236
10.05,-0.16401757299900055,0.22058679163455963,-0.16960912942886353,-0.05305355042219162,0.7527821660041809,0.08707568049430847
10.075,-0.27556413412094116,0.3623466491699219,-0.3027060329914093,-0.032099127769470215,0.6591768264770508,-0.020339565351605415
10.1,-0.36590343713760376,0.48174765706062317,-0.38925284147262573,-0.034698788076639175,0.5403801202774048,-0.10006364434957504
10.125,-0.45552414655685425,0.5596504211425781,-0.4408424496650696,-0.0654863566160202,0.4281659424304962,-0.15567031502723694
10.15,-0.5168091654777527,0.6433753967285156,-0.49655139446258545,-0.12424926459789276,0.3286331295967102,-0.18362563848495483
10.175,-0.49547693133354187,0.7549830079078674,-0.601649820804596,-0.20521152019500732,0.2424582839012146,-0.19194579124450684
10.2,-0.4039526581764221,0.8954010605812073,-0.7356871962547302,-0.2961777150630951,0.15897557139396667,-0.19850508868694305
10.225,-0.3166181445121765,0.9858923554420471,-0.8143165111541748,-0.3687025010585785,0.05247977375984192,-0.2143566906452179
10.25,-0.2571832537651062,0.9408722519874573,-0.7695807814598083,-0.3979286253452301,-0.07749020308256149,-0.24118207395076752
10.275,-0.13517993688583374,0.7819891571998596,-0.5802774429321289,-0.3739165961742401,-0.23591238260269165,-0.26143956184387207
10.3,0.08148426562547684,0.5031471848487854,-0.22149893641471863,-0.285086065530777,-0.36741960048675537,-0.26999858021736145
10.325,0.2771120071411133,0.03532794117927551,0.27127307653427124,-0.14446119964122772,-0.34842297434806824,-0.2875259518623352
10.35,0.3759060204029083,-0.4841174781322479,0.7805781960487366,0.028124110773205757,-0.14001837372779846,-0.3180501163005829
10.375,0.38831132650375366,-0.8195905685424805,1.1571842432022095,0.1991150826215744,0.22154530882835388,-0.3578060567378998
10.4,0.36490732431411743,-0.8522396087646484,1.2535706758499146,0.3306502401828766,0.6648210883140564,-0.41134828329086304
10.425,0.2602383494377136,-0.5877732634544373,1.046589970588684,0.39644336700439453,1.0849121809005737,-0.4815792143344879
10.45,-0.045649439096450806,-0.18232625722885132,0.6869922876358032,0.3684750199317932,1.3581300973892212,-0.5529511570930481
10.475,-0.4150705337524414,0.15357787907123566,0.4092358648777008,0.2357407808303833,1.3402299880981445,-0.5765591859817505
10.5,-0.6281749606132507,0.31885918974876404,0.2746090590953827,0.04447232931852341,1.015170693397522,-0.52032071352005
10.525,-0.7459853291511536,0.34815892577171326,0.2962874472141266,-0.15690511465072632,0.5882457494735718,-0.3993370831012726
10.55,-0.8815425634384155,0.3738432824611664,0.3688596189022064,-0.3434620499610901,0.1859615296125412,-0.23776473104953766
10.575,-0.8873075842857361,0.4544411897659302,0.39890557527542114,-0.5273438096046448,-0.216631680727005,-0.06297839432954788
10.6,-0.6755445003509521,0.5220385789871216,0.4929395020008087,-0.7045924663543701,-0.5651266574859619,0.12291856110095978
10.625,-0.4510524272918701,0.5085822343826294,0.6390098333358765,-0.8769311904907227,-0.7034876942634583,0.2907138764858246
10.65,-0.2913385331630707,0.3623009920120239,0.7293220162391663,-0.9970762133598328,-0.6998476982116699,0.43297079205513
10.675,-0.20887623727321625,0.13981352746486664,0.692241907119751,-1.0371190309524536,-0.586698055267334,0.5174432992935181
10.7,-0.16983504593372345,-0.12060065567493439,0.4659923315048218,-1.0030097961425781,-0.3874916732311249,0.5190284848213196
10.725,-0.10786564648151398,-0.4050465226173401,0.10484841465950012,-0.9022917747497559,-0.15513677895069122,0.45227473974227905
10.75,-0.04757552593946457,-0.653205931186676,-0.25609371066093445,-0.7621719241142273,0.0776422992348671,0.3450237810611725
10.775,-0.024164065718650818,-0.8468782305717468,-0.5728682279586792,-0.6153309345245361,0.2773297131061554,0.24256721138954163
10.8,-0.002207159996032715,-1.0320427417755127,-0.8406791687011719,-0.4743921458721161,0.42129987478256226,0.1685151308774948
10.825,0.08682987093925476,-1.1757166385650635,-1.0975571870803833,-0.3219699561595917,0.4975152611732483,0.12632665038108826
10.85,0.17041638493537903,-1.2462408542633057,-1.3794677257537842,-0.15962332487106323,0.5685026049613953,0.09651925414800644
10.875,0.132313072681427,-1.299298644065857,-1.6746488809585571,-0.005441159475594759,0.6795756220817566,0.06599795073270798
10.9,0.05688491463661194,-1.2168058156967163,-1.8625515699386597,0.15756192803382874,0.7559617757797241,0.06151389330625534
10.925,-0.07803192734718323,-0.8923963308334351,-1.8069207668304443,0.3187972605228424,0.7818013429641724,0.044984206557273865
10.95,-0.4338107109069824,-0.5036890506744385,-1.5065804719924927,0.4139925539493561,0.7757300138473511,0.007544021587818861
10.975,-0.7911158204078674,-0.22909465432167053,-1.0979859828948975,0.4635738432407379,0.6293931007385254,0.04361476004123688
11.0,-0.8676989078521729,-0.0886441022157669,-0.7435545325279236,0.5163136720657349,0.3346917927265167,0.16452859342098236
11.025,-0.6968114972114563,0.00016875586879905313,-0.4992657005786896,0.585486650466919,0.0671939104795456,0.2767229378223419
11.05,-0.5008094310760498,0.10742281377315521,-0.3152427077293396,0.6517412662506104,-0.03601778671145439,0.3011282682418823
11.075,-0.4281424582004547,0.23203471302986145,-0.1165686845779419,0.6970939040184021,0.01362540666013956,0.2358032464981079
11.1,-0.4942898154258728,0.33381563425064087,0.09962790459394455,0.7246962189674377,0.12473801523447037,0.13796035945415497
11.125,-0.6175246238708496,0.4040738344192505,0.29856395721435547,0.7411389350891113,0.20584236085414886,0.05640599504113197
11.15,-0.6613042950630188,0.5180894136428833,0.461599737405777,0.7571588158607483,0.19338588416576385,-0.004710889421403408
11.175,-0.6146022081375122,0.6691991090774536,0.6135003566741943,0.7598339915275574,0.12080555409193039,-0.06729918718338013
11.2,-0.5641250610351562,0.7449619174003601,0.7064080834388733,0.7449178099632263,0.03711026906967163,-0.1313137412071228
11.225,-0.5008334517478943,0.769634485244751,0.7486135363578796,0.7173279523849487,-0.0697009265422821,-0.17672713100910187
11.25,-0.42765623331069946,0.7911026477813721,0.7695215940475464,0.67378830909729,-0.1882665902376175,-0.20476186275482178
11.275,-0.37996232509613037,0.8156120777130127,0.7655582427978516,0.6056454181671143,-0.3008291721343994,-0.2162792682647705
11.3,-0.3563307523727417,0.8923418521881104,0.782061755657196,0.5185058116912842,-0.408783495426178,-0.2037999927997589
11.325,-0.2961324453353882,0.9543678760528564,0.8372765779495239,0.42007604241371155,-0.4887327253818512,-0.17005427181720734
11.35,-0.2136887162923813,0.9492199420928955,0.9084815979003906,0.3182947039604187,-0.5239285230636597,-0.12044290453195572
11.375,-0.12184315919876099,0.900625467300415,0.9796625375747681,0.23165829479694366,-0.5265267491340637,-0.06509730964899063
11.4,-0.016718745231628418,0.8007566928863525,1.0493513345718384,0.1607629358768463,-0.4910118579864502,-0.024216942489147186
11.425,0.06192556023597717,0.6371795535087585,1.1250622272491455,0.10049204528331757,-0.4334262013435364,-5.787969712400809e-07
11.45,0.11847886443138123,0.4473716914653778,1.187925100326538,0.04840991273522377,-0.384538471698761,0.01443191897124052
11.475,0.17062191665172577,0.2595464587211609,1.223720908164978,0.011399537324905396,-0.3568020761013031,0.018941426649689674
11.5,0.18594172596931458,0.09531894326210022,1.19086492061615,-0.019129015505313873,-0.3261827826499939,0.0017039899248629808
11.525,0.17207972705364227,-0.013774745166301727,1.1258360147476196,-0.050429921597242355,-0.3073578178882599,-0.0235055610537529
11.55,0.17519119381904602,-0.060432322323322296,1.05801522731781,-0.0797465592622757,-0.3396576941013336,-0.041808463633060455
11.575,0.19160020351409912,-0.054384130984544754,0.940560519695282,-0.11269395798444748,-0.40213802456855774,-0.05584999546408653
11.6,0.2211964726448059,-0.01451388280838728,0.7910014986991882,-0.1513923555612564,-0.4714983105659485,-0.06014176458120346
11.625,0.294936865568161,0.038547590374946594,0.6459469795227051,-0.19034220278263092,-0.5556608438491821,-0.046572353690862656
11.65,0.3624243140220642,0.0965471938252449,0.5218858122825623,-0.22644886374473572,-0.6205368638038635,-0.025258533656597137
11.675,0.3715354800224304,0.1441088318824768,0.4460645020008087,-0.25794461369514465,-0.6508121490478516,-0.0011178695131093264
11.7,0.3643451929092407,0.1876736283302307,0.37685662508010864,-0.28363972902297974,-0.663027822971344,0.034115586429834366
11.725,0.3589981496334076,0.23397451639175415,0.2714623510837555,-0.3002706468105316,-0.6450714468955994,0.07010108977556229
11.75,0.3117242157459259,0.2643146812915802,0.1613813042640686,-0.30827006697654724,-0.5921145081520081,0.09246542304754257
11.775,0.20683956146240234,0.24199393391609192,0.07514621317386627,-0.30649954080581665,-0.528067946434021,0.10569601505994797
11.8,0.13342633843421936,0.18506433069705963,0.02084703929722309,-0.2944263517856598,-0.48174574971199036,0.12483501434326172
11.825,0.10751377791166306,0.1228494793176651,0.002432008972391486,-0.2695392370223999,-0.4425658881664276,0.14253981411457062
11.85,0.07109025120735168,0.07449723035097122,-0.015229187905788422,-0.23880906403064728,-0.3881085216999054,0.14441652595996857
11.875,0.014250284060835838,0.04394054040312767,-0.055794257670640945,-0.20565292239189148,-0.3299733102321625,0.12875965237617493
11.9,-0.05390344560146332,0.008990277536213398,-0.10386943817138672,-0.17451272904872894,-0.3017594516277313,0.10596098005771637
11.925,-0.10832737386226654,-0.02337552420794964,-0.12059198319911957,-0.14419202506542206,-0.3130481541156769,0.0879589319229126
11.95,-0.11722386628389359,-0.04535294696688652,-0.08998903632164001,-0.11321352422237396,-0.35618868470191956,0.07299833744764328
11.975,-0.08768124133348465,-0.05558587238192558,-0.035636432468891144,-0.07779259234666824,-0.3940391540527344,0.05045280605554581
12.0,-0.026403620839118958,-0.06687259674072266,0.033785630017519,-0.03789821267127991,-0.410728394985199,0.020335327833890915
12.025,0.02445649355649948,-0.09270762652158737,0.1234145238995552,0.01832096464931965,-0.4072451889514923,-0.011652164161205292
12.05,0.07681308686733246,-0.14528463780879974,0.2502099573612213,0.08596432209014893,-0.3843194544315338,-0.04144367575645447
12.075,0.16902515292167664,-0.21643923223018646,0.41263100504875183,0.16514593362808228,-0.33409976959228516,-0.06802795827388763
12.1,0.27589812874794006,-0.26794907450675964,0.5735926032066345,0.24979525804519653,-0.2502773404121399,-0.09775057435035706
12.125,0.3399818539619446,-0.2824840247631073,0.6891937851905823,0.3309476375579834,-0.14433862268924713,-0.1351504921913147
12.15,0.34228456020355225,-0.22792430222034454,0.7342249751091003,0.3963654637336731,-0.04018979147076607,-0.174545556306839
12.175,0.3081817030906677,-0.09771054983139038,0.6941945552825928,0.43529462814331055,0.017901316285133362,-0.20036640763282776
12.2,0.2893563508987427,0.05259712040424347,0.6227936148643494,0.43400704860687256,0.008788957260549068,-0.19583538174629211
12.225,0.31233102083206177,0.1683846265077591,0.6242105960845947,0.39969968795776367,-0.050120700150728226,-0.16783952713012695
12.25,0.3634403944015503,0.20973502099514008,0.7154799699783325,0.3473394513130188,-0.12057826668024063,-0.1310274600982666
12.275,0.43196988105773926,0.22753632068634033,0.8275924324989319,0.2915252149105072,-0.1638159453868866,-0.08618295937776566
12.3,0.5018573999404907,0.27789604663848877,0.9222564101219177,0.23912417888641357,-0.17439191043376923,-0.03759345784783363
12.325,0.519197404384613,0.33946338295936584,0.9941754937171936,0.19039581716060638,-0.14234116673469543,0.0047285594046115875
12.35,0.45558348298072815,0.35914912819862366,1.031961441040039,0.14189264178276062,-0.08700987696647644,0.0404592901468277
12.375,0.3785240948200226,0.30981460213661194,1.0164673328399658,0.08452250808477402,-0.03782491013407707,0.08249380439519882
12.4,0.3179747462272644,0.27907195687294006,0.9696758389472961,0.023677648976445198,-0.0031342587899416685,0.12933070957660675
12.425,0.22591149806976318,0.3295575678348541,0.9291133284568787,-0.030336618423461914,0.02168165147304535,0.16254955530166626
12.45,0.10340677201747894,0.4005958139896393,0.8674903512001038,-0.08160969614982605,0.03673350438475609,0.17763328552246094
12.475,-0.0022079497575759888,0.4538985788822174,0.7808916568756104,-0.13561256229877472,0.018636338412761688,0.18629543483257294
12.5,-0.08720844984054565,0.4652778208255768,0.7276801466941833,-0.18115276098251343,-0.018203264102339745,0.19275619089603424
12.525,-0.1348879635334015,0.40664878487586975,0.7089248895645142,-0.21577562391757965,-0.045883942395448685,0.19473586976528168
12.55,-0.1310664266347885,0.3311702013015747,0.709725022315979,-0.23955665528774261,-0.039624132215976715,0.18944743275642395
12.575,-0.1058213859796524,0.2578068971633911,0.7230628132820129,-0.240599125623703,0.00013592702453024685,0.16867652535438538
12.6,-0.10642967373132706,0.16078291833400726,0.7051537036895752,-0.22706469893455505,0.061355460435152054,0.12664373219013214
12.625,-0.10829851776361465,0.04829319939017296,0.6438984274864197,-0.19732972979545593,0.10554255545139313,0.08026917278766632
12.65,-0.07355208694934845,-0.04074280709028244,0.5925552248954773,-0.15623526275157928,0.11155043542385101,0.035227999091148376
12.675,-0.0035581737756729126,-0.09083360433578491,0.566383421421051,-0.10571058094501495,0.1042841300368309,-0.008313596248626709
12.7,0.07772716879844666,-0.1018046885728836,0.5350139737129211,-0.0563541054725647,0.10981107503175735,-0.0582832433283329
12.725,0.1580476015806198,-0.0873384028673172,0.498610258102417,-0.010400839149951935,0.12323103100061417,-0.10690609365701675
12.75,0.23407107591629028,-0.03213782235980034,0.48815691471099854,0.026691310107707977,0.13642370700836182,-0.14296157658100128
12.775,0.29790136218070984,0.02699190005660057,0.49012085795402527,0.05833178013563156,0.1435406506061554,-0.1620665341615677
12.8,0.3697134256362915,0.0600166916847229,0.4940061867237091,0.08221237361431122,0.16523393988609314,-0.16692058742046356
12.825,0.4433532655239105,0.07967954128980637,0.48274797201156616,0.10047802329063416,0.20937983691692352,-0.16571633517742157
12.85,0.5158154964447021,0.10007959604263306,0.4625527262687683,0.10502170026302338,0.26911574602127075,-0.15967528522014618
12.875,0.5610009431838989,0.1317768692970276,0.45098865032196045,0.09972034394741058,0.31932419538497925,-0.1368853747844696
12.9,0.5629989504814148,0.1722288727760315,0.4498811662197113,0.08496490120887756,0.3629004657268524,-0.10838914662599564
12.925,0.5437502264976501,0.21673686802387238,0.4183233380317688,0.05865785852074623,0.40856367349624634,-0.07929742336273193
12.95,0.5166426301002502,0.26088815927505493,0.34483784437179565,0.02091435343027115,0.43350905179977417,-0.04209527745842934
12.975,0.4941069781780243,0.2791977524757385,0.26981666684150696,-0.025252733379602432,0.4348203241825104,0.011286402121186256
13.0,0.46532291173934937,0.24105744063854218,0.2580532729625702,-0.07194649428129196,0.4309353828430176,0.07263686507940292
13.025,0.41027581691741943,0.17472366988658905,0.28526291251182556,-0.11124106496572495,0.43840670585632324,0.12556491792201996
13.05,0.3386300206184387,0.12430386245250702,0.2943814694881439,-0.14861160516738892,0.4620561897754669,0.16838662326335907
13.075,0.2639480233192444,0.12876610457897186,0.26028165221214294,-0.17567332088947296,0.4886722266674042,0.2055683135986328
13.1,0.15409499406814575,0.1516723930835724,0.1746118664741516,-0.18831506371498108,0.5093216300010681,0.22236819565296173
13.125,0.0014370698481798172,0.16806700825691223,0.08163440972566605,-0.20721757411956787,0.5088778734207153,0.2289566546678543
13.15,-0.1131066381931305,0.20880702137947083,0.018602553755044937,-0.22086641192436218,0.4782789349555969,0.24734491109848022
13.175,-0.18346399068832397,0.24698737263679504,-0.022131124511361122,-0.2301447093486786,0.44269508123397827,0.25793299078941345
13.2,-0.2714535593986511,0.26520636677742004,-0.09446129202842712,-0.2404009848833084,0.42316240072250366,0.2517548203468323
13.225,-0.38278090953826904,0.25731948018074036,-0.17361676692962646,-0.24901452660560608,0.39278092980384827,0.24486203491687775
13.25,-0.5081591606140137,0.2252054363489151,-0.2050020843744278,-0.25308457016944885,0.339749813079834,0.24052797257900238
13.275,-0.5944905281066895,0.1848602294921875,-0.20557673275470734,-0.24447721242904663,0.2826368510723114,0.23594793677330017
13.3,-0.6203595399856567,0.15555286407470703,-0.23805204033851624,-0.23242497444152832,0.24635156989097595,0.21739783883094788
13.325,-0.6586512923240662,0.12968063354492188,-0.2855583131313324,-0.21361854672431946,0.22021585702896118,0.18390510976314545
13.35,-0.7158516645431519,0.0755138248205185,-0.3186826705932617,-0.19007247686386108,0.18340426683425903,0.14472465217113495
13.375,-0.7448991537094116,-0.006636645644903183,-0.3420184254646301,-0.1598455160856247,0.12332211434841156,0.11077597737312317
13.4,-0.6911659240722656,-0.07989409565925598,-0.32064729928970337,-0.1183849424123764,0.05457014963030815,0.08368871361017227
13.425,-0.6002543568611145,-0.1326618492603302,-0.2666107416152954,-0.0723767876625061,0.004360636230558157,0.04485137388110161
13.45,-0.5414485335350037,-0.1737690269947052,-0.20420818030834198,-0.023672375828027725,-0.02436339668929577,-0.003646829631179571
13.475,-0.5171849727630615,-0.16393664479255676,-0.16061283648014069,0.039251867681741714,-0.05183238908648491,-0.057947251945734024
13.5,-0.47496286034584045,-0.08954717218875885,-0.14176876842975616,0.10125423967838287,-0.09380875527858734,-0.11052412539720535
13.525,-0.41380828619003296,0.018779750913381577,-0.12457732856273651,0.1561214178800583,-0.14850249886512756,-0.15282127261161804
13.55,-0.36246323585510254,0.10388757288455963,-0.09222733974456787,0.19166503846645355,-0.19065505266189575,-0.1907864809036255
13.575,-0.34613046050071716,0.1515817791223526,-0.05938880145549774,0.200643390417099,-0.21734562516212463,-0.2217605710029602
13.6,-0.3069310486316681,0.20725539326667786,-0.035416241735219955,0.1973525732755661,-0.24904945492744446,-0.2250674068927765
13.625,-0.21734651923179626,0.2649517357349396,0.0028628725558519363,0.19028416275978088,-0.2905174791812897,-0.2114436775445938
13.65,-0.11261487752199173,0.2727232277393341,0.04728514701128006,0.17307701706886292,-0.31947705149650574,-0.1890728622674942
13.675,-0.014406335540115833,0.26000598073005676,0.10651597380638123,0.15002386271953583,-0.3300080895423889,-0.16180944442749023
13.7,0.08124366402626038,0.2492418736219406,0.17820504307746887,0.13068920373916626,-0.32782286405563354,-0.1357998102903366
13.725,0.16084839403629303,0.2098436951637268,0.25147882103919983,0.11555346846580505,-0.31241387128829956,-0.11341824382543564
13.75,0.22015690803527832,0.14797787368297577,0.3154725432395935,0.10358056426048279,-0.29452937841415405,-0.08964741230010986
13.775,0.2707024812698364,0.05846218392252922,0.34412288665771484,0.09014470875263214,-0.2696473002433777,-0.06614100188016891
13.8,0.3030260503292084,0.008025206625461578,0.36345672607421875,0.07178071141242981,-0.23131436109542847,-0.04580898955464363
13.825,0.2935844361782074,0.02074722945690155,0.40904632210731506,0.05104399845004082,-0.18947426974773407,-0.03188921511173248
13.85,0.2814023494720459,0.05451112240552902,0.43340611457824707,0.03021453134715557,-0.1747514307498932,-0.016047688201069832
13.875,0.298044353723526,0.0727577731013298,0.4375036358833313,0.015963364392518997,-0.20077741146087646,0.010347224771976471
13.9,0.3325820863246918,0.08166985958814621,0.46532705426216125,0.009924238547682762,-0.21704332530498505,0.027608031406998634
13.925,0.341046005487442,0.08352285623550415,0.4924243688583374,0.006969313602894545,-0.20787779986858368,0.03219877555966377
13.95,0.34023362398147583,0.08498483896255493,0.5029812455177307,0.008154112845659256,-0.18520741164684296,0.03589147329330444
13.975,0.3390123248100281,0.09436042606830597,0.5507713556289673,0.015324363484978676,-0.158036470413208,0.04372444748878479
14.0,0.33661535382270813,0.08861835300922394,0.604822039604187,0.0232401005923748,-0.11320101469755173,0.047168850898742676
14.025,0.32728391885757446,0.06405360996723175,0.6197118759155273,0.03084772452712059,-0.051025908440351486,0.04677063226699829
14.05,0.2969193458557129,0.06488902866840363,0.6218426823616028,0.032958440482616425,0.013302280567586422,0.04305899888277054
14.075,0.26055631041526794,0.06968314945697784,0.6131053566932678,0.03301582112908363,0.06685762107372284,0.03639904782176018
14.1,0.23039036989212036,0.07998950779438019,0.5853369235992432,0.03183295577764511,0.09582848101854324,0.028477277606725693
14.125,0.22968953847885132,0.10589511692523956,0.567821741104126,0.03254004567861557,0.08683488517999649,0.020621242001652718
14.15,0.2622936964035034,0.12226589024066925,0.5536304712295532,0.033685579895973206,0.06077010929584503,0.0158198531717062
14.175,0.31957051157951355,0.10461147129535675,0.5568283200263977,0.03348388522863388,0.04450663551688194,0.016414104029536247
14.2,0.3867254853248596,0.07291419059038162,0.5835704803466797,0.036499541252851486,0.05451597273349762,0.015240517444908619
14.225,0.407703161239624,0.05389411747455597,0.6552479863166809,0.0469721220433712,0.09091480821371078,0.01000305637717247
14.25,0.42914149165153503,0.042308881878852844,0.6733914017677307,0.06534931808710098,0.13095352053642273,0.004098671022802591
14.275,0.41553419828414917,0.027679508551955223,0.6001395583152771,0.0770864486694336,0.1750279814004898,-0.0007870072731748223
14.3,0.38378381729125977,0.0058594271540641785,0.5042288303375244,0.06784378737211227,0.21410754323005676,0.005188773386180401
14.325,0.3326653242111206,0.010525746271014214,0.41718268394470215,0.043097179383039474,0.2521880865097046,0.018619487062096596
14.35,0.23668015003204346,0.05064968392252922,0.3401815891265869,0.01031383965164423,0.26960137486457825,0.0370529443025589
14.375,0.17124895751476288,0.09296993166208267,0.30151912569999695,-0.019731000065803528,0.24651436507701874,0.06593547016382217
14.4,0.18943879008293152,0.11356167495250702,0.2735939621925354,-0.038769595324993134,0.20192967355251312,0.09352929145097733
14.425,0.2135007679462433,0.13643746078014374,0.23843368887901306,-0.041565656661987305,0.179335817694664,0.09924270957708359
14.45,0.18851672112941742,0.1569547951221466,0.20490330457687378,-0.037892360240221024,0.18726269900798798,0.08944514393806458
14.475,0.17712444067001343,0.18371203541755676,0.17791251838207245,-0.025339161977171898,0.19079025089740753,0.0831364169716835
14.5,0.18163806200027466,0.22033695876598358,0.18754133582115173,-0.004157418385148048,0.1986214816570282,0.0771491527557373
14.525,0.17827139794826508,0.2244463413953781,0.17789286375045776,0.015023383311927319,0.23152592778205872,0.06334003806114197
14.55,0.1296866238117218,0.17701056599617004,0.15366549789905548,0.025254566222429276,0.2780860364437103,0.04946979880332947
14.575,0.03652823716402054,0.13733485341072083,0.12616047263145447,0.025580575689673424,0.31422948837280273,0.043854713439941406
14.6,-0.027263784781098366,0.12031462788581848,0.1061454489827156,0.020612962543964386,0.3184150159358978,0.048372190445661545
14.625,-0.0680617094039917,0.12497809529304504,0.09224303066730499,0.011552580632269382,0.31089237332344055,0.052303630858659744
14.65,-0.09358127415180206,0.13727954030036926,0.06311414390802383,0.002983524464070797,0.2943403422832489,0.052820414304733276
14.675,-0.07786938548088074,0.15966416895389557,0.047546230256557465,-0.0019545601680874825,0.26285770535469055,0.05159761756658554
14.7,-0.03337828814983368,0.19570067524909973,0.041991785168647766,-0.0009088646620512009,0.23603132367134094,0.04272502660751343
14.725,-0.014523153193295002,0.21330168843269348,0.05424673482775688,0.004042809829115868,0.2251620590686798,0.01948309689760208
14.75,-0.017734013497829437,0.21176151931285858,0.06488613784313202,0.014217374846339226,0.21033188700675964,-0.001916145789436996
14.775,-0.021516483277082443,0.2134857475757599,0.04857633635401726,0.021497324109077454,0.194966658949852,-0.012278172187507153
14.8,0.0038371984846889973,0.21062758564949036,0.02841227874159813,0.025720788165926933,0.1865510195493698,-0.015559069812297821
14.825,0.027011459693312645,0.20086386799812317,0.02123294584453106,0.02337321639060974,0.19334857165813446,-0.02038007788360119
14.85,-0.0018731828313320875,0.17635251581668854,0.03271503746509552,0.015858324244618416,0.19609133899211884,-0.02058478631079197
14.875,-0.025323769077658653,0.17442990839481354,0.053580041974782944,0.012128806672990322,0.17587551474571228,-0.018253469839692116
14.9,-0.015067150816321373,0.18646718561649323,0.05992986261844635,0.012302362360060215,0.14904071390628815,-0.018322743475437164
14.925,-0.01571604609489441,0.1899881660938263,0.04385821521282196,0.008099028840661049,0.13307039439678192,-0.022532356902956963
14.95,-0.024259287863969803,0.1712799221277237,0.02105739526450634,0.004175068810582161,0.11986957490444183,-0.02402828074991703
14.975,-0.02329603023827076,0.1457815319299698,0.01883753202855587,0.001357755158096552,0.10843053460121155,-0.025308873504400253
15.0,-0.011508215218782425,0.10535719245672226,0.03017050214111805,0.0014216166455298662,0.10125724971294403,-0.02970876358449459
15.025,0.0013475418090820312,0.07812787592411041,0.04395453631877899,0.009702173992991447,0.09729194641113281,-0.040264565497636795
15.05,0.023228373378515244,0.08158685266971588,0.06791127473115921,0.01832614280283451,0.09879116714000702,-0.0501268245279789
15.075,0.06145082786679268,0.1112537607550621,0.08870038390159607,0.033950917422771454,0.09450269490480423,-0.0592527762055397
15.1,0.07052810490131378,0.1644602119922638,0.09179062396287918,0.04544100910425186,0.10848195105791092,-0.07811161875724792
15.125,0.04541557654738426,0.2090177983045578,0.0746956542134285,0.0563691183924675,0.11872027814388275,-0.10002496093511581
15.15,0.022360151633620262,0.23482804000377655,0.08949660509824753,0.06215647608041763,0.10501594841480255,-0.11165264248847961
15.175,0.017521673813462257,0.26494985818862915,0.13692326843738556,0.06237988919019699,0.07903595268726349,-0.10809796303510666
15.2,0.028871707618236542,0.3045540452003479,0.14589115977287292,0.05574740469455719,0.05859553441405296,-0.0970756858587265
15.225,0.03388099744915962,0.3176441490650177,0.12290574610233307,0.03632766008377075,0.05994674190878868,-0.09131889790296555
15.25,-0.005409968085587025,0.2690000832080841,0.11232560127973557,0.017216039821505547,0.060962606221437454,-0.08737453073263168
15.275,-0.0257856547832489,0.19402985274791718,0.12178801000118256,0.007417944259941578,0.03712035343050957,-0.08160790055990219
15.3,-0.008464653044939041,0.1447935402393341,0.1520601511001587,0.0055310083553195,0.010264427401125431,-0.07580035924911499
15.325,-0.013592878356575966,0.13051418960094452,0.21326307952404022,0.00708753801882267,0.009128187783062458,-0.07570301741361618
15.35,-0.03137475252151489,0.1385841816663742,0.23395872116088867,0.008421278558671474,0.018957490101456642,-0.07661372423171997
15.375,-0.030025972053408623,0.12807373702526093,0.2156943678855896,0.006833069026470184,0.022476553916931152,-0.07355868816375732
15.4,-0.043073877692222595,0.13635067641735077,0.20261579751968384,-0.0008165379986166954,0.021639062091708183,-0.06911222636699677
15.425,-0.0594729483127594,0.14508728682994843,0.19994673132896423,-0.010930565185844898,0.01638158969581127,-0.06715135276317596
15.45,-0.03556225448846817,0.14133839309215546,0.20713144540786743,-0.016565103083848953,0.010586299933493137,-0.06941398233175278
15.475,-0.009372556582093239,0.15044216811656952,0.19818216562271118,-0.018938245251774788,0.0008455935167148709,-0.07470498234033585
15.5,-0.016963636502623558,0.1662302315235138,0.17509377002716064,-0.017132051289081573,-0.008947470225393772,-0.07865883409976959
15.525,-0.018197186291217804,0.1485605537891388,0.16255521774291992,-0.016676165163517,-0.010978737846016884,-0.08105719089508057
15.55,-0.008070174604654312,0.14261630177497864,0.15676401555538177,-0.016713839024305344,-0.01205783523619175,-0.0848010778427124
15.575,-0.038655973970890045,0.16270354390144348,0.15636345744132996,-0.020768554881215096,-0.012652010656893253,-0.08700390160083771
15.6,-0.05663686245679855,0.16819098591804504,0.17992743849754333,-0.028097152709960938,-0.0160667784512043,-0.0826968178153038
15.625,-0.04163923114538193,0.12370399385690689,0.19673898816108704,-0.03438660874962807,-0.020512381568551064,-0.07686862349510193
15.65,-0.019825758412480354,0.07565311342477798,0.22832506895065308,-0.03921261802315712,-0.018440086394548416,-0.06721612811088562
15.675,0.013937350362539291,0.02685931697487831,0.25844839215278625,-0.038572896271944046,-0.013944203965365887,-0.05193644389510155
15.7,0.028789736330509186,-0.04938695579767227,0.24842123687267303,-0.03749169036746025,0.008950005285441875,-0.045106805860996246
15.725,0.0049057453870773315,-0.097441665828228,0.2168780267238617,-0.0400126613676548,0.027870522812008858,-0.04704594239592552
15.75,-0.01932401955127716,-0.10399150103330612,0.1880832314491272,-0.034868597984313965,0.018088269978761673,-0.04586498439311981
15.775,-0.02238040417432785,-0.1081237718462944,0.18387000262737274,-0.03373817354440689,-0.014253420755267143,-0.0438399575650692
15.8,0.014403898268938065,-0.10907839983701706,0.17906935513019562,-0.027816418558359146,-0.053859129548072815,-0.03121907450258732
15.825,0.043753527104854584,-0.09331988543272018,0.15705521404743195,-0.018863065168261528,-0.08173470944166183,-0.016594791784882545
15.85,0.07348620891571045,-0.08402823656797409,0.14461570978164673,-0.010336204431951046,-0.08005853742361069,-0.004472821950912476
15.875,0.1022438257932663,-0.09694194793701172,0.1219734326004982,-0.0035305526107549667,-0.06299126148223877,0.005761999636888504
15.9,0.09781359136104584,-0.09835053235292435,0.10561573505401611,0.004946354776620865,-0.05163837969303131,0.01602010801434517
15.925,0.08110971003770828,-0.06727218627929688,0.09957624226808548,0.015000587329268456,-0.04761722311377525,0.02255883440375328
15.95,0.09148640185594559,-0.027713770046830177,0.1021307036280632,0.023013155907392502,-0.04658149927854538,0.02544296719133854
15.975,0.08962846547365189,0.005801212042570114,0.10696723312139511,0.031437184661626816,-0.05398476868867874,0.03213715925812721
16.0,0.06848974525928497,0.052583713084459305,0.11270105093717575,0.03634938970208168,-0.06762676686048508,0.04263542965054512
16.025,0.07012554258108139,0.07818510383367538,0.14097195863723755,0.040388062596321106,-0.07179347425699234,0.050727762281894684
16.05,0.08271278440952301,0.08453943580389023,0.1254570484161377,0.04017479717731476,-0.06408073753118515,0.057002075016498566
16.075,0.06387656927108765,0.10075190663337708,0.1252802014350891,0.038408663123846054,-0.06078905612230301,0.0627572163939476
16.1,0.03021514043211937,0.1305256187915802,0.14263805747032166,0.04096720740199089,-0.06550543755292892,0.06694354116916656
16.125,0.015622641891241074,0.15130522847175598,0.13813930749893188,0.04457671195268631,-0.06819423288106918,0.06794500350952148
16.15,0.007404390722513199,0.180454283952713,0.1400727927684784,0.049095459282398224,-0.07406186312437057,0.06396519392728806
16.175,-0.002817656844854355,0.20740322768688202,0.14291289448738098,0.05158018320798874,-0.07779894769191742,0.056588709354400635
16.2,-0.011870088055729866,0.23629097640514374,0.16188828647136688,0.05143805220723152,-0.08208572864532471,0.04899406433105469
16.225,-0.02561860717833042,0.2436571717262268,0.19191990792751312,0.052600178867578506,-0.09260205924510956,0.04504784196615219
16.25,-0.013443930074572563,0.24624067544937134,0.20687676966190338,0.04915868863463402,-0.09533654898405075,0.03909711912274361
16.275,0.024740703403949738,0.26313501596450806,0.25217944383621216,0.0488102026283741,-0.09543991833925247,0.03610184043645859
16.3,0.0403188019990921,0.2630310654640198,0.3229373097419739,0.05022149160504341,-0.0813235342502594,0.024253128096461296
16.325,0.030233614146709442,0.262550413608551,0.36199289560317993,0.05058884620666504,-0.06534745544195175,0.009130393154919147
16.35,0.03218573331832886,0.2952900528907776,0.3664608597755432,0.053837645798921585,-0.06157557666301727,-0.004783855751156807
16.375,0.04571036621928215,0.3021145462989807,0.34824737906455994,0.04885692149400711,-0.06209156662225723,-0.021603412926197052
16.4,0.05985642224550247,0.28774458169937134,0.36589983105659485,0.04036574065685272,-0.07262406498193741,-0.023409048095345497
16.425,0.08286439627408981,0.25179776549339294,0.43058812618255615,0.035985756665468216,-0.07766860723495483,-0.022708958014845848
16.45,0.09112519770860672,0.17120464146137238,0.46937674283981323,0.02146594040095806,-0.05594027414917946,-0.02943505346775055
16.475,0.08877988159656525,0.13195331394672394,0.47316721081733704,0.01462420541793108,-0.03478580340743065,-0.030171852558851242
16.5,0.09727723896503448,0.130040243268013,0.48022398352622986,0.014722581952810287,-0.025482745841145515,-0.035799600183963776
16.525,0.13346374034881592,0.12376696616411209,0.4792670011520386,0.0153812225908041,-0.02537834644317627,-0.040240928530693054
16.55,0.17624995112419128,0.10080058127641678,0.4691738486289978,0.021626554429531097,-0.02325453609228134,-0.046498510986566544
16.575,0.17135924100875854,0.046013884246349335,0.4531858265399933,0.020273955538868904,-0.005622273776680231,-0.05360737815499306
16.6,0.14939966797828674,0.05192571133375168,0.4177898168563843,0.013487380929291248,0.009196257218718529,-0.050371572375297546
16.625,0.15481117367744446,0.1256456971168518,0.3769807815551758,0.00532871950417757,0.0011471457546576858,-0.036247119307518005
16.65,0.1354474127292633,0.16593270003795624,0.33182063698768616,-0.011861318722367287,0.011993564665317535,-0.029048705473542213
16.675,0.09771953523159027,0.15005497634410858,0.3056701421737671,-0.03459161892533302,0.004779288545250893,-0.01195323746651411
16.7,0.09429354220628738,0.12725357711315155,0.29645612835884094,-0.039494067430496216,-0.01393010001629591,0.01210392452776432
16.725,0.11190140247344971,0.10707668960094452,0.26272204518318176,-0.044168345630168915,-0.015115957707166672,0.025964459404349327
16.75,0.1010885089635849,0.11344532668590546,0.2595039904117584,-0.04541588947176933,-0.005184914916753769,0.033931948244571686
16.775,0.043708834797143936,0.11376099288463593,0.2478024661540985,-0.036931976675987244,0.023567885160446167,0.024004291743040085
16.8,-0.02918037585914135,0.0714750587940216,0.1784483939409256,-0.03912245109677315,0.03975018858909607,0.015382930636405945
16.825,-0.062134768813848495,0.07033922523260117,0.13024726510047913,-0.030976634472608566,0.029127391055226326,0.023993097245693207
16.85,-0.0721178725361824,0.09590914845466614,0.10217688232660294,-0.028229840099811554,0.011198797263205051,0.023954279720783234
16.875,-0.1001245528459549,0.09541705250740051,0.10044317692518234,-0.030056385323405266,0.006870886776596308,0.020457012578845024
16.9,-0.08528061211109161,0.11301520466804504,0.13037532567977905,-0.02708613872528076,-0.0098064374178648,0.022834084928035736
16.925,-0.06601053476333618,0.10759738087654114,0.1247817799448967,-0.02531627006828785,-0.010746760293841362,0.018858497962355614
16.95,-0.07812613993883133,0.11915495991706848,0.09197583794593811,-0.020418941974639893,-0.0028224994894117117,0.008599333465099335
16.975,-0.09992704540491104,0.14521506428718567,0.08472185581922531,-0.01539086177945137,-0.00858993735164404,0.0018551895627751946
17.0,-0.11540242284536362,0.15565016865730286,0.11803437769412994,-0.012417526915669441,-0.022672483697533607,-0.0006224896060302854
17.025,-0.0755937397480011,0.16359427571296692,0.14518657326698303,-0.004795156419277191,-0.04092704504728317,0.0026419975329190493
17.05,-8.702278137207031e-05,0.14256766438484192,0.14887985587120056,-0.0017722880002111197,-0.04512905701994896,0.0038896535988897085
17.075,-0.017342839390039444,0.09782126545906067,0.12405961006879807,-0.0017183682648465037,-0.024434631690382957,-0.001990856369957328
17.1,-0.05715078487992287,0.07929136604070663,0.0961105152964592,-0.0011649326188489795,-0.01525791734457016,-0.004722560290247202
17.125,-0.04333704710006714,0.1008463129401207,0.08477092534303665,-0.0007157283253036439,-0.037223849445581436,-0.0024386716540902853
17.15,-0.018769115209579468,0.14364148676395416,0.04996402934193611,-0.0041427030228078365,-0.06420891731977463,0.0008104480220936239
17.175,-0.00968618132174015,0.19320014119148254,0.02799098566174507,-0.016740240156650543,-0.08261644840240479,0.006761262658983469
17.2,-0.020462987944483757,0.23391631245613098,0.0061913467943668365,-0.023214813321828842,-0.08648078888654709,0.013656656257808208
17.225,-0.03395894169807434,0.25117209553718567,0.021585198119282722,-0.03131173551082611,-0.08512639254331589,0.021576473489403725
17.25,-0.04689757525920868,0.24451163411140442,0.04787949472665787,-0.03687098249793053,-0.08225442469120026,0.03728874772787094
17.275,-0.07408328354358673,0.25173285603523254,0.07566221058368683,-0.036224089562892914,-0.061909019947052,0.048700492829084396
17.3,-0.11565016955137253,0.2650900185108185,0.0775461196899414,-0.04063503444194794,-0.040191277861595154,0.04525505378842354
17.325,-0.21150031685829163,0.2234688103199005,0.018244002014398575,-0.05709094554185867,-0.023945873603224754,0.03484901040792465
17.35,-0.28801628947257996,0.10975171625614166,-0.023325443267822266,-0.08109825849533081,-0.05392290651798248,0.03452794626355171
17.375,-0.21995414793491364,0.02581501565873623,-0.021575836464762688,-0.09065679460763931,-0.11780623346567154,0.041304346174001694
17.4,-0.0971558690071106,0.04630089923739433,0.03357210382819176,-0.0737697035074234,-0.14615365862846375,0.02944876067340374
17.425,-0.0387275293469429,0.07906819880008698,0.05278091877698898,-0.04132622107863426,-0.13003039360046387,-0.012839612551033497
17.45,-0.01931888982653618,0.06418991833925247,0.026650337502360344,0.004886290058493614,-0.11609186977148056,-0.058071672916412354
17.475,-0.01888946443796158,0.08994771540164948,0.036281146109104156,0.04706572741270065,-0.11187191307544708,-0.09303690493106842
17.5,0.026185082271695137,0.1828775703907013,0.07748355716466904,0.07926049083471298,-0.13087046146392822,-0.11706600338220596
17.525,0.06563176214694977,0.26026156544685364,0.11353524029254913,0.096382737159729,-0.12357733398675919,-0.14200209081172943
17.55,0.04118858650326729,0.26565268635749817,0.12863507866859436,0.08203878253698349,-0.10014209896326065,-0.16225910186767578
17.575,0.028086401522159576,0.3049784302711487,0.14843237400054932,0.06424237787723541,-0.10798977315425873,-0.15469378232955933
17.6,0.05937904119491577,0.33956247568130493,0.17832890152931213,0.0513029545545578,-0.13917987048625946,-0.1377936601638794
17.625,0.06982910633087158,0.32923513650894165,0.1908344030380249,0.0331249013543129,-0.13767558336257935,-0.12535788118839264
17.65,0.09771105647087097,0.27804189920425415,0.16866011917591095,0.01961301639676094,-0.13159379363059998,-0.113487109541893
17.675,0.10678878426551819,0.23531155288219452,0.16078811883926392,0.0061578452587127686,-0.11536286026239395,-0.11126074194908142
17.7,0.0886036604642868,0.2333240956068039,0.1681898981332779,-0.002107832580804825,-0.09869556128978729,-0.12322872132062912
17.725,0.10657389461994171,0.2737188935279846,0.20985044538974762,-0.0009786728769540787,-0.1119067370891571,-0.1322474628686905
17.75,0.12648029625415802,0.3246632218360901,0.28285056352615356,0.012744045816361904,-0.12630049884319305,-0.14317536354064941
17.775,0.09228996932506561,0.310737669467926,0.3046243488788605,0.014220671728253365,-0.12372562289237976,-0.1499767303466797
17.8,0.03760804235935211,0.20972830057144165,0.27834516763687134,-0.005749095231294632,-0.09309104830026627,-0.1389593482017517
17.825,0.011528071016073227,0.11115364730358124,0.23686644434928894,-0.04331408441066742,-0.04683181270956993,-0.1216801330447197
17.85,-0.015847954899072647,-0.0035762591287493706,0.1684119552373886,-0.08242766559123993,-0.021622182801365852,-0.10994032025337219
17.875,-0.014589566737413406,-0.09941673278808594,0.12319011986255646,-0.11750350147485733,-0.0609138160943985,-0.08886507153511047
17.9,0.05719984695315361,-0.1288156509399414,0.14215049147605896,-0.1340925544500351,-0.14337199926376343,-0.05647911876440048
17.925,0.15805238485336304,-0.087645523250103,0.17898425459861755,-0.13530978560447693,-0.18812763690948486,-0.04193885251879692
17.95,0.21228647232055664,-0.01281069591641426,0.14996576309204102,-0.12483488023281097,-0.18575933575630188,-0.043067559599876404
17.975,0.1797587126493454,0.0549173466861248,0.07662291824817657,-0.12187105417251587,-0.164703831076622,-0.04686148837208748
18.0,0.11965726315975189,0.0830240249633789,-0.027418138459324837,-0.13640429079532623,-0.16572482883930206,-0.02926681376993656
18.025,0.11723212152719498,0.07825755327939987,-0.11720986664295197,-0.16041341423988342,-0.19655980169773102,0.008092881180346012
18.05,0.14663630723953247,0.05536268651485443,-0.17611390352249146,-0.18821881711483002,-0.22568853199481964,0.04676949977874756
18.075,0.14803384244441986,0.019638990983366966,-0.20240254700183868,-0.20816561579704285,-0.23419919610023499,0.07367503643035889
18.1,0.11991333961486816,-0.05678657069802284,-0.18745416402816772,-0.2187497466802597,-0.24705472588539124,0.10125117748975754
18.125,0.09943545609712601,-0.11904052644968033,-0.1515398770570755,-0.2081221640110016,-0.26572033762931824,0.13250143826007843
18.15,0.08664271235466003,-0.15810206532478333,-0.12604083120822906,-0.1928808093070984,-0.26645970344543457,0.14757415652275085
18.175,0.07025852054357529,-0.14642813801765442,-0.15323929488658905,-0.1756231039762497,-0.2649644911289215,0.15295420587062836
18.2,0.037488579750061035,-0.11611083894968033,-0.17471349239349365,-0.16316965222358704,-0.2743147909641266,0.15033107995986938
18.225,0.035952430218458176,-0.0914774239063263,-0.1526457965373993,-0.14826534688472748,-0.3033232092857361,0.155356302857399
18.25,0.060407690703868866,-0.1008777916431427,-0.1033746674656868,-0.12386203557252884,-0.33378610014915466,0.17004095017910004
18.275,0.07642994821071625,-0.10162069648504257,-0.05671628564596176,-0.09631599485874176,-0.3306836485862732,0.17792382836341858
18.3,0.06868252158164978,-0.08341027796268463,-0.048963405191898346,-0.0727471113204956,-0.29861658811569214,0.17632119357585907
18.325,0.056300755590200424,-0.04117680341005325,-0.028467359021306038,-0.045070722699165344,-0.26635316014289856,0.17369318008422852
18.35,0.03461063653230667,0.018149377778172493,0.005735756829380989,-0.020633747801184654,-0.24710753560066223,0.16852526366710663
18.375,0.010683148168027401,0.059458740055561066,-0.0013756410917267203,0.003322826698422432,-0.24326050281524658,0.16250327229499817
18.4,-0.012038346379995346,0.06819535046815872,0.015835098922252655,0.024493122473359108,-0.25375160574913025,0.16101430356502533
18.425,-0.03237742930650711,0.05607129633426666,0.044972728937864304,0.04331604018807411,-0.26107701659202576,0.15790697932243347
18.45,-0.032891467213630676,0.05392839387059212,0.07873331010341644,0.058162376284599304,-0.25894278287887573,0.15239350497722626
18.475,-0.022527122870087624,0.039677638560533524,0.13381531834602356,0.0669960081577301,-0.2500041425228119,0.14465805888175964
18.5,-0.013905679807066917,0.02663138136267662,0.18517301976680756,0.07273460924625397,-0.22650347650051117,0.12851719558238983
18.525,-0.005439206957817078,0.05284789577126503,0.22115468978881836,0.07123132050037384,-0.2030768096446991,0.11180364340543747
18.55,-0.0033217184245586395,0.08837703615427017,0.2459944784641266,0.07353547215461731,-0.19443872570991516,0.09553766995668411
18.575,-0.026054315268993378,0.11591820418834686,0.2631055414676666,0.06931247562170029,-0.19604574143886566,0.08276903629302979
18.6,-0.01976083591580391,0.13361172378063202,0.23836708068847656,0.06456340849399567,-0.2063683122396469,0.07548049092292786
18.625,-0.0035237669944763184,0.1216307058930397,0.21685074269771576,0.05528593808412552,-0.2138652503490448,0.07015950232744217
18.65,-0.015244707465171814,0.10558418929576874,0.2323579341173172,0.040818486362695694,-0.21612949669361115,0.0659511387348175
18.675,0.01249513030052185,0.11950211226940155,0.24525122344493866,0.02274051308631897,-0.2239346206188202,0.07107114791870117
18.7,0.06544262915849686,0.15862755477428436,0.2253439724445343,0.008359254337847233,-0.23205026984214783,0.07393753528594971
18.725,0.11824231594800949,0.1791420429944992,0.2239343672990799,-0.006155368871986866,-0.23208600282669067,0.08011788874864578
18.75,0.19851352274417877,0.18863016366958618,0.24803568422794342,-0.01645096391439438,-0.22216472029685974,0.08393530547618866
18.775,0.2667596638202667,0.1918230652809143,0.25092455744743347,-0.012463664636015892,-0.2006925791501999,0.07798659056425095
18.8,0.2691541612148285,0.20836453139781952,0.22685718536376953,-0.005164341535419226,-0.1751537322998047,0.0676318109035492
18.825,0.25738024711608887,0.1845112144947052,0.18334324657917023,-0.0012763813138008118,-0.16664724051952362,0.07339105010032654
18.85,0.29674026370048523,0.1742267906665802,0.17007696628570557,0.0022908784449100494,-0.16960151493549347,0.09051238000392914
18.875,0.33826255798339844,0.17190268635749817,0.17662793397903442,0.014277327805757523,-0.14969675242900848,0.10532845556735992
18.9,0.3622395396232605,0.13000205159187317,0.21645797789096832,0.03356221318244934,-0.10623915493488312,0.11298488825559616
18.925,0.3681635856628418,0.06299689412117004,0.24824561178684235,0.06225632131099701,-0.05844986066222191,0.12760581076145172
18.95,0.3508906066417694,0.029201535508036613,0.2691298723220825,0.09761813282966614,0.0068803876638412476,0.13676032423973083
18.975,0.3278576731681824,0.06777576357126236,0.2865006625652313,0.1326601356267929,0.09697337448596954,0.13211606442928314
19.0,0.25700873136520386,0.11072449386119843,0.2837238013744354,0.15969741344451904,0.1975797563791275,0.11103998869657516
19.025,0.1579854041337967,0.14218619465827942,0.18783023953437805,0.17163816094398499,0.2666899859905243,0.08527179807424545
19.05,0.1066673994064331,0.19946293532848358,0.10835307091474533,0.1728832721710205,0.27321529388427734,0.07180102169513702
19.075,0.09486996382474899,0.2978964149951935,0.07205314189195633,0.1559009701013565,0.25989267230033875,0.05940915644168854
19.1,0.08377037197351456,0.500577986240387,0.015336385928094387,0.11840396374464035,0.2442578673362732,0.041037604212760925
19.125,0.025871146470308304,0.7374334931373596,-0.10349161922931671,0.06865487992763519,0.21798719465732574,0.012348009273409843
19.15,-0.06912203878164291,0.8773947954177856,-0.22822588682174683,0.004409098997712135,0.15552902221679688,-0.016710050404071808
19.175,-0.12171673774719238,0.8551445603370667,-0.29428839683532715,-0.06457045674324036,0.007737455889582634,-0.012590148486196995
19.2,-0.08767138421535492,0.7151947617530823,-0.25539419054985046,-0.13778124749660492,-0.160148486495018,0.01993114873766899
19.225,-0.009526573121547699,0.5394745469093323,-0.16470642387866974,-0.20925074815750122,-0.2583085596561432,0.05478256195783615
19.25,0.04219312220811844,0.3721933662891388,-0.08306228369474411,-0.25738343596458435,-0.28434810042381287,0.06703775376081467
19.275,0.04050365462899208,0.24809743463993073,-0.05772180110216141,-0.28747063875198364,-0.24445945024490356,0.04937458038330078
19.3,0.060088202357292175,0.20837977528572083,-0.03718487173318863,-0.2890627086162567,-0.22709211707115173,0.0262076985090971
19.325,0.09765744209289551,0.25480177998542786,-0.017431292682886124,-0.25488215684890747,-0.21195507049560547,-0.018895843997597694
19.35,0.07909257709980011,0.3118906319141388,-0.039829425513744354,-0.2094157189130783,-0.1689370721578598,-0.10247892886400223
19.375,0.04775199294090271,0.3847046494483948,-0.11563577502965927,-0.15377870202064514,-0.14812900125980377,-0.18731768429279327
19.4,0.04129164665937424,0.5080347657203674,-0.18610356748104095,-0.10603873431682587,-0.15573984384536743,-0.25286391377449036
19.425,0.14687712490558624,0.7714090943336487,-0.25678929686546326,-0.07706184685230255,-0.1689305305480957,-0.29878467321395874
19.45,0.3299994468688965,1.2656832933425903,-0.3872900605201721,-0.04634245112538338,-0.17236897349357605,-0.3317153751850128
19.475,0.29677069187164307,1.530184030532837,-0.4274819493293762,0.033899493515491486,-0.1640067994594574,-0.37647029757499695
19.5,0.05228901281952858,0.9127589464187622,-0.09737011045217514,0.11212946474552155,-0.14492982625961304,-0.3900081217288971
19.525,0.08500064164400101,-0.12482541799545288,0.6460675597190857,0.15434160828590393,-0.11942613124847412,-0.25921884179115295
19.55,0.4608849287033081,-0.6944131255149841,1.2996892929077148,0.20455244183540344,0.19858328998088837,-0.17044268548488617
19.575,0.670573890209198,-0.6019067168235779,1.3177510499954224,0.25389987230300903,0.8790765404701233,-0.2731298804283142
19.6,0.5000492334365845,-0.16414731740951538,0.7409927845001221,0.28320246934890747,1.4830358028411865,-0.44839805364608765
19.625,0.08970605581998825,0.1970415562391281,0.11194247752428055,0.28557252883911133,1.6184123754501343,-0.5672280788421631
19.65,-0.23553374409675598,0.21186447143554688,-0.23394085466861725,0.24222823977470398,1.2571910619735718,-0.5752126574516296
19.675,-0.33580178022384644,-0.03423502668738365,-0.2406230866909027,0.14363566040992737,0.6500325798988342,-0.47027477622032166
19.7,-0.162330761551857,-0.2614775002002716,-0.004747006576508284,0.0012046582996845245,0.10033954679965973,-0.3273601531982422
19.725,0.15712115168571472,-0.3250741958618164,0.24200843274593353,-0.14942850172519684,-0.19716466963291168,-0.21011215448379517
19.75,0.35404300689697266,-0.2321462631225586,0.3523555397987366,-0.2696419656276703,-0.23797045648097992,-0.1395779848098755
19.775,0.39818626642227173,-0.09491537511348724,0.34736183285713196,-0.33426883816719055,-0.16051463782787323,-0.10748767107725143
19.8,0.3926622271537781,-0.009424185380339622,0.2843581736087799,-0.349357545375824,-0.09026122838258743,-0.07771363109350204
19.825,0.4255821108818054,0.00022794603137299418,0.22546294331550598,-0.3264111876487732,-0.02936692163348198,-0.043205857276916504
19.85,0.3937801122665405,-0.03874301537871361,0.13582859933376312,-0.2912657856941223,0.08966691792011261,-0.028999561443924904
19.875,0.23798887431621552,-0.07217790186405182,-0.008554485626518726,-0.26415181159973145,0.23853522539138794,-0.019583335146307945
19.9,0.04593866318464279,-0.10301307588815689,-0.1732637584209442,-0.25788116455078125,0.33918026089668274,0.009740612469613552
19.925,-0.08312836289405823,-0.13952259719371796,-0.2918221652507782,-0.2644991874694824,0.36436182260513306,0.06076846644282341
19.95,-0.1525290608406067,-0.17239004373550415,-0.3532548248767853,-0.2784344553947449,0.35669970512390137,0.11171253025531769
19.975,-0.21423162519931793,-0.21638496220111847,-0.38106223940849304,-0.2830391824245453,0.33830195665359497,0.14873908460140228
20.0,-0.31606218218803406,-0.2695923447608948,-0.38205763697624207,-0.2752251625061035,0.31356218457221985,0.17128397524356842
20.025,-0.4085441827774048,-0.3118601441383362,-0.34763261675834656,-0.2598629295825958,0.27529507875442505,0.19195795059204102
20.05,-0.41023996472358704,-0.31626230478286743,-0.33359137177467346,-0.23291927576065063,0.2195427119731903,0.2147131860256195
20.075,-0.37840843200683594,-0.2620421051979065,-0.3147764503955841,-0.18903061747550964,0.1639416366815567,0.21958211064338684
20.1,-0.37977999448776245,-0.2392750382423401,-0.33584821224212646,-0.13778550922870636,0.12632451951503754,0.19041714072227478
20.125,-0.42987605929374695,-0.25896745920181274,-0.37174028158187866,-0.08807530999183655,0.08810168504714966,0.14680799841880798
20.15,-0.4850107431411743,-0.28107553720474243,-0.37686654925346375,-0.04229898005723953,0.028518071398139,0.1237504705786705
20.175,-0.44685882329940796,-0.22204309701919556,-0.35304802656173706,-0.002000924199819565,-0.04831407219171524,0.12273375689983368
20.2,-0.3637549877166748,-0.0980406254529953,-0.3171227276325226,0.032516881823539734,-0.09877416491508484,0.11052990704774857
20.225,-0.38675472140312195,-0.016009360551834106,-0.3084825277328491,0.05107787251472473,-0.1111907809972763,0.0754939466714859
20.25,-0.4518813490867615,0.03796479478478432,-0.32402902841567993,0.06369831413030624,-0.14509443938732147,0.054169345647096634
20.275,-0.4409652352333069,0.09963225573301315,-0.2942838668823242,0.07820841670036316,-0.2238035947084427,0.06315900385379791
20.3,-0.3569886386394501,0.1422271728515625,-0.20792308449745178,0.09550788253545761,-0.2817199230194092,0.06991564482450485
20.325,-0.2829087972640991,0.14328479766845703,-0.1353125423192978,0.10883288830518723,-0.29551851749420166,0.05827152356505394
20.35,-0.23461389541625977,0.14610101282596588,-0.09888362884521484,0.12062008678913116,-0.2844843864440918,0.03944547846913338
20.375,-0.19427251815795898,0.16508866846561432,-0.08030158281326294,0.13509386777877808,-0.28109392523765564,0.026628244668245316
20.4,-0.14293083548545837,0.1861572414636612,-0.011990224942564964,0.1507522314786911,-0.2928171157836914,0.016511866822838783
20.425,-0.09619875252246857,0.18689635396003723,0.06432744115591049,0.1642647534608841,-0.29754897952079773,-0.001201558974571526
20.45,-0.06441091746091843,0.17777350544929504,0.13779640197753906,0.1755622923374176,-0.29079681634902954,-0.022057654336094856
20.475,-0.019196130335330963,0.15845875442028046,0.20195543766021729,0.1894172728061676,-0.29001569747924805,-0.03413975238800049
20.5,0.015423621982336044,0.1309071034193039,0.2519303858280182,0.19631661474704742,-0.28703364729881287,-0.03996608778834343
20.525,0.05633842945098877,0.11720375716686249,0.28493732213974,0.19193841516971588,-0.2883736789226532,-0.04031668230891228
20.55,0.10553565621376038,0.1767588108778,0.3134215772151947,0.18337157368659973,-0.3006652295589447,-0.032723765820264816
20.575,0.131242036819458,0.26594454050064087,0.29296284914016724,0.16361801326274872,-0.3046235144138336,-0.029541058465838432
20.6,0.11846649646759033,0.3680124878883362,0.26545876264572144,0.1338948756456375,-0.3182526230812073,-0.020443372428417206
20.625,0.10818441212177277,0.46531781554222107,0.2924550771713257,0.10317594558000565,-0.34569206833839417,0.0038726681377738714
20.65,0.11319079995155334,0.5453416109085083,0.34574154019355774,0.07225672155618668,-0.3595873713493347,0.0362323597073555
20.675,0.11829311400651932,0.595307469367981,0.3989149332046509,0.044546063989400864,-0.32628607749938965,0.05957973003387451
20.7,0.08586420863866806,0.58790123462677,0.4204326868057251,0.026806529611349106,-0.25164899230003357,0.06070195883512497
20.725,-0.004047513008117676,0.547857403755188,0.42397022247314453,0.014316895045340061,-0.17173686623573303,0.05408664047718048
20.75,-0.094395212829113,0.4906092882156372,0.40288081765174866,0.0013872897252440453,-0.12795649468898773,0.053643882274627686
20.775,-0.1467648297548294,0.44542989134788513,0.35041457414627075,-0.010483957827091217,-0.10898897796869278,0.047032952308654785
20.8,-0.17928797006607056,0.42473897337913513,0.30979543924331665,-0.018924077972769737,-0.10884829610586166,0.032675232738256454
20.825,-0.20542868971824646,0.3780270516872406,0.29194584488868713,-0.028869546949863434,-0.12181875109672546,0.009538056328892708
20.85,-0.21925991773605347,0.2981424927711487,0.2746516764163971,-0.03861398622393608,-0.1595803052186966,-0.00815510656684637
20.875,-0.20859181880950928,0.26261717081069946,0.25997307896614075,-0.044051893055438995,-0.20587202906608582,-0.022481264546513557
20.9,-0.17199817299842834,0.25319772958755493,0.2669968008995056,-0.04252172261476517,-0.2314186692237854,-0.04134936258196831
20.925,-0.1163405030965805,0.23914533853530884,0.2685660421848297,-0.03636094555258751,-0.24150213599205017,-0.06831803917884827
20.95,-0.06979840993881226,0.2568665146827698,0.21686097979545593,-0.019995205104351044,-0.24757547676563263,-0.08833137899637222
20.975,-0.04990210384130478,0.24758343398571014,0.11491009593009949,-0.009883392602205276,-0.24588267505168915,-0.10845281183719635
21.0,-0.02665676735341549,0.20380881428718567,0.03885805979371071,-0.019586676731705666,-0.23526166379451752,-0.1152043417096138
21.025,-0.005965573713183403,0.1655264049768448,-0.0027285630349069834,-0.03376536816358566,-0.20818203687667847,-0.11190586537122726
21.05,0.016803957521915436,0.1930694878101349,-0.03341401368379593,-0.03957682102918625,-0.1784023493528366,-0.1092042550444603
21.075,0.0137074775993824,0.25437071919441223,-0.027348363772034645,-0.029578547924757004,-0.1623060405254364,-0.10488986223936081
21.1,-0.006915978156030178,0.2555551826953888,-0.00999841932207346,-0.01735083758831024,-0.1405303180217743,-0.10817908495664597
21.125,-0.014461938291788101,0.2494974434375763,0.021331897005438805,-0.0013996288180351257,-0.12114788591861725,-0.10582603514194489
21.15,-0.030049260705709457,0.2700987160205841,0.03894774243235588,0.01929638907313347,-0.09615740925073624,-0.11063167452812195
21.175,-0.06504780799150467,0.2604351341724396,0.003555822419002652,0.029680822044610977,-0.06054753065109253,-0.12946520745754242
21.2,-0.09692538529634476,0.21592620015144348,-0.05252014473080635,0.031040731817483902,-0.050167251378297806,-0.14049836993217468
21.225,-0.11171123385429382,0.1780252605676651,-0.056572526693344116,0.02474936842918396,-0.07613519579172134,-0.13494937121868134
21.25,-0.09216056764125824,0.12300397455692291,0.005573832895606756,0.020708318799734116,-0.10853073745965958,-0.12903892993927002
21.275,-0.09489013254642487,0.05252554267644882,0.11158276349306107,0.022623324766755104,-0.12207049876451492,-0.12751427292823792
21.3,-0.17652225494384766,-0.026752445846796036,0.22521790862083435,0.03062881901860237,-0.12948769330978394,-0.1298343539237976
21.325,-0.2622537910938263,-0.047058071941137314,0.2978377044200897,0.03694521635770798,-0.1617349088191986,-0.13416215777397156
21.35,-0.30829918384552,0.006926580797880888,0.3148689270019531,0.023375261574983597,-0.24927885830402374,-0.1368350237607956
21.375,-0.35103875398635864,0.10819918662309647,0.3535362482070923,-0.020899787545204163,-0.36904436349868774,-0.15175122022628784
21.4,-0.3929828405380249,0.20333775877952576,0.43943241238594055,-0.08913278579711914,-0.5170696377754211,-0.17738820612430573
21.425,-0.40396034717559814,0.3329697847366333,0.6164620518684387,-0.18254762887954712,-0.6460511088371277,-0.2298872321844101
21.45,-0.29678696393966675,0.45411795377731323,0.8436886072158813,-0.279095858335495,-0.7499954700469971,-0.25873368978500366
21.475,-0.169206440448761,0.5075942873954773,1.0168824195861816,-0.34789174795150757,-0.7561148405075073,-0.2880750000476837
21.5,-0.02224959433078766,0.38207167387008667,1.0464904308319092,-0.4229464530944824,-0.6987320780754089,-0.2884308695793152
21.525,0.0876644104719162,0.16571344435214996,0.9931052923202515,-0.49682295322418213,-0.5699968934059143,-0.26209717988967896
21.55,0.15955372154712677,0.0969763919711113,0.8347161412239075,-0.506169319152832,-0.39913055300712585,-0.232201486825943
21.575,0.25878602266311646,0.15508754551410675,0.5787373781204224,-0.46016618609428406,-0.21327820420265198,-0.2107953131198883
21.6,0.40334057807922363,0.14098362624645233,0.2917192578315735,-0.38293933868408203,-0.08021479099988937,-0.18188722431659698
21.625,0.49237310886383057,-0.03960895910859108,0.08932974189519882,-0.2943955957889557,0.034190833568573,-0.1343722939491272
21.65,0.4972294867038727,-0.3522224724292755,-0.03279717639088631,-0.22565726935863495,0.15532700717449188,-0.07400627434253693
21.675,0.5075858235359192,-0.6466990113258362,-0.09729868918657303,-0.1693616509437561,0.2847360670566559,0.0005737174651585519
21.7,0.5763270258903503,-0.8320934176445007,-0.1641855388879776,-0.11885813623666763,0.418870747089386,0.061628419905900955
21.725,0.6596893668174744,-0.7951938509941101,-0.34112676978111267,-0.06355708092451096,0.5435686707496643,0.09986453503370285
21.75,0.7213844060897827,-0.5648995637893677,-0.6156995892524719,0.012197213247418404,0.6128923296928406,0.13386310636997223
21.775,0.6665769815444946,-0.3443051874637604,-0.8665164113044739,0.11517824232578278,0.5901245474815369,0.17298080027103424
21.8,0.4742160737514496,-0.36588969826698303,-1.0443222522735596,0.19833528995513916,0.5143110156059265,0.20522558689117432
21.825,0.22601687908172607,-0.5302707552909851,-1.1276262998580933,0.2196679264307022,0.41449686884880066,0.2653607726097107
21.85,0.019815072417259216,-0.6107694506645203,-1.1647372245788574,0.20206792652606964,0.33415424823760986,0.34053340554237366
21.875,-0.057790666818618774,-0.5101539492607117,-1.133255958557129,0.18701942265033722,0.279140830039978,0.3906448483467102
21.9,-0.10994000732898712,-0.2589074671268463,-1.0259346961975098,0.21201921999454498,0.24370373785495758,0.3946095407009125
21.925,-0.24573850631713867,0.036707788705825806,-0.8234058618545532,0.27600958943367004,0.17540499567985535,0.39439713954925537
21.95,-0.40828171372413635,0.194271057844162,-0.5433662533760071,0.366482675075531,0.037482328712940216,0.41129034757614136
21.975,-0.4846111536026001,0.19944573938846588,-0.2451600730419159,0.4618133306503296,-0.0984414592385292,0.41829317808151245
22.0,-0.4360342025756836,0.19212345778942108,0.04459322988986969,0.5676382780075073,-0.1387968808412552,0.40598538517951965
22.025,-0.39891910552978516,0.27796465158462524,0.213960662484169,0.6674273014068604,-0.004366095177829266,0.32681089639663696
22.05,-0.471260130405426,0.3921433389186859,0.16945256292819977,0.7289624214172363,0.20560775697231293,0.20845413208007812
22.075,-0.6091861724853516,0.4490090012550354,0.018669994547963142,0.7266104221343994,0.3216012120246887,0.1166771799325943
22.1,-0.6506373882293701,0.4505625367164612,-0.018926208838820457,0.679332435131073,0.24322514235973358,0.09189920127391815
22.125,-0.5212525725364685,0.40985307097435,0.13002480566501617,0.6187686920166016,0.05023522675037384,0.09912356734275818
22.15,-0.32560911774635315,0.38146698474884033,0.3647717237472534,0.5624788999557495,-0.10652965307235718,0.08461615443229675
22.175,-0.17724725604057312,0.37061795592308044,0.5689284205436707,0.5141648054122925,-0.1741154044866562,0.03913424536585808
22.2,-0.09136328846216202,0.3831121027469635,0.6996647119522095,0.45959898829460144,-0.18950255215168,-0.00787663459777832
22.225,-0.012337006628513336,0.4449712336063385,0.7092966437339783,0.3873242437839508,-0.20172525942325592,-0.038836635649204254
22.25,0.1017652228474617,0.5191041231155396,0.6580163240432739,0.29628631472587585,-0.22827793657779694,-0.05329480394721031
22.275,0.19809839129447937,0.5662375688552856,0.6173110604286194,0.19110701978206635,-0.257491797208786,-0.05629517883062363
22.3,0.29877832531929016,0.587708592414856,0.5879096388816833,0.07880168408155441,-0.2775217592716217,-0.04541398957371712
22.325,0.4065679907798767,0.5745326280593872,0.5791582465171814,-0.029152344912290573,-0.2903302013874054,-0.021725254133343697
22.35,0.46136486530303955,0.5308409929275513,0.5814424157142639,-0.11953622102737427,-0.2810203731060028,-0.00017684881458990276
22.375,0.49319174885749817,0.4808236360549927,0.5647225975990295,-0.19556447863578796,-0.252240926027298,0.020509742200374603
22.4,0.5495142936706543,0.4100381135940552,0.5053077340126038,-0.2612909972667694,-0.20856858789920807,0.04185378551483154
22.425,0.5925228595733643,0.3349180817604065,0.4152924418449402,-0.3101457357406616,-0.14891250431537628,0.05891609191894531
22.45,0.5729217529296875,0.2920876145362854,0.30051496624946594,-0.34060433506965637,-0.07102523744106293,0.06977237015962601
22.475,0.5101287364959717,0.2638597786426544,0.18655696511268616,-0.3622722625732422,0.0033041408751159906,0.07835882902145386
22.5,0.4871980547904968,0.26561644673347473,0.11121540516614914,-0.37429124116897583,0.040991105139255524,0.09648337215185165
22.525,0.5092658996582031,0.28632739186286926,0.10583921521902084,-0.3556836247444153,0.05894215404987335,0.12336315959692001
22.55,0.49632832407951355,0.299808531999588,0.1312882900238037,-0.30091604590415955,0.11193070560693741,0.12972544133663177
22.575,0.44972342252731323,0.32140830159187317,0.1414555162191391,-0.22832731902599335,0.19624637067317963,0.11907634884119034
22.6,0.423700213432312,0.37992674112319946,0.16826792061328888,-0.15155057609081268,0.2927570044994354,0.10484472662210464
22.625,0.39324110746383667,0.45741182565689087,0.13495370745658875,-0.0741795003414154,0.43159472942352295,0.06377732008695602
22.65,0.29156458377838135,0.5160675644874573,0.04043177142739296,-0.0060884724371135235,0.5895738005638123,0.001162384869530797
22.675,0.16596664488315582,0.5335035920143127,-0.018255924805998802,0.03911382704973221,0.6972793340682983,-0.05475904420018196
22.7,0.09175076335668564,0.5086575150489807,-0.03369994834065437,0.0691058337688446,0.7425172328948975,-0.09408155083656311
22.725,0.07540357857942581,0.5035439133644104,0.008354457095265388,0.09035225212574005,0.744878351688385,-0.12014451622962952
22.75,0.07823638617992401,0.4740830063819885,0.0646723285317421,0.10794058442115784,0.7527479529380798,-0.1507229208946228
22.775,0.045591093599796295,0.38688188791275024,0.09331408143043518,0.10629785805940628,0.7845775485038757,-0.18935996294021606
22.8,0.012135902419686317,0.35465720295906067,0.11386778950691223,0.09879432618618011,0.8040467500686646,-0.21088482439517975
22.825,0.0022058170288801193,0.3844471573829651,0.1253294199705124,0.08590750396251678,0.8072457909584045,-0.23038558661937714
22.85,0.010260667651891708,0.42548760771751404,0.13117757439613342,0.0671045258641243,0.8045240640640259,-0.25316840410232544
22.875,0.01181027851998806,0.43560513854026794,0.1644723117351532,0.0429394394159317,0.7923787832260132,-0.273893803358078
22.9,0.03638165816664696,0.4221220910549164,0.18814711272716522,0.01828658953309059,0.7721078395843506,-0.29117482900619507
22.925,0.07376417517662048,0.38583287596702576,0.17622390389442444,-0.0037492066621780396,0.7644978165626526,-0.3124985992908478
22.95,0.07174751907587051,0.34940245747566223,0.13770584762096405,-0.026113338768482208,0.7594281435012817,-0.33724308013916016
22.975,0.07656623423099518,0.286502867937088,0.08785570412874222,-0.05755773186683655,0.7361605763435364,-0.35241952538490295
23.0,0.1028115302324295,0.1996183693408966,0.040984537452459335,-0.09439922869205475,0.6947095990180969,-0.3494739532470703
23.025,0.15162229537963867,0.14763738214969635,0.01443430595099926,-0.12746165692806244,0.6522007584571838,-0.33943668007850647
23.05,0.201272651553154,0.10737992078065872,-0.015240063890814781,-0.15560036897659302,0.6203657984733582,-0.3274673819541931
23.075,0.2453336864709854,0.04085826128721237,-0.03989899903535843,-0.1756543219089508,0.5908834934234619,-0.31106144189834595
23.1,0.2766989767551422,-0.05380251258611679,-0.08238255232572556,-0.1978883445262909,0.5680815577507019,-0.28932011127471924
23.125,0.30594319105148315,-0.1623726338148117,-0.14824774861335754,-0.2153090536594391,0.5489825010299683,-0.2589641213417053
23.15,0.3205355107784271,-0.2798786759376526,-0.23215943574905396,-0.22778531908988953,0.5264354348182678,-0.2259110063314438
23.175,0.2957819998264313,-0.36983972787857056,-0.3156212270259857,-0.24083849787712097,0.49186229705810547,-0.18725676834583282
23.2,0.2752150297164917,-0.42083561420440674,-0.3802155554294586,-0.2526360750198364,0.4418178200721741,-0.13870610296726227
23.225,0.2847591042518616,-0.4534960985183716,-0.416675865650177,-0.2566250264644623,0.3805072605609894,-0.07970988005399704
23.25,0.3222736120223999,-0.467448353767395,-0.4382750988006592,-0.24874015152454376,0.3257736265659332,-0.02282450906932354
23.275,0.324579656124115,-0.4746896028518677,-0.4749825596809387,-0.2270970344543457,0.30215317010879517,0.02496485225856304
23.3,0.28159046173095703,-0.46899712085723877,-0.48977628350257874,-0.19472433626651764,0.3021237254142761,0.0622233971953392
23.325,0.22189339995384216,-0.43679916858673096,-0.41891050338745117,-0.14932851493358612,0.3112197816371918,0.0981389582157135
23.35,0.1678083837032318,-0.4014378786087036,-0.3632175922393799,-0.09492255747318268,0.33009907603263855,0.13123644888401031
23.375,0.11810722947120667,-0.3851347863674164,-0.35975977778434753,-0.03821665048599243,0.3670992851257324,0.15350575745105743
23.4,0.044463593512773514,-0.34829244017601013,-0.377236932516098,0.010255731642246246,0.40993446111679077,0.1651519238948822
23.425,-0.046136222779750824,-0.2637206017971039,-0.3998141586780548,0.056269802153110504,0.42695698142051697,0.170497328042984
23.45,-0.14913547039031982,-0.14362436532974243,-0.38214218616485596,0.09698723256587982,0.41757968068122864,0.17273195087909698
23.475,-0.2594659626483917,-0.026840245351195335,-0.3073900640010834,0.12647846341133118,0.3893587589263916,0.17174962162971497
23.5,-0.3242207169532776,0.032417282462120056,-0.21271288394927979,0.15709680318832397,0.3455370366573334,0.17677390575408936
23.525,-0.3568747639656067,0.0665130615234375,-0.1182841882109642,0.18298229575157166,0.32333850860595703,0.17263266444206238
23.55,-0.3783062696456909,0.14362050592899323,-0.04628777131438255,0.20000137388706207,0.3173445761203766,0.1546870619058609
23.575,-0.41450291872024536,0.24621491134166718,0.02401675283908844,0.2119838297367096,0.3107728362083435,0.12699539959430695
23.6,-0.46555787324905396,0.319064199924469,0.09494476020336151,0.2213110774755478,0.2868116796016693,0.09667075425386429
23.625,-0.4845017194747925,0.33893972635269165,0.16169913113117218,0.2204735428094864,0.23833158612251282,0.0787956491112709
23.65,-0.4736243784427643,0.3358936905860901,0.24515502154827118,0.21344268321990967,0.18751947581768036,0.0618266798555851
