Time [s],Acc_x [m/s^2],Acc_y [m/s^2],Acc_z [m/s^2],Gyro_x [1/s],Gyro_y [1/s],Gyro_z [1/s]
0.0,0.0004170550964772701,-0.13714314997196198,0.0005933988140895963,0.0017913118936121464,-0.00976600218564272,-0.0014095306396484375
0.025,0.00430079223588109,-0.13433267176151276,-0.00022716046078130603,0.0017559971893206239,-0.009710277430713177,-0.0013765336479991674
0.05,0.023011906072497368,-0.12300588190555573,-0.004474078305065632,0.0008226578356698155,-0.007966469042003155,-0.00042929043411277235
0.075,0.06161648780107498,-0.10678578913211823,-0.009392914362251759,-0.002136223018169403,0.0038658820558339357,0.004363720770925283
0.1,0.09045141190290451,-0.10267545282840729,-0.0047887638211250305,-0.003989549353718758,0.02541799657046795,0.011282379738986492
0.125,0.09163045883178711,-0.10812188684940338,-0.005791479721665382,-0.0051582069136202335,0.02127671428024769,0.011259220540523529
0.15,0.08949711918830872,-0.11780359596014023,-0.030335016548633575,-0.003915742505341768,0.002531281905248761,0.009168996475636959
0.175,0.072004035115242,-0.13061906397342682,-0.03563167154788971,-0.002583190565928817,-0.013187509030103683,0.006867585703730583
0.2,0.036135293543338776,-0.1422271877527237,-0.021462751552462578,-0.0027274424210190773,-0.015365414321422577,0.004202978685498238
0.225,0.001435479149222374,-0.15028001368045807,-0.03385773301124573,-0.006019414868205786,-0.015964556485414505,0.0055980077013373375
0.25,-0.018591439351439476,-0.1309070736169815,-0.061306919902563095,-0.008046331815421581,-0.011847708374261856,0.00616392632946372
0.275,0.003378128632903099,-0.11193182319402695,-0.06710664182901382,-0.009755981154739857,-0.0019582926761358976,0.004639760125428438
0.3,0.039524517953395844,-0.10343363136053085,-0.05181550234556198,-0.008846872486174107,0.009776631370186806,0.005412951111793518
0.325,0.05143597722053528,-0.10914423316717148,-0.03432159125804901,-0.006112060509622097,0.008752579800784588,0.005822344683110714
0.35,0.03552614152431488,-0.129488006234169,-0.028929321095347404,-0.003034545574337244,0.0015367226442322135,0.0035264198668301105
0.375,0.02478930912911892,-0.13899804651737213,-0.03468729183077812,-0.001798516372218728,-0.003936480730772018,0.0019415534334257245
0.4,0.005785527639091015,-0.13116933405399323,-0.047727033495903015,-0.0017904170090332627,-0.0030559857841581106,0.0014839837094768882
0.425,-0.008899450302124023,-0.1150675043463707,-0.06321080774068832,-0.0014166131149977446,0.0019771531224250793,7.483565423171967e-05
0.45,0.013007793575525284,-0.10051920264959335,-0.06898418068885803,0.0005375638138502836,0.008201785385608673,-0.0010886014206334949
0.475,0.03485853970050812,-0.10779096931219101,-0.0404822900891304,0.0021042146254330873,0.008413376286625862,-0.0014579611597582698
0.5,0.029221808537840843,-0.12186910212039948,-0.016069766134023666,0.00311779766343534,0.007673360873013735,-0.0019882891792804003
0.525,0.005267256870865822,-0.12906648218631744,-0.02845092862844467,0.004780192393809557,0.005175253842025995,-0.0030520351137965918
0.55,-0.016668420284986496,-0.13378144800662994,-0.05485519394278526,0.0014556896639987826,0.003150285454466939,-0.002204262651503086
0.575,-0.008183048106729984,-0.12378790229558945,-0.06595490127801895,0.00014610102516599,0.003974547144025564,-0.003232428105548024
0.6,0.03243626281619072,-0.10473921149969101,-0.04536096751689911,0.00158770103007555,0.012676287442445755,-0.004175229929387569
0.625,0.05365057289600372,-0.11495592445135117,-0.03459532558917999,0.0024676742032170296,0.013078536838293076,-0.0029755604919046164
0.65,0.02336152456700802,-0.13772965967655182,-0.04481856897473335,0.0035913148894906044,-0.0004938400234095752,-0.003389115910977125
0.675,-0.03878719359636307,-0.14293862879276276,-0.046388138085603714,0.001851084060035646,-0.009680531919002533,-0.0005425073322840035
0.7,-0.06368591636419296,-0.1256866604089737,-0.05741657316684723,-0.0037986370734870434,0.0030048186890780926,0.0034637749195098877
0.725,-0.04951390624046326,-0.12206269800662994,-0.03238934278488159,-0.0039602178148925304,0.033403512090444565,0.011282079853117466
0.75,0.011844218708574772,-0.12040425837039948,0.007150638848543167,-0.0040667178109288216,0.042250070720911026,0.01492722611874342
0.775,0.07076438516378403,-0.11684323847293854,0.01527342852205038,-0.002895280020311475,0.027268270030617714,0.012214486487209797
0.8,0.0645216703414917,-0.11758138239383698,-0.009349900297820568,-0.0029159896075725555,0.005908976309001446,0.009145734831690788
0.825,-0.0027313074097037315,-0.12300016731023788,-0.032382164150476456,-0.006206733174622059,0.00033620544127188623,0.008921058848500252
0.85,-0.05849630385637283,-0.1151447519659996,-0.05521250143647194,-0.011201325803995132,0.008813214488327503,0.009484535083174706
0.875,-0.04694628342986107,-0.1080332025885582,-0.06822455674409866,-0.013295549899339676,0.020232591778039932,0.009552664123475552
0.9,-0.002244990784674883,-0.11366751044988632,-0.045160483568906784,-0.01452634483575821,0.02347085438668728,0.010962998494505882
0.925,0.028032954782247543,-0.1332578808069229,0.005305649247020483,-0.0140911266207695,0.02945709228515625,0.010198683477938175
0.95,0.04791760444641113,-0.13567639887332916,0.03857356309890747,-0.012283590622246265,0.02480289712548256,0.009218767285346985
0.975,0.03488583862781525,-0.12664224207401276,0.02317574806511402,-0.01144426129758358,0.009391237050294876,0.006639941595494747
1.0,0.0011147037148475647,-0.1394529491662979,-0.009018229320645332,-0.011373930610716343,0.004929638933390379,0.004300107713788748
1.025,-0.013339489698410034,-0.14861489832401276,-0.024037104099988937,-0.009111471474170685,0.010967410169541836,0.004579553846269846
1.05,-0.021758519113063812,-0.1408987194299698,-0.010092838667333126,-0.007105473894625902,0.014669578522443771,0.003422199282795191
1.075,-0.011078078299760818,-0.12695123255252838,0.011920865625143051,-0.004404885228723288,0.016428086906671524,0.00315687945112586
1.1,0.021087095141410828,-0.11466600000858307,0.02794227935373783,-0.0012505295453593135,0.01392446830868721,0.0006177378236316144
1.125,0.022256433963775635,-0.10824300348758698,0.024045312777161598,0.0009925890481099486,0.005641131661832333,-0.0012830460909754038
1.15,-0.02778993360698223,-0.11638452112674713,-0.009544026106595993,0.003652594517916441,-0.003547297790646553,-0.0029089944437146187
1.175,-0.041558071970939636,-0.1320066601037979,-0.04327501356601715,0.003372058505192399,-0.004392814822494984,-0.004758793395012617
1.2,-0.0006194715388119221,-0.13564683496952057,-0.0380745604634285,0.0037008151412010193,0.0029000532813370228,-0.003940400667488575
1.225,0.049952246248722076,-0.1405506283044815,0.0120701864361763,0.004632937256246805,0.006752170156687498,-0.005082545801997185
1.25,0.08055295050144196,-0.1600484997034073,0.04162107780575752,0.007685454562306404,-0.0034877806901931763,-0.0068618496879935265
1.275,0.047517042607069016,-0.16869546473026276,0.021598564460873604,0.007838760502636433,-0.01822877675294876,-0.007406250108033419
1.3,-0.03025321662425995,-0.160432830452919,-0.008417573757469654,0.003376161213964224,-0.030442634597420692,-0.0026843533851206303
1.325,-0.0703076720237732,-0.16262151300907135,-0.05389263108372688,-0.0028628744184970856,-0.02380869910120964,0.008022353984415531
1.35,-0.03831862285733223,-0.17270472645759583,-0.07215437293052673,-0.01030223723500967,-0.0030982084572315216,0.020385324954986572
1.375,-0.014397772029042244,-0.1719236671924591,-0.06753681600093842,-0.022365489974617958,0.004668701905757189,0.031137097626924515
1.4,-0.02638252079486847,-0.16479209065437317,-0.07138605415821075,-0.034082092344760895,-0.004821880254894495,0.03828950226306915
1.425,-0.020542515441775322,-0.17384053766727448,-0.06638089567422867,-0.04563175514340401,-0.019498644396662712,0.04381832852959633
1.45,0.0211741104722023,-0.17319299280643463,-0.04034963995218277,-0.05674952268600464,-0.023134076967835426,0.04850667342543602
1.475,0.055451650172472,-0.15851403772830963,-0.002451459178701043,-0.07089632749557495,-0.03059963881969452,0.05097959190607071
1.5,0.08509787172079086,-0.0751657485961914,0.10348667204380035,-0.08466661721467972,-0.05835113674402237,0.055380385369062424
1.525,0.10738867521286011,0.14932064712047577,0.29265668988227844,-0.10495961457490921,-0.11373520642518997,0.060168273746967316
1.55,0.09058476239442825,0.5060082077980042,0.2554084062576294,-0.13048580288887024,-0.2009505033493042,0.023522989824414253
1.575,-0.011132974177598953,0.6442022919654846,-0.2211563140153885,-0.10667063295841217,-0.35335370898246765,-0.14487376809120178
1.6,-0.051023274660110474,0.3357924818992615,-0.6569108366966248,0.024995632469654083,-0.46226364374160767,-0.35588279366493225
1.625,0.4557245969772339,0.05730047449469566,-0.7674981951713562,0.2015608251094818,-0.3055199384689331,-0.4254053235054016
1.65,1.3391560316085815,0.00382989295758307,-0.3101236820220947,0.40174388885498047,-0.2765650153160095,-0.3016076385974884
1.675,1.784645438194275,0.09815505146980286,0.42477819323539734,0.5259741544723511,-0.4525808095932007,-0.11753363907337189
1.7,1.5447871685028076,0.10914435982704163,1.4229474067687988,0.580244243144989,-0.4931812286376953,0.039523977786302567
1.725,1.1910443305969238,-0.10017181932926178,2.2194628715515137,0.49422401189804077,-0.4365626275539398,0.12280093878507614
1.75,0.8831913471221924,-0.4256771206855774,2.241312265396118,0.3775697648525238,-0.5264359712600708,0.20817899703979492
1.775,0.22285225987434387,-0.7354210019111633,1.8170970678329468,0.28943735361099243,-0.7280171513557434,0.2654907703399658
1.8,-0.7170096635818481,-0.8328408598899841,1.4705288410186768,0.19456888735294342,-0.801310122013092,0.25736328959465027
1.825,-1.414152979850769,-0.6512583494186401,1.2034751176834106,0.11463400721549988,-0.8700817823410034,0.09819307178258896
1.85,-1.4563957452774048,-0.330223947763443,0.6821306347846985,0.041911475360393524,-1.1154820919036865,-0.11312013119459152
1.875,-0.8770686388015747,-0.04915715008974075,-0.1424788534641266,0.03418119251728058,-1.3508567810058594,-0.22807560861110687
1.9,-0.3410799503326416,0.15713590383529663,-0.7079039216041565,0.0777105838060379,-1.2914237976074219,-0.2204340249300003
1.925,-0.16533997654914856,0.3401431441307068,-0.755519688129425,0.10218644887208939,-0.9870173931121826,-0.13664990663528442
1.95,-0.05317354202270508,0.4858970642089844,-0.6372086405754089,0.1441619098186493,-0.8726497292518616,-0.05490328371524811
1.975,-0.01549471914768219,0.5586042404174805,-0.622846245765686,0.2221696674823761,-1.0611963272094727,0.03563093766570091
2.0,-0.15533196926116943,0.6154775619506836,-0.4814772605895996,0.2626083493232727,-1.1084331274032593,0.10425260663032532
2.025,-0.11916946619749069,0.5758839249610901,-0.15632720291614532,0.2512608468532562,-1.045151710510254,0.15470895171165466
2.05,-0.018894316628575325,0.4201355576515198,-0.11450406163930893,0.19456073641777039,-1.1364870071411133,0.2368585467338562
2.075,-0.16623462736606598,0.22534845769405365,-0.40534505248069763,0.1302119791507721,-1.2633438110351562,0.29793399572372437
2.1,-0.4629712402820587,-0.009739947505295277,-0.6846804618835449,0.03442537784576416,-1.2580574750900269,0.33867040276527405
2.125,-0.737059473991394,-0.08762846142053604,-0.9133085608482361,-0.06943056732416153,-1.082911491394043,0.36849626898765564
2.15,-0.8190541863441467,-0.0676204189658165,-1.2735671997070312,-0.18102967739105225,-0.9388319253921509,0.3841359317302704
2.175,-0.45852792263031006,-0.1729423850774765,-1.7961642742156982,-0.2722490429878235,-0.7962033152580261,0.3578644394874573
2.2,0.05848217010498047,-0.42107710242271423,-2.320751905441284,-0.3256499767303467,-0.6516715288162231,0.36119499802589417
2.225,0.34819167852401733,-0.6548923254013062,-2.491976499557495,-0.3540867567062378,-0.372619092464447,0.3947163224220276
2.25,0.4152153432369232,-0.8342394232749939,-2.297319173812866,-0.37469884753227234,-0.18200261890888214,0.40730777382850647
2.275,0.458052396774292,-0.9135726690292358,-1.941388726234436,-0.3487212657928467,-0.1573939025402069,0.3821449875831604
2.3,0.4765271544456482,-0.9125350117683411,-1.6031832695007324,-0.287100225687027,-0.2347332388162613,0.33750200271606445
2.325,0.36614084243774414,-0.9598706364631653,-1.3452074527740479,-0.22963005304336548,-0.3339879810810089,0.27753663063049316
2.35,0.21022847294807434,-1.1115591526031494,-1.1773152351379395,-0.1983255296945572,-0.4372710585594177,0.21206560730934143
2.375,0.13911274075508118,-1.2989027500152588,-1.1264607906341553,-0.19751214981079102,-0.512570321559906,0.14030015468597412
2.4,0.15429812669754028,-1.4881012439727783,-1.0947154760360718,-0.22059595584869385,-0.507682204246521,0.06183948367834091
2.425,0.20261068642139435,-1.6863540410995483,-0.9500861763954163,-0.24998486042022705,-0.43418750166893005,-0.017139285802841187
2.45,0.26026350259780884,-1.7779945135116577,-0.6553821563720703,-0.25890591740608215,-0.36163726449012756,-0.11832539737224579
2.475,0.23416182398796082,-1.5352013111114502,-0.20781594514846802,-0.24194516241550446,-0.3416704833507538,-0.23714035749435425
2.5,-0.04475970193743706,-0.9619284272193909,0.2568737268447876,-0.20595145225524902,-0.3960036039352417,-0.3419967591762543
2.525,-0.44859644770622253,-0.3751192092895508,0.4277871251106262,-0.1506274789571762,-0.5687288045883179,-0.4004462957382202
2.55,-0.6277340650558472,-0.1714620590209961,-0.025461507961153984,-0.12175284326076508,-0.8795464038848877,-0.43617236614227295
2.575,-0.5615100860595703,-0.4291355013847351,-0.9920341372489929,-0.15794961154460907,-1.1690990924835205,-0.49603962898254395
2.6,-0.31626829504966736,-0.6995232701301575,-1.9436229467391968,-0.21648886799812317,-1.2563838958740234,-0.6009397506713867
2.625,0.09734311699867249,-0.644405722618103,-2.3395872116088867,-0.24615764617919922,-1.0689901113510132,-0.6933919787406921
2.65,0.48860904574394226,-0.42361292243003845,-2.105315685272217,-0.2421371042728424,-0.7250490784645081,-0.700139045715332
2.675,0.6069535613059998,-0.32674527168273926,-1.6050724983215332,-0.19212335348129272,-0.4546869397163391,-0.6301310658454895
2.7,0.4877253472805023,-0.3392755389213562,-1.0751968622207642,-0.09384395182132721,-0.35281938314437866,-0.5436729788780212
2.725,0.36726662516593933,-0.292822927236557,-0.5060920119285583,0.0033685266971588135,-0.41023191809654236,-0.486396849155426
2.75,0.3880460262298584,-0.14165404438972473,-0.010398300364613533,0.06147400289773941,-0.5861936211585999,-0.45097815990448
2.775,0.3921043872833252,0.023787522688508034,0.2373667061328888,0.0804089829325676,-0.7397856116294861,-0.4240973889827728
2.8,0.21528130769729614,0.10388092696666718,0.26296016573905945,0.08019877970218658,-0.7488324642181396,-0.3958014249801636
2.825,-0.031827010214328766,0.13614659011363983,0.23733851313591003,0.06588020920753479,-0.7001675367355347,-0.36509159207344055
2.85,-0.23630857467651367,0.20455364882946014,0.1348247528076172,0.019673820585012436,-0.7192953824996948,-0.3266088366508484
2.875,-0.37816759943962097,0.38456350564956665,-0.12348028272390366,-0.03992519527673721,-0.8071632385253906,-0.2918219268321991
2.9,-0.5046484470367432,0.6662073135375977,-0.5566704869270325,-0.09888912737369537,-0.9167249798774719,-0.2695032060146332
2.925,-0.5372011065483093,0.9426336288452148,-1.0546470880508423,-0.13543646037578583,-0.9471165537834167,-0.2571762204170227
2.95,-0.3483891487121582,1.0915756225585938,-1.4371181726455688,-0.12499768286943436,-0.8896502256393433,-0.2585756480693817
2.975,-0.006942093372344971,0.9778308272361755,-1.6599133014678955,-0.05646427348256111,-0.7863144278526306,-0.2722965478897095
3.0,0.20663456618785858,0.6771048307418823,-1.6407394409179688,0.03335805609822273,-0.6258031725883484,-0.2732258439064026
3.025,0.15153911709785461,0.368764728307724,-1.4132188558578491,0.11808858811855316,-0.46908634901046753,-0.25572746992111206
3.05,0.0342973917722702,0.2303551733493805,-1.0668258666992188,0.1773085743188858,-0.40685853362083435,-0.22125981748104095
3.075,-0.0017619282007217407,0.2936238646507263,-0.7851165533065796,0.17785067856311798,-0.43357357382774353,-0.16690406203269958
3.1,0.022646017372608185,0.4845723807811737,-0.6927839517593384,0.12902484834194183,-0.47931402921676636,-0.08930288255214691
3.125,0.07593013346195221,0.6802176833152771,-0.7557650208473206,0.043629296123981476,-0.49434393644332886,-0.0213669054210186
3.15,0.15223586559295654,0.8256750106811523,-0.8718808889389038,-0.032148100435733795,-0.457744836807251,0.030058976262807846
3.175,0.22439490258693695,1.041010856628418,-0.9831318855285645,-0.08776309341192245,-0.395561546087265,0.06506584584712982
3.2,0.33418023586273193,1.3256092071533203,-1.1365489959716797,-0.14431500434875488,-0.3215804398059845,0.09401387721300125
3.225,0.5014649629592896,1.5255929231643677,-1.3528687953948975,-0.1731088012456894,-0.21212421357631683,0.12378411740064621
3.25,0.5805648565292358,1.570089340209961,-1.5189000368118286,-0.16381223499774933,-0.09858720004558563,0.17099329829216003
3.275,0.5360212326049805,1.4593018293380737,-1.6359269618988037,-0.15734334290027618,-0.054178547114133835,0.2328168749809265
3.3,0.4883961081504822,1.1940172910690308,-1.7395626306533813,-0.15141935646533966,-0.08357462286949158,0.2967822551727295
3.325,0.48380470275878906,0.8150700330734253,-1.7290239334106445,-0.09847261756658554,-0.1262565404176712,0.3644402027130127
3.35,0.4764304459095001,0.4211195707321167,-1.5549609661102295,-0.033493850380182266,-0.16159653663635254,0.4494490623474121
3.375,0.40202194452285767,0.08771786093711853,-1.266522765159607,0.027495115995407104,-0.14451156556606293,0.5527578592300415
3.4,0.22532415390014648,-0.14822877943515778,-0.9499631524085999,0.08796320110559464,-0.0885474756360054,0.6494230628013611
3.425,-0.007817953824996948,-0.3178359270095825,-0.7689332365989685,0.11266478896141052,-0.05867750942707062,0.7135565280914307
3.45,-0.19974161684513092,-0.4513770639896393,-0.7655878067016602,0.10773114860057831,-0.07239598780870438,0.7525086402893066
3.475,-0.3565554618835449,-0.5865928530693054,-0.8956345915794373,0.1006244570016861,-0.10631448775529861,0.7764449119567871
3.5,-0.5261796712875366,-0.8126003742218018,-1.0859068632125854,0.09590651094913483,-0.13674357533454895,0.8215547800064087
3.525,-0.6645758152008057,-1.1549427509307861,-1.2200636863708496,0.10868258774280548,-0.17962121963500977,0.8835428953170776
3.55,-0.8265558481216431,-1.6050761938095093,-1.151224970817566,0.14329314231872559,-0.20277570188045502,0.9475990533828735
3.575,-1.123216152191162,-2.053966760635376,-0.8345383405685425,0.1838400512933731,-0.19211256504058838,1.0089391469955444
3.6,-1.6358485221862793,-2.0862600803375244,-0.3355272710323334,0.2117360532283783,-0.19594484567642212,1.0518674850463867
3.625,-2.390871047973633,-1.572210431098938,0.22951678931713104,0.15835024416446686,-0.21132448315620422,1.049045443534851
3.65,-3.2114248275756836,-0.8271293640136719,0.6316748261451721,0.017144739627838135,-0.21246957778930664,1.0014569759368896
3.675,-3.6627469062805176,-0.15521417558193207,0.613335371017456,-0.1698630005121231,-0.26356372237205505,0.8656162023544312
3.7,-3.350778102874756,0.3537016808986664,0.015017730183899403,-0.3652721047401428,-0.35333096981048584,0.6407425999641418
3.725,-2.2181670665740967,0.8852635025978088,-0.961603045463562,-0.4993038773536682,-0.35146045684814453,0.37585878372192383
3.75,-0.7596797943115234,1.4535244703292847,-1.8595589399337769,-0.5571029186248779,-0.13161323964595795,0.203049436211586
3.775,0.15787337720394135,1.7491588592529297,-2.318364143371582,-0.5977082848548889,0.2908056080341339,0.21397730708122253
3.8,-0.004812151193618774,1.5501585006713867,-2.1972639560699463,-0.5681324601173401,0.6228963732719421,0.36352261900901794
3.825,-1.0086641311645508,1.0523557662963867,-1.5291187763214111,-0.4151948094367981,0.5760011076927185,0.5253807306289673
3.85,-2.099480152130127,0.749659538269043,-0.6782914400100708,-0.19265912473201752,0.10135287046432495,0.6309835314750671
3.875,-2.6294519901275635,1.1386052370071411,-0.09316302835941315,0.04970519244670868,-0.5553089380264282,0.6614865064620972
3.9,-2.374757766723633,2.123638391494751,0.2857840359210968,0.23374345898628235,-1.0071901082992554,0.744022011756897
3.925,-1.4117430448532104,3.150238513946533,0.6489112973213196,0.35062888264656067,-1.1608585119247437,0.8729249238967896
3.95,0.04126855731010437,3.8233895301818848,0.7188680768013,0.5183858871459961,-1.1108843088150024,0.9068306684494019
3.975,1.554602861404419,4.092762470245361,-0.027846891433000565,0.5523591041564941,-0.9085941910743713,0.8326234221458435
4.0,2.386859178543091,3.676065683364868,-1.1867361068725586,0.3667634129524231,-0.5831717848777771,0.8333297371864319
4.025,2.569103956222534,2.1801576614379883,-1.6278971433639526,0.34761008620262146,-0.23253841698169708,0.9007055759429932
4.05,3.091789960861206,-0.08039684593677521,-1.0335400104522705,0.5122674107551575,-0.22117263078689575,0.8952780365943909
4.075,4.047749996185303,-2.00544810295105,-0.042056381702423096,0.7208496928215027,-0.39741766452789307,0.7503939270973206
4.1,4.793491363525391,-2.889514207839966,0.827316164970398,0.8147466778755188,-0.45043784379959106,0.5680827498435974
4.125,4.4582977294921875,-3.589949131011963,1.264858603477478,0.5429251194000244,-0.24378059804439545,0.473578542470932
4.15,3.1766273975372314,-4.678119659423828,1.1147540807724,0.11518275737762451,-0.002888282760977745,0.38750919699668884
4.175,2.2879650592803955,-4.947605133056641,0.5196423530578613,-0.0036807339638471603,-0.07388179749250412,0.13888238370418549
4.2,2.5643868446350098,-3.8796916007995605,-0.095201775431633,0.05051086097955704,-0.35758066177368164,-0.18241621553897858
4.225,3.3888230323791504,-2.6600730419158936,-0.34098294377326965,-0.04510210454463959,-0.39785751700401306,-0.42176204919815063
4.25,4.000757694244385,-2.0325276851654053,-0.22752469778060913,-0.16881191730499268,-0.1813652068376541,-0.5947659015655518
4.275,3.9464244842529297,-1.9568732976913452,-0.04119085893034935,-0.21057403087615967,0.04494702070951462,-0.6625006198883057
4.3,3.2824158668518066,-2.174253225326538,0.04170600324869156,-0.1668999195098877,0.11601904779672623,-0.6778512001037598
4.325,2.5576698780059814,-2.3748395442962646,0.018723145127296448,-0.0788535475730896,-0.026916323229670525,-0.7040672302246094
4.35,2.1097636222839355,-2.3762123584747314,-0.1617715209722519,-0.0006626546382904053,-0.21402901411056519,-0.7292574048042297
4.375,1.9583646059036255,-2.1114704608917236,-0.4141143560409546,0.00045762956142425537,-0.30017292499542236,-0.7869117856025696
4.4,1.9743767976760864,-1.5784372091293335,-0.658697783946991,-0.05139198899269104,-0.3061642348766327,-0.8708456158638
4.425,1.9410861730575562,-1.0283300876617432,-0.9234085083007812,-0.16316688060760498,-0.16508933901786804,-0.9001032710075378
4.45,1.7881288528442383,-0.7192070484161377,-1.1181191205978394,-0.26077917218208313,0.06228093057870865,-0.9115690588951111
4.475,1.6512134075164795,-0.6695864200592041,-1.121979832649231,-0.2639305889606476,0.21526078879833221,-0.926524817943573
4.5,1.615736722946167,-0.7117187976837158,-1.0013524293899536,-0.1646098643541336,0.2167046070098877,-0.9238577485084534
4.525,1.5861096382141113,-0.7762072086334229,-0.9256688356399536,-0.06436312198638916,0.14646318554878235,-0.9270294308662415
4.55,1.4257832765579224,-0.7118760943412781,-0.9255226850509644,-0.03257516026496887,0.15388107299804688,-0.9415177702903748
4.575,1.1751266717910767,-0.645673930644989,-0.9423683285713196,-0.06037686765193939,0.27836716175079346,-0.9087626338005066
4.6,0.8463069200515747,-0.675459086894989,-0.826433539390564,-0.020440369844436646,0.3980104327201843,-0.8616691827774048
4.625,0.4860197603702545,-0.7317115068435669,-0.5840463042259216,0.034749552607536316,0.475256085395813,-0.8235702514648438
4.65,0.2518104910850525,-0.6783400774002075,-0.35695478320121765,0.07126781344413757,0.5221127271652222,-0.7903257012367249
4.675,0.2079029530286789,-0.4817715585231781,-0.23772107064723969,0.10494409501552582,0.5390321016311646,-0.7617268562316895
4.7,0.2900928258895874,-0.20237737894058228,-0.1757975071668625,0.12021607160568237,0.5451915860176086,-0.7278439402580261
4.725,0.36819320917129517,0.06774137914180756,-0.11744998395442963,0.1234482154250145,0.5697624087333679,-0.6805647611618042
4.75,0.41838356852531433,0.28600314259529114,-0.03006136789917946,0.14373475313186646,0.6088154911994934,-0.6391971111297607
4.775,0.4732312262058258,0.47144895792007446,0.15003374218940735,0.19142457842826843,0.626714289188385,-0.5894335508346558
4.8,0.5520111918449402,0.6288787126541138,0.3768089711666107,0.2593882381916046,0.5935010313987732,-0.536994457244873
4.825,0.6581718325614929,0.7137213945388794,0.5267820954322815,0.30208760499954224,0.5505438446998596,-0.4774397611618042
4.85,0.7223783731460571,0.7274962663650513,0.6123174428939819,0.33283206820487976,0.5103075504302979,-0.41130515933036804
4.875,0.7439171075820923,0.6622096300125122,0.6409732103347778,0.35339581966400146,0.4422512352466583,-0.36469408869743347
4.9,0.7627663016319275,0.5310660600662231,0.6400063037872314,0.35823702812194824,0.388008713722229,-0.32963231205940247
4.925,0.7426096796989441,0.3506871163845062,0.696024477481842,0.3593980669975281,0.37111610174179077,-0.28338703513145447
4.95,0.7023319005966187,0.21821127831935883,0.7745913863182068,0.3481425642967224,0.35963475704193115,-0.23598487675189972
4.975,0.6268951892852783,0.28561604022979736,0.8080962300300598,0.32404860854148865,0.3514310121536255,-0.19219128787517548
5.0,0.5002801418304443,0.665502667427063,0.6777171492576599,0.2692855894565582,0.3555118441581726,-0.16869483888149261
5.025,0.4651879668235779,0.9958077669143677,0.25137054920196533,0.19362851977348328,0.4307746887207031,-0.11989694833755493
5.05,0.6087042689323425,0.8949165940284729,-0.22596582770347595,0.14446285367012024,0.5465507507324219,-0.03041025996208191
5.075,0.7817298769950867,0.5479927062988281,-0.4134867787361145,0.10593953728675842,0.5843966603279114,0.018981775268912315
5.1,0.75859534740448,0.22355078160762787,-0.29071733355522156,0.09274759888648987,0.6457344889640808,0.052776385098695755
5.125,0.4197359085083008,-0.033119212836027145,0.01151551678776741,0.11506912857294083,0.7448397874832153,0.10212123394012451
5.15,-0.1762126386165619,-0.34684181213378906,0.32146593928337097,0.1196703240275383,0.8184724450111389,0.16273339092731476
5.175,-0.8542544841766357,-0.6816158294677734,0.5397725701332092,0.12467049062252045,0.7953886985778809,0.19379457831382751
5.2,-1.3842871189117432,-0.8123130798339844,0.6216623187065125,0.11354856193065643,0.6516610383987427,0.17357052862644196
5.225,-1.568550944328308,-0.6145142912864685,0.540257453918457,0.07464087009429932,0.4626789391040802,0.09371362626552582
5.25,-1.3384957313537598,-0.23776623606681824,0.28888604044914246,0.014590787701308727,0.3417341113090515,-0.01931711845099926
5.275,-0.8152788877487183,0.12591269612312317,-0.004356354475021362,-0.04707241430878639,0.35362300276756287,-0.12304593622684479
5.3,-0.2674761414527893,0.4071398079395294,-0.25366026163101196,-0.09473366290330887,0.4551572799682617,-0.1964867115020752
5.325,0.12902387976646423,0.5477924346923828,-0.42492949962615967,-0.1226925253868103,0.5841943621635437,-0.22817985713481903
5.35,0.24064651131629944,0.5914449691772461,-0.3487342596054077,-0.08653047680854797,0.6632092595100403,-0.21853280067443848
5.375,0.16242270171642303,0.6034298539161682,0.029751598834991455,-0.01552555337548256,0.6113314032554626,-0.2129693478345871
5.4,0.10000186413526535,0.5806466341018677,0.4765109717845917,0.03709139674901962,0.4169934093952179,-0.22652314603328705
5.425,0.14928458631038666,0.5470067262649536,0.6304185390472412,0.0592823252081871,0.15041865408420563,-0.27605193853378296
5.45,0.2735801637172699,0.5032702684402466,0.48366227746009827,0.05531082674860954,-0.0530785396695137,-0.31577274203300476
5.475,0.3008089065551758,0.4079075753688812,0.23496058583259583,0.037695348262786865,-0.14622803032398224,-0.31573423743247986
5.5,0.19999969005584717,0.26522544026374817,0.016784286126494408,0.017078526318073273,-0.17184041440486908,-0.28993356227874756
5.525,0.08947014808654785,0.18725965917110443,-0.2556574046611786,-0.018619712442159653,-0.21923618018627167,-0.2738790512084961
5.55,0.04999200254678726,0.19124121963977814,-0.5694727301597595,-0.05666269361972809,-0.25262585282325745,-0.2519535720348358
5.575,0.07190975546836853,0.20996564626693726,-0.7946822047233582,-0.07687613368034363,-0.22058165073394775,-0.22095125913619995
5.6,0.08875086903572083,0.2573508620262146,-0.8089523911476135,-0.07024627923965454,-0.12325780838727951,-0.1802482306957245
5.625,0.07463661581277847,0.3200483024120331,-0.5987496376037598,-0.04909387603402138,0.016521332785487175,-0.13436740636825562
5.65,-0.008595496416091919,0.3940172493457794,-0.31833475828170776,-0.030976198613643646,0.1427566409111023,-0.09202753752470016
5.675,-0.14203397929668427,0.4925842881202698,-0.12842179834842682,-0.036367155611515045,0.21154825389385223,-0.053800828754901886
5.7,-0.21834447979927063,0.5638638138771057,-0.10188913345336914,-0.05573125556111336,0.20657142996788025,-0.029325636103749275
5.725,-0.1759200245141983,0.5577316880226135,-0.22781941294670105,-0.08218692243099213,0.16324080526828766,-0.027489185333251953
5.75,-0.05137074738740921,0.4904012680053711,-0.4071892201900482,-0.10428016632795334,0.10895472764968872,-0.038024578243494034
5.775,0.0654493123292923,0.4631013870239258,-0.5749722719192505,-0.11457237601280212,0.08612208813428879,-0.046857837587594986
5.8,0.11143108457326889,0.48230263590812683,-0.6986976265907288,-0.12171708792448044,0.11691363155841827,-0.03411895036697388
5.825,0.07151945680379868,0.5292558670043945,-0.7418923377990723,-0.1187855675816536,0.1654426008462906,-0.010510576888918877
5.85,0.0018454492092132568,0.6019001007080078,-0.6480029225349426,-0.1167067140340805,0.20871925354003906,0.01520430576056242
5.875,-0.0668555498123169,0.657902717590332,-0.5153148770332336,-0.11528220772743225,0.2575110197067261,0.03538089245557785
5.9,-0.08696150779724121,0.6456518173217773,-0.42101341485977173,-0.11821397393941879,0.30588671565055847,0.05652760714292526
5.925,-0.05759816989302635,0.5745668411254883,-0.2790333330631256,-0.12409403175115585,0.3395799696445465,0.0825771912932396
5.95,-0.03869461268186569,0.5463610291481018,-0.04443154111504555,-0.12468612194061279,0.37362393736839294,0.1117917150259018
5.975,-0.07001696527004242,0.5851631760597229,0.19727326929569244,-0.12373755872249603,0.38885536789894104,0.14116443693637848
6.0,-0.13414564728736877,0.6126176118850708,0.3508354425430298,-0.11789535731077194,0.3689727485179901,0.16503843665122986
6.025,-0.19472834467887878,0.599859356880188,0.370071679353714,-0.1166742593050003,0.3081538677215576,0.18599294126033783
6.05,-0.22736981511116028,0.5702725648880005,0.22437135875225067,-0.12761661410331726,0.23746763169765472,0.21436603367328644
6.075,-0.219879612326622,0.5214729905128479,-0.007236895617097616,-0.13578692078590393,0.2043471783399582,0.24369052052497864
6.1,-0.20734328031539917,0.4727363884449005,-0.19684509932994843,-0.13434754312038422,0.20682401955127716,0.26899510622024536
6.125,-0.21424399316310883,0.4462766945362091,-0.27819785475730896,-0.1312716156244278,0.24634283781051636,0.2957180440425873
6.15,-0.2714903652667999,0.408695250749588,-0.3037421405315399,-0.13426201045513153,0.32567742466926575,0.3224586546421051
6.175,-0.36948975920677185,0.3742408752441406,-0.27871766686439514,-0.14324553310871124,0.40227240324020386,0.34926164150238037
6.2,-0.4710615873336792,0.3522672951221466,-0.18555520474910736,-0.14789116382598877,0.44422438740730286,0.3777766823768616
6.225,-0.5720220804214478,0.36257079243659973,-0.02804707922041416,-0.14603129029273987,0.46327143907546997,0.40210476517677307
6.25,-0.6182660460472107,0.3836403787136078,0.18128301203250885,-0.1304754763841629,0.45112988352775574,0.41907715797424316
6.275,-0.5598320364952087,0.3786088228225708,0.4223710298538208,-0.09980933368206024,0.4113517701625824,0.42430922389030457
6.3,-0.46302151679992676,0.31867802143096924,0.6239832639694214,-0.06817030906677246,0.3680201768875122,0.4211614429950714
6.325,-0.3805784583091736,0.18583498895168304,0.7104047536849976,-0.04303080216050148,0.32436007261276245,0.4187127649784088
6.35,-0.36164653301239014,0.03252324461936951,0.6639851927757263,-0.04010549932718277,0.2715871334075928,0.42823663353919983
6.375,-0.4162929058074951,-0.0005635531269945204,0.5106028318405151,-0.05371558666229248,0.181466206908226,0.4183938205242157
6.4,-0.5066783428192139,0.06380467861890793,0.2690287232398987,-0.07834988832473755,0.08271265029907227,0.4085516035556793
6.425,-0.5150963068008423,0.08133890479803085,0.03362945839762688,-0.09294123947620392,0.04668878763914108,0.40374231338500977
6.45,-0.47439029812812805,0.029244430363178253,-0.05575602129101753,-0.07860197126865387,0.08699715882539749,0.39624840021133423
6.475,-0.4499562382698059,-0.09549999237060547,0.069675013422966,-0.056031063199043274,0.19088919460773468,0.40119755268096924
6.5,-0.4655578136444092,-0.27392861247062683,0.35753071308135986,-0.03958502411842346,0.29687803983688354,0.40435484051704407
6.525,-0.5180818438529968,-0.4280395209789276,0.6600064635276794,-0.03469670191407204,0.3330174386501312,0.39211148023605347
6.55,-0.5441022515296936,-0.5601090788841248,0.8491066694259644,-0.03340920805931091,0.2850870192050934,0.36616820096969604
6.575,-0.498796284198761,-0.6636752486228943,0.9063072800636292,-0.030471809208393097,0.19582968950271606,0.32854747772216797
6.6,-0.4345991611480713,-0.7262124419212341,0.9094127416610718,-0.027836734429001808,0.1126246377825737,0.2861829698085785
6.625,-0.391926109790802,-0.7504606246948242,0.9224996566772461,-0.030322309583425522,0.0538334958255291,0.24713341891765594
6.65,-0.3753169775009155,-0.7215871214866638,0.8985011577606201,-0.04501316696405411,-0.0025535100139677525,0.20433519780635834
6.675,-0.323675274848938,-0.6546496748924255,0.7431415915489197,-0.06502814590930939,-0.06194809079170227,0.1530846208333969
6.7,-0.19900529086589813,-0.6070356369018555,0.5458604097366333,-0.07525783032178879,-0.09822902828454971,0.1017051637172699
6.725,-0.07208251953125,-0.5586881637573242,0.44441282749176025,-0.07976387441158295,-0.11072473227977753,0.05731760337948799
6.75,0.030722834169864655,-0.48716163635253906,0.4105886220932007,-0.08429747074842453,-0.10813454538583755,0.021738873794674873
6.775,0.12706829607486725,-0.41101840138435364,0.3793933093547821,-0.08193805068731308,-0.12136685848236084,-0.007206359412521124
6.8,0.20098286867141724,-0.34290409088134766,0.31882914900779724,-0.08361240476369858,-0.15780480206012726,-0.029835959896445274
6.825,0.25347477197647095,-0.2970695495605469,0.2634259760379791,-0.09081108123064041,-0.1894477903842926,-0.03893917426466942
6.85,0.2890666425228119,-0.3105497360229492,0.21247519552707672,-0.0978657603263855,-0.198438823223114,-0.03682152181863785
6.875,0.28368866443634033,-0.40241625905036926,0.21639683842658997,-0.10087307542562485,-0.17303232848644257,-0.018505269661545753
6.9,0.21369430422782898,-0.5203762054443359,0.31406211853027344,-0.09619440138339996,-0.12635280191898346,0.0015113836852833629
6.925,0.09810800105333328,-0.5807256698608398,0.44712963700294495,-0.09662935882806778,-0.09103598445653915,0.030329622328281403
6.95,-0.011509373784065247,-0.5562810897827148,0.4868384003639221,-0.11202865839004517,-0.09250190109014511,0.049538105726242065
6.975,-0.05777488648891449,-0.5079526901245117,0.344452828168869,-0.13967886567115784,-0.10109476000070572,0.0573822446167469
7.0,-0.042914316058158875,-0.4412727952003479,0.10570158064365387,-0.17247697710990906,-0.06493297964334488,0.06793584674596786
7.025,-0.01326436921954155,-0.3474426567554474,-0.07870064675807953,-0.20158283412456512,0.024681417271494865,0.0797247365117073
7.05,0.00745532289147377,-0.2612925171852112,-0.16858583688735962,-0.21684487164020538,0.13823814690113068,0.08993220329284668
7.075,0.03815121576189995,-0.20561224222183228,-0.19725079834461212,-0.21423965692520142,0.2250782996416092,0.09585893154144287
7.1,0.06603347510099411,-0.1879911869764328,-0.17726904153823853,-0.19543235003948212,0.2755941152572632,0.10590362548828125
7.125,0.055889345705509186,-0.20119766891002655,-0.12131411582231522,-0.1657646745443344,0.3028934597969055,0.12365033477544785
7.15,-0.01145186834037304,-0.19042876362800598,-0.04476134106516838,-0.12839406728744507,0.31354978680610657,0.1428922712802887
7.175,-0.11803419888019562,-0.14348793029785156,0.05593092739582062,-0.09258459508419037,0.3078932464122772,0.15714944899082184
7.2,-0.22361478209495544,-0.09471987932920456,0.16114237904548645,-0.05392788350582123,0.3021088242530823,0.16948063671588898
7.225,-0.30933302640914917,-0.06309220939874649,0.22439202666282654,-0.0179351344704628,0.3046768307685852,0.17329716682434082
7.25,-0.38659384846687317,-0.01145264133810997,0.22842936217784882,0.014005545526742935,0.3154924511909485,0.17099840939044952
7.275,-0.40755218267440796,0.04393867403268814,0.22339239716529846,0.04536737501621246,0.3349222242832184,0.16142798960208893
7.3,-0.3418285548686981,0.04441169276833534,0.19285991787910461,0.08048532903194427,0.3584713339805603,0.14572177827358246
7.325,-0.19836834073066711,0.0026598223485052586,0.17305073142051697,0.11792905628681183,0.37750622630119324,0.13253703713417053
7.35,-0.038697581738233566,-0.0743846744298935,0.19313950836658478,0.1583528220653534,0.39252105355262756,0.11828061193227768
7.375,0.11223717033863068,-0.22835445404052734,0.24893248081207275,0.20350316166877747,0.42105454206466675,0.10811461508274078
7.4,0.207904651761055,-0.42479994893074036,0.39348527789115906,0.25248000025749207,0.4357406198978424,0.10091911256313324
7.425,0.212474524974823,-0.56610107421875,0.6332556009292603,0.29885992407798767,0.408695787191391,0.09117233008146286
7.45,0.17134547233581543,-0.6358107924461365,0.8669111132621765,0.33358436822891235,0.35292235016822815,0.07452045381069183
7.475,0.1209360659122467,-0.7371625304222107,0.9867985248565674,0.355164498090744,0.28718966245651245,0.054381079971790314
7.5,0.08819164335727692,-0.8978567123413086,0.9962661862373352,0.3612964153289795,0.2189299315214157,0.03041844815015793
7.525,0.024481147527694702,-1.0437850952148438,1.0046663284301758,0.3512440621852875,0.17872953414916992,0.009210455231368542
7.55,-0.08136367797851562,-1.11419677734375,1.0808860063552856,0.32668402791023254,0.16556450724601746,-0.008405047468841076
7.575,-0.17291569709777832,-1.1154775619506836,1.130751609802246,0.2959960997104645,0.14501813054084778,-0.028811724856495857
7.6,-0.2027895301580429,-1.1020593643188477,1.1135444641113281,0.2562418580055237,0.12236765772104263,-0.05750352889299393
7.625,-0.17686931788921356,-1.0739011764526367,1.071270227432251,0.21598680317401886,0.12395031750202179,-0.08191785961389542
7.65,-0.1623707413673401,-1.0124921798706055,1.0070486068725586,0.17762041091918945,0.14119009673595428,-0.10770056396722794
7.675,-0.18482887744903564,-0.8895368576049805,0.8729134202003479,0.142543226480484,0.15143105387687683,-0.1384764462709427
7.7,-0.16511820256710052,-0.7250080108642578,0.701561450958252,0.11261363327503204,0.12872086465358734,-0.17584459483623505
7.725,-0.07853777706623077,-0.5505561828613281,0.4842766225337982,0.10536650568246841,0.10848692804574966,-0.22348874807357788
7.75,0.049084506928920746,-0.41700270771980286,0.20725619792938232,0.09613926708698273,0.10001804679632187,-0.2611472010612488
7.775,0.1589951366186142,-0.36933138966560364,-0.02652977779507637,0.06620853394269943,0.12276362627744675,-0.2740154266357422
7.8,0.17397825419902802,-0.39138421416282654,-0.16226592659950256,0.034332435578107834,0.1746073216199875,-0.28365081548690796
7.825,0.07102981209754944,-0.4622422158718109,-0.16943982243537903,0.0005814917385578156,0.2654730975627899,-0.27512919902801514
7.85,-0.0898459181189537,-0.5685034394264221,-0.13786041736602783,-0.006069168448448181,0.3300478756427765,-0.28850817680358887
7.875,-0.1542886346578598,-0.701881468296051,-0.1769467294216156,-0.010637693107128143,0.34692347049713135,-0.2960357367992401
7.9,-0.13074181973934174,-0.7075825333595276,-0.24043305218219757,-0.017135530710220337,0.3586445152759552,-0.30550697445869446
7.925,-0.14988496899604797,-0.5189467072486877,-0.19392122328281403,-0.035714346915483475,0.4107102155685425,-0.3016618490219116
7.95,-0.25259724259376526,-0.1694498211145401,-0.04421337693929672,-0.07078301906585693,0.48807087540626526,-0.28706973791122437
7.975,-0.38755083084106445,0.22960667312145233,0.07548165321350098,-0.10777032375335693,0.5719672441482544,-0.26895007491111755
8.0,-0.4636729061603546,0.4616013467311859,0.07607357949018478,-0.12408506870269775,0.6463051438331604,-0.25832095742225647
8.025,-0.4682942032814026,0.44433027505874634,-0.03926269710063934,-0.11570069193840027,0.6857026815414429,-0.25082775950431824
8.05,-0.45870834589004517,0.2939205467700958,-0.16451850533485413,-0.0879865288734436,0.6841444373130798,-0.23576323688030243
8.075,-0.42399537563323975,0.13740921020507812,-0.1768641471862793,-0.039885856211185455,0.6480305790901184,-0.22578483819961548
8.1,-0.30376797914505005,0.07842922955751419,-0.029773185029625893,0.01912512071430683,0.593149721622467,-0.24013568460941315
8.125,-0.12347587943077087,0.1533108353614807,0.319784015417099,0.08044828474521637,0.5744854807853699,-0.2574041187763214
8.15,0.07240152359008789,0.25356876850128174,0.8344783186912537,0.14207275211811066,0.5820276141166687,-0.27244043350219727
8.175,0.20649537444114685,0.2961665987968445,1.3147573471069336,0.19104070961475372,0.5760372281074524,-0.28070124983787537
8.2,0.19915622472763062,0.29015275835990906,1.5233433246612549,0.21136148273944855,0.4952254891395569,-0.2880654036998749
8.225,0.10390307009220123,0.3277742266654968,1.3963576555252075,0.20201927423477173,0.3083638548851013,-0.30229610204696655
8.25,-0.004005596041679382,0.42229098081588745,0.9670116901397705,0.18419605493545532,0.10228025168180466,-0.30399996042251587
8.275,-0.09381349384784698,0.51728355884552,0.3797338008880615,0.1590944081544876,-0.0470171794295311,-0.2933080792427063
8.3,-0.15595602989196777,0.5688257813453674,-0.07529205083847046,0.15630483627319336,-0.05358035862445831,-0.25921884179115295
8.325,-0.1931501179933548,0.5496121048927307,-0.19793446362018585,0.18631654977798462,0.0559752881526947,-0.21155916154384613
8.35,-0.18368349969387054,0.3847675919532776,0.033304937183856964,0.23677533864974976,0.18705657124519348,-0.15613223612308502
8.375,-0.1759917438030243,0.13181407749652863,0.5033656358718872,0.27904269099235535,0.2813216745853424,-0.10714424401521683
8.4,-0.1775231808423996,-0.058029066771268845,0.9675480127334595,0.283609002828598,0.27695024013519287,-0.0857563316822052
8.425,-0.18463961780071259,-0.14829526841640472,1.2550907135009766,0.2429758459329605,0.19807983934879303,-0.0635824128985405
8.45,-0.23499122262001038,-0.23041902482509613,1.4158070087432861,0.18936064839363098,0.14535783231258392,-0.026888901367783546
8.475,-0.3235621452331543,-0.3206833302974701,1.590261697769165,0.1325649917125702,0.1155443862080574,-0.0007711250218562782
8.5,-0.4042152464389801,-0.382070392370224,1.6685259342193604,0.0681743323802948,0.08072328567504883,0.009031268768012524
8.525,-0.4619967043399811,-0.4746750593185425,1.4201414585113525,0.017508873715996742,0.059951212257146835,0.005510927177965641
8.55,-0.5300217866897583,-0.6027650237083435,0.9916512370109558,0.015846887603402138,0.04596390575170517,0.0029428708367049694
8.575,-0.6346453428268433,-0.5634774565696716,0.8237314820289612,0.06575815379619598,0.03851654380559921,0.0019026760710403323
8.6,-0.8075231313705444,-0.17062079906463623,1.0000804662704468,0.09262476861476898,0.01721860095858574,-0.0002422554389340803
8.625,-1.0232164859771729,0.4561302363872528,1.1932687759399414,0.09630846232175827,0.019327377900481224,0.012392973527312279
8.65,-1.1134064197540283,0.8965676426887512,1.0843231678009033,0.09289180487394333,0.03674464672803879,0.004798872862011194
8.675,-1.022875428199768,0.8781845569610596,0.7158563137054443,0.10747694224119186,0.0700492188334465,-0.028157010674476624
8.7,-0.8856724500656128,0.6175357103347778,0.4261401891708374,0.13157902657985687,0.11781411617994308,-0.06794846057891846
8.725,-0.8070372343063354,0.47032272815704346,0.38607901334762573,0.13654997944831848,0.16835539042949677,-0.07956352084875107
8.75,-0.8172515630722046,0.6218482255935669,0.5249792337417603,0.11576899141073227,0.19554860889911652,-0.05331234261393547
8.775,-0.846322774887085,0.9374744892120361,0.6639125943183899,0.06568790227174759,0.20284728705883026,-0.007152651436626911
8.8,-0.7055895328521729,1.0495026111602783,0.7344287633895874,0.040367018431425095,0.2341790795326233,0.004884821828454733
8.825,-0.30639418959617615,0.961162805557251,0.8240915536880493,0.10794380307197571,0.2853935658931732,-0.05035097524523735
8.85,0.17277871072292328,0.7765095233917236,0.996452808380127,0.19467124342918396,0.3246719241142273,-0.09734208136796951
8.875,0.47748368978500366,0.44644850492477417,1.1685130596160889,0.2418624460697174,0.322666734457016,-0.10181258618831635
8.9,0.45336252450942993,0.1373864710330963,1.172314167022705,0.22176973521709442,0.1372239589691162,-0.10766644775867462
8.925,0.16562682390213013,0.09902965277433395,0.8504578471183777,0.13920393586158752,-0.23060084879398346,-0.11561884731054306
8.95,-0.15270814299583435,0.32021626830101013,0.3932208716869354,0.08455263078212738,-0.5045266151428223,-0.09535694867372513
8.975,-0.3430841565132141,0.5271921753883362,0.12813133001327515,0.09913254529237747,-0.5263190865516663,-0.0477416031062603
9.0,-0.39463749527931213,0.5421743988990784,0.1256701648235321,0.15831074118614197,-0.36626341938972473,0.012631530873477459
9.025,-0.3385564982891083,0.3621225953102112,0.26430532336235046,0.21968628466129303,-0.18372486531734467,0.062032900750637054
9.05,-0.23740151524543762,0.1456509232521057,0.3614528477191925,0.23580853641033173,-0.08857961744070053,0.08651246875524521
9.075,-0.10704028606414795,0.07845597714185715,0.3410766124725342,0.21983769536018372,-0.07794930040836334,0.11234501004219055
9.1,-0.043370455503463745,0.17289642989635468,0.2934233248233795,0.18326818943023682,-0.09318632632493973,0.16312509775161743
9.125,-0.1096348986029625,0.357516348361969,0.2135320007801056,0.15610800683498383,-0.08869175612926483,0.21852824091911316
9.15,-0.2252124696969986,0.5282431244850159,0.10996118187904358,0.15023204684257507,-0.06344490498304367,0.26727575063705444
9.175,-0.31150004267692566,0.5894871354103088,0.055570103228092194,0.15946750342845917,-0.041624486446380615,0.2991076111793518
9.2,-0.360845685005188,0.5765867829322815,0.0019320116844028234,0.16527295112609863,-0.05375240370631218,0.30648910999298096
9.225,-0.3566366732120514,0.5395413041114807,-0.1447681486606598,0.1618868112564087,-0.0572403259575367,0.3139835596084595
9.25,-0.3774923086166382,0.4699449837207794,-0.3082695007324219,0.14942236244678497,-0.01451579388231039,0.335557758808136
9.275,-0.44091907143592834,0.35438060760498047,-0.38888248801231384,0.14696800708770752,0.06616437435150146,0.36279237270355225
9.3,-0.477952778339386,0.2670860290527344,-0.31741461157798767,0.15810230374336243,0.1564185470342636,0.3808354437351227
9.325,-0.46558094024658203,0.1741352081298828,-0.16820554435253143,0.17169423401355743,0.22813701629638672,0.38817986845970154
9.35,-0.4303761124610901,0.02605629339814186,-0.07982910424470901,0.18762540817260742,0.2685104310512543,0.3876400291919708
9.375,-0.3961425721645355,-0.11362840980291367,-0.10924091190099716,0.17398682236671448,0.28806090354919434,0.3881705105304718
9.4,-0.4132936894893646,-0.19493107497692108,-0.19953469932079315,0.15516424179077148,0.3265233337879181,0.39637863636016846
9.425,-0.4860246777534485,-0.17737868428230286,-0.2550083100795746,0.1451120376586914,0.38974833488464355,0.4185067117214203
9.45,-0.5623841285705566,-0.06816866993904114,-0.26957130432128906,0.1500207483768463,0.45654961466789246,0.4350195527076721
9.475,-0.5937429070472717,0.05275724455714226,-0.30890363454818726,0.1602870225906372,0.5130031108856201,0.44512125849723816
9.5,-0.5619712471961975,0.11738011986017227,-0.3853807747364044,0.1737099587917328,0.5824150443077087,0.4470575451850891
9.525,-0.47262120246887207,0.0704631432890892,-0.48554518818855286,0.18894174695014954,0.6683815121650696,0.4556145668029785
9.55,-0.3641274571418762,-0.0436745323240757,-0.554963231086731,0.2060079276561737,0.753616452217102,0.47071385383605957
9.575,-0.26856642961502075,-0.17918306589126587,-0.4759509265422821,0.22665201127529144,0.8256099224090576,0.49283310770988464
9.6,-0.12792515754699707,-0.2789984345436096,-0.25102436542510986,0.24608132243156433,0.8628137707710266,0.49990883469581604
9.625,0.09775449335575104,-0.3089008629322052,0.041779644787311554,0.26408451795578003,0.8802876472473145,0.4862102270126343
9.65,0.34813442826271057,-0.3510322570800781,0.2612972557544708,0.282878041267395,0.8825207948684692,0.4619508683681488
9.675,0.574131965637207,-0.458988219499588,0.4231826663017273,0.2892356812953949,0.8850101828575134,0.4441436529159546
9.7,0.7305383682250977,-0.6323986053466797,0.6279317736625671,0.2866131067276001,0.901555597782135,0.4491892457008362
9.725,0.7944292426109314,-0.8430710434913635,0.8324071168899536,0.2810071110725403,0.9136787056922913,0.4473564028739929
9.75,0.7903770208358765,-1.0751047134399414,0.9651190042495728,0.2697770893573761,0.8752903342247009,0.42920321226119995
9.775,0.7556060552597046,-1.2728052139282227,1.0712883472442627,0.2577390968799591,0.7890313863754272,0.39056071639060974
9.8,0.7445735335350037,-1.4111089706420898,1.1564871072769165,0.2380964607000351,0.693681538105011,0.35300782322883606
9.825,0.7587211728096008,-1.4488029479980469,1.1964658498764038,0.19499942660331726,0.6236672401428223,0.3341435194015503
9.85,0.8082951307296753,-1.3785533905029297,1.2040843963623047,0.13146188855171204,0.5842474699020386,0.34428155422210693
9.875,0.8077185750007629,-1.2322874069213867,1.1668204069137573,0.05211356282234192,0.5650726556777954,0.373291552066803
9.9,0.7621092200279236,-1.064565658569336,1.071661353111267,-0.027451980859041214,0.5517882108688354,0.4020994007587433
9.925,0.7199625968933105,-0.8801403045654297,0.8922297954559326,-0.09394913166761398,0.549157977104187,0.41934144496917725
9.95,0.6698740124702454,-0.7018451690673828,0.7267828583717346,-0.1519695520401001,0.5712161064147949,0.42883583903312683
9.975,0.6705119013786316,-0.6068630218505859,0.6038903594017029,-0.1894981861114502,0.6017152667045593,0.42367997765541077
10.0,0.7161777019500732,-0.591944694519043,0.49712979793548584,-0.2002488374710083,0.6051031947135925,0.38581639528274536
10.025,0.7676928043365479,-0.6538209915161133,0.475073903799057,-0.18932154774665833,0.5700961351394653,0.32037287950515747
10.05,0.8451097011566162,-0.8145342469215393,0.5293810367584229,-0.15778084099292755,0.5051038861274719,0.23503094911575317
10.075,0.9687460660934448,-1.0314503908157349,0.6089320182800293,-0.13097651302814484,0.41143378615379333,0.13494813442230225
10.1,1.1429558992385864,-1.245890736579895,0.6890733242034912,-0.11748156696557999,0.3043041229248047,0.04299233853816986
10.125,1.3158966302871704,-1.4090967178344727,0.8125724792480469,-0.12588642537593842,0.2167205959558487,-0.020778348669409752
10.15,1.4391608238220215,-1.4211044311523438,1.0428634881973267,-0.16221347451210022,0.15293441712856293,-0.05778501555323601
10.175,1.403631567955017,-1.2539186477661133,1.3456566333770752,-0.23048968613147736,0.09542549401521683,-0.07069247215986252
10.2,1.1489659547805786,-1.0227336883544922,1.5148463249206543,-0.3134220838546753,0.029797622933983803,-0.07630252093076706
10.225,0.7061771750450134,-0.7685365676879883,1.3739107847213745,-0.38217127323150635,-0.06763805449008942,-0.09306363761425018
10.25,0.09742201864719391,-0.5599049925804138,1.0370687246322632,-0.43350228667259216,-0.1636742353439331,-0.08908716589212418
10.275,-0.536676287651062,-0.5091933608055115,0.7236571311950684,-0.4568309485912323,-0.1952851116657257,-0.04321940243244171
10.3,-1.1064280271530151,-0.5823335647583008,0.5059386491775513,-0.44558531045913696,-0.18178965151309967,0.004614852834492922
10.325,-1.4727704524993896,-0.5693931579589844,0.39484092593193054,-0.4070967137813568,-0.18594838678836823,0.019804224371910095
10.35,-1.4815512895584106,-0.34665387868881226,0.42374685406684875,-0.36622393131256104,-0.189381405711174,0.030969318002462387
10.375,-1.2439337968826294,-0.03528967872262001,0.5604180097579956,-0.3438927233219147,-0.13577987253665924,0.035087134689092636
10.4,-0.9081002473831177,0.23368848860263824,0.6794881820678711,-0.3364110589027405,0.03494957089424133,0.03483566269278526
10.425,-0.4627045691013336,0.4476701319217682,0.5995643734931946,-0.33304107189178467,0.26100146770477295,0.03530946373939514
10.45,0.046879835426807404,0.5622283220291138,0.33888745307922363,-0.2940368056297302,0.5532696843147278,0.09707754105329514
10.475,0.5107948184013367,0.5136013627052307,0.1966029703617096,-0.22044068574905396,0.7696137428283691,0.2173444777727127
10.5,0.9237945079803467,0.5125399231910706,0.4123564660549164,-0.14183944463729858,0.8537881970405579,0.34075927734375
10.525,1.2086431980133057,0.5997487306594849,0.7272514700889587,-0.0785275548696518,0.744654655456543,0.4545702338218689
10.55,1.1365329027175903,0.6313974261283875,1.0467500686645508,-0.016998469829559326,0.5664552450180054,0.5494276285171509
10.575,0.8565201759338379,0.5426532626152039,1.2687560319900513,0.0281439870595932,0.4316815435886383,0.599165678024292
10.6,0.5533497333526611,0.40256521105766296,1.2643864154815674,0.06385692209005356,0.31083616614341736,0.6248099207878113
10.625,0.09862634539604187,0.22659222781658173,1.1542305946350098,0.08540942519903183,0.2230130136013031,0.6373519897460938
10.65,-0.2637422978878021,0.11083902418613434,0.9554929733276367,0.08793701231479645,0.19215434789657593,0.6232855319976807
10.675,-0.21988391876220703,0.06933126598596573,0.7172471284866333,0.08479458093643188,0.21721234917640686,0.6393287777900696
10.7,-0.014421164989471436,-0.023785509169101715,0.7194592356681824,0.09051533788442612,0.2586185932159424,0.6953611373901367
10.725,-0.1685248464345932,-0.23537054657936096,1.012428879737854,0.10049588233232498,0.2265172302722931,0.7194314002990723
10.75,-0.7176316380500793,-0.5319355726242065,1.3355284929275513,0.12874795496463776,0.042101044207811356,0.6266237497329712
10.775,-1.3622844219207764,-0.8368891477584839,1.5648146867752075,0.1457670032978058,-0.23316438496112823,0.38613161444664
10.8,-1.867525339126587,-1.1505011320114136,1.535584807395935,0.17805927991867065,-0.5934677124023438,0.0729745626449585
10.825,-2.082530975341797,-1.3088302612304688,1.1572760343551636,0.20392735302448273,-0.9427657127380371,-0.24635207653045654
10.85,-2.0412747859954834,-1.1990032196044922,0.590304970741272,0.18708759546279907,-1.1130059957504272,-0.4864092171192169
10.875,-1.8021214008331299,-0.8943577408790588,0.09881938993930817,0.1310431957244873,-0.96668541431427,-0.5833531022071838
10.9,-1.397261619567871,-0.5603495240211487,-0.10337773710489273,0.051328595727682114,-0.529884397983551,-0.550576388835907
10.925,-0.9350103735923767,-0.39101606607437134,-0.03842362388968468,-0.015714824199676514,-0.010360297746956348,-0.4485599100589752
10.95,-0.5134466886520386,-0.4234161674976349,0.15631769597530365,-0.032149069011211395,0.38369712233543396,-0.3640837073326111
10.975,-0.10748757421970367,-0.4778938293457031,0.39778319001197815,-0.035284679383039474,0.5999796390533447,-0.3390955328941345
11.0,0.34698712825775146,-0.5182132720947266,0.6781319975852966,-0.030148569494485855,0.6601307392120361,-0.3560389280319214
11.025,0.7531659007072449,-0.6426153182983398,0.8618165850639343,-0.0319046750664711,0.5376856327056885,-0.4070786237716675
11.05,1.021348237991333,-0.7352514266967773,0.7393388152122498,-0.042339421808719635,0.2931674122810364,-0.476630300283432
11.075,1.161245346069336,-0.7123928666114807,0.3974456489086151,-0.0518203005194664,0.061608828604221344,-0.5026313662528992
11.1,1.232447624206543,-0.5730829834938049,0.10023418813943863,-0.05265900492668152,-0.05111297219991684,-0.4631689488887787
11.125,1.234344720840454,-0.4165078103542328,0.035167109221220016,-0.05375703424215317,-0.038841743022203445,-0.38537102937698364
11.15,1.135759711265564,-0.35233691334724426,0.15425561368465424,-0.04363814741373062,-0.012476015836000443,-0.31450554728507996
11.175,0.9771035313606262,-0.3893747925758362,0.27942904829978943,-0.03149671107530594,-0.06247415021061897,-0.28984349966049194
11.2,0.8081827759742737,-0.43376830220222473,0.3104509711265564,-0.02963336557149887,-0.18817409873008728,-0.31315526366233826
11.225,0.6407510042190552,-0.41633036732673645,0.2851226329803467,-0.020735211670398712,-0.3382434844970703,-0.3558497130870819
11.25,0.4859972894191742,-0.35846710205078125,0.26685377955436707,-0.015270769596099854,-0.47503137588500977,-0.38581323623657227
11.275,0.3250087797641754,-0.2891387939453125,0.2766825258731842,-0.015946857631206512,-0.5593594312667847,-0.3917887210845947
11.3,0.18653973937034607,-0.23818016052246094,0.2741564214229584,-0.020011115819215775,-0.5689448118209839,-0.3659850060939789
11.325,0.15661118924617767,-0.20692062377929688,0.2594679594039917,-0.03436445817351341,-0.5358985662460327,-0.3256871700286865
11.35,0.20572733879089355,-0.209625244140625,0.2627534866333008,-0.05376032367348671,-0.47009608149528503,-0.2718580961227417
11.375,0.27749380469322205,-0.26935768127441406,0.2799428701400757,-0.07353634387254715,-0.3707451820373535,-0.20765724778175354
11.4,0.3954091966152191,-0.32677173614501953,0.3645373284816742,-0.09248561412096024,-0.2762919068336487,-0.14207971096038818
11.425,0.5320481657981873,-0.35724830627441406,0.4550724923610687,-0.13159330189228058,-0.23459139466285706,-0.08351849019527435
11.45,0.5952362418174744,-0.4036836624145508,0.5192312598228455,-0.17659644782543182,-0.22934912145137787,-0.026833223178982735
11.475,0.6220988035202026,-0.4519996643066406,0.5807874202728271,-0.22641366720199585,-0.26979511976242065,0.022685756906867027
11.5,0.6403467059135437,-0.4624443054199219,0.6222681403160095,-0.2826697528362274,-0.3250178098678589,0.060104165226221085
11.525,0.6449217200279236,-0.43297767639160156,0.6752381920814514,-0.3416288495063782,-0.36759060621261597,0.10093668103218079
11.55,0.5937057733535767,-0.4088573157787323,0.754478394985199,-0.40695899724960327,-0.41257768869400024,0.1397152990102768
11.575,0.4936635196208954,-0.4321689307689667,0.8025212287902832,-0.4734707176685333,-0.4911849796772003,0.1658191829919815
11.6,0.3696313202381134,-0.4063996970653534,0.7721719145774841,-0.5342481732368469,-0.595639705657959,0.1577683836221695
11.625,0.3005523979663849,-0.31997770071029663,0.6916857957839966,-0.5842113494873047,-0.6788453459739685,0.1502855271100998
11.65,0.29322582483291626,-0.20982836186885834,0.4900369644165039,-0.6271167397499084,-0.7744181156158447,0.1358436942100525
11.675,0.37058010697364807,-0.05869673937559128,0.17674630880355835,-0.664244532585144,-0.8421502113342285,0.14456139504909515
11.7,0.5840278267860413,0.10683536529541016,-0.04924725368618965,-0.6821585893630981,-0.8666629195213318,0.19258855283260345
11.725,0.7279889583587646,0.21041584014892578,-0.09049209207296371,-0.6893152594566345,-0.9322355389595032,0.26497918367385864
11.75,0.5567175149917603,0.23985101282596588,-0.07029782980680466,-0.6916458606719971,-1.0545570850372314,0.35017451643943787
11.775,0.25262850522994995,0.22309589385986328,-0.1615355908870697,-0.6970069408416748,-1.1592799425125122,0.4159093499183655
11.8,0.005139123648405075,0.2038707733154297,-0.3124983012676239,-0.6996493935585022,-1.2024973630905151,0.4872051775455475
11.825,-0.3406762480735779,0.16326138377189636,-0.4739457666873932,-0.6950086951255798,-1.2204830646514893,0.5687515139579773
11.85,-0.9378570318222046,-0.0062075466848909855,-0.840364933013916,-0.6889494061470032,-1.2652398347854614,0.592130720615387
11.875,-1.3990060091018677,-0.19774645566940308,-1.490849256515503,-0.6916424036026001,-1.1883041858673096,0.5047758221626282
11.9,-1.5063488483428955,-0.24474740028381348,-2.0921108722686768,-0.6278356909751892,-0.9592636227607727,0.38486918807029724
11.925,-1.3460474014282227,-0.2362397015094757,-2.2468836307525635,-0.5468947887420654,-0.6618235111236572,0.3485623598098755
11.95,-1.029948115348816,-0.161299929022789,-1.9775817394256592,-0.4776232838630676,-0.42075395584106445,0.37440624833106995
11.975,-0.5736044645309448,0.0032661501318216324,-1.6736149787902832,-0.41376936435699463,-0.3373863697052002,0.42446422576904297
12.0,0.06887318193912506,0.23847375810146332,-1.4084131717681885,-0.39562034606933594,-0.22493687272071838,0.47775009274482727
12.025,0.6338451504707336,0.38324636220932007,-0.7817659974098206,-0.4061858355998993,-0.05474739521741867,0.5725499391555786
12.05,0.7533721923828125,0.2664976418018341,0.04421938583254814,-0.4753183126449585,-0.002435192698612809,0.6783993244171143
12.075,0.37659162282943726,-0.0887879952788353,0.43222713470458984,-0.49774250388145447,-0.14454403519630432,0.7503705024719238
12.1,-0.0645558163523674,-0.33927440643310547,0.3028668165206909,-0.43393611907958984,-0.3977985680103302,0.7650418877601624
12.125,-0.22955098748207092,-0.4628992974758148,-0.1737830638885498,-0.3662973642349243,-0.618202805519104,0.7791652083396912
12.15,-0.24556055665016174,-0.568452000617981,-0.6244800686836243,-0.3494762182235718,-0.6272445917129517,0.7794563174247742
12.175,-0.3274838924407959,-0.7223445773124695,-0.8311733603477478,-0.3786735534667969,-0.48973548412323,0.7455047965049744
12.2,-0.5490986108779907,-0.9152882099151611,-1.016289472579956,-0.42712241411209106,-0.32052749395370483,0.659111738204956
12.225,-0.730563759803772,-1.074524164199829,-1.2391608953475952,-0.4618598222732544,-0.11444039642810822,0.574221134185791
12.25,-0.7968118190765381,-1.162904977798462,-1.286215901374817,-0.4735983610153198,0.1036224216222763,0.4760671854019165
12.275,-0.7820044755935669,-1.211493730545044,-1.2101298570632935,-0.4356088638305664,0.22569653391838074,0.38135549426078796
12.3,-0.8164639472961426,-1.324702501296997,-1.2676976919174194,-0.32251599431037903,0.20204533636569977,0.25438734889030457
12.325,-0.9175392389297485,-1.5489925146102905,-1.5305911302566528,-0.13785745203495026,0.10042425990104675,0.14546959102153778
12.35,-1.025349736213684,-1.7467703819274902,-1.8987956047058105,0.07440665364265442,0.027759365737438202,0.048836492002010345
12.375,-1.0941358804702759,-1.786597728729248,-2.249171733856201,0.28628477454185486,0.019244354218244553,-0.06344698369503021
12.4,-1.1570199728012085,-1.6247820854187012,-2.4062724113464355,0.4931981563568115,0.07799378782510757,-0.1740105152130127
12.425,-1.1264331340789795,-1.2582000494003296,-2.3298115730285645,0.6815928816795349,0.17457005381584167,-0.293256551027298
12.45,-0.9574906229972839,-0.8202565908432007,-2.0932979583740234,0.8242262601852417,0.27109768986701965,-0.4155787229537964
12.475,-0.7704172730445862,-0.49558186531066895,-1.7607550621032715,0.9284385442733765,0.3969140350818634,-0.5200974345207214
12.5,-0.6578311920166016,-0.27643030881881714,-1.3868145942687988,0.9931122064590454,0.5695616006851196,-0.5982464551925659
12.525,-0.5555246472358704,-0.06267272680997849,-0.98990797996521,1.0252658128738403,0.7629846334457397,-0.6548586487770081
12.55,-0.38297173380851746,0.075955331325531,-0.6281782388687134,1.0424587726593018,0.9332932829856873,-0.6822053790092468
12.575,-0.2198963165283203,0.13668058812618256,-0.27224311232566833,1.063024640083313,1.0519202947616577,-0.6906757950782776
12.6,-0.11386953294277191,0.1619730293750763,0.0991307720541954,1.0712066888809204,1.1234569549560547,-0.6891118884086609
12.625,-0.025030236691236496,0.15221601724624634,0.40640419721603394,1.061040997505188,1.1544549465179443,-0.6844354867935181
12.65,0.08419492095708847,0.1329842358827591,0.5733210444450378,1.0397040843963623,1.1147347688674927,-0.6642654538154602
12.675,0.17908009886741638,0.11068256944417953,0.6284717917442322,1.0040357112884521,1.0427343845367432,-0.6419884562492371
12.7,0.22324302792549133,0.09518822282552719,0.5989503264427185,0.959115743637085,0.9892644882202148,-0.61083984375
12.725,0.24621079862117767,0.08676344901323318,0.5768980383872986,0.9176995158195496,0.9661802649497986,-0.5676872730255127
12.75,0.2912054657936096,0.07659919559955597,0.615275502204895,0.8642182946205139,0.9547956585884094,-0.5203121900558472
12.775,0.3117746412754059,0.030526241287589073,0.6997414231300354,0.8085911273956299,0.9632921814918518,-0.4566879868507385
12.8,0.2953879237174988,-0.08093825727701187,0.8105095624923706,0.7494946122169495,0.9823561906814575,-0.3901260495185852
12.825,0.2873131334781647,-0.19126884639263153,0.8969361186027527,0.6892810463905334,0.9766340851783752,-0.33024823665618896
12.85,0.2972230613231659,-0.2701472342014313,0.9811161756515503,0.6295079588890076,0.9263586401939392,-0.27788567543029785
12.875,0.34042832255363464,-0.349144846200943,1.0248476266860962,0.5646624565124512,0.8576812744140625,-0.22822780907154083
12.9,0.4105984568595886,-0.482932984828949,1.0637840032577515,0.49709558486938477,0.819165825843811,-0.1702280193567276
12.925,0.4877154231071472,-0.6037425398826599,1.1612634658813477,0.4188685715198517,0.786094069480896,-0.1143576055765152
12.95,0.5572414994239807,-0.6921567320823669,1.2877932786941528,0.33432912826538086,0.7572550773620605,-0.054725196212530136
12.975,0.6566240787506104,-0.7905511856079102,1.3648535013198853,0.246101513504982,0.7280286550521851,0.0018188145477324724
13.0,0.7502956390380859,-0.8847274780273438,1.3793226480484009,0.15680570900440216,0.6951347589492798,0.06518629193305969
13.025,0.8391379714012146,-0.8899221420288086,1.343278408050537,0.06791183352470398,0.6338407397270203,0.11023464053869247
13.05,0.8971842527389526,-0.8340797424316406,1.2782254219055176,-0.018340054899454117,0.5686033964157104,0.14849229156970978
13.075,0.8741602301597595,-0.7640113830566406,1.1799901723861694,-0.08916067332029343,0.4917845129966736,0.16887326538562775
13.1,0.8233868479728699,-0.6740302443504333,1.0403200387954712,-0.14481434226036072,0.36758941411972046,0.16027960181236267
13.125,0.7808466553688049,-0.5634183883666992,0.8698697686195374,-0.19137386977672577,0.250359445810318,0.15695147216320038
13.15,0.7217526435852051,-0.4483175277709961,0.728388786315918,-0.22467125952243805,0.1873595118522644,0.16702710092067719
13.175,0.6330736875534058,-0.34651467204093933,0.6198806166648865,-0.24547038972377777,0.13645853102207184,0.17936040461063385
13.2,0.5278563499450684,-0.2746829688549042,0.5100234746932983,-0.24200400710105896,0.08724954724311829,0.1758619248867035
13.225,0.4138362407684326,-0.28095245361328125,0.3996148109436035,-0.22384583950042725,0.03935186564922333,0.16039609909057617
13.25,0.3393598794937134,-0.3271064758300781,0.31422436237335205,-0.19701316952705383,-0.01275878120213747,0.1360795497894287
13.275,0.26410484313964844,-0.354766845703125,0.28890594840049744,-0.16560553014278412,-0.053475942462682724,0.11803822219371796
13.3,0.20679400861263275,-0.36392688751220703,0.3259410858154297,-0.13306976854801178,-0.07731602340936661,0.09653177112340927
13.325,0.2092977911233902,-0.38146403431892395,0.39499789476394653,-0.09842661023139954,-0.08533203601837158,0.0764627531170845
13.35,0.2149958312511444,-0.40793704986572266,0.47529610991477966,-0.0718422457575798,-0.08802156895399094,0.059920500963926315
13.375,0.2081966996192932,-0.43070030212402344,0.5697780251502991,-0.05355291813611984,-0.08705722540616989,0.04936227574944496
13.4,0.2356957197189331,-0.3961601257324219,0.6149929761886597,-0.049794912338256836,-0.08163748681545258,0.04464271664619446
13.425,0.26279735565185547,-0.32783982157707214,0.5501703023910522,-0.05936949700117111,-0.07117503136396408,0.056212328374385834
13.45,0.21452608704566956,-0.31131264567375183,0.46391698718070984,-0.0551716610789299,-0.08602076023817062,0.07709164917469025
13.475,0.034620501101017,-0.3527669608592987,0.48296689987182617,-0.06577861309051514,-0.0962134599685669,0.0892585963010788
13.5,-0.19485339522361755,-0.41950321197509766,0.5346031188964844,-0.08894740790128708,-0.1034805104136467,0.09678582847118378
13.525,-0.37770408391952515,-0.4296684265136719,0.46264609694480896,-0.10136287659406662,-0.1578306406736374,0.06811369955539703
13.55,-0.4783811569213867,-0.3537139892578125,0.2562235891819,-0.10190580785274506,-0.23447257280349731,0.03157226741313934
13.575,-0.5057792067527771,-0.22565366327762604,0.02228322997689247,-0.09648320078849792,-0.22464843094348907,0.014827684499323368
13.6,-0.3692929148674011,-0.1308298259973526,-0.11997509747743607,-0.08366163074970245,-0.1288740634918213,0.039510391652584076
13.625,-0.1311006397008896,-0.0507517009973526,-0.08765523880720139,-0.07102243602275848,-0.06850650906562805,0.059513263404369354
13.65,0.027093615382909775,0.013305656611919403,-0.07592867314815521,-0.06503503769636154,-0.11154705286026001,0.041506633162498474
13.675,0.13794353604316711,0.019922256469726562,0.01393544115126133,-0.03968077525496483,-0.13974891602993011,0.006944893393665552
13.7,0.21254678070545197,-0.07956980168819427,0.2456895112991333,-0.0326903760433197,-0.14271211624145508,0.0048977467231452465
13.725,0.25661155581474304,-0.16657254099845886,0.38497066497802734,-0.046302638947963715,-0.19905486702919006,-0.021638168022036552
13.75,0.18550759553909302,-0.3587817847728729,0.4939064085483551,-0.06032386049628258,-0.29687219858169556,-0.006010782439261675
13.775,0.06416191160678864,-0.6313762664794922,0.6764668226242065,-0.07442133128643036,-0.3697461783885956,-0.005625553894788027
13.8,-0.24650314450263977,-0.6896170973777771,0.8968687057495117,-0.12608115375041962,-0.3606903553009033,0.011272083967924118
13.825,-0.6187300682067871,-0.716099739074707,0.3912946879863739,-0.1965050846338272,-0.4626109004020691,-0.04381496086716652
13.85,-0.7085064649581909,-0.7424708604812622,-0.7207173705101013,-0.1807851642370224,-0.5093457102775574,-0.10242024064064026
13.875,-0.3226888179779053,-0.4264633059501648,-1.027214527130127,-0.15101633965969086,-0.06160124018788338,0.054216913878917694
13.9,0.3305390775203705,-0.14093025028705597,-0.4770548343658447,-0.1443423479795456,0.44473084807395935,0.2562035322189331
13.925,0.6041020750999451,-0.16497516632080078,0.21851907670497894,-0.12554262578487396,0.3889268934726715,0.33846181631088257
13.95,0.2882867753505707,-0.24256038665771484,0.34079620242118835,-0.1112181544303894,0.018763655796647072,0.2503492832183838
13.975,0.06779027730226517,-0.23935319483280182,0.1113332062959671,-0.06996120512485504,-0.20409202575683594,0.16091403365135193
14.0,0.08930639922618866,-0.17246918380260468,-0.20211873948574066,-0.04966370016336441,-0.25946712493896484,0.14976507425308228
14.025,-0.06562107056379318,-0.17743974924087524,-0.34361252188682556,-0.04995959252119064,-0.145486518740654,0.18519257009029388
14.05,-0.28197038173675537,-0.3996315598487854,-0.09744659066200256,-0.05360042303800583,0.07693216949701309,0.22431328892707825
14.075,-0.4417749047279358,-0.6141939163208008,0.2686368525028229,-0.04616676643490791,0.21645739674568176,0.26018083095550537
14.1,-0.6761417984962463,-0.6424379348754883,0.308835506439209,-0.04837760329246521,0.13252942264080048,0.15367576479911804
14.125,-0.6063226461410522,-0.5037031769752502,-0.104608915746212,-0.041140858083963394,0.02868836186826229,0.037933479994535446
14.15,-0.37909942865371704,-0.3510762155056,-0.5654940605163574,3.834592644125223e-05,0.01533642690628767,0.009466026909649372
14.175,-0.27730417251586914,-0.3166113793849945,-0.5701718926429749,0.02630535513162613,0.18193040788173676,0.022893136367201805
14.2,-0.2279348522424698,-0.3665505051612854,-0.19404803216457367,0.04860146343708038,0.3708612322807312,0.02761802263557911
14.225,-0.15585318207740784,-0.4490413963794708,0.1398216187953949,0.08194603025913239,0.40559759736061096,0.0029089488089084625
14.25,-0.11893316358327866,-0.4853563606739044,0.1909264773130417,0.1186104267835617,0.28831201791763306,-0.0482524074614048
14.275,-0.1461210399866104,-0.4651995301246643,0.05659622326493263,0.13546185195446014,0.21341010928153992,-0.09656792134046555
14.3,-0.16463321447372437,-0.4439249634742737,-0.0016230427427217364,0.14227695763111115,0.24951085448265076,-0.11767276376485825
14.325,-0.1056024506688118,-0.4621191620826721,0.06794989854097366,0.15414895117282867,0.30947697162628174,-0.11858031153678894
14.35,-0.02025608718395233,-0.48692992329597473,0.1651521623134613,0.1597830057144165,0.338654100894928,-0.1318904012441635
14.375,0.05139623209834099,-0.46912673115730286,0.22168806195259094,0.15411537885665894,0.35094907879829407,-0.14616377651691437
14.4,0.11790607869625092,-0.41842272877693176,0.2457437664270401,0.14055070281028748,0.3350878953933716,-0.16371889412403107
14.425,0.15156176686286926,-0.3766994774341583,0.2138366848230362,0.1297082155942917,0.318999707698822,-0.17656295001506805
14.45,0.15605761110782623,-0.37206459045410156,0.21045845746994019,0.11798638105392456,0.33166277408599854,-0.1752529740333557
14.475,0.1849660575389862,-0.3753032982349396,0.23089651763439178,0.10706238448619843,0.35567590594291687,-0.16429300606250763
14.5,0.2474527508020401,-0.35405445098876953,0.21820245683193207,0.1045956015586853,0.3664602041244507,-0.15514418482780457
14.525,0.32286158204078674,-0.32970714569091797,0.21115820109844208,0.1064503937959671,0.3693424463272095,-0.14134244620800018
14.55,0.3660280406475067,-0.3130054473876953,0.2201426476240158,0.11081923544406891,0.3611217737197876,-0.1297515630722046
14.575,0.39048078656196594,-0.2995319366455078,0.23127776384353638,0.11597917973995209,0.3429994583129883,-0.11798571795225143
14.6,0.43132326006889343,-0.30327796936035156,0.2471098005771637,0.11778729408979416,0.32798781991004944,-0.10197652876377106
14.625,0.43381354212760925,-0.35454463958740234,0.3112252652645111,0.11733540892601013,0.3208320736885071,-0.07382122427225113
14.65,0.45590972900390625,-0.4186582863330841,0.38757047057151794,0.10814686119556427,0.3005979359149933,-0.049048297107219696
14.675,0.5025585293769836,-0.43050482869148254,0.4531768262386322,0.09149739146232605,0.2602390646934509,-0.033646490424871445
14.7,0.5113645195960999,-0.4425039291381836,0.46989524364471436,0.07401730120182037,0.22129939496517181,-0.021691275760531425
14.725,0.4616343677043915,-0.48476889729499817,0.4349045157432556,0.054731834679841995,0.1922953873872757,-0.008829430676996708
14.75,0.40169984102249146,-0.5106592178344727,0.425106942653656,0.03789805993437767,0.1587703377008438,-0.002034479519352317
14.775,0.35528331995010376,-0.5275955200195312,0.4521314799785614,0.023366853594779968,0.13157609105110168,-0.0005704808863811195
14.8,0.3167843818664551,-0.5317869186401367,0.42873549461364746,0.010081890039145947,0.09719978272914886,-0.0011785377282649279
14.825,0.2702190577983856,-0.48302367329597473,0.3314514458179474,-0.004804003983736038,0.060479097068309784,-0.003022500779479742
14.85,0.1900995373725891,-0.398558646440506,0.24480430781841278,-0.007201486267149448,0.030562620609998703,-0.006407758221030235
14.875,0.09568329155445099,-0.30605411529541016,0.1513761729001999,-0.001953099388629198,-0.00896989181637764,-0.03151598572731018
14.9,0.0687757357954979,-0.28575804829597473,0.10353706032037735,0.0005639889277517796,-0.004300333559513092,-0.035761360079050064
14.925,0.21107268333435059,-0.33862975239753723,0.14230062067508698,0.017033888027071953,0.019702227786183357,-0.022741926833987236
14.95,0.35301926732063293,-0.42429640889167786,0.25528621673583984,0.026263149455189705,0.010836681351065636,-0.003015668597072363
14.975,0.2662205696105957,-0.518040657043457,0.35063841938972473,0.019327253103256226,-0.06633730977773666,-0.0326392687857151
15.0,0.13969887793064117,-0.5400590896606445,0.3047735393047333,-0.006536812521517277,-0.10071539878845215,-0.08902227133512497
15.025,0.2981410622596741,-0.5633345246315002,0.1891024112701416,-0.012858434580266476,-0.03199546039104462,-0.07638518512248993
15.05,0.5608619451522827,-0.6512899994850159,0.20632092654705048,-0.005985595751553774,0.055075276643037796,-0.0014860746450722218
15.075,0.44610318541526794,-0.6634597778320312,0.4474906921386719,-0.02301916852593422,0.1005639135837555,0.07664784044027328
15.1,0.06709146499633789,-0.5969581604003906,0.6245101094245911,-0.055036015808582306,0.03637947142124176,0.06280940026044846
15.125,-0.11771002411842346,-0.4743690490722656,0.3793157637119293,-0.10627370327711105,-0.11253266781568527,-0.057666413486003876
15.15,-0.1817348748445511,-0.43448835611343384,-0.08654757589101791,-0.06994779407978058,-0.2405785769224167,-0.11580226570367813
15.175,-0.31546488404273987,-0.37784677743911743,-0.13528521358966827,-0.06292235106229782,-0.08567064255475998,-0.11981353163719177
15.2,-0.20422375202178955,-0.3252735435962677,0.045999009162187576,-0.048678696155548096,0.1040286272764206,-0.10148365795612335
15.225,0.11065565049648285,-0.3154735863208771,0.13618092238903046,-0.03413989394903183,0.141189306974411,-0.0779450461268425
15.25,0.292361319065094,-0.3242683410644531,0.20018891990184784,-0.006272111088037491,0.08552941679954529,-0.06531185656785965
15.275,0.2747957408428192,-0.3284273147583008,0.3292206823825836,-0.00031308550387620926,0.04674966633319855,-0.07548923790454865
15.3,0.22415634989738464,-0.31449317932128906,0.38891661167144775,6.000697612762451e-05,-0.0007126147975213826,-0.08925720304250717
15.325,0.17958587408065796,-0.3034381866455078,0.30353060364723206,-0.0014869887381792068,-0.08387377858161926,-0.11022204905748367
15.35,0.11576120555400848,-0.3173351287841797,0.21000099182128906,0.0017235483974218369,-0.11939909309148788,-0.10815567523241043
15.375,-0.03648583963513374,-0.3380441665649414,0.24120700359344482,-0.002369660884141922,-0.09297113120555878,-0.08633380383253098
15.4,-0.1210680827498436,-0.3271207809448242,0.31893685460090637,-0.023929234594106674,-0.052996955811977386,-0.08076435327529907
15.425,-0.16193489730358124,-0.3248453140258789,0.34822091460227966,-0.04791482165455818,-0.0638437494635582,-0.08941401541233063
15.45,-0.1912437230348587,-0.29915714263916016,0.2738589942455292,-0.06657788157463074,-0.07428651303052902,-0.10194594413042068
15.475,-0.22425620257854462,-0.2683086395263672,0.18501818180084229,-0.07994218170642853,-0.0652528926730156,-0.10455984622240067
15.5,-0.24307706952095032,-0.2501220703125,0.09849444031715393,-0.08608804643154144,-0.0460895411670208,-0.10604572296142578
15.525,-0.2290903627872467,-0.24062062799930573,0.057048674672842026,-0.07835453003644943,-0.021818147972226143,-0.09700623899698257
15.55,-0.1655544936656952,-0.21027185022830963,0.04559676721692085,-0.06884206086397171,-0.01902969926595688,-0.09191275388002396
15.575,-0.08257677406072617,-0.15357208251953125,0.059838443994522095,-0.05959566310048103,-0.025894179940223694,-0.08947861939668655
15.6,-0.012962673790752888,-0.12078094482421875,0.15175607800483704,-0.04269952327013016,-0.018328072503209114,-0.08375606685876846
15.625,0.013654198497533798,-0.14433668553829193,0.25390422344207764,-0.03273233771324158,-0.024189220741391182,-0.07215000689029694
15.65,-0.009713191539049149,-0.1897430419921875,0.2701074182987213,-0.030956318601965904,-0.054577890783548355,-0.05787951871752739
15.675,-0.041497621685266495,-0.18058107793331146,0.2520284950733185,-0.034792691469192505,-0.0873270258307457,-0.04117059335112572
15.7,-0.08005386590957642,-0.13890932500362396,0.23822352290153503,-0.03582575172185898,-0.09673970937728882,-0.02463364787399769
15.725,-0.14013700187206268,-0.11028288304805756,0.2325436919927597,-0.030207721516489983,-0.07737315446138382,-0.004146788269281387
15.75,-0.16512112319469452,-0.10030172765254974,0.21442526578903198,-0.023151976987719536,-0.05723995342850685,0.011726334691047668
15.775,-0.15789514780044556,-0.09006784111261368,0.20660996437072754,-0.017869101837277412,-0.05293009430170059,0.02023652382194996
15.8,-0.1315794736146927,-0.05588243529200554,0.1848881095647812,-0.013134039007127285,-0.054941050708293915,0.01836349628865719
15.825,-0.09381403774023056,-0.030627237632870674,0.12117503583431244,-0.005133766680955887,-0.059685394167900085,0.014916254207491875
15.85,-0.08660800755023956,-0.04297732561826706,0.06747527420520782,0.006248039659112692,-0.06663932651281357,0.018702296540141106
15.875,-0.08539460599422455,-0.09626389294862747,0.05513323098421097,0.014926031231880188,-0.07033655047416687,0.02498488873243332
15.9,-0.1278875172138214,-0.14422227442264557,0.03264757618308067,0.02073054015636444,-0.0819595605134964,0.02591518871486187
15.925,-0.1942107081413269,-0.16952039301395416,0.004595442209392786,0.026327013969421387,-0.09117081016302109,0.028675947338342667
15.95,-0.22263549268245697,-0.2008381187915802,-0.029336264356970787,0.034146275371313095,-0.08915640413761139,0.03037409856915474
15.975,-0.20232398808002472,-0.22921183705329895,-0.06024427339434624,0.03999314084649086,-0.08382995426654816,0.0285886712372303
16.0,-0.16704528033733368,-0.24581435322761536,-0.06616058945655823,0.045158401131629944,-0.076776422560215,0.026581091806292534
16.025,-0.14045313000679016,-0.2721309959888458,-0.05033637583255768,0.04919380322098732,-0.06896822154521942,0.025344491004943848
16.05,-0.12063214182853699,-0.3022184669971466,-0.024414585903286934,0.05355943739414215,-0.05946856737136841,0.023219842463731766
16.075,-0.0733012855052948,-0.32485583424568176,-0.0062498124316334724,0.05333130806684494,-0.05901092663407326,0.01631055399775505
16.1,-0.029360506683588028,-0.35446932911872864,0.012871380895376205,0.055149294435977936,-0.06192619353532791,0.009293192997574806
16.125,-0.03651709854602814,-0.361087828874588,0.03614191338419914,0.05149306356906891,-0.06549715250730515,0.007466023322194815
16.15,-0.057549796998500824,-0.36924269795417786,0.04978276789188385,0.04485234245657921,-0.07185008376836777,0.008897177875041962
16.175,-0.07474083453416824,-0.3624019920825958,0.022762995213270187,0.03504681587219238,-0.08162339776754379,0.009400532580912113
16.2,-0.0659879595041275,-0.34694769978523254,-0.020842432975769043,0.027151916176080704,-0.07958574593067169,0.006930834148079157
16.225,-0.0534619577229023,-0.3488521873950958,-0.05560130253434181,0.020097214728593826,-0.06963659077882767,-0.00023225406766869128
16.25,-0.06079396978020668,-0.35535433888435364,-0.058988671749830246,0.015900371596217155,-0.06096574664115906,-0.0021206792443990707
16.275,-0.06773976236581802,-0.3562298119068146,-0.023650674149394035,0.012110590934753418,-0.0592777281999588,0.0007109409780241549
16.3,-0.07464095950126648,-0.34246447682380676,0.004409697838127613,0.0005385383265092969,-0.0663512721657753,0.007990524172782898
16.325,-0.07763990759849548,-0.3132982552051544,0.015060467645525932,-0.009893464855849743,-0.055181149393320084,0.02030300535261631
16.35,-0.09054909646511078,-0.29264262318611145,0.008346297778189182,-0.020837711170315742,-0.042072296142578125,0.03328639641404152
16.375,-0.13340353965759277,-0.299925833940506,-0.03512011468410492,-0.01761137694120407,-0.04538232460618019,0.025384509935975075
16.4,-0.20557686686515808,-0.3150778114795685,-0.04151834174990654,-0.010555599816143513,-0.07134268432855606,0.0008282185299322009
16.425,-0.20667363703250885,-0.29552367329597473,-0.01684756577014923,-0.018988730385899544,-0.04805212467908859,-0.013558132573962212
16.45,-0.06394748389720917,-0.2949238121509552,-0.023564090952277184,-0.019171465188264847,-0.024588866159319878,-0.007861358113586903
16.475,0.1079082265496254,-0.270999938249588,-0.015923241153359413,-0.014181094244122505,-0.00741770351305604,0.016606304794549942
16.5,0.1361965388059616,-0.25887206196784973,0.0638803020119667,-0.014891020022332668,-0.017109068110585213,0.03149190917611122
16.525,-0.019165797159075737,-0.308684378862381,0.1196727380156517,-0.02768745645880699,-0.08648335188627243,0.002158587332814932
16.55,-0.10322010517120361,-0.3576383888721466,0.05462001636624336,-0.03894684091210365,-0.12923038005828857,-0.03856237232685089
16.575,-0.049021586775779724,-0.34116366505622864,0.007245444227010012,-0.04121808707714081,-0.0638270452618599,-0.018146244809031487
16.6,-0.11146723479032516,-0.29808810353279114,0.09370390325784683,-0.04764335975050926,0.03717418387532234,0.03809747099876404
16.625,-0.25346407294273376,-0.3166017532348633,0.1905473917722702,-0.06721005588769913,0.054785218089818954,0.04660506919026375
16.65,-0.3834875822067261,-0.3302450180053711,0.1486419439315796,-0.08788897842168808,0.009941467083990574,0.014251062646508217
16.675,-0.3728591799736023,-0.27465251088142395,-0.01064296718686819,-0.0807730108499527,0.0026967190206050873,-0.02409830503165722
16.7,-0.22813501954078674,-0.19963745772838593,-0.14109516143798828,-0.05921493470668793,0.031036119908094406,-0.030001157894730568
16.725,-0.0911102294921875,-0.171817809343338,-0.20580996572971344,-0.041812993586063385,0.06619788706302643,-0.033414073288440704
16.75,-0.02386755496263504,-0.19500736892223358,-0.12711116671562195,-0.011023158207535744,0.1140894889831543,-0.025983570143580437
16.775,0.052143871784210205,-0.2054624855518341,0.034186411648988724,0.011795030906796455,0.10195798426866531,-0.027822060510516167
16.8,0.09377457201480865,-0.18937017023563385,0.15313434600830078,0.025662709027528763,0.0563507117331028,-0.04014383256435394
16.825,0.05401725322008133,-0.18583011627197266,0.17925678193569183,0.033048003911972046,0.013183938339352608,-0.055635884404182434
16.85,-0.017667973414063454,-0.22942639887332916,0.0943891853094101,0.032398272305727005,-0.02405363880097866,-0.06091000884771347
16.875,-0.07892241328954697,-0.2602234184741974,0.03386719897389412,0.029784386977553368,-0.03261735662817955,-0.05004630610346794
16.9,-0.12672185897827148,-0.273772269487381,0.04666700214147568,0.024160046130418777,-0.020642055198550224,-0.02908950299024582
16.925,-0.1440248340368271,-0.27243807911872864,0.04447609558701515,0.01817549392580986,-0.003409317694604397,-0.01804608479142189
16.95,-0.15129010379314423,-0.24365998804569244,0.05003046244382858,0.011205253191292286,0.018292173743247986,-0.008487490005791187
16.975,-0.1106460690498352,-0.21487809717655182,0.0816422551870346,0.009364251047372818,0.036151811480522156,-0.0032017084304243326
17.0,-0.05206702649593353,-0.1926269680261612,0.08743695914745331,0.006216294597834349,0.04045294225215912,0.0004754419787786901
17.025,-0.031050657853484154,-0.19181348383426666,0.06999338418245316,0.0029316891450434923,0.030831409618258476,0.0003344482393004
17.05,-0.02036791853606701,-0.2301664501428604,0.0833113044500351,0.0033220164477825165,0.01647321879863739,0.001164097455330193
17.075,-0.03247180953621864,-0.2731638252735138,0.11891071498394012,0.001189748989418149,-0.004409107379615307,0.004873969592154026
17.1,-0.05397452786564827,-0.2967700958251953,0.1608199030160904,-0.0046021779999136925,-0.024599283933639526,0.010159810073673725
17.125,-0.060456931591033936,-0.2811899185180664,0.19806966185569763,-0.013359000906348228,-0.04717747122049332,0.017492815852165222
17.15,-0.06621891260147095,-0.24218463897705078,0.20482689142227173,-0.029552962630987167,-0.06977129727602005,0.029574798420071602
17.175,-0.07489779591560364,-0.20825006067752838,0.14985406398773193,-0.04751785099506378,-0.07627295702695847,0.042485736310482025
17.2,-0.05802595615386963,-0.16769695281982422,0.0658143013715744,-0.06271177530288696,-0.08576010912656784,0.04844461753964424
17.225,-0.06500446796417236,-0.16872312128543854,0.004310155753046274,-0.07406190037727356,-0.09039270877838135,0.057675573974847794
17.25,-0.09605789184570312,-0.22766688466072083,-0.019515426829457283,-0.07872788608074188,-0.08845813572406769,0.07229439169168472
17.275,-0.12411437183618546,-0.30869296193122864,-0.034685514867305756,-0.07295123487710953,-0.11470470577478409,0.07118852436542511
17.3,-0.12270596623420715,-0.3814268708229065,-0.05347398668527603,-0.05550338700413704,-0.1486063152551651,0.04348084330558777
17.325,-0.05955788493156433,-0.4407110810279846,-0.026296991854906082,-0.029359150677919388,-0.1588081419467926,0.013229312375187874
17.35,0.015152553096413612,-0.44187265634536743,0.053696200251579285,-0.013471332378685474,-0.16315202414989471,-0.009593234397470951
17.375,0.03397364914417267,-0.41726404428482056,0.12172789126634598,-0.01747777685523033,-0.16389530897140503,-0.022206638008356094
17.4,0.05479021742939949,-0.39424803853034973,0.1732625514268875,-0.03091609850525856,-0.17834891378879547,-0.01861630752682686
17.425,0.05505968630313873,-0.33878231048583984,0.19335085153579712,-0.04933803528547287,-0.18636049330234528,-0.017507031559944153
17.45,-0.011842030100524426,-0.3242959976196289,0.14786839485168457,-0.07161753624677658,-0.18720722198486328,-0.014991619624197483
17.475,-0.13463330268859863,-0.3805752396583557,0.03830733895301819,-0.09108618646860123,-0.18893015384674072,-0.012905502691864967
17.5,-0.20988601446151733,-0.4202166199684143,-0.028771014884114265,-0.0899130180478096,-0.20935502648353577,-0.016599662601947784
17.525,-0.20349150896072388,-0.4021626114845276,-0.030525637790560722,-0.09088436514139175,-0.2607293725013733,-0.034170567989349365
17.55,-0.2336282581090927,-0.4014893174171448,-0.007348510902374983,-0.08948983252048492,-0.283966988325119,-0.04748697951436043
17.575,-0.24877199530601501,-0.43928152322769165,0.0580674447119236,-0.09235318750143051,-0.28618964552879333,-0.05587036535143852
17.6,-0.24927231669425964,-0.4950895607471466,0.17304733395576477,-0.09207626432180405,-0.2927885055541992,-0.051717888563871384
17.625,-0.30564647912979126,-0.5075111985206604,0.16771847009658813,-0.12468264997005463,-0.3570442497730255,-0.09443433582782745
17.65,-0.23181140422821045,-0.3858223557472229,0.05172015726566315,-0.1580507606267929,-0.3275890648365021,-0.11221380531787872
17.675,-0.07386212795972824,-0.2646665871143341,-0.10541662573814392,-0.17015552520751953,-0.297722727060318,-0.10171948373317719
17.7,-0.012979894876480103,-0.17095284163951874,-0.22383183240890503,-0.17151257395744324,-0.2752835154533386,-0.08549371361732483
17.725,0.031232377514243126,-0.1256885975599289,-0.20894861221313477,-0.16426002979278564,-0.2005339115858078,-0.04165975749492645
17.75,0.1255430281162262,-0.13850785791873932,0.05131962522864342,-0.1713925451040268,-0.15756966173648834,0.016434717923402786
17.775,0.10307533293962479,-0.1601686328649521,0.2961607277393341,-0.21363040804862976,-0.19702495634555817,0.07182113081216812
17.8,-0.008579183369874954,-0.14825913310050964,0.37592390179634094,-0.25658929347991943,-0.1995728760957718,0.12314769625663757
17.825,-0.056733548641204834,-0.11452861875295639,0.4634020924568176,-0.2953170835971832,-0.17902517318725586,0.1906776875257492
17.85,-0.12493402510881424,-0.04467577114701271,0.47686153650283813,-0.3501732647418976,-0.24865983426570892,0.2250584065914154
17.875,-0.3520101308822632,0.030924836173653603,0.2337864637374878,-0.40191131830215454,-0.3479543924331665,0.2335309237241745
17.9,-0.583865761756897,0.11163044720888138,-0.1945040374994278,-0.412544310092926,-0.39071524143218994,0.21264134347438812
17.925,-0.6492829322814941,0.1841878443956375,-0.5839705467224121,-0.3987061679363251,-0.3342699408531189,0.19629696011543274
17.95,-0.5256226062774658,0.19355101883411407,-0.7749902009963989,-0.3713397979736328,-0.18829374015331268,0.19801287353038788
17.975,-0.35239073634147644,0.1295909285545349,-0.7071568369865417,-0.33595430850982666,-0.04655855521559715,0.2139478325843811
18.0,-0.29418665170669556,0.09719844907522202,-0.5190916657447815,-0.2958425283432007,-0.009277229197323322,0.22050099074840546
18.025,-0.40434446930885315,0.10706422477960587,-0.3634566068649292,-0.251657634973526,-0.027137698605656624,0.18998274207115173
18.05,-0.4532414376735687,0.08267687261104584,-0.28690123558044434,-0.20388193428516388,-0.05315129831433296,0.15241993963718414
18.075,-0.33219629526138306,0.026378607377409935,-0.2946901321411133,-0.16254715621471405,-0.10270648449659348,0.12675023078918457
18.1,-0.2216389775276184,-0.03945450112223625,-0.35942280292510986,-0.12377306818962097,-0.1747531145811081,0.10960611701011658
18.125,-0.24854426085948944,-0.07382301986217499,-0.37474876642227173,-0.09317339956760406,-0.20182928442955017,0.09274537116289139
18.15,-0.3028179705142975,-0.08696941286325455,-0.313409686088562,-0.07155413925647736,-0.17360316216945648,0.08803922683000565
18.175,-0.27292612195014954,-0.0777159109711647,-0.27264678478240967,-0.04611678421497345,-0.15377973020076752,0.09577646851539612
18.2,-0.22079823911190033,-0.09522347152233124,-0.2656116485595703,-0.01897052675485611,-0.13504083454608917,0.10913868248462677
18.225,-0.21137316524982452,-0.1258573979139328,-0.28212854266166687,-0.002016177400946617,-0.09755105525255203,0.11549956351518631
18.25,-0.2038867175579071,-0.14270024001598358,-0.28250426054000854,0.011153161525726318,-0.04969331994652748,0.11626807600259781
18.275,-0.1996157318353653,-0.16356472671031952,-0.2593575119972229,0.02210678532719612,-0.02349105291068554,0.12150399386882782
18.3,-0.23575109243392944,-0.18731407821178436,-0.2564529478549957,0.035610757768154144,-0.02499825693666935,0.12383467704057693
18.325,-0.2618233263492584,-0.20231729745864868,-0.30883848667144775,0.04904186353087425,-0.028768984600901604,0.12556181848049164
18.35,-0.24558407068252563,-0.20951278507709503,-0.3723609149456024,0.06696636229753494,-0.008911502547562122,0.12307571619749069
18.375,-0.22063370048999786,-0.21717174351215363,-0.35576239228248596,0.08555524051189423,0.033975645899772644,0.12421800196170807
18.4,-0.20996800065040588,-0.2550097107887268,-0.27293631434440613,0.09719300270080566,0.07074898481369019,0.13314266502857208
18.425,-0.21561232209205627,-0.328159362077713,-0.15795505046844482,0.10483035445213318,0.07555330544710159,0.13314610719680786
18.45,-0.23138955235481262,-0.40195757150650024,-0.032980673015117645,0.10879399627447128,0.0441165529191494,0.12366204708814621
18.475,-0.2458893358707428,-0.4288235306739807,0.021941928192973137,0.10331235080957413,-0.0022280924022197723,0.10230223089456558
18.5,-0.24287015199661255,-0.4297505021095276,0.03368750959634781,0.08627248555421829,-0.02379622496664524,0.09690289199352264
18.525,-0.2156652808189392,-0.4151182770729065,0.012547056190669537,0.06576274335384369,-0.03910156339406967,0.09299694746732712
18.55,-0.17582306265830994,-0.4020271897315979,-0.036257605999708176,0.047783225774765015,-0.03046596050262451,0.09308646619319916
18.575,-0.12177868187427521,-0.399661123752594,-0.03004371002316475,0.033060379326343536,0.00980426836758852,0.10183201730251312
18.6,-0.0750521719455719,-0.3888760209083557,0.036844100803136826,0.022332344204187393,0.045675892382860184,0.10957321524620056
18.625,-0.00891902670264244,-0.3394832909107208,0.06721656024456024,0.007199680432677269,0.03317197784781456,0.10541973263025284
18.65,0.048688530921936035,-0.29265788197517395,0.05187371000647545,-0.010502967983484268,0.01728186570107937,0.09303571283817291
18.675,0.09065082669258118,-0.28331664204597473,-0.02469152957201004,-0.018673233687877655,-0.019163386896252632,0.08301243185997009
18.7,0.1411839723587036,-0.28605276346206665,-0.11949091404676437,-0.020282650366425514,-0.039075981825590134,0.08769287914037704
18.725,0.18440663814544678,-0.2847509980201721,-0.18566976487636566,-0.024511918425559998,-0.03750796988606453,0.09828527271747589
18.75,0.1879604160785675,-0.2948456406593323,-0.20683130621910095,-0.01839642971754074,-0.03383743017911911,0.11210401356220245
18.775,0.17670507729053497,-0.2927876114845276,-0.18490168452262878,-0.0035707764327526093,-0.04282708093523979,0.11952101439237595
18.8,0.164692685008049,-0.2540150284767151,-0.14328503608703613,0.02545544132590294,-0.06705822050571442,0.11809490621089935
18.825,0.09987975656986237,-0.21350102126598358,-0.11686668545007706,0.05373842641711235,-0.08859425038099289,0.11237972229719162
18.85,-0.043200716376304626,-0.23606304824352264,-0.1716206669807434,0.08285411447286606,-0.11672782152891159,0.10278841108083725
18.875,-0.1928229182958603,-0.32512766122817993,-0.33386167883872986,0.11783313751220703,-0.15524940192699432,0.09600821137428284
18.9,-0.2996769845485687,-0.4403430223464966,-0.5121182799339294,0.1474447250366211,-0.15035729110240936,0.09636451303958893
18.925,-0.3842327296733856,-0.5633527040481567,-0.635211706161499,0.16723325848579407,-0.09189769625663757,0.09959544241428375
18.95,-0.39564746618270874,-0.6565762758255005,-0.6325902342796326,0.1875036656856537,-0.008524749428033829,0.10022960603237152
18.975,-0.3003096282482147,-0.7078419923782349,-0.5231893062591553,0.19608084857463837,0.08052090555429459,0.0976228341460228
19.0,-0.1453286111354828,-0.7401343584060669,-0.41052374243736267,0.18796871602535248,0.15881255269050598,0.08891129493713379
19.025,0.023289434611797333,-0.7367726564407349,-0.3227933943271637,0.16652187705039978,0.2132270634174347,0.0778636485338211
19.05,0.20572519302368164,-0.6701213121414185,-0.21845754981040955,0.12021312117576599,0.24552495777606964,0.07170207053422928
19.075,0.36703944206237793,-0.6047659516334534,-0.05722615495324135,0.05357791483402252,0.28190183639526367,0.07834523171186447
19.1,0.5010858178138733,-0.605293333530426,0.11363518983125687,-0.013348622247576714,0.3190949261188507,0.08284353464841843
19.125,0.6265431046485901,-0.6882315278053284,0.28484246134757996,-0.061070702970027924,0.33085179328918457,0.0816550999879837
19.15,0.7411767244338989,-0.8272982239723206,0.42202654480934143,-0.09648795425891876,0.272583931684494,0.0633213073015213
19.175,0.8045473694801331,-0.9653244614601135,0.45722103118896484,-0.11736279726028442,0.15680910646915436,0.025925947353243828
19.2,0.7496892809867859,-1.0659829378128052,0.40039676427841187,-0.12259158492088318,0.005034707486629486,-0.008860892616212368
19.225,0.5920356512069702,-1.1310893297195435,0.29495200514793396,-0.1316044181585312,-0.14285434782505035,-0.031676582992076874
19.25,0.3709787428379059,-1.1627856492996216,0.14349552989006042,-0.1547318696975708,-0.2521497905254364,-0.04996461421251297
19.275,0.12904158234596252,-1.1432400941848755,-0.050419073551893234,-0.19201602041721344,-0.31655818223953247,-0.08061421662569046
19.3,-0.056881554424762726,-1.0548487901687622,-0.24609366059303284,-0.23242244124412537,-0.3222543001174927,-0.11350523680448532
19.325,-0.15609601140022278,-0.950290858745575,-0.4307560324668884,-0.2726587653160095,-0.2831348776817322,-0.1422203630208969
19.35,-0.22621586918830872,-0.8489496111869812,-0.5870041847229004,-0.31133729219436646,-0.20788972079753876,-0.16541928052902222
19.375,-0.3338466286659241,-0.5437155961990356,-0.5343866348266602,-0.3479788899421692,-0.1269347071647644,-0.18109476566314697
19.4,-0.5783871412277222,0.05828284099698067,-0.2569483518600464,-0.3859659731388092,-0.08102674782276154,-0.18742327392101288
19.425,-0.9962121844291687,0.3326893150806427,-0.2925203740596771,-0.41584938764572144,-0.08067197352647781,-0.17318587005138397
19.45,-1.2522940635681152,-0.20465576648712158,-1.0154131650924683,-0.3866109549999237,-0.06546644121408463,-0.17546500265598297
19.475,-1.2266316413879395,-1.0268499851226807,-1.6546229124069214,-0.3180740773677826,0.06799078732728958,-0.1490083485841751
19.5,-1.043562650680542,-1.1974232196807861,-1.3680018186569214,-0.2696278691291809,0.33717775344848633,-0.08818493038415909
19.525,-0.7496898770332336,-0.47193726897239685,-0.3682859241962433,-0.25955450534820557,0.6168956756591797,-0.04599891975522041
19.55,-0.35911551117897034,0.4880276918411255,0.48793825507164,-0.2736348509788513,0.7846125364303589,-0.05960717424750328
19.575,0.0337006151676178,0.856031596660614,0.6270715594291687,-0.2926117479801178,0.8691931962966919,-0.14096508920192719
19.6,0.4055511951446533,0.4008713662624359,0.26297250390052795,-0.2806917130947113,0.932125449180603,-0.24837175011634827
19.625,0.7061300873756409,-0.3313198387622833,0.11010348051786423,-0.22234342992305756,0.9297791719436646,-0.3286345899105072
19.65,0.860862672328949,-0.6719847321510315,0.36280158162117004,-0.14647428691387177,0.7106131911277771,-0.3605457842350006
19.675,0.8193067312240601,-0.4920644760131836,0.6415162682533264,-0.06961631774902344,0.3032306134700775,-0.31680992245674133
19.7,0.5998470187187195,-0.03165905550122261,0.7291299700737,-0.020633261650800705,-0.04062476381659508,-0.23503342270851135
19.725,0.3093474805355072,0.36553677916526794,0.6668393611907959,-0.01894976571202278,-0.18575693666934967,-0.18746636807918549
19.75,-0.03059731051325798,0.435735821723938,0.48061445355415344,-0.04957430064678192,-0.1777757704257965,-0.17489220201969147
19.775,-0.30047252774238586,0.21874147653579712,0.21568995714187622,-0.07332243025302887,-0.06155872717499733,-0.183979332447052
19.8,-0.3864680528640747,-0.045650482177734375,-0.021217105910182,-0.06519846618175507,0.06194218620657921,-0.19129301607608795
19.825,-0.3297795057296753,-0.2006378471851349,-0.1156902089715004,-0.025095347315073013,0.1308199018239975,-0.1855676919221878
19.85,-0.2578705847263336,-0.22097685933113098,-0.042869724333286285,0.02658270113170147,0.15971384942531586,-0.16702641546726227
19.875,-0.20202752947807312,-0.17880916595458984,0.12237115949392319,0.07396012544631958,0.17298732697963715,-0.15772199630737305
19.9,-0.11185629665851593,-0.043984368443489075,0.3931038975715637,0.10827910900115967,0.17885267734527588,-0.15213656425476074
19.925,0.0344020277261734,0.15698251128196716,0.6507934331893921,0.12176916003227234,0.15846046805381775,-0.13260850310325623
19.95,0.1247355192899704,0.3181239366531372,0.7933825850486755,0.11536901444196701,0.11509936302900314,-0.09232065081596375
19.975,0.11091797053813934,0.3580104112625122,0.7526237368583679,0.08893440663814545,0.08208992332220078,-0.04301375150680542
20.0,0.04414907097816467,0.34217366576194763,0.6148297190666199,0.04932153597474098,0.08262304961681366,0.006555984262377024
20.025,0.014275051653385162,0.2904902398586273,0.47259318828582764,0.007166978903114796,0.11533598601818085,0.050483182072639465
20.05,0.0295809805393219,0.19401367008686066,0.32620176672935486,-0.018577363342046738,0.16141749918460846,0.06737896054983139
20.075,0.0954243540763855,0.049914393573999405,0.24929720163345337,-0.01952117308974266,0.19640901684761047,0.06149245798587799
20.1,0.22663229703903198,-0.13091658055782318,0.27911728620529175,-0.005397493951022625,0.2050166130065918,0.04499899595975876
20.125,0.37644869089126587,-0.261562317609787,0.4494197368621826,0.008939149789512157,0.18397943675518036,0.038262929767370224
20.15,0.4845919609069824,-0.28645703196525574,0.6306551098823547,0.014909647405147552,0.10411284118890762,0.03639231622219086
20.175,0.5157451033592224,-0.26532262563705444,0.729495108127594,0.01143574994057417,-0.0134949441999197,0.04777504503726959
20.2,0.47691968083381653,-0.255459725856781,0.7417083382606506,0.0024714097380638123,-0.11548744887113571,0.06835654377937317
20.225,0.4182760417461395,-0.2495870143175125,0.6771052479743958,-0.01362573727965355,-0.18255503475666046,0.09051375091075897
20.25,0.35124942660331726,-0.20183178782463074,0.5969663858413696,-0.034765489399433136,-0.2055259495973587,0.11581236124038696
20.275,0.2649531960487366,-0.12866969406604767,0.5136925578117371,-0.061539214104413986,-0.2003963589668274,0.13792091608047485
20.3,0.17644497752189636,-0.11077210307121277,0.38662904500961304,-0.08227890729904175,-0.19081655144691467,0.15855322778224945
20.325,0.12933911383152008,-0.15627574920654297,0.2097226232290268,-0.08802976459264755,-0.19966067373752594,0.16732105612754822
20.35,0.1239195466041565,-0.22182849049568176,0.03317555785179138,-0.08057568967342377,-0.22005876898765564,0.17153015732765198
20.375,0.13854339718818665,-0.2565145790576935,-0.040087148547172546,-0.05994512885808945,-0.24282006919384003,0.1703110933303833
20.4,0.15722307562828064,-0.22123149037361145,0.0204244926571846,-0.03199055418372154,-0.2586958408355713,0.16597966849803925
20.425,0.15805627405643463,-0.1444082260131836,0.13824591040611267,-0.008379016071557999,-0.271226704120636,0.16433484852313995
20.45,0.09283462911844254,-0.11033438891172409,0.2336934208869934,0.006095822900533676,-0.2990794777870178,0.16512548923492432
20.475,0.0061493366956710815,-0.17252348363399506,0.2135700285434723,0.012298529967665672,-0.3319620192050934,0.16786891222000122
20.5,-0.07656903564929962,-0.27020835876464844,0.14576494693756104,0.017363881692290306,-0.34645944833755493,0.16735735535621643
20.525,-0.159912109375,-0.3466672897338867,0.12075148522853851,0.0319376215338707,-0.35789617896080017,0.17091920971870422
20.55,-0.2388422042131424,-0.4180918037891388,0.1300952285528183,0.04361100494861603,-0.3643307685852051,0.17693950235843658
20.575,-0.3090375065803528,-0.4732504189014435,0.1457105129957199,0.05104156583547592,-0.3453691899776459,0.18016326427459717
20.6,-0.34834015369415283,-0.5076389908790588,0.18939171731472015,0.050268664956092834,-0.30692964792251587,0.17648735642433167
20.625,-0.36783966422080994,-0.5121011734008789,0.23914553225040436,0.04671947658061981,-0.2807580232620239,0.1659245491027832
20.65,-0.377617746591568,-0.48578551411628723,0.22773030400276184,0.042379140853881836,-0.27887076139450073,0.1459476202726364
20.675,-0.3923460841178894,-0.472568541765213,0.14671675860881805,0.026578642427921295,-0.2742719352245331,0.12004893273115158
20.7,-0.40211978554725647,-0.4462604820728302,0.1005907654762268,0.011042735539376736,-0.24496643245220184,0.0879402905702591
20.725,-0.3811107277870178,-0.40770629048347473,0.11747176200151443,-0.007918634451925755,-0.20737721025943756,0.05275728181004524
20.75,-0.3787340521812439,-0.3924284279346466,0.14174938201904297,-0.025098338723182678,-0.19355598092079163,0.01545930840075016
20.775,-0.38795122504234314,-0.424284964799881,0.12476317584514618,-0.034163691103458405,-0.20688681304454803,-0.028421780094504356
20.8,-0.38192218542099,-0.4687557518482208,0.07703053951263428,-0.04242943599820137,-0.22319376468658447,-0.07101184874773026
20.825,-0.379608154296875,-0.4703369736671448,0.06117665022611618,-0.04529348388314247,-0.23160892724990845,-0.11344842612743378
20.85,-0.3072446286678314,-0.4273357689380646,0.09322202950716019,-0.05235886946320534,-0.23165461421012878,-0.15147581696510315
20.875,-0.20497429370880127,-0.3908272087574005,0.1465417593717575,-0.060073934495449066,-0.22245797514915466,-0.18464021384716034
20.9,-0.18612617254257202,-0.385929137468338,0.18435856699943542,-0.07876141369342804,-0.21565565466880798,-0.2072795331478119
20.925,-0.24327996373176575,-0.44365885853767395,0.1522153615951538,-0.09406639635562897,-0.22592760622501373,-0.2172364443540573
20.95,-0.3071470260620117,-0.5136309266090393,0.02364250086247921,-0.10597453266382217,-0.2709428369998932,-0.2146674394607544
20.975,-0.3099817633628845,-0.49315840005874634,-0.13038718700408936,-0.11129739880561829,-0.30201011896133423,-0.2147805541753769
21.0,-0.25369858741760254,-0.36701491475105286,-0.1684095710515976,-0.1136014461517334,-0.26672765612602234,-0.21636202931404114
21.025,-0.21154484152793884,-0.20624735951423645,-0.08476106077432632,-0.12306799739599228,-0.1943601369857788,-0.21399587392807007
21.05,-0.15243014693260193,-0.09694577753543854,0.002844927366822958,-0.12788738310337067,-0.15582041442394257,-0.2085513472557068
21.075,-0.054793812334537506,-0.0782013013958931,-0.02442612312734127,-0.12898284196853638,-0.1656828373670578,-0.20683614909648895
21.1,-0.006700637750327587,-0.11463358253240585,-0.07571759819984436,-0.12838660180568695,-0.16892415285110474,-0.19726672768592834
21.125,-0.02853381633758545,-0.15029338002204895,-0.12154395133256912,-0.1330934464931488,-0.18865814805030823,-0.18380843102931976
21.15,-0.07983193546533585,-0.1598835289478302,-0.15024535357952118,-0.13552986085414886,-0.22997896373271942,-0.16801440715789795
21.175,-0.1442873477935791,-0.14077380299568176,-0.12499269843101501,-0.13759735226631165,-0.25955086946487427,-0.14930413663387299
21.2,-0.1754472702741623,-0.12692071497440338,-0.07548758387565613,-0.13798639178276062,-0.2921598553657532,-0.13361142575740814
21.225,-0.17523589730262756,-0.063874252140522,-0.018948934972286224,-0.13645848631858826,-0.34255045652389526,-0.12664274871349335
21.25,-0.19949427247047424,0.013063453137874603,0.14375834167003632,-0.14153560996055603,-0.41168442368507385,-0.12973229587078094
21.275,-0.3259740471839905,-0.03928849473595619,0.1925029754638672,-0.17281217873096466,-0.48231151700019836,-0.13378462195396423
21.3,-0.47622039914131165,-0.06310366094112396,0.11965753883123398,-0.2073540836572647,-0.5149194002151489,-0.1621706485748291
21.325,-0.30988240242004395,0.06250855326652527,-0.34112775325775146,-0.23605194687843323,-0.5096986889839172,-0.19974546134471893
21.35,0.3182389736175537,0.21142759919166565,-0.9627424478530884,-0.20245593786239624,-0.3512527048587799,-0.18627144396305084
21.375,0.924211859703064,0.2592896521091461,-0.943469226360321,-0.12900002300739288,-0.03338964655995369,-0.08259391784667969
21.4,0.9650101065635681,0.29502296447753906,-0.12159528583288193,-0.11028949171304703,0.21198567748069763,-0.007486473768949509
21.425,0.569646418094635,0.29763421416282654,0.6646817326545715,-0.12353649735450745,0.15627078711986542,0.004586163908243179
21.45,0.28048956394195557,0.2285863310098648,0.9091318249702454,-0.1169457882642746,-0.13841424882411957,-0.008960437029600143
21.475,0.23974435031414032,0.1679612249135971,0.8153114914894104,-0.08952732384204865,-0.49249035120010376,0.03753780201077461
21.5,0.15133818984031677,0.24792107939720154,0.5603055953979492,-0.10147753357887268,-0.7229030728340149,0.13140232861042023
21.525,-0.17654107511043549,0.49029454588890076,0.22461049258708954,-0.14796292781829834,-0.813905656337738,0.211978018283844
21.55,-0.5394929647445679,0.5807066559791565,-0.25357893109321594,-0.1992262750864029,-0.7681959271430969,0.2963963449001312
21.575,-0.7820723056793213,0.3723306357860565,-0.7421010136604309,-0.22722339630126953,-0.5304243564605713,0.3582781255245209
21.6,-0.9068031311035156,0.008036504499614239,-1.0897622108459473,-0.2197386622428894,-0.18435095250606537,0.3827865719795227
21.625,-0.9200263023376465,-0.25815024971961975,-1.1678906679153442,-0.16988849639892578,0.20334169268608093,0.36925485730171204
21.65,-0.7900919318199158,-0.2361661195755005,-0.8875575065612793,-0.09496590495109558,0.5799063444137573,0.35469216108322144
21.675,-0.6332212686538696,0.0822133794426918,-0.35585346817970276,-0.024851500988006592,0.7858594655990601,0.37664902210235596
21.7,-0.6038046479225159,0.5098868012428284,0.040465421974658966,0.02949206903576851,0.7242007255554199,0.37247997522354126
21.725,-0.6772738695144653,0.6156244874000549,0.01623043231666088,0.09113704413175583,0.4851159453392029,0.29392024874687195
21.75,-0.6595070362091064,0.26373958587646484,-0.26946762204170227,0.1954619586467743,0.20304517447948456,0.12594826519489288
21.775,-0.5636206269264221,-0.2826424241065979,-0.35109320282936096,0.3040247857570648,-0.027311883866786957,-0.041638489812612534
21.8,-0.4360010027885437,-0.6527910828590393,-0.08037526905536652,0.37312301993370056,-0.18827533721923828,-0.15428054332733154
21.825,-0.3368452191352844,-0.7329216003417969,0.20828765630722046,0.40235400199890137,-0.3666210174560547,-0.19364164769649506
21.85,-0.2992761731147766,-0.5569953918457031,0.25941967964172363,0.3941205143928528,-0.576023519039154,-0.17817841470241547
21.875,-0.34196215867996216,-0.26593688130378723,0.017517948523163795,0.35064297914505005,-0.6862033605575562,-0.14394713938236237
21.9,-0.41248419880867004,-0.11159710586071014,-0.3097085654735565,0.30167698860168457,-0.5692503452301025,-0.10889963060617447
21.925,-0.47699496150016785,-0.13868622481822968,-0.3829113841056824,0.27139565348625183,-0.23642149567604065,-0.10665731132030487
21.95,-0.45869970321655273,-0.21124272048473358,-0.16919921338558197,0.26823341846466064,0.08023380488157272,-0.13805779814720154
21.975,-0.3299197852611542,-0.251953125,0.07940835505723953,0.27142056822776794,0.2005256563425064,-0.18245649337768555
22.0,-0.15508176386356354,-0.2498340755701065,0.10792437940835953,0.2604919373989105,0.10777990520000458,-0.21585984528064728
22.025,0.016034884378314018,-0.20100407302379608,-0.15379860997200012,0.2442454993724823,-0.05999712273478508,-0.2322341501712799
22.05,0.1282435953617096,-0.11540134251117706,-0.4797196388244629,0.22627463936805725,-0.1635250300168991,-0.2194155901670456
22.075,0.18024182319641113,-0.03757580369710922,-0.6228586435317993,0.21566450595855713,-0.15390115976333618,-0.17474432289600372
22.1,0.1651908904314041,-0.008151122368872166,-0.5417909622192383,0.2057863473892212,-0.08551274985074997,-0.1249874159693718
22.125,0.15559715032577515,-0.05577951297163963,-0.3866235017776489,0.20065128803253174,-0.030194563791155815,-0.09142782539129257
22.15,0.20302161574363708,-0.13432317972183228,-0.2848389446735382,0.20153401792049408,-0.016661323606967926,-0.06758090853691101
22.175,0.2750897705554962,-0.18986421823501587,-0.21367308497428894,0.19616839289665222,-0.027171306312084198,-0.04283351078629494
22.2,0.32109931111335754,-0.20676428079605103,-0.13660834729671478,0.182293102145195,-0.03733089193701744,-0.008133520372211933
22.225,0.28415200114250183,-0.2045145481824875,-0.08430656045675278,0.1585712879896164,-0.041084568947553635,0.03246067836880684
22.25,0.1731346845626831,-0.2429390400648117,-0.09848326444625854,0.11972957849502563,-0.05749400705099106,0.08155017346143723
22.275,0.05586720257997513,-0.2808294892311096,-0.14700567722320557,0.07482116669416428,-0.07675164937973022,0.1315237283706665
22.3,-0.011318732053041458,-0.30032068490982056,-0.22237280011177063,0.029506554827094078,-0.06766124069690704,0.1708107441663742
22.325,-0.03426055982708931,-0.31731992959976196,-0.2737228572368622,-0.006049690768122673,-0.024698490276932716,0.19621017575263977
22.35,-0.0618610605597496,-0.32806307077407837,-0.2887710630893707,-0.03234926983714104,0.011878746561706066,0.21179156005382538
22.375,-0.1131671816110611,-0.3105393052101135,-0.2814474105834961,-0.054483186453580856,0.023607997223734856,0.20815549790859222
22.4,-0.19614273309707642,-0.28771311044692993,-0.25501665472984314,-0.0668254941701889,0.004190465435385704,0.19744953513145447
22.425,-0.288106232881546,-0.22039705514907837,-0.35922911763191223,-0.0771937295794487,-0.022923646494746208,0.16700655221939087
22.45,-0.30780652165412903,-0.16545970737934113,-0.5507636070251465,-0.09687142819166183,0.05402021110057831,0.17706534266471863
22.475,-0.25897541642189026,-0.2646743059158325,-0.8065529465675354,-0.12632310390472412,0.1386682689189911,0.20830212533473969
22.5,-0.2567681074142456,-0.48687952756881714,-1.0034409761428833,-0.1355924755334854,0.2598744034767151,0.2536623179912567
22.525,-0.21718227863311768,-0.6449882388114929,-0.8801606893539429,-0.1116456389427185,0.4443272650241852,0.29361164569854736
22.55,-0.15377205610275269,-0.683578610420227,-0.5735312700271606,-0.09699629247188568,0.577654242515564,0.3079240918159485
22.575,-0.16782979667186737,-0.7125626802444458,-0.31848710775375366,-0.1036970317363739,0.65798020362854,0.30372461676597595
22.6,-0.2287290245294571,-0.7624083757400513,-0.15994104743003845,-0.1256413459777832,0.7177668213844299,0.2933526635169983
22.625,-0.24580399692058563,-0.7719813585281372,-0.1640971601009369,-0.15674090385437012,0.7133616209030151,0.2695079743862152
22.65,-0.22994139790534973,-0.6695404648780823,-0.2300223559141159,-0.1736576408147812,0.7349397540092468,0.23290890455245972
22.675,-0.2191298007965088,-0.5399065613746643,-0.19932076334953308,-0.18632054328918457,0.8055721521377563,0.2158617526292801
22.7,-0.2273775041103363,-0.5057783722877502,-0.08821423351764679,-0.1994665563106537,0.9152370095252991,0.2126678079366684
22.725,-0.23061293363571167,-0.4815436005592346,0.057985417544841766,-0.1914791762828827,0.9885888695716858,0.19653476774692535
22.75,-0.25137269496917725,-0.4705992043018341,0.12973308563232422,-0.1722795069217682,0.9871221780776978,0.16467556357383728
22.775,-0.2958676815032959,-0.4837036430835724,0.1254924088716507,-0.13998258113861084,0.9574119448661804,0.1196686401963234
22.8,-0.32186412811279297,-0.5265513062477112,0.15568014979362488,-0.10418012738227844,0.9341935515403748,0.0695950910449028
22.825,-0.30251577496528625,-0.5806989669799805,0.21026399731636047,-0.06186036765575409,0.9114331603050232,0.006011075805872679
22.85,-0.25702881813049316,-0.6181230545043945,0.2610379159450531,-0.020093567669391632,0.8771429061889648,-0.060906410217285156
22.875,-0.21130241453647614,-0.5986957550048828,0.37860581278800964,0.01910516805946827,0.8479089736938477,-0.12312129884958267
22.9,-0.1890067160129547,-0.5185356140136719,0.5645042061805725,0.04645976051688194,0.8273853659629822,-0.17568212747573853
22.925,-0.18377573788166046,-0.4126987159252167,0.7016283273696899,0.0641583725810051,0.7869335412979126,-0.22651880979537964
22.95,-0.13953213393688202,-0.321952760219574,0.7791690230369568,0.08017157763242722,0.7643892765045166,-0.2732638716697693
22.975,-0.07424481213092804,-0.21053022146224976,0.78653883934021,0.08727332204580307,0.7392078638076782,-0.3167712390422821
23.0,0.020133689045906067,-0.08564653992652893,0.7964714169502258,0.09603658318519592,0.7409681677818298,-0.34576258063316345
23.025,0.09773498773574829,-0.016431711614131927,0.8563055992126465,0.10441473871469498,0.7173252105712891,-0.36796316504478455
23.05,0.09154084324836731,0.027829278260469437,0.9080055952072144,0.10485895723104477,0.6593605279922485,-0.4022809863090515
23.075,0.06462162733078003,0.07649242877960205,0.967933714389801,0.11054131388664246,0.5791104435920715,-0.4448578953742981
23.1,0.044193342328071594,0.16477501392364502,0.9510293006896973,0.10859471559524536,0.4805547893047333,-0.5015265345573425
23.125,0.13072903454303741,0.2450495958328247,0.8393125534057617,0.12328054010868073,0.41981732845306396,-0.5368932485580444
23.15,0.28152763843536377,0.3040124177932739,0.7439396977424622,0.13984806835651398,0.36819714307785034,-0.5605769157409668
23.175,0.41756296157836914,0.36427319049835205,0.7267279028892517,0.15304158627986908,0.3428686857223511,-0.5736487507820129
23.2,0.531867504119873,0.36954987049102783,0.8266656994819641,0.16343902051448822,0.3483346104621887,-0.5668631196022034
23.225,0.6209660768508911,0.33004775643348694,1.0087634325027466,0.16370654106140137,0.33507290482521057,-0.5406027436256409
23.25,0.66291743516922,0.29419341683387756,1.126378059387207,0.15097521245479584,0.2773111164569855,-0.5068815350532532
23.275,0.6984329223632812,0.2500249445438385,1.0973666906356812,0.13125233352184296,0.2101425975561142,-0.46772393584251404
23.3,0.6989511251449585,0.19796957075595856,0.9635511636734009,0.10547136515378952,0.17505736649036407,-0.41612008213996887
23.325,0.6755338311195374,0.147133931517601,0.8578150272369385,0.09054861217737198,0.191421777009964,-0.3510265350341797
23.35,0.6602902412414551,0.10715017467737198,0.8289182186126709,0.0858672559261322,0.24022623896598816,-0.27917569875717163
23.375,0.6997033357620239,0.13144026696681976,0.8448721170425415,0.07977526634931564,0.2890801727771759,-0.20840299129486084
23.4,0.7704813480377197,0.16343222558498383,0.8558821678161621,0.07373607158660889,0.3180939555168152,-0.1405339390039444
23.425,0.8452126383781433,0.12854871153831482,0.7850580215454102,0.06512187421321869,0.30467215180397034,-0.08018556237220764
23.45,0.9092250466346741,0.042495790868997574,0.6551858186721802,0.055368706583976746,0.2591279447078705,-0.025601042434573174
23.475,0.9249889850616455,0.004164745565503836,0.582038164138794,0.048670269548892975,0.20540064573287964,0.029445553198456764
23.5,0.8661821484565735,0.03334909304976463,0.5940056443214417,0.050676845014095306,0.16332167387008667,0.0870724618434906
23.525,0.7840314507484436,0.06479460000991821,0.609358012676239,0.06109238415956497,0.12954695522785187,0.14233484864234924
23.55,0.6844932436943054,0.04410082474350929,0.6201075315475464,0.06679950654506683,0.09429585188627243,0.18330305814743042
