Time [s],Acc_x [m/s^2],Acc_y [m/s^2],Acc_z [m/s^2],Gyro_x [1/s],Gyro_y [1/s],Gyro_z [1/s]
0.0,0.083661749958992,-0.002192490268498659,-0.016792794689536095,-0.0047205653972923756,-0.009632688015699387,0.00514263054355979
0.05,-0.052403274923563004,-0.10207940638065338,-0.08104845136404037,-0.007025933358818293,0.006234819069504738,0.0006682692328467965
0.1,-0.037362322211265564,-0.049459464848041534,-0.03580145537853241,0.008618324995040894,0.0143576143309474,-0.0009042209712788463
0.15,-0.05566477030515671,-0.1279173046350479,-0.13589955866336823,-0.034096624702215195,0.038230761885643005,0.02940889075398445
0.2,-0.033620305359363556,-0.02007007785141468,-0.05228147655725479,-0.03285488486289978,0.008900058455765247,0.0033549198415130377
0.25,0.03559724986553192,-0.07915402203798294,0.09098173677921295,-0.02255159243941307,0.04454543814063072,-0.0006901721935719252
0.3,0.04096648842096329,-0.1204386055469513,0.310053288936615,0.013257580809295177,0.05285688117146492,-0.01122849341481924
0.35,0.07785549759864807,0.016841882839798927,0.2754426896572113,0.06270630657672882,0.004733268171548843,-0.011747602373361588
0.4,0.049345966428518295,-0.012893680483102798,0.12037017196416855,0.05556939169764519,-0.0226396843791008,-0.0024710430298000574
0.45,-0.021768445149064064,-0.11586381494998932,-0.00257714930921793,0.038753870874643326,-0.039236292243003845,0.012595728039741516
0.5,-0.02802446112036705,0.01605129987001419,-0.18353456258773804,0.04144097492098808,-0.03364484757184982,0.0075731435790658
0.55,-0.0326126292347908,-0.048811912536621094,-0.1973067969083786,-0.0010944930836558342,-0.008874723687767982,0.013349784538149834
0.6,-0.046619657427072525,0.02868843637406826,-0.1271851360797882,-0.017929360270500183,0.005377340130507946,0.006644826848059893
0.65,0.049758024513721466,-0.15984727442264557,0.08080273121595383,-0.027116630226373672,0.01570514589548111,0.00959109142422676
0.7,0.0950019508600235,-0.01818275824189186,0.1799982190132141,0.02921862155199051,0.009093777276575565,-0.016527481377124786
0.75,0.02515801414847374,-0.06696416437625885,0.1370236873626709,0.029073450714349747,-0.0002598169376142323,-0.008919255807995796
0.8,0.019305000081658363,-0.051974307745695114,0.07995685189962387,0.022332897409796715,-0.0011278565507382154,-0.0053382497280836105
0.85,-0.07137671113014221,-0.09698488563299179,-0.0012395561207085848,0.0006788079626858234,0.004616699181497097,0.00853816419839859
0.9,-0.02013351209461689,-0.024257663637399673,-0.027810344472527504,0.010704384185373783,-0.019066693261265755,-0.006264046300202608
0.95,0.007120239548385143,-0.005869867745786905,0.03868212178349495,-0.018088676035404205,0.02731192111968994,0.0002909154864028096
1.0,-0.006358666345477104,-0.11858274042606354,0.044592972844839096,-0.03811259940266609,0.03681504353880882,0.009261786006391048
1.05,0.018292739987373352,-0.1666584312915802,0.2594873607158661,0.0004971784073859453,0.026166586205363274,-0.005581033881753683
1.1,0.08905543386936188,0.07963085174560547,0.23261792957782745,0.059793904423713684,-0.01632116176187992,-0.026033660396933556
1.15,0.06173471733927727,-0.0004367863293737173,0.17665746808052063,0.049808938056230545,0.004966907203197479,-0.009252545423805714
1.2,0.037693917751312256,-0.04126167669892311,0.037968672811985016,0.030505230650305748,-0.005612093023955822,0.0012595499865710735
1.25,-0.00346478633582592,0.04778004065155983,0.046746622771024704,0.002579492749646306,-0.0065751587972044945,0.0042754895985126495
1.3,-0.007880354300141335,-0.04699421674013138,-0.009779781103134155,-0.01962481066584587,-0.005548508837819099,0.017257049679756165
1.35,-0.0448409728705883,-0.04660225659608841,0.025541286915540695,-0.014814421534538269,0.0034937625750899315,0.004488538485020399
1.4,-0.022901225835084915,-0.031118402257561684,0.09056557714939117,-0.02342863753437996,0.013410903513431549,0.004681885242462158
1.45,0.04641037434339523,-0.1602783352136612,0.1818326711654663,-0.010602702386677265,0.008191614411771297,-0.0016340233851224184
1.5,0.12241245061159134,-0.036402709782123566,0.30392590165138245,0.0232784952968359,0.027381226420402527,-0.015584440901875496
1.55,0.1089843288064003,0.06466580182313919,0.21384680271148682,0.0674089565873146,-0.0209836196154356,-0.03188642859458923
1.6,0.023599348962306976,0.017854690551757812,0.0679207444190979,0.04021221771836281,-0.011628442443907261,-0.008566964417696
1.65,-0.040429793298244476,-0.023913390934467316,0.02939698100090027,-0.012497862800955772,0.01695888303220272,0.004532500170171261
1.7,-0.04626680165529251,-0.08799458295106888,-0.11384164541959763,-0.04095734655857086,0.014063837938010693,0.012419311329722404
1.75,0.008716084063053131,-0.033514972776174545,-0.12057088315486908,-0.054219767451286316,-0.003574783680960536,-0.0027550163213163614
1.8,0.0359373465180397,-0.09702207148075104,0.05911044403910637,-0.04852403327822685,0.029161712154746056,-0.021993184462189674
1.85,0.05014941841363907,-0.21749594807624817,0.15734614431858063,-0.03722395747900009,0.02516580931842327,-0.01952126808464527
1.9,0.04900337755680084,-0.15624621510505676,0.38994646072387695,0.0240189041942358,0.01570736989378929,-0.03717559576034546
1.95,0.06206810474395752,0.11246014386415482,0.292888879776001,0.1017354279756546,-0.02070363610982895,-0.05410051345825195
2.0,-0.007802203297615051,0.05591297149658203,0.15000824630260468,0.06332684308290482,0.007006158120930195,-0.0014060543617233634
2.05,-0.06486427038908005,0.08451271802186966,-0.08231839537620544,0.023050637915730476,0.004379412159323692,0.018477579578757286
2.1,-0.05607708543539047,-0.04308319091796875,-0.1501196026802063,-0.020807329565286636,0.023893380537629128,0.04690970107913017
2.15,-0.17457038164138794,-0.0965423732995987,-0.2741451859474182,-0.06004638224840164,0.04041771590709686,0.07202962040901184
2.2,-0.09158682078123093,-0.10598375648260117,-0.05815783515572548,-0.05541663616895676,0.03555425629019737,0.07813407480716705
2.25,0.03829233720898628,-0.169069305062294,0.06596718728542328,-0.01578034833073616,0.00890228059142828,0.049932513386011124
2.3,0.09316493570804596,-0.23504166305065155,0.3233625590801239,0.040869664400815964,0.045165639370679855,0.044537048786878586
2.35,0.2112508863210678,-0.1381073147058487,0.48645755648612976,0.1314658224582672,0.037394892424345016,-0.013786472380161285
2.4,0.08812331408262253,0.1883850395679474,0.21523740887641907,0.14702890813350677,0.00832979567348957,-0.028753452003002167
2.45,-0.06558892130851746,0.10641194134950638,0.023435061797499657,0.03867731988430023,-0.008774572983384132,0.025624237954616547
2.5,-0.13240545988082886,0.0030469882767647505,-0.18277081847190857,-0.011644864454865456,-0.018474139273166656,0.05271131545305252
2.55,-0.1081683561205864,-0.10780812799930573,-0.19668914377689362,-0.051063284277915955,-0.03180200979113579,0.08500277996063232
2.6,-0.022943969815969467,0.014466293156147003,-0.14899389445781708,-0.09750471264123917,-0.025394614785909653,0.08889555186033249
2.65,-0.06395180523395538,-0.12859727442264557,-0.05711210146546364,-0.09934142231941223,-0.0013484489172697067,0.11460752785205841
2.7,-0.0036912132054567337,-0.3939085602760315,0.06298269331455231,-0.0923885926604271,0.0009976853616535664,0.09077977389097214
2.75,0.21408328413963318,-0.47227197885513306,0.4156949520111084,0.020370686426758766,0.027358783408999443,-0.0023136346135288477
2.8,0.41190850734710693,-0.027568815276026726,0.5605564713478088,0.1596263349056244,0.05589384585618973,-0.14405986666679382
2.85,0.2352091670036316,0.5923653244972229,0.23262643814086914,0.088643878698349,0.05433092638850212,-0.11991695314645767
2.9,-0.14166215062141418,0.027970314025878906,-0.17389263212680817,-0.1044926643371582,-0.0017819602508097887,-0.01175205409526825
2.95,-0.06785181909799576,0.034892093390226364,-0.2870279848575592,-0.15658223628997803,-0.01154852844774723,-0.006251753307878971
3.0,-0.07590854167938232,-0.20167924463748932,-0.2952995002269745,-0.23215727508068085,-0.024121882393956184,0.017554735764861107
3.05,-0.19383054971694946,-0.3246345818042755,-0.4913803040981293,-0.23297806084156036,-0.03366385027766228,0.005001840181648731
3.1,-0.09230943769216537,-0.33664801716804504,-0.3724783957004547,-0.1888016164302826,0.01788652129471302,-0.06125500798225403
3.15,0.010158335790038109,0.04089070111513138,-0.05880848690867424,-0.11308935284614563,0.05220329388976097,-0.16813692450523376
3.2,0.07272708415985107,0.11582661420106888,0.2100760042667389,-0.14733725786209106,-0.010501272976398468,-0.1761600822210312
3.25,0.20898295938968658,0.30630019307136536,0.3749464154243469,-0.1769033819437027,-0.12356286495923996,-0.13556917011737823
3.3,-0.09931962937116623,0.2759246826171875,0.30339089035987854,-0.2590945363044739,-0.1961677223443985,-0.039913538843393326
3.35,-0.2001495212316513,0.12639331817626953,0.06301141530275345,-0.29571178555488586,-0.24206382036209106,0.017706766724586487
3.4,-0.07351280748844147,0.03559303283691406,-0.04803141579031944,-0.27106720209121704,-0.3177224397659302,0.05326925218105316
3.45,-0.1457265019416809,-0.28976061940193176,0.03578817844390869,-0.2233443707227707,-0.2795198857784271,0.08671225607395172
3.5,-0.1668579876422882,-0.30321794748306274,0.2613748610019684,-0.10104221105575562,-0.21469873189926147,0.03903522714972496
3.55,-0.15492022037506104,-0.07498840242624283,0.3561701774597168,-0.054290272295475006,-0.2310323417186737,0.035636287182569504
3.6,0.036885254085063934,-0.0035295586567372084,0.2653931975364685,-0.042718350887298584,-0.21189017593860626,0.04303598403930664
3.65,0.11901724338531494,0.08675098419189453,0.3230874538421631,-0.03768441453576088,-0.1107579842209816,0.015629976987838745
3.7,-0.009758267551660538,0.011240954510867596,0.09970059990882874,-0.07079456001520157,-0.02707080915570259,0.0426131971180439
3.75,0.042860303074121475,0.044836048036813736,0.06707236170768738,-0.07567577064037323,0.05518588051199913,0.05601600930094719
3.8,0.13227631151676178,-0.03616715222597122,0.323296457529068,-0.06318727880716324,0.11947908252477646,0.05134643241763115
3.85,0.06095992028713226,-0.11163141578435898,0.2908157408237457,-0.03275948762893677,0.1403682380914688,0.06078318879008293
3.9,0.13151396811008453,-0.016931531950831413,0.15654300153255463,0.024249084293842316,0.06977424025535583,0.06082911044359207
3.95,0.18179228901863098,-0.04260538890957832,0.0009093023254536092,0.085385262966156,-0.0063255662098526955,0.08434620499610901
4.0,0.10226716846227646,-0.05274772644042969,-0.010248483158648014,0.12344343960285187,-0.04129909723997116,0.09277977049350739
4.05,0.026735853403806686,-0.07392216473817825,0.030157241970300674,0.15601104497909546,-0.03952968493103981,0.0940406322479248
4.1,-0.13452103734016418,0.0636444017291069,0.06622494757175446,0.15348947048187256,-0.054589807987213135,0.08136887103319168
4.15,-0.1368764042854309,-0.05510999262332916,-0.09739381819963455,0.13433974981307983,-0.038546402007341385,0.06882215291261673
4.2,-0.07931385189294815,-0.05201531946659088,0.0240922998636961,0.1290363073348999,-0.0670098215341568,0.05056280642747879
4.25,-0.06111228093504906,0.014231683686375618,-0.09160403907299042,0.1297268271446228,0.007088881451636553,0.06601333618164062
4.3,-0.004147256258875132,-0.002205848228186369,-0.02031545154750347,0.1130879819393158,0.04535715654492378,0.09410209208726883
4.35,-0.11534126102924347,-0.0381174236536026,0.07690057158470154,0.11647623777389526,0.07011589407920837,0.09407208114862442
4.4,-0.07738669961690903,-0.019754422828555107,0.10650160908699036,0.12625271081924438,0.05595267936587334,0.0726780891418457
4.45,-0.01541072130203247,0.018338195979595184,0.1588887870311737,0.12978658080101013,0.040026891976594925,0.07541441917419434
4.5,-0.060354068875312805,0.02976035140454769,0.1741601675748825,0.13695555925369263,0.024732479825615883,0.07882410287857056
4.55,-0.10958020389080048,0.030921922996640205,0.187261164188385,0.13226641714572906,0.00658046780154109,0.0923423320055008
4.6,-0.10184410214424133,0.034527771174907684,0.09090612828731537,0.14202207326889038,-0.022631537169218063,0.08461996167898178
4.65,-0.05039992555975914,-0.016721734777092934,0.07414441555738449,0.11906823515892029,-0.01443268358707428,0.11195208132266998
4.7,-0.1284908652305603,-0.10001661628484726,-0.017382008954882622,0.09750069677829742,0.06036660820245743,0.12001274526119232
4.75,-0.027889180928468704,0.029987340793013573,-0.06933273375034332,0.09198865294456482,0.07998060435056686,0.08068893104791641
4.8,0.010086536407470703,-0.1708059310913086,-0.19412097334861755,0.024633357301354408,0.0615217462182045,0.06530607491731644
4.85,0.13104891777038574,-0.09489059448242188,-0.15159834921360016,0.037747934460639954,0.09282417595386505,0.004087071865797043
4.9,0.14107224345207214,0.12830068171024323,0.10291609168052673,0.04066237807273865,0.10605781525373459,-0.04120611026883125
4.95,0.15688937902450562,-0.038270946592092514,0.07796724140644073,0.0013831667602062225,0.0899275466799736,-0.02149985171854496
5.0,-0.023269038647413254,-0.05505181476473808,0.013722258619964123,0.01310887560248375,0.08184002339839935,-0.02692575938999653
5.05,-0.01882770285010338,-0.07555295526981354,0.05662387236952782,0.012667985633015633,0.06778226792812347,-0.02959858439862728
5.1,-0.030356697738170624,0.014870643615722656,-0.019850080832839012,0.01732499711215496,0.019322920590639114,-0.010176470503211021
5.15,0.059146225452423096,-0.2844400703907013,-0.02823883295059204,0.01609918661415577,-0.0006862044683657587,0.0035357088781893253
5.2,0.07180510461330414,0.02165127545595169,0.01184350997209549,0.06487339735031128,0.018940282985568047,0.008355040103197098
5.25,-0.10288383066654205,0.039953216910362244,0.1931641548871994,0.08770477771759033,0.08613203465938568,0.012721803039312363
5.3,-0.2059200406074524,-0.0955677479505539,0.26833826303482056,0.09897062927484512,0.08019480109214783,0.00028379977447912097
5.35,-0.2001793384552002,-0.006882693152874708,0.20228014886379242,0.09258244186639786,0.033059608191251755,-0.011573364026844501
5.4,-0.1361861228942871,-0.10616782307624817,0.07248929888010025,0.06834664940834045,-0.03141094744205475,-0.02017926424741745
5.45,-0.15804423391819,-0.09248735755681992,0.011232531629502773,0.09151477366685867,-0.05742605775594711,-0.03659288212656975
5.5,-0.06273393332958221,-0.03071785718202591,-0.021810805425047874,0.10447599738836288,-0.03064638562500477,-0.037349503487348557
5.55,0.030449364334344864,-0.07087898999452591,0.006025820039212704,0.07923930138349533,-0.055765215307474136,-0.01480285543948412
5.6,-0.047739386558532715,-0.05675984546542168,-0.023711245507001877,0.07414206862449646,-0.04368756338953972,-0.006557496264576912
5.65,-0.027300812304019928,0.011700628325343132,0.02474687620997429,0.06309755146503448,-0.04549223929643631,-0.013451725244522095
5.7,0.01393131259828806,-0.06548786908388138,0.026549912989139557,0.03044513240456581,-0.036535996943712234,0.001527457032352686
5.75,-0.027462193742394447,-0.06982137262821198,0.039098575711250305,0.0078378114849329,-0.027814850211143494,0.010988463647663593
5.8,-0.030011210590600967,-0.07891084253787994,0.05687597393989563,-0.010404879227280617,-0.026009835302829742,0.011327479034662247
5.85,-0.017910990864038467,-0.04973508045077324,0.04785103723406792,-0.024592336267232895,-0.016685768961906433,0.01635994389653206
5.9,-0.03429245948791504,-0.0500040166079998,0.011488842777907848,-0.03020503744482994,0.002636832417920232,0.014379295520484447
5.95,0.060237228870391846,-0.03837108612060547,0.05319719761610031,-0.013397810980677605,0.008586023934185505,0.001965875970199704
6.0,0.11538870632648468,-0.03139781579375267,0.06759606301784515,-0.004634310491383076,0.02321530319750309,-0.00400421442463994
6.05,-0.011453777551651001,-0.08047199994325638,0.058511778712272644,-0.005782777443528175,-0.009528283029794693,-0.01900942623615265
6.1,-0.0246037058532238,-0.07457733899354935,-0.002858314896002412,0.0048091416247189045,-0.005077227018773556,-0.00624180817976594
6.15,-0.07766811549663544,0.031121250241994858,0.03956488519906998,0.009159838780760765,-0.00967531930655241,-0.017141161486506462
6.2,-0.029797755181789398,-0.090241439640522,0.028834333643317223,-2.9206275939941406e-06,-0.007526852656155825,-0.011711387895047665
6.25,-0.007426384836435318,-0.0449686124920845,0.08991057425737381,-0.011306402273476124,-0.01146729290485382,-0.009145118296146393
6.3,-0.012617463245987892,-0.04383469372987747,0.030791284516453743,-0.008843041025102139,-0.0032527598086744547,-0.015808863565325737
6.35,-0.022189585492014885,0.0008811926236376166,0.01858050376176834,0.0026131663471460342,-0.008831481449306011,-0.01093654427677393
6.4,-0.010274864733219147,-0.05934621021151543,0.03441929444670677,-0.008465545251965523,-0.00809414777904749,-0.007342066150158644
6.45,0.030828794464468956,-0.07452202588319778,0.05493434891104698,-0.006949037779122591,-0.0040091038681566715,0.000286651193164289
6.5,0.004625145345926285,-0.0831918865442276,0.10600221157073975,-0.004935374017804861,-0.005108702462166548,-0.008452994748950005
6.55,0.022343963384628296,0.010307314805686474,-0.004161984659731388,0.0004101265221834183,0.006447377149015665,-0.013349858112633228
6.6,-0.0017239190638065338,-0.0661468654870987,0.0794583335518837,-0.0052239676006138325,0.011649763211607933,-0.009080681949853897
6.65,0.056290432810783386,-0.07439137250185013,0.02359008975327015,-0.012471664696931839,0.015319417230784893,-0.0018674544990062714
6.7,-0.08079071342945099,-0.06063176319003105,-0.06737512350082397,-0.002647700719535351,-0.0063102669082582,-0.012430420145392418
6.75,-0.0050677889958024025,-0.1434660106897354,0.017061682417988777,0.005926868878304958,-0.01526683010160923,-0.009323508478701115
6.8,-0.08420239388942719,-0.03671646863222122,-0.035506293177604675,-0.009172584861516953,0.016060659661889076,-0.005879303906112909
6.85,-0.13591133058071136,-0.07809735089540482,-0.22382044792175293,-0.04010965675115585,0.017473796382546425,0.013377811759710312
6.9,-0.16745901107788086,-0.11359788477420807,-0.2470667064189911,-0.05600765347480774,-0.010245203971862793,0.014844591729342937
6.95,-0.07578260451555252,-0.01520633790642023,-0.14809174835681915,-0.0702580064535141,-0.04354412481188774,0.01894734613597393
7.0,-0.13944321870803833,0.005094529595226049,-0.2518796920776367,-0.10916239023208618,-0.033415209501981735,0.03199465945363045
7.05,-0.028875909745693207,0.07794953882694244,-0.15578259527683258,-0.14215269684791565,-0.00017021194798871875,0.04014877602458
7.1,-0.030400479212403297,0.2731962502002716,0.018376490101218224,-0.21110132336616516,0.017826350405812263,0.05590501427650452
7.15,0.03226234391331673,0.41549593210220337,0.1743122637271881,-0.2912536859512329,0.013907156884670258,0.10194288194179535
7.2,0.0774865597486496,0.16584110260009766,0.31040695309638977,-0.3067055344581604,0.017536142840981483,0.11808063089847565
7.25,-0.0721115693449974,0.14072324335575104,0.02189195156097412,-0.31352102756500244,0.01631307229399681,0.12138894200325012
7.3,0.3354349136352539,0.10080628097057343,-0.16948722302913666,-0.34431928396224976,-0.04654905945062637,0.16438627243041992
7.35,0.1797015368938446,-0.11613939702510834,-0.30753833055496216,-0.3709076941013336,0.06619177013635635,0.23504844307899475
7.4,-0.02647731453180313,-0.15720084309577942,0.23304791748523712,-0.2905096113681793,0.19103507697582245,0.18417155742645264
7.45,-0.172165185213089,-0.4631682336330414,0.5846939086914062,-0.1979426145553589,0.17219404876232147,0.14635108411312103
7.5,-0.18493928015232086,-0.3895817697048187,0.5766754746437073,-0.1485496163368225,0.03651408478617668,0.05524174124002457
7.55,-0.11915846168994904,-0.04929260164499283,0.45961490273475647,-0.14625656604766846,-0.2918146848678589,0.056309428066015244
7.6,-0.08779273182153702,-0.37171271443367004,-0.3070260286331177,-0.20987728238105774,-0.3372901380062103,0.08505943417549133
7.65,0.34791427850723267,-0.17438411712646484,0.22526313364505768,-0.075331911444664,-0.03963011875748634,-0.10889001190662384
7.7,0.25761330127716064,0.22786810994148254,0.5838931202888489,-0.0018028095364570618,0.05631473287940025,-0.10485487431287766
7.75,0.010856399312615395,-0.09859086573123932,0.043916452676057816,-0.049870721995830536,-0.03396164998412132,-0.03060999885201454
7.8,0.1305483728647232,0.3088436424732208,-0.0728762075304985,0.027069490402936935,-0.0183420367538929,-0.07190684229135513
7.85,-0.014210924506187439,0.06835365295410156,0.1519632488489151,0.04508712515234947,0.11391168087720871,0.009868855588138103
7.9,-0.19306863844394684,-0.1736936867237091,0.05192500352859497,0.01744103990495205,0.23127275705337524,-0.019197462126612663
7.95,0.03254404664039612,-0.07885457575321198,0.13647913932800293,0.0850829929113388,0.14557284116744995,0.0064027030020952225
8.0,0.046499043703079224,-0.03188609704375267,-0.09785837680101395,0.0649791806936264,0.07525580376386642,-0.0002930506889242679
8.05,0.018566470593214035,-0.16125203669071198,0.07904202491044998,0.06572066992521286,0.11522062122821808,-0.07417257130146027
8.1,0.053258266299963,-0.01857948675751686,0.1330692321062088,0.12482591718435287,0.1664547324180603,-0.10434173792600632
8.15,0.34031280875205994,0.06303790956735611,-0.036530137062072754,0.15907491743564606,0.18295100331306458,-0.08851303160190582
8.2,0.03581412136554718,0.013474484905600548,-0.3452722132205963,0.1348210871219635,0.2543991804122925,0.015475522726774216
8.25,-0.20545852184295654,-0.09099485725164413,-0.040451399981975555,0.13237503170967102,0.20115865767002106,-0.03927945718169212
8.3,-0.06558370590209961,-0.05869200453162193,0.3317617177963257,0.0971100777387619,0.10311958193778992,-0.10962160676717758
8.35,-0.005593497306108475,0.12161541730165482,0.08513639122247696,0.07090627402067184,-0.017112066969275475,-0.1081099882721901
8.4,-0.07348160445690155,0.03747749328613281,-0.05531531199812889,0.05554276704788208,-0.01721331849694252,-0.05098776891827583
8.45,-0.2548685371875763,-0.19941334426403046,-0.05378979817032814,0.09978135675191879,-0.009016472846269608,-0.021934835240244865
8.5,-0.21345004439353943,0.03177259489893913,0.16819915175437927,0.1382172852754593,-0.07439716160297394,-0.05336727201938629
8.55,-0.06200386583805084,0.07325553894042969,0.0464920774102211,0.09244100749492645,-0.11427861452102661,-0.033291902393102646
8.6,-0.03234817832708359,0.04074287787079811,-0.09334470331668854,0.060134608298540115,-0.09521184861660004,-0.021466920152306557
8.65,-0.06300018727779388,-0.06398487091064453,-0.18876388669013977,0.038030363619327545,-0.06530571728944778,0.0006806363817304373
8.7,0.002201143652200699,-0.009369844570755959,-0.13713438808918,0.03359457850456238,-0.035413917154073715,0.03246290609240532
8.75,-0.11312192678451538,-0.03964997082948685,-0.13781628012657166,0.028897175565361977,0.025256788358092308,0.009227495640516281
8.8,-0.030003424733877182,-0.017985347658395767,-0.009597161784768105,0.02390345185995102,0.015310946851968765,0.005714964587241411
8.85,-0.002992706373333931,0.015219691209495068,-0.016907894983887672,0.028973523527383804,-0.03290346637368202,-0.002029917435720563
8.9,-0.014735313132405281,-0.03478432074189186,2.878127634176053e-05,0.016788143664598465,-0.020823797211050987,0.011964240111410618
8.95,0.036783915013074875,-0.02004241943359375,0.024454766884446144,0.014508424326777458,-0.03789830207824707,0.018191270530223846
9.0,0.007783656939864159,-0.06654549390077591,0.066573366522789,0.025995606556534767,-0.03329060971736908,0.0022190778981894255
9.05,0.028475115075707436,0.004888531751930714,0.11585082113742828,0.031193330883979797,-0.02046128362417221,-0.008789818733930588
9.1,0.015466064214706421,0.013588903471827507,0.10390137881040573,0.02029561810195446,-0.013657404109835625,-0.013823596760630608
9.15,0.005916539579629898,-0.021514900028705597,0.14229422807693481,0.009685016237199306,-0.0034239566884934902,-0.00856199860572815
9.2,0.0492190383374691,0.006869315169751644,0.12367279827594757,0.007912945933640003,-0.014193680137395859,-0.006690080277621746
9.25,-0.0004714232636615634,-0.10951615869998932,0.004686088766902685,-0.002687492873519659,-0.02471078559756279,0.002812581369653344
9.3,0.07148095965385437,0.04588795080780983,0.11924302577972412,0.012630091048777103,-0.021542904898524284,-0.010500602424144745
9.35,-0.012230869382619858,-0.008147244341671467,0.05366286635398865,0.007358874659985304,0.00023853944730944932,-0.006613110192120075
9.4,0.00013570860028266907,0.020519256591796875,0.02504906803369522,-0.009508639574050903,0.0039618052542209625,-0.0012796855298802257
9.45,-0.08537919074296951,-0.10490133613348007,-0.053429748862981796,-0.025083303451538086,-0.002611967734992504,0.0017366621177643538
9.5,-0.07603970915079117,-0.026794439181685448,-0.0691571831703186,-0.021363267675042152,-0.010957112535834312,0.005757533945143223
9.55,-0.26474693417549133,0.0932769775390625,-0.25207239389419556,-0.0671267881989479,-0.009548485279083252,0.0372394435107708
9.6,-0.2338654100894928,0.077605240046978,-0.10195902734994888,-0.14247137308120728,-0.028559040278196335,0.05782940611243248
9.65,-0.34392639994621277,0.3098020553588867,-0.09070771932601929,-0.1988268941640854,-0.028997886925935745,0.010806445963680744
9.7,-0.21986395120620728,0.4052429497241974,0.31481242179870605,-0.2912387251853943,0.046692971140146255,-0.015464108437299728
9.75,-0.24746066331863403,0.42952632904052734,0.8511219620704651,-0.4262548089027405,0.08197221159934998,-0.048085786402225494
9.8,0.20809681713581085,0.3596420884132385,-0.07364816963672638,-0.5791018009185791,-0.03981689363718033,-0.04779065027832985
9.85,1.021085262298584,0.27408233284950256,-1.1840224266052246,-0.5840505361557007,-0.06447111070156097,0.18544933199882507
9.9,1.1401281356811523,-0.4380854666233063,-1.1578965187072754,-0.36122551560401917,0.4883417785167694,0.29494279623031616
9.95,0.5934301018714905,-0.09136289358139038,-0.4818519949913025,-0.2169654816389084,0.8820793032646179,0.34881213307380676
10.0,0.1880980134010315,-0.15247534215450287,-0.3480636477470398,-0.2451995462179184,0.8047086596488953,0.4123366177082062
10.05,0.29345089197158813,-0.27536869049072266,-0.3945935070514679,-0.1681097149848938,0.7304103970527649,0.3521820902824402
10.1,0.0489685982465744,0.04800128936767578,0.2428075671195984,-0.07885225117206573,0.763156533241272,0.1952073872089386
10.15,-0.10299986600875854,0.11995981633663177,0.4137793183326721,-0.10917540639638901,0.7062684297561646,0.16258051991462708
10.2,-0.22902697324752808,-0.1637745350599289,0.40041619539260864,-0.24080725014209747,0.5970147848129272,0.06991659849882126
10.25,0.05169418454170227,-0.05178261175751686,0.03992312774062157,-0.188526451587677,0.3687150180339813,-0.0032565263099968433
10.3,-0.1744895577430725,0.12892338633537292,0.6502152681350708,-0.16263103485107422,0.18698476254940033,-0.15014824271202087
10.35,-0.09909919649362564,-0.13172248005867004,0.12540040910243988,-0.37098410725593567,0.0472358763217926,-0.2581080496311188
10.4,0.4161020815372467,-0.27039432525634766,-0.10501017421483994,-0.18903830647468567,-0.0506698414683342,-0.07480625063180923
10.45,0.15419980883598328,0.04251483082771301,-0.2965179979801178,-0.19937393069267273,0.21893972158432007,-0.06484231352806091
10.5,-0.17279067635536194,-0.21353916823863983,0.15770994126796722,-0.20947489142417908,0.32856595516204834,-0.12441499531269073
10.55,0.07265809923410416,-0.5257235169410706,0.2720528841018677,-0.07570654153823853,0.06386847048997879,0.024043556302785873
10.6,-0.5033913850784302,0.19477269053459167,0.2991161346435547,-0.05970491096377373,0.08008698374032974,-0.10715948045253754
10.65,0.006994694471359253,-0.012126955203711987,0.6790300607681274,-0.007132139056921005,-0.1781083643436432,-0.012505631893873215
10.7,0.15751822292804718,-0.07638929784297943,-0.2216200828552246,0.01919965073466301,-0.13019874691963196,0.03928929194808006
10.75,-0.5712098479270935,-0.4400416612625122,0.3599936068058014,0.046301089227199554,-0.1916256546974182,0.023547284305095673
10.8,0.48433440923690796,-0.04464433342218399,0.2576860189437866,0.2447044849395752,-0.21470724046230316,-0.005784329492598772
10.85,0.024714039638638496,0.25998976826667786,0.0946555882692337,0.19206732511520386,-0.2219448685646057,0.07678733021020889
10.9,0.04171743243932724,0.5043936371803284,0.10765400528907776,0.16030170023441315,-0.17156380414962769,0.010518394410610199
10.95,0.2132118046283722,-0.21223069727420807,0.05932037904858589,0.09017940610647202,-0.18051029741764069,0.12865398824214935
11.0,0.08501460403203964,0.135410338640213,-0.2943306863307953,0.09781970083713531,-0.09923612326383591,0.07118764519691467
11.05,-0.31825757026672363,0.10080146789550781,-0.23444809019565582,0.10048168152570724,0.013370747677981853,-0.02340129390358925
11.1,0.05053658410906792,0.3288574516773224,-0.11011151224374771,0.11185318231582642,0.16142867505550385,-0.04680594056844711
11.15,0.05325623229146004,-0.025636667385697365,-0.10350717604160309,-0.03160616755485535,0.35700228810310364,-0.04987013339996338
11.2,-0.1411251574754715,0.7081318497657776,-0.3288716673851013,-0.16081827878952026,0.490935355424881,-0.10144173353910446
11.25,-0.013476379215717316,0.2905941307544708,-0.13824132084846497,-0.18406960368156433,0.4640932083129883,-0.014539043419063091
11.3,0.06697836518287659,-0.35114291310310364,-0.04298914223909378,-0.08081851899623871,0.2439155876636505,0.1810719221830368
11.35,-0.21920624375343323,-0.5657368302345276,-0.1532021015882492,-0.028636343777179718,0.21425147354602814,0.21731175482273102
11.4,0.0738389790058136,-0.042043693363666534,0.17186839878559113,0.13180384039878845,0.0315556526184082,0.11112028360366821
11.45,-0.1832987666130066,0.09935854375362396,0.31597238779067993,0.1227414458990097,-0.06319427490234375,-0.029763663187623024
11.5,-0.028385672718286514,0.03127860650420189,0.12180642783641815,0.0815388411283493,-0.2583680748939514,-0.02695464715361595
11.55,0.7413819432258606,0.11506757140159607,-0.4311889111995697,0.20461124181747437,-0.394805908203125,0.029763998463749886
11.6,0.24162067472934723,0.2004576325416565,-0.12837977707386017,0.06311603635549545,-0.11423664540052414,0.03611203655600548
11.65,-0.11966636031866074,-0.1706877052783966,0.09920565783977509,0.04574715346097946,0.002533281221985817,0.0416870191693306
11.7,0.001758042722940445,0.06511497497558594,0.10815086960792542,0.11456992477178574,-0.09078702330589294,0.028302472084760666
11.75,-0.021005626767873764,-0.010416028089821339,-0.10860642790794373,0.03726496547460556,-0.0582304410636425,-0.006572393234819174
11.8,-0.11795687675476074,0.16797256469726562,0.14278997480869293,0.07842481881380081,-0.06380131095647812,0.013030093163251877
11.85,-0.034547626972198486,-0.023963941261172295,0.1246870905160904,0.05846565216779709,-0.04231705889105797,0.05257077142596245
11.9,0.13869734108448029,-0.0899658277630806,0.23425623774528503,0.04221948981285095,-0.07712255418300629,0.04918227344751358
11.95,-0.012116825208067894,-0.06506920605897903,-0.051378559321165085,-0.0022563692182302475,-0.06718884408473969,-0.05645390599966049
12.0,0.03967434912919998,0.04827024042606354,-0.070526622235775,-0.0018893331289291382,-0.03019436076283455,-0.06438494473695755
12.05,-0.05228310823440552,0.3162374794483185,0.1985708624124527,0.05743062496185303,-0.0242339875549078,-0.0672878697514534
12.1,0.015608571469783783,0.0223846398293972,0.16407467424869537,0.05646951496601105,-0.12180641293525696,0.02062538079917431
12.15,-0.11449255049228668,-0.48093900084495544,0.5474165081977844,0.049426719546318054,-0.1774347871541977,0.04913513362407684
12.2,-0.1414388120174408,0.21666337549686432,0.15186700224876404,-0.02217908948659897,-0.2661808431148529,-0.22983351349830627
12.25,0.34103524684906006,0.20153623819351196,-0.07724016904830933,0.07244107872247696,-0.3889719247817993,-0.13045711815357208
12.3,0.3850025534629822,-0.08774754405021667,-0.17949266731739044,0.13659867644309998,-0.39233288168907166,0.025497203692793846
12.35,-0.029792003333568573,-0.1148710548877716,0.2337384968996048,0.12111534178256989,-0.179538294672966,-0.11185281723737717
12.4,0.014407530426979065,-0.05332186073064804,0.34248673915863037,0.12646976113319397,-0.23389926552772522,-0.11231803894042969
12.45,0.07408256828784943,0.008355127647519112,0.421335369348526,0.18217341601848602,-0.32289427518844604,-0.061310168355703354
12.5,0.3391794264316559,0.11600212007761002,0.1197892427444458,0.23169250786304474,-0.34413158893585205,-0.039695657789707184
12.55,0.20337209105491638,-0.23214055597782135,-0.07397664338350296,0.24718624353408813,-0.31274664402008057,-0.0288348700851202
12.6,-0.023360958322882652,-0.23346713185310364,-0.08282153308391571,0.21990877389907837,-0.14665301144123077,-0.09525149315595627
12.65,-0.16590085625648499,0.04273698851466179,0.23296013474464417,0.207039475440979,-0.0833040252327919,-0.17660975456237793
12.7,-0.11181347072124481,-0.11388687044382095,0.34530794620513916,0.23094333708286285,-0.207683265209198,-0.15838523209095
12.75,0.19150424003601074,-0.19956113398075104,-0.13786055147647858,0.24700720608234406,-0.29915279150009155,-0.11759091913700104
12.8,-0.1260281354188919,0.237489715218544,0.0949857085943222,0.2752923369407654,-0.252481073141098,-0.09916248172521591
12.85,-0.13643012940883636,0.12665653228759766,-0.02684968337416649,0.23269765079021454,-0.33264192938804626,-0.05994175001978874
12.9,-0.043222736567258835,0.12357714027166367,-0.21219868957996368,0.17841044068336487,-0.2711668908596039,-0.06348881870508194
12.95,0.00951436348259449,0.3362284004688263,-0.06300073117017746,0.12937197089195251,-0.13714182376861572,-0.0834147036075592
13.0,-0.04290270805358887,-0.0032596380915492773,-0.5284059643745422,-0.006229037418961525,-0.08412764966487885,0.043384749442338943
13.05,0.22598308324813843,0.05907635763287544,-0.478248655796051,0.011497674509882927,-0.11227709800004959,0.016316549852490425
13.1,0.045999735593795776,-0.021992672234773636,-0.19389039278030396,0.023016739636659622,0.008195571601390839,-0.018469221889972687
13.15,-0.20778371393680573,-0.24930958449840546,0.0794619768857956,0.02945767343044281,0.0003803223662544042,-0.08137602359056473
13.2,-0.25780653953552246,-0.14688019454479218,0.07819861173629761,0.009053196758031845,0.027912473306059837,-0.09572692960500717
13.25,0.10128597170114517,-0.05381394550204277,0.2258131057024002,0.004029814153909683,-0.08269105851650238,-0.11056304723024368
13.3,0.10063821077346802,0.10668470710515976,0.010885173454880714,-0.04604310914874077,-0.050854288041591644,-0.09333598613739014
13.35,-0.007614022120833397,0.5596781373023987,0.07018596678972244,-0.10493692010641098,0.028698967769742012,0.00517450924962759
13.4,-0.19620449841022491,0.3362303078174591,-0.36469924449920654,-0.19239924848079681,0.10158438980579376,0.12551751732826233
13.45,0.011252909898757935,-0.1637391895055771,-0.53387051820755,-0.16929298639297485,0.14628058671951294,0.2600630223751068
13.5,0.07748839259147644,-0.07678602635860443,-0.3390337824821472,-0.134086012840271,0.2845843732357025,0.24292241036891937
13.55,-0.08002311736345291,0.10016443580389023,-0.336027055978775,-0.22189532220363617,0.41330745816230774,0.18089498579502106
13.6,-0.1164894700050354,-0.1087513267993927,0.11234614998102188,-0.2822902798652649,0.4041137993335724,0.019585510715842247
13.65,0.042107343673706055,-0.23935990035533905,0.47456035017967224,-0.24944141507148743,0.4527739882469177,-0.029124591499567032
13.7,-0.20279183983802795,0.2992839515209198,0.7876786589622498,-0.1750037670135498,0.3952246606349945,0.02090003527700901
13.75,0.41946008801460266,0.049204859882593155,0.12318403273820877,-0.3131699562072754,0.1966443806886673,0.042837370187044144
13.8,0.045888837426900864,0.045316699892282486,0.07409173995256424,-0.24882365763187408,0.2471121996641159,0.19838188588619232
13.85,0.22933094203472137,-0.2812195122241974,0.29893556237220764,-0.07992546260356903,0.3216666281223297,0.22316429018974304
13.9,-0.19526225328445435,-0.38590916991233826,0.6165033578872681,-0.04868069291114807,0.3366084098815918,0.11174413561820984
13.95,-0.33343344926834106,0.09444519877433777,0.4127405881881714,-0.035538677126169205,0.15613336861133575,0.10571137070655823
14.0,0.04822078347206116,-0.01194382831454277,0.2717539370059967,0.031995147466659546,0.10506796091794968,0.11683621257543564
14.05,0.1176334023475647,-0.1263733059167862,0.3014814555644989,0.03265610337257385,0.091693215072155,0.15979211032390594
14.1,-0.07494394481182098,0.06628989428281784,0.2293909341096878,-0.01581432670354843,0.07572901993989944,0.10395749658346176
14.15,0.09666323661804199,0.11536790430545807,0.09687946736812592,-0.005878215655684471,0.004212059546262026,0.06854268908500671
14.2,0.16268931329250336,-0.0142898540943861,0.18205872178077698,-0.01628805883228779,-0.043591663241386414,0.05013849586248398
14.25,0.05639608949422836,0.0909433588385582,-0.3088759779930115,-0.017438635230064392,-0.04882195219397545,0.034276049584150314
14.3,0.19284841418266296,0.1342010796070099,-0.003116796724498272,0.0389421209692955,-0.020609866827726364,0.04147309437394142
14.35,-0.09365466237068176,-0.3262520432472229,0.3395511209964752,0.044134799391031265,0.0515698604285717,0.044952549040317535
14.4,-0.14650975167751312,-0.03949646279215813,0.5925763845443726,0.03196079283952713,-0.0405493788421154,-0.08266067504882812
14.45,-0.014971524477005005,-0.10963823646306992,0.15789443254470825,-0.02573976293206215,-0.23147797584533691,-0.15556050837039948
14.5,0.7827209234237671,0.33239662647247314,-0.48381298780441284,0.06906268000602722,-0.3078823387622833,-0.15336015820503235
14.55,0.3509848415851593,0.04573539271950722,-0.10006672143936157,0.04776851460337639,0.0543210543692112,-0.11435375362634659
14.6,-0.23323753476142883,0.0035848338156938553,0.2289951592683792,0.03234249725937843,0.16283150017261505,-0.12717661261558533
14.65,-0.23159238696098328,0.04476926103234291,0.23555666208267212,0.05378970503807068,-0.04300089552998543,-0.09539821743965149
14.7,0.010801881551742554,0.21203045547008514,-0.18940679728984833,0.06232175976037979,-0.18228794634342194,-0.04590825363993645
14.75,0.029542822390794754,0.14792920649051666,0.010666829533874989,0.05387187749147415,-0.1231965497136116,0.0037827121559530497
14.8,-0.4096145033836365,-0.20183570683002472,0.20001108944416046,-0.013486780226230621,0.005794391967356205,-0.002702149096876383
14.85,-0.20943808555603027,-0.2549143433570862,0.07632548362016678,0.0058587100356817245,-0.14741192758083344,-0.0693715512752533
14.9,0.3568575382232666,0.19648082554340363,-0.24818338453769684,0.0681343674659729,-0.24960541725158691,-0.15945842862129211
14.95,-0.04549182578921318,0.1879730522632599,0.03059026226401329,0.10415490716695786,-0.08954649418592453,-0.10427794605493546
15.0,-0.12116632610559464,-0.010063176043331623,-0.11457061022520065,0.08898963779211044,-0.030983800068497658,-0.05457621067762375
15.05,-0.26393356919288635,-0.19992737472057343,0.00016045273514464498,0.05863671749830246,-0.06836461275815964,-0.0903656855225563
15.1,-0.06442287564277649,-0.10846903920173645,0.16854237020015717,0.06292487680912018,-0.13806141912937164,-0.16756822168827057
15.15,0.17922449111938477,-0.07298564910888672,0.107401542365551,0.11369229853153229,-0.30397236347198486,-0.1637040376663208
15.2,0.4138091802597046,-0.04606625437736511,-0.026729438453912735,0.144661083817482,-0.3522367477416992,-0.17483726143836975
15.25,0.16316542029380798,0.1855354607105255,0.012565532699227333,0.17426010966300964,-0.2742956578731537,-0.14064593613147736
15.3,0.13589787483215332,-0.00591277377679944,0.055369775742292404,0.19084081053733826,-0.14823593199253082,-0.07521059364080429
15.35,-0.19368091225624084,-0.2726765275001526,0.43873390555381775,0.2508367896080017,-0.024631237611174583,-0.04407193884253502
15.4,-0.09086324274539948,-0.17809680104255676,0.1753128319978714,0.26599517464637756,-0.02862037718296051,-0.05235828086733818
15.45,-0.1286993771791458,-0.3189392685890198,0.27808675169944763,0.2118264138698578,-0.026504259556531906,-0.11851993203163147
15.5,0.12136334180831909,-0.05466939136385918,0.28865325450897217,0.18504875898361206,-0.0620102621614933,-0.15309832990169525
15.55,0.2287922203540802,0.30823805928230286,0.08290565013885498,0.19257806241512299,-0.08677758276462555,-0.16644835472106934
15.6,0.32395583391189575,0.08188537508249283,-0.15962538123130798,0.0957094207406044,-0.031352654099464417,-0.11112663149833679
15.65,0.2855719029903412,0.01679994910955429,0.015029417350888252,0.0841369479894638,0.1005980521440506,-0.1909359097480774
15.7,0.08759903907775879,0.0022544858511537313,0.15670588612556458,0.04964070022106171,0.14214414358139038,-0.21043764054775238
15.75,0.010077785700559616,0.117371566593647,0.13868458569049835,0.03830399364233017,0.14638960361480713,-0.24375174939632416
15.8,-0.1133866012096405,-0.08417893946170807,-0.02598784863948822,-0.01847226172685623,0.1149272695183754,-0.2695346772670746
15.85,-0.03930068016052246,-0.01987648196518421,-0.05564405769109726,-0.017140120267868042,0.06938129663467407,-0.2497178167104721
15.9,-0.05518675595521927,0.005881307180970907,-0.022569630295038223,0.01909298449754715,0.018591489642858505,-0.16884545981884003
15.95,-0.3878215551376343,-0.049652133136987686,-0.09582731872797012,0.005821101367473602,0.014675550162792206,-0.09913270175457001
16.0,-0.23189643025398254,0.05322074517607689,-0.14896878600120544,0.022667963057756424,-0.08492092788219452,-0.10328365117311478
16.05,-0.1346072107553482,-0.03239060565829277,-0.10058267414569855,0.061887145042419434,-0.18384617567062378,-0.04448550194501877
16.1,-0.13309763371944427,0.011168468743562698,0.03378375247120857,0.07614511996507645,-0.14919829368591309,-0.012438084930181503
16.15,-0.1194448471069336,0.021075241267681122,0.012254981324076653,0.04932760074734688,-0.09148254245519638,0.0006015498074702919
16.2,-0.01214655488729477,-0.03925038129091263,0.06108667328953743,0.025103900581598282,-0.08377382159233093,0.03704458475112915
16.25,-0.005517098121345043,-0.11893750727176666,0.03252064809203148,0.01608804240822792,-0.05833011120557785,0.038517821580171585
16.3,0.11473194509744644,-0.10601712018251419,0.08900120854377747,0.01981397718191147,-0.04369199275970459,0.034232400357723236
16.35,0.08629509806632996,-0.07233142852783203,0.021405739709734917,0.0195548627525568,-0.034905675798654556,0.04162844270467758
16.4,0.12501847743988037,-0.05608559027314186,0.13519355654716492,0.021050287410616875,-0.01783025823533535,0.028926435858011246
16.45,0.03225649893283844,0.02225208654999733,0.03069082647562027,0.013378141447901726,-0.021907925605773926,0.03828265517950058
16.5,0.08773922920227051,-0.15242482721805573,0.026187678799033165,0.009410315193235874,-0.01565448008477688,0.03192239999771118
16.55,0.03812722489237785,-0.062495242804288864,0.18023425340652466,0.02751755341887474,-0.01096075214445591,0.015842290595173836
16.6,-0.05689290165901184,-0.004302026238292456,-0.0769067257642746,0.02300231158733368,-0.027493996545672417,0.020319407805800438
16.65,-0.022317539900541306,-0.08532524853944778,-0.036481477320194244,0.029927443712949753,-0.03551666811108589,0.00876882765442133
16.7,0.04523199424147606,0.04113006964325905,0.07102403044700623,0.02710053324699402,-0.01400686800479889,0.010274011641740799
16.75,0.030453817918896675,-0.008203507401049137,0.04114562273025513,0.013580250553786755,-0.02013479359447956,0.017760751768946648
16.8,0.04985286667943001,-0.04091072455048561,0.06481973826885223,0.008648132905364037,-0.011832475662231445,0.004723979160189629
16.85,0.04651118069887161,-0.01303767878562212,-0.013954246416687965,0.0061647179536521435,-0.002940847771242261,0.00574834318831563
16.9,0.11461832374334335,-0.0003871879889629781,0.10652678459882736,0.003996987361460924,-0.014146044850349426,0.0046737841330468655
16.95,-0.0147089883685112,0.0028943964280188084,0.08964096754789352,-1.3075419701635838e-05,0.0018496547127142549,-0.0020914452616125345
17.0,0.08652177453041077,-0.022348402068018913,0.08199924230575562,-0.009988459758460522,-0.03089073859155178,0.004957360215485096
17.05,0.08372578769922256,-0.0698385238647461,0.04905384033918381,-0.011640593409538269,-0.041308265179395676,0.01153682079166174
17.1,-0.009436182677745819,-0.00833321362733841,0.12028451263904572,-0.01354658231139183,-0.004359889775514603,0.005331216845661402
17.15,0.07366374135017395,-0.018262866884469986,0.15070532262325287,-0.014919769950211048,-0.0019421909237280488,0.01706106960773468
17.2,-0.029671665281057358,-0.05359555408358574,0.06843341141939163,-0.013536205515265465,-0.03378758206963539,0.02229335531592369
17.25,-0.16368187963962555,0.05567454919219017,-0.06868555396795273,-0.010636120103299618,-0.03206484019756317,0.028470048680901527
17.3,-0.08519022166728973,-0.017556197941303253,-0.026401538401842117,-0.05979551374912262,-0.05003862828016281,0.07428918778896332
17.35,0.014838655479252338,-0.16927339136600494,0.0021668158005923033,-0.05571950599551201,-0.09978760033845901,0.06667768210172653
17.4,0.1191386729478836,-0.0801076889038086,0.10566011071205139,0.009639068506658077,-0.05124618858098984,0.00429755263030529
17.45,0.10761447250843048,-0.06101418659090996,0.26548901200294495,0.040751706808805466,0.004068888258188963,-0.03757280483841896
17.5,0.05616653710603714,-0.04308319836854935,0.16218945384025574,0.041446980088949203,-0.009219062514603138,-0.02532205730676651
17.55,-0.06984968483448029,0.06907081604003906,-0.009969542734324932,0.007043623831123114,0.007310531567782164,-0.005445785820484161
17.6,-0.0814531221985817,-0.042974479496479034,-0.0768919512629509,-0.039183296263217926,-0.009671203792095184,0.04326654225587845
17.65,-0.18423426151275635,-0.0708923488855362,-0.17251698672771454,-0.04449718818068504,-0.028127333149313927,0.047996003180742264
17.7,-0.10932111740112305,-0.09592821449041367,-0.0891796350479126,-0.023726804181933403,-0.02006874606013298,0.02886258438229561
17.75,-0.13093778491020203,-0.07346059381961823,-0.022448815405368805,-0.015745390206575394,0.002377342665567994,0.02826424315571785
17.8,-0.04633835703134537,-0.044390689581632614,0.11644772440195084,0.022819310426712036,-0.02168213203549385,0.004474608227610588
17.85,-0.009597696363925934,0.09500695019960403,0.16687576472759247,0.03955148905515671,-0.04745548963546753,-0.011008101515471935
17.9,0.04719506949186325,0.04873466491699219,0.2381691187620163,0.042036861181259155,0.009982804767787457,-0.008892625570297241
17.95,0.004167180508375168,0.019209859892725945,0.07824738323688507,0.009046360850334167,-0.0107324393466115,0.012685582973062992
18.0,-0.018692579120397568,-0.07926846295595169,0.0267457477748394,-0.0066956751979887486,0.010045567527413368,0.013864635489881039
18.05,-0.06512368470430374,-0.06886196881532669,-0.13435249030590057,-0.009093653410673141,0.0069205970503389835,0.017306912690401077
18.1,-0.0879097431898117,-0.1553039699792862,-0.029434120282530785,-0.008240786381065845,-0.0018448404734954238,0.009953594766557217
18.15,-0.03307846561074257,-0.04312038794159889,-0.0209974218159914,0.011118561029434204,-0.034909438341856,0.004077885299921036
18.2,0.08311770856380463,0.0613555982708931,0.11484815925359726,0.020670108497142792,-0.054877154529094696,0.0018829598557204008
18.25,0.026163775473833084,0.026899337768554688,0.12012912333011627,0.0020683074835687876,-0.03663083538413048,0.009404621087014675
18.3,0.07411263138055801,0.02169037237763405,0.0998920425772667,-0.01394208986312151,-0.041523002088069916,0.03612691909074783
18.35,-0.023531729355454445,0.004216189030557871,0.07861299067735672,-0.018521197140216827,-0.025060947984457016,0.031982216984033585
18.4,-0.026348762214183807,-0.05000878497958183,-0.000930469308514148,-0.016757484525442123,0.0019711146596819162,0.02336762100458145
18.45,-0.03498261421918869,0.004107473883777857,-0.015347442589700222,-0.006348055321723223,-0.00878440123051405,0.0023139219265431166
18.5,0.05190175399184227,0.04324627295136452,0.06052391231060028,-0.003616826143115759,0.006573498714715242,0.0009899521246552467
18.55,-0.08935298770666122,-0.023614894598722458,0.029193690046668053,-0.01468803733587265,0.011728432029485703,0.013795023784041405
18.6,-0.01642768085002899,-0.08017540723085403,0.04441813379526138,-0.030418269336223602,-0.01573259010910988,0.03606617450714111
18.65,-0.06963466107845306,0.006967537570744753,0.05116667598485947,-0.019127970561385155,-0.017113832756876945,0.01626034826040268
18.7,-0.019208431243896484,-0.011809354647994041,0.04473669081926346,-0.01779639907181263,0.00831729918718338,0.012460208497941494
18.75,-0.05646083503961563,-0.030990613624453545,0.12062349915504456,-0.020911836996674538,0.018392374739050865,0.00352153810672462
18.8,-0.008166339248418808,0.07641124725341797,0.07846087217330933,-0.04065746068954468,0.02119600586593151,0.018630802631378174
18.85,-0.044921256601810455,-0.09374047070741653,-0.015399073250591755,-0.07453661412000656,-0.02147364430129528,0.06995338946580887
18.9,-0.05688849091529846,-0.08096791058778763,-0.026921525597572327,-0.056995466351509094,-0.06011950969696045,0.05018279701471329
18.95,-0.0674852505326271,0.0006809195620007813,-0.026500996202230453,-0.04653143882751465,-0.06299269199371338,0.050891049206256866
19.0,-0.19653461873531342,-0.047856349498033524,-0.09867120534181595,-0.057824552059173584,-0.07158154249191284,0.08391255885362625
19.05,-0.02632402628660202,-0.029099470004439354,-0.008540059439837933,-0.049967266619205475,-0.11906791478395462,0.09944046288728714
19.1,-0.09680947661399841,-0.02794743701815605,-0.01689392514526844,-0.037258490920066833,-0.16139478981494904,0.10059427469968796
19.15,-0.025066295638680458,0.009016034193336964,0.03126116096973419,-0.03382263332605362,-0.1328383982181549,0.11019755899906158
19.2,-0.05739052966237068,-0.13943102955818176,0.06835303455591202,-0.05457502603530884,-0.12293262034654617,0.09138613939285278
19.25,-0.08097599446773529,0.10835839062929153,0.03113882802426815,-0.027283523231744766,-0.09260860830545425,0.06262988597154617
19.3,-0.027876436710357666,-0.007606515660881996,0.13142727315425873,-0.053799644112586975,-0.07895758748054504,0.03508426621556282
19.35,-0.06481537967920303,-0.09132100641727448,0.08437826484441757,-0.02271903306245804,-0.01314436923712492,-0.01585530862212181
19.4,-0.13492120802402496,-0.022758498787879944,0.05820438638329506,0.0017921766266226768,-0.03132900595664978,0.022239165380597115
19.45,-0.013826016336679459,0.04549884423613548,0.10415565222501755,-0.002620812738314271,-0.04704982042312622,-0.0016744178719818592
19.5,0.12170678377151489,-0.020769115537405014,0.09467325359582901,-0.0006304150447249413,-0.027408083900809288,-0.007727634161710739
19.55,-0.04537505656480789,-0.012057313695549965,0.08420046418905258,0.011186957359313965,0.02242388390004635,-0.0034157345071434975
19.6,-0.07226593047380447,-0.06157304719090462,0.14869700372219086,0.029861919581890106,0.030151257291436195,-0.0030163442716002464
19.65,-0.014404945075511932,-0.11449816077947617,0.13579587638378143,0.03675542771816254,-0.041014328598976135,0.006670011207461357
19.7,-0.0005253427661955357,-0.06759930402040482,0.016476135700941086,0.042814381420612335,-0.022251002490520477,0.008047468960285187
19.75,-0.1158621609210968,-0.023493779823184013,-0.004158871714025736,0.0507417656481266,-0.019596539437770844,-0.013107286766171455
19.8,-0.030676139518618584,0.046848297119140625,0.05958609655499458,0.05025072023272514,-0.012041456066071987,-0.011880091391503811
19.85,-0.008520101197063923,-0.08224297314882278,0.022765640169382095,0.03923308476805687,-0.01681513711810112,-0.01625141315162182
19.9,-0.07331734150648117,-0.04645252972841263,-0.021821139380335808,0.05161920562386513,-0.02088776044547558,-0.0015735737979412079
