Time [s],Acc_x [m/s^2],Acc_y [m/s^2],Acc_z [m/s^2],Gyro_x [1/s],Gyro_y [1/s],Gyro_z [1/s]
0.0,-0.07994039356708527,0.19205859303474426,-0.2633427679538727,-0.2067805528640747,0.10141149163246155,-0.006285479757934809
0.05,-0.16091346740722656,0.09308242797851562,-0.10498326271772385,-0.21921321749687195,0.09764242172241211,-0.00856019463390112
0.1,0.004744464531540871,-0.09512998163700104,-0.06990533322095871,-0.15820184350013733,0.10348092764616013,-0.00869305245578289
0.15,-0.02880614995956421,-0.27085402607917786,0.1012100800871849,-0.05121878534555435,0.14029785990715027,-0.04092559218406677
0.2,0.03846083953976631,-0.11589910089969635,0.06589452177286148,0.10273263603448868,0.12606951594352722,-0.06552265584468842
0.25,0.06428445875644684,0.2512426972389221,-0.33409109711647034,0.1524379998445511,0.12036819010972977,-0.08608981966972351
0.3,-0.033910468220710754,0.277900755405426,-0.5851726531982422,0.033406466245651245,0.15919579565525055,-0.09846650063991547
0.35,-0.08128543198108673,0.24540524184703827,-0.5038154721260071,-0.15613597631454468,0.18852312862873077,-0.0346381813287735
0.4,-0.19253991544246674,0.3818884491920471,-0.46043744683265686,-0.2704087197780609,0.19770894944667816,-0.008440663106739521
0.45,-0.01667115092277527,-0.22985365986824036,-0.1220124363899231,-0.34795352816581726,0.16900776326656342,0.00971221923828125
0.5,-0.10277675092220306,-0.1533670723438263,-0.0037959839683026075,-0.238411083817482,0.16297754645347595,0.0025062484201043844
0.55,0.09717824310064316,-0.7197371125221252,0.2869643568992615,-0.1023898646235466,0.10770425200462341,-0.028597509488463402
0.6,-0.03154929354786873,-0.065796859562397,-0.05805438384413719,0.17568513751029968,0.09098684042692184,-0.07743719220161438
0.65,-0.12562385201454163,0.034463897347450256,-0.4553346037864685,0.1651322841644287,0.053963128477334976,-0.09663877636194229
0.7,-0.033842071890830994,0.5154066681861877,-0.6093416810035706,0.07010846585035324,0.03484421223402023,-0.06510457396507263
0.75,-0.03414900600910187,0.5346012711524963,-0.5588468909263611,-0.0993594080209732,0.06148006021976471,-0.01611063815653324
0.8,-0.13372807204723358,0.16469193994998932,-0.34649503231048584,-0.21429339051246643,0.08639776706695557,0.022438429296016693
0.85,0.13044539093971252,-0.28771498799324036,-0.10300808399915695,-0.24433277547359467,0.09315604716539383,0.043789856135845184
0.9,-0.031718797981739044,-0.20493702590465546,0.27815958857536316,-0.14073659479618073,0.11190973967313766,0.016296638175845146
0.95,0.07795921713113785,-0.6636906266212463,0.40216708183288574,0.06007402762770653,0.05987367033958435,-0.04409879818558693
1.0,0.18311092257499695,-0.14457225799560547,-0.005037916824221611,0.20740337669849396,0.01182219386100769,-0.10219189524650574
1.05,0.13907113671302795,0.23285585641860962,-0.29275059700012207,0.124485082924366,0.015602724626660347,-0.11031343042850494
1.1,0.001135498285293579,0.610776960849762,-0.35453417897224426,0.031430963426828384,0.10734231770038605,-0.07094269245862961
1.15,-0.1334543079137802,0.36994460225105286,-0.48564237356185913,-0.07823072373867035,0.16103486716747284,-0.0430019348859787
1.2,-0.16182738542556763,-0.02332974039018154,-0.20562422275543213,-0.1501254141330719,0.14757032692432404,-0.0048285070806741714
1.25,-0.29578036069869995,0.07227229326963425,-0.11523760855197906,-0.1378166377544403,0.1091613695025444,0.00929977186024189
1.3,0.06481070816516876,-0.36347106099128723,0.16433939337730408,-0.10749835520982742,0.052533287554979324,0.04744323343038559
1.35,0.11916802823543549,-0.2134094536304474,0.2759179472923279,0.04900683835148811,0.04904304817318916,0.005142119247466326
1.4,0.37252551317214966,0.25308138132095337,0.10827512294054031,0.17303875088691711,0.028003482148051262,-0.05466931685805321
1.45,-0.41296014189720154,0.8246766328811646,-0.23300296068191528,0.2290325164794922,0.04329598322510719,-0.11183277517557144
1.5,-0.18747425079345703,0.6718254685401917,-0.49368202686309814,0.10957153141498566,-0.09389499574899673,-0.08672298491001129
1.55,-0.06297631561756134,0.7399731278419495,-0.5584686994552612,-0.021402232348918915,-0.04768028110265732,0.033380210399627686
1.6,-0.07626520097255707,0.6342058777809143,-0.3501482605934143,-0.1035802960395813,0.014808017760515213,0.06349161267280579
1.65,-0.00539085827767849,0.050005923956632614,-0.05352771654725075,-0.0759272351861,-0.007419159635901451,0.054233334958553314
1.7,0.2050628364086151,-0.3371019661426544,0.2586093246936798,0.022832632064819336,-0.041150033473968506,0.037349872291088104
1.75,0.24845682084560394,-0.47878843545913696,0.486398309469223,0.1945047527551651,-0.06968142092227936,-0.0062135145999491215
1.8,0.37466299533843994,-0.2958841621875763,0.397625595331192,0.39661967754364014,-0.06669111549854279,-0.08285658806562424
1.85,0.24775627255439758,0.4722233712673187,-0.06257588416337967,0.4700239300727844,-0.011013484559953213,-0.17906105518341064
1.9,1.3686128854751587,0.9670965671539307,-0.8455548286437988,0.32572221755981445,0.28564953804016113,-0.21627111732959747
1.95,0.5547366738319397,0.49478450417518616,-0.8195732235908508,0.07665830105543137,0.9472039341926575,-0.16880585253238678
2.0,-0.029147207736968994,0.4855709969997406,-0.6697267889976501,-0.04584527015686035,1.3199173212051392,-0.09482374042272568
2.05,-0.43863606452941895,-0.17918305099010468,-0.1419661045074463,-0.14428968727588654,1.39480459690094,-0.05168651416897774
2.1,-0.3671202063560486,-0.3409644067287445,0.37130114436149597,-0.05773017928004265,1.21922767162323,-0.09099427610635757
2.15,-0.050994887948036194,-0.4806300103664398,0.5471815466880798,0.10103815793991089,1.011682152748108,-0.18652686476707458
2.2,0.2505510449409485,-0.39695173501968384,0.3015154004096985,0.30989572405815125,0.924647867679596,-0.22850871086120605
2.25,-0.2496871054172516,-0.10976128280162811,0.23890595138072968,0.43385782837867737,0.9607661366462708,-0.24800565838813782
2.3,-0.4677128195762634,0.5460167527198792,-0.3492872416973114,0.3952926695346832,0.8306269645690918,-0.19761504232883453
2.35,-0.44612038135528564,0.8401728868484497,-0.4154881238937378,0.12017374485731125,0.6766058206558228,-0.0476207509636879
2.4,-0.2157217264175415,0.5453291535377502,-0.36117058992385864,-0.09090887010097504,0.5174393057823181,0.060217853635549545
2.45,0.08758006989955902,0.0983448401093483,-0.27841028571128845,-0.15669456124305725,0.46235519647598267,0.10581918805837631
2.5,0.032898858189582825,-0.09835340827703476,0.14702151715755463,-0.129776269197464,0.46718645095825195,0.08695685863494873
2.55,0.08277760446071625,-0.333046019077301,0.4857124388217926,-0.03161066770553589,0.3700597286224365,0.08043879270553589
2.6,0.1968475580215454,-0.5195522904396057,0.712938666343689,0.1477901190519333,0.2570892870426178,0.03711146116256714
2.65,0.3991677761077881,-0.8854008913040161,0.7800938487052917,0.40159809589385986,0.16316162049770355,-0.004755065310746431
2.7,0.02694079279899597,-0.1460428535938263,0.329440176486969,0.6889766454696655,0.07779683917760849,-0.07310979813337326
2.75,-0.4945243000984192,1.0160990953445435,-0.5524405837059021,0.5289397835731506,-0.11289042234420776,0.0175891425460577
2.8,-0.6606724858283997,1.2221013307571411,-0.4584657549858093,0.03439333662390709,-0.33712708950042725,0.14646881818771362
2.85,-0.5486968755722046,0.04324433207511902,-0.17377911508083344,-0.18271248042583466,-0.6473055481910706,0.19890891015529633
2.9,-0.5114389061927795,-0.5412160158157349,0.3731991946697235,-0.14298781752586365,-1.0565910339355469,0.060342345386743546
2.95,-0.3967975378036499,-0.8417770266532898,0.5844977498054504,0.05733219534158707,-1.5144565105438232,-0.11493505537509918
3.0,-0.3492378294467926,-1.3270093202590942,0.5111743807792664,0.4157300293445587,-1.8870688676834106,-0.2405562698841095
3.05,-0.2865198254585266,-1.5318472385406494,0.031230676919221878,0.7630013227462769,-2.193098783493042,-0.35861602425575256
3.1,-0.2752459943294525,-0.2581358253955841,-0.44324469566345215,1.0613692998886108,-2.4088125228881836,-0.4177994430065155
3.15,0.22912722826004028,0.4918862581253052,-0.968025267124176,1.1599985361099243,-2.4917917251586914,-0.5263214111328125
3.2,0.711838960647583,0.9492447376251221,-0.9562333226203918,1.0577377080917358,-2.3094825744628906,-0.5335595607757568
3.25,0.8305796384811401,0.8697730898857117,-0.38338857889175415,0.8177444934844971,-1.946770429611206,-0.4457714557647705
3.3,0.9530036449432373,0.4525805711746216,0.030861299484968185,0.6267181038856506,-1.5602383613586426,-0.3356807827949524
3.35,0.6267005205154419,0.41136083006858826,0.38336560130119324,0.49534207582473755,-1.196213960647583,-0.21076594293117523
3.4,0.660031795501709,-0.0649404376745224,0.5448151230812073,0.3984948992729187,-0.9113200306892395,-0.13681139051914215
3.45,0.45574289560317993,-0.32005026936531067,0.4697149395942688,0.3408324718475342,-0.6295234560966492,-0.07724063098430634
3.5,0.15354114770889282,0.43986421823501587,0.27287018299102783,0.3083866536617279,-0.4309561848640442,-0.06774799525737762
3.55,0.29440873861312866,0.5248957276344299,0.22842250764369965,0.17572437226772308,-0.32483646273612976,-0.06383585184812546
3.6,0.20578351616859436,0.244449645280838,0.18814131617546082,0.050686657428741455,-0.2197306752204895,-0.05448206141591072
3.65,0.1383148580789566,0.2925777733325958,0.3872281014919281,-0.002008957788348198,-0.12996762990951538,-0.021140065044164658
3.7,-0.00476798415184021,0.10172080248594284,0.4991348087787628,-0.0885959342122078,-0.02756187506020069,0.033901724964380264
3.75,-0.12051092088222504,-0.05037693679332733,0.5674590468406677,-0.0827375203371048,0.028278298676013947,0.03322536125779152
3.8,-0.0766076147556305,-0.1125069186091423,0.6919608116149902,-0.06115736812353134,0.027554374188184738,0.015163096599280834
3.85,-0.12095057964324951,-0.2378903180360794,0.6152275800704956,-0.05486959591507912,0.026476914063096046,0.04611213505268097
3.9,-0.05823519825935364,-0.21957403421401978,0.575413703918457,-0.03437495604157448,0.003367821453139186,0.08155027031898499
3.95,-0.09560339152812958,-0.3687325119972229,0.4486488103866577,0.0020741038024425507,-0.017615558579564095,0.08862435072660446
4.0,0.028038233518600464,-0.3268881142139435,0.2617555856704712,0.0707320123910904,-0.04813477024435997,0.10479474812746048
4.05,0.18084897100925446,-0.2274198830127716,0.1807018369436264,0.11968931555747986,-0.05950097367167473,0.1211104467511177
4.1,0.21337521076202393,0.2306108921766281,0.08057591319084167,0.15179060399532318,-0.018962517380714417,0.09509973227977753
4.15,0.3361542224884033,0.18949896097183228,0.06962400674819946,0.07825551182031631,0.0509018637239933,0.06904507428407669
4.2,0.3554340600967407,0.08292105793952942,0.06819208711385727,-0.0097140371799469,0.19028450548648834,0.07961178570985794
4.25,0.0889907106757164,0.1954517811536789,-0.04760767146945,-0.049406785517930984,0.34192851185798645,0.154576376080513
4.3,-0.03964650258421898,0.37826067209243774,0.09681383520364761,-0.1164473220705986,0.40795662999153137,0.16178041696548462
4.35,0.3095342516899109,0.42622289061546326,0.08456332981586456,-0.2210235595703125,0.46502742171287537,0.16619549691677094
4.4,0.5758242011070251,0.40585625171661377,-0.09271629899740219,-0.3467739224433899,0.6743936538696289,0.21860457956790924
4.45,1.0843040943145752,0.7484037280082703,-0.16315612196922302,-0.5163754224777222,1.0390783548355103,0.3420284688472748
4.5,1.4634616374969482,0.9374945163726807,-0.4282881021499634,-0.7760712504386902,1.6009961366653442,0.49003472924232483
4.55,2.038864850997925,1.4798616170883179,-1.3018637895584106,-1.1200544834136963,2.389467239379883,0.6913754940032959
4.6,0.3035750389099121,0.37367263436317444,-1.9887382984161377,-1.5039985179901123,3.3677730560302734,0.9964114427566528
4.65,-1.6108729839324951,-0.28664883971214294,-1.4060828685760498,-1.5092759132385254,3.867680549621582,1.1444041728973389
4.7,-2.1136178970336914,-1.3737633228302002,-0.35250240564346313,-1.307950496673584,3.7171311378479004,0.9651498794555664
4.75,-2.299870491027832,-0.8649047613143921,1.121050238609314,-0.9397045969963074,3.106046438217163,0.6361098289489746
4.8,-1.794454574584961,-0.4728138744831085,1.5330678224563599,-0.6699142456054688,2.1861419677734375,0.40524059534072876
4.85,-1.0109597444534302,-0.6170026659965515,1.0580549240112305,-0.5224006772041321,1.2715076208114624,0.3145690858364105
4.9,-0.5745052695274353,0.17623227834701538,0.6083488464355469,-0.3526524305343628,0.7147645354270935,0.24529924988746643
4.95,-0.1549646258354187,0.14275167882442474,0.3086552619934082,-0.28316062688827515,0.42254185676574707,0.2431591898202896
5.0,-0.11467112600803375,-0.02531435526907444,0.2736520767211914,-0.19079892337322235,0.2996569275856018,0.20589281618595123
5.05,-0.004828788340091705,-0.1977730244398117,0.21470864117145538,-0.1212238222360611,0.1994321197271347,0.16532538831233978
5.1,-0.12879502773284912,-0.09179691225290298,0.405509889125824,-0.028322383761405945,0.11779052764177322,0.05544367805123329
5.15,-0.05514912307262421,-0.3779307007789612,0.0897587314248085,-0.008266035467386246,-0.006556862033903599,0.10448816418647766
5.2,0.07727117836475372,-0.4088755249977112,0.07964827120304108,0.08142421394586563,0.0166219100356102,0.16302181780338287
5.25,-0.0390385240316391,0.11229228228330612,0.3972918689250946,0.16393300890922546,0.05693656951189041,0.15249380469322205
5.3,0.243704155087471,-0.2381429821252823,-0.07680739462375641,0.1696663498878479,0.015064983628690243,0.17815622687339783
5.35,0.06348791718482971,0.04218102991580963,-0.16512182354927063,0.19621717929840088,0.027800345793366432,0.05703495070338249
5.4,0.03503282368183136,0.11143115162849426,-0.31069961190223694,0.17725607752799988,0.019412491470575333,-0.004467589780688286
5.45,-0.18759088218212128,0.10995961725711823,-0.24979956448078156,0.14774666726589203,0.003999614622443914,-0.01454753428697586
5.5,0.3237660527229309,-0.43713095784187317,-0.4199571907520294,0.1028238981962204,-0.05233155936002731,0.015114485286176205
5.55,-0.06821396201848984,-0.17101003229618073,-0.1455645114183426,0.08743499219417572,-0.01367598120123148,0.045517489314079285
5.6,-0.10869883000850677,0.3008709251880646,-0.040375787764787674,0.1030237153172493,-0.006154767703264952,0.058263957500457764
5.65,-0.022859573364257812,0.10265734046697617,-0.1862417310476303,0.10925988852977753,-0.03863026946783066,0.06800507754087448
5.7,0.013548076152801514,0.10897543281316757,-0.1602948158979416,0.09859159588813782,-0.05875904858112335,0.06717973202466965
5.75,0.06665332615375519,0.19228844344615936,-0.2560332715511322,0.08502718061208725,-0.0925014466047287,0.04780455678701401
5.8,0.08625118434429169,-0.02696990594267845,-0.02809176594018936,0.05241592973470688,-0.1259612888097763,0.018786899745464325
5.85,0.16381710767745972,0.06787493079900742,-0.12783199548721313,0.06139642000198364,-0.17063675820827484,-0.08007150888442993
5.9,0.12441255897283554,-0.04166792333126068,-0.2166132926940918,0.055409930646419525,-0.1574321985244751,-0.10712704062461853
5.95,-0.05018428713083267,0.14836980402469635,-0.11467979848384857,0.03403708338737488,-0.1322692483663559,-0.07984811067581177
6.0,0.005747023969888687,0.0863514095544815,-0.14301449060440063,0.029735883697867393,-0.1021508052945137,-0.011772295460104942
6.05,-0.08898860216140747,0.2460813671350479,0.04278836399316788,0.007772593759000301,-0.0858948826789856,-0.005399189889431
6.1,0.17271673679351807,0.024369267746806145,-0.2301178127527237,-0.012976047582924366,-0.1091131940484047,0.013258520513772964
6.15,0.07652007043361664,-0.007403359282761812,-0.2092570960521698,-0.017066607251763344,-0.06806083768606186,-0.01623195968568325
6.2,0.09786386042833328,0.054015181958675385,-0.14046365022659302,-0.042884327471256256,-0.05281144753098488,-0.0160442553460598
6.25,-0.23508010804653168,0.14127348363399506,0.10201314091682434,-0.03189285099506378,-0.01983427070081234,-0.028275644406676292
6.3,-0.1328548938035965,0.07465171813964844,-0.05026280879974365,-0.04909611865878105,-0.08416668325662613,-0.019608819857239723
6.35,0.16012287139892578,0.16069893538951874,-0.2583247721195221,-0.02717342972755432,-0.06403537839651108,0.025994891300797462
6.4,0.11063458770513535,0.16051295399665833,-0.05448552221059799,-0.04653318226337433,0.014751794748008251,0.04799850657582283
6.45,0.04399096220731735,0.17804624140262604,0.036338016390800476,-0.03649095073342323,-0.009196637198328972,-0.0064621297642588615
6.5,0.13375261425971985,-0.09832763671875,-0.09112055599689484,-0.04351606220006943,-0.02305595576763153,-0.01790647767484188
6.55,0.08553174883127213,0.08642484247684479,-0.05136468634009361,-0.04702528938651085,-0.02256140299141407,-0.009592516347765923
6.6,0.028107304126024246,0.11807920783758163,-0.1255751997232437,-0.040467768907547,-0.01688016764819622,-0.010995323769748211
6.65,0.07175596058368683,0.0571909099817276,-0.04967482388019562,-0.06227070093154907,-0.018656278029084206,-0.0037425325717777014
6.7,-0.0840364471077919,-0.014390000142157078,-0.004868799354881048,-0.06118013709783554,-0.016278941184282303,-0.014923207461833954
6.75,0.0010123848915100098,0.06935597956180573,-0.19254688918590546,-0.06218361109495163,-0.05184211954474449,0.0019506393000483513
6.8,0.0535852313041687,-0.09886550158262253,-0.31889697909355164,-0.04432777687907219,-0.05789243057370186,-0.009697752073407173
6.85,-0.005465984344482422,0.01022531371563673,-0.3772050440311432,-0.03996707499027252,-0.07432522624731064,-0.04229523614048958
6.9,-0.08833934366703033,0.14864256978034973,-0.48098281025886536,-0.050266556441783905,-0.10103566199541092,-0.05913190916180611
6.95,0.06545807421207428,0.019709620624780655,-0.5875077247619629,-0.08451913297176361,-0.14011915028095245,-0.05048157647252083
7.0,0.03231559693813324,0.1638212651014328,-0.5264431238174438,-0.12127573788166046,-0.16376854479312897,-0.05426628515124321
7.05,-0.10880747437477112,0.326969176530838,-0.4973500967025757,-0.1571284979581833,-0.20847903192043304,-0.06304601579904556
7.1,-0.03724770247936249,0.0936289057135582,-0.38040468096733093,-0.18752789497375488,-0.2579948604106903,-0.12848800420761108
7.15,-0.26634344458580017,0.5264149308204651,-0.43197867274284363,-0.1768682897090912,-0.30530044436454773,-0.16057518124580383
7.2,-0.027828536927700043,0.3939734101295471,-0.12128794193267822,-0.29647648334503174,-0.3617439568042755,-0.1805867701768875
7.25,0.11290250718593597,0.400459349155426,0.08779500424861908,-0.357017457485199,-0.4304331839084625,-0.12810616195201874
7.3,0.4667631983757019,-0.6863346099853516,-0.0011930185137316585,-0.2770370543003082,-0.4114893972873688,-0.13382670283317566
7.35,0.3218660354614258,-0.1529827117919922,0.10756183415651321,-0.15436308085918427,-0.37071654200553894,-0.16334718465805054
7.4,0.22310364246368408,-0.24364855885505676,0.26746273040771484,-0.15335600078105927,-0.36419937014579773,-0.1475256085395813
7.45,0.18855802714824677,0.1066141277551651,0.297695517539978,-0.16605547070503235,-0.3695389926433563,-0.17821352183818817
7.5,0.19872520864009857,-0.16808797419071198,0.36695989966392517,-0.24177387356758118,-0.3433135449886322,-0.08804358541965485
7.55,0.25256192684173584,-0.34252646565437317,0.30774277448654175,-0.2011348307132721,-0.32518935203552246,-0.07756587117910385
7.6,0.20977763831615448,0.20456603169441223,0.4190406799316406,-0.1780661791563034,-0.31753697991371155,-0.1394534707069397
7.65,0.17714841663837433,-0.1759338527917862,0.3691804111003876,-0.18276596069335938,-0.27568140625953674,-0.07293836027383804
7.7,0.08155340701341629,0.09554004669189453,0.3940955698490143,-0.16528737545013428,-0.22171999514102936,-0.050558365881443024
7.75,0.2776949405670166,0.00228215497918427,0.19846183061599731,-0.14128980040550232,-0.2192903310060501,0.027469633147120476
7.8,0.37091928720474243,-0.14672088623046875,0.13163132965564728,-0.1268765926361084,-0.20663121342658997,0.0018946678610518575
7.85,0.3933373689651489,-0.1599263995885849,-0.1210966482758522,-0.04591964930295944,-0.11975187063217163,-0.046237871050834656
7.9,0.30630436539649963,0.1754322499036789,-0.022604897618293762,-0.031837042421102524,0.018515141680836678,-0.05870700627565384
7.95,-0.19041159749031067,-0.25675684213638306,0.278649240732193,-0.06684595346450806,0.06789064407348633,-0.021856639534235
8.0,0.0581032820045948,-0.04790211096405983,0.010024911724030972,-0.021548938006162643,-0.033515769988298416,-0.03154897689819336
8.05,0.0546581894159317,-0.08907413482666016,-0.04409676790237427,-0.0150053221732378,-0.02982446178793907,-0.03700894117355347
8.1,0.13954316079616547,-0.11618996411561966,0.05823986232280731,-0.0041603753343224525,-0.025007694959640503,-0.040700364857912064
8.15,0.14238257706165314,-0.09539510309696198,0.20464393496513367,0.06027228757739067,-0.037343379110097885,-0.03957700356841087
8.2,0.15305648744106293,0.03246689960360527,0.10301919281482697,0.2021026760339737,-0.061063602566719055,-0.020615210756659508
8.25,0.021228523924946785,0.184907928109169,-0.08130164444446564,0.2857567071914673,-0.07579644024372101,-0.003127097385004163
8.3,0.3069703280925751,0.11065582931041718,-0.1571546494960785,0.3241977393627167,-0.10743749141693115,0.07267400622367859
8.35,0.14491432905197144,0.13607123494148254,-0.23238401114940643,0.2824980318546295,-0.12362078577280045,0.018954861909151077
8.4,-0.06260262429714203,0.09764483571052551,-0.4077708125114441,0.2466995120048523,-0.10317780822515488,-0.034346409142017365
8.45,-0.2231205403804779,0.26203349232673645,-0.3161434829235077,0.17746607959270477,-0.054163672029972076,-0.02637515403330326
8.5,-0.1852608472108841,0.17112161219120026,-0.2739484906196594,0.12872302532196045,-0.02485473081469536,0.012665117159485817
8.55,-0.012521587312221527,0.2525081932544708,-0.296754390001297,0.08793892711400986,-0.05103369802236557,0.006817608140408993
8.6,0.09361350536346436,0.14130690693855286,-0.3197680115699768,0.09075191617012024,-0.060597989708185196,-0.01726744882762432
8.65,0.08397003263235092,0.04632857069373131,-0.3260399401187897,0.06357789784669876,-0.04957900196313858,-0.030929695814847946
8.7,0.04771675914525986,0.2111092060804367,-0.2714441418647766,0.042904119938611984,-0.030527213588356972,-0.030296536162495613
8.75,-0.013318732380867004,0.1634521782398224,-0.18660226464271545,-0.0033196331933140755,-0.04871886223554611,-0.01596054434776306
8.8,0.25268247723579407,-0.5856199860572815,-0.14713294804096222,-0.048567235469818115,-0.09656812250614166,-0.0017072886694222689
8.85,0.09787523001432419,0.039628997445106506,-0.042296506464481354,-0.03816621005535126,-0.11192314326763153,-0.02251116745173931
8.9,0.06507352739572525,-0.02976989559829235,-0.016883105039596558,-0.021655285730957985,-0.12733423709869385,-0.050895292311906815
8.95,0.029916970059275627,0.21358588337898254,-0.07697959244251251,-0.02032395265996456,-0.17353536188602448,-0.07454535365104675
9.0,0.06822460889816284,0.12322046607732773,-0.11418541520833969,-0.07682795822620392,-0.2285657823085785,-0.04623932018876076
9.05,0.23139159381389618,0.1785440742969513,-0.10040361434221268,-0.10686740279197693,-0.24395345151424408,-0.01848122477531433
9.1,0.24502086639404297,-0.0592489093542099,-0.07334547489881516,-0.15491610765457153,-0.2144620269536972,-0.006925825495272875
9.15,0.22315111756324768,-0.016610126942396164,-0.08126254379749298,-0.13882799446582794,-0.18617522716522217,-0.01905212737619877
9.2,0.17773228883743286,-0.1780099868774414,0.07792194932699203,-0.10884633660316467,-0.14425592124462128,-0.05111635848879814
9.25,0.10609173774719238,-0.026677126064896584,-0.013756833039224148,-0.04565225541591644,-0.13197629153728485,-0.09929827600717545
9.3,0.08960597217082977,0.042149558663368225,-0.09773716330528259,-0.007074829190969467,-0.13476717472076416,-0.1275949329137802
9.35,0.06156739592552185,0.15983393788337708,-0.20199619233608246,0.014614485204219818,-0.14347729086875916,-0.13246391713619232
9.4,0.14687617123126984,0.37484270334243774,-0.3826811611652374,-0.013371828943490982,-0.10865408182144165,-0.10043398290872574
9.45,0.06927605718374252,0.1565399467945099,-0.2650410830974579,-0.11365576088428497,-0.02063565142452717,-0.035253237932920456
9.5,0.05939062684774399,0.09743788838386536,-0.20730628073215485,-0.14430558681488037,0.05612757429480553,0.021746033802628517
9.55,0.016947969794273376,0.22604088485240936,-0.25826117396354675,-0.12502194941043854,0.07327689975500107,0.041777800768613815
9.6,0.15014106035232544,0.16149334609508514,-0.4624340534210205,-0.11483325809240341,0.053256139159202576,0.045409779995679855
9.65,0.17746494710445404,0.5658246278762817,-0.5840336680412292,-0.08742889761924744,0.08525016903877258,0.034701306372880936
9.7,0.05025440454483032,0.730530858039856,-0.6122128367424011,-0.06363070011138916,0.21598666906356812,0.0010582830291241407
9.75,-0.24690306186676025,0.35608959197998047,-0.03980301693081856,-0.09841778874397278,0.38462984561920166,0.02209254913032055
9.8,-0.21547695994377136,-0.35070139169692993,0.4968462884426117,-0.1734049767255783,0.38433682918548584,0.07831219583749771
9.85,-0.09358589351177216,-0.1550293266773224,0.20816831290721893,0.033479176461696625,0.31229841709136963,0.021651001647114754
9.9,-0.12128670513629913,0.1665792614221573,-0.06696703284978867,0.17044700682163239,0.328956663608551,0.034179456532001495
9.95,0.08153388649225235,-0.2511349022388458,0.0008569544879719615,0.18310067057609558,0.3617802560329437,0.16857656836509705
10.0,0.1431887149810791,-0.23433972895145416,-0.01485920138657093,0.24890011548995972,0.3043844699859619,0.20547723770141602
10.05,0.2534439265727997,0.4825383126735687,-0.10021454840898514,0.26376786828041077,0.1926843523979187,0.23798280954360962
10.1,0.21567054092884064,0.2351541966199875,0.1895017921924591,0.13267353177070618,0.09740541130304337,0.2628953754901886
10.15,0.5145267844200134,-0.0633830800652504,0.20968399941921234,0.08327636867761612,0.0014944603899493814,0.29231610894203186
10.2,0.8269504904747009,-0.4755859375,0.0002905897272285074,0.10975095629692078,-0.0416208952665329,0.23791591823101044
10.25,0.4308258891105652,-0.08209798485040665,0.11670764535665512,0.11736957728862762,0.06636615842580795,0.02090306021273136
10.3,-0.023945875465869904,0.0034513322170823812,0.2957933843135834,0.03118164837360382,0.17552314698696136,-0.130433589220047
10.35,-0.19335494935512543,0.09541605412960052,0.2515728771686554,0.05744368955492973,0.14766333997249603,-0.13597868382930756
10.4,-0.18192875385284424,0.15908430516719818,0.38042789697647095,0.05280674248933792,0.07040075957775116,-0.09472120553255081
10.45,-0.058577775955200195,-0.38570505380630493,0.21405547857284546,0.06168113276362419,0.00783663522452116,0.00025264243595302105
10.5,0.05886460468173027,0.24809744954109192,-0.03910933434963226,0.1884412169456482,-0.021864894777536392,0.015393940731883049
10.55,0.18951421976089478,0.238312765955925,0.011192015372216702,0.08369442820549011,-0.06805258244276047,0.06877871602773666
10.6,0.35019633173942566,-0.01756284385919571,0.03838983178138733,0.013845223933458328,-0.10988645255565643,0.08259600400924683
10.65,0.0721016526222229,0.3826456665992737,0.17000895738601685,-0.007660273462533951,-0.13317440450191498,-0.07798182964324951
10.7,0.1075257807970047,0.33296874165534973,0.03280755877494812,-0.0613284632563591,-0.08103590458631516,-0.050761878490448
10.75,0.19247062504291534,0.3108120262622833,0.17243477702140808,-0.09998819231987,-0.018341658636927605,-0.0060118939727544785
10.8,0.11580760776996613,0.22107890248298645,0.1766708642244339,-0.15794526040554047,0.06242024526000023,-0.019952373579144478
10.85,0.030700750648975372,0.19352151453495026,0.3098907768726349,-0.16807958483695984,0.138108491897583,-0.0014141227584332228
10.9,0.0380236841738224,0.07695867121219635,-0.037454407662153244,-0.05502721667289734,0.15035748481750488,-0.035198431462049484
10.95,-0.23333972692489624,0.32175734639167786,-0.07359585911035538,-0.049446217715740204,0.1668425351381302,-0.05327799543738365
11.0,-0.1826944202184677,0.0586538203060627,0.06882928311824799,-0.08610807359218597,0.11089451611042023,0.014588587917387486
11.05,0.07555082440376282,0.18726924061775208,-0.1535346955060959,-0.023411612957715988,0.05013136938214302,0.06914009898900986
11.1,0.3003073036670685,-0.1303558200597763,-0.1633627712726593,-0.01691059023141861,0.0566285140812397,0.10366104543209076
11.15,0.15861283242702484,-0.07679843157529831,-0.00790813472121954,-0.008466996252536774,0.1341957449913025,0.042520344257354736
11.2,0.15424998104572296,-0.10302257537841797,-0.12119729071855545,0.08812790364027023,0.119533471763134,-0.001761790830641985
11.25,-0.10048667341470718,0.15792754292488098,-0.4386957287788391,0.18246015906333923,0.09682773053646088,-0.10053729265928268
11.3,-0.2549457252025604,0.3242941200733185,-0.3878497779369354,0.13103623688220978,0.14658793807029724,-0.07689914107322693
11.35,-0.18872031569480896,-0.10979273915290833,0.03521553426980972,0.031556256115436554,0.18571345508098602,0.07411769032478333
11.4,-0.1368446797132492,-0.12458423525094986,0.3275877833366394,0.00733136385679245,0.11767228692770004,0.15313853323459625
11.45,-0.05388760566711426,0.7959357500076294,0.006816814187914133,0.09494295716285706,-0.029186805710196495,0.11915489286184311
11.5,0.1499861776828766,0.23189358413219452,-0.04827935993671417,0.0761650875210762,-0.22552600502967834,0.10599642992019653
11.55,0.1705816686153412,0.4387103021144867,-0.32016339898109436,0.05517943203449249,-0.303157240152359,0.007460002787411213
11.6,0.4021461009979248,0.22915656864643097,-0.4607079327106476,0.03756134957075119,-0.2525765597820282,0.1310950666666031
11.65,0.23797829449176788,0.12800602614879608,-0.13056375086307526,-0.058089252561330795,-0.15785706043243408,0.1631123125553131
11.7,0.16724690794944763,-0.18353845179080963,0.12963445484638214,-0.09139344096183777,-0.1059592217206955,0.17510674893856049
11.75,0.282185435295105,-0.07075212895870209,-0.02056172303855419,-0.015566691756248474,-0.13802815973758698,0.12519527971744537
11.8,0.21145185828208923,-0.03424738720059395,-0.0034699023235589266,0.017133627086877823,-0.1535109132528305,0.04022287204861641
11.85,0.03197941184043884,0.016773231327533722,-0.08433663845062256,0.0412483736872673,-0.14337855577468872,-0.05925047770142555
11.9,0.25550806522369385,0.12371735274791718,-0.2849014401435852,0.04159652069211006,-0.13173867762088776,-0.03943641111254692
11.95,0.2395726591348648,-0.026762939989566803,-0.16452838480472565,-0.03969219699501991,-0.09582334756851196,-0.03031313419342041
12.0,0.360830694437027,-0.30362701416015625,-0.20511320233345032,-0.0694180577993393,-0.06939764320850372,-0.02920839749276638
12.05,0.10863819718360901,0.030517594888806343,-0.09735920280218124,-0.04939696937799454,-0.018312621861696243,-0.11232417821884155
12.1,0.03297870606184006,0.11439231038093567,-0.276333212852478,-0.0530448853969574,0.09380809217691422,-0.19915930926799774
12.15,-0.11533992737531662,0.26417067646980286,0.03700761869549751,-0.13087263703346252,0.20269979536533356,-0.04023833945393562
12.2,0.13965445756912231,-0.061989784240722656,0.039442844688892365,-0.23897826671600342,0.04730527475476265,0.01677625998854637
12.25,0.16897308826446533,0.043797511607408524,-0.025216616690158844,-0.22384372353553772,-0.08143601566553116,-0.10769835859537125
12.3,0.05523989722132683,0.030411720275878906,0.16553020477294922,-0.23472627997398376,-0.011229922994971275,-0.11965981870889664
12.35,-0.08510830998420715,0.0024890706408768892,0.28085029125213623,-0.17708632349967957,0.04550373554229736,-0.04974177107214928
12.4,-0.13794492185115814,0.053887348622083664,0.317247211933136,-0.17198991775512695,-0.02648777887225151,0.026381799951195717
12.45,-0.1259417086839676,0.2737598419189453,0.24371671676635742,-0.1970256119966507,-0.13950148224830627,0.031217077746987343
12.5,0.5522809624671936,0.24416550993919373,-0.26684805750846863,-0.22010566294193268,-0.19252432882785797,0.09781000018119812
12.55,0.26872193813323975,-0.09804630279541016,0.19352735579013824,-0.1882290542125702,-0.1169060543179512,0.11190759390592575
12.6,0.5378546714782715,-0.186611145734787,-0.14237016439437866,-0.10186678171157837,-0.05250583216547966,0.12639018893241882
12.65,0.3562244176864624,0.1006193682551384,-0.24409854412078857,-0.055407799780368805,0.022827794775366783,0.018775643780827522
12.7,0.17274703085422516,0.02966787852346897,-0.1600005328655243,-0.11882992833852768,0.018262019380927086,-0.02471102960407734
12.75,-0.07445230334997177,0.079405777156353,0.12881913781166077,-0.17756304144859314,-0.005938438232988119,-0.04101325571537018
12.8,-0.14778339862823486,-0.10539153963327408,0.23162569105625153,-0.16556844115257263,-0.07688695192337036,-0.015068321488797665
12.85,-0.12544046342372894,0.07409381121397018,0.15145078301429749,-0.022369179874658585,-0.16392482817173004,0.011951927095651627
12.9,0.16930288076400757,0.16480831801891327,-0.25410211086273193,0.07322724908590317,-0.26140907406806946,0.009870418347418308
12.95,0.28125619888305664,0.2652035355567932,-0.48409155011177063,0.11717285960912704,-0.23238147795200348,-0.05099540576338768
13.0,0.25792577862739563,-0.19109629094600677,-0.5910481810569763,0.13434189558029175,-0.17406439781188965,-0.07697637379169464
13.05,0.29390889406204224,0.3298693597316742,-0.8584194183349609,0.1823059469461441,-0.13268640637397766,-0.10343214869499207
13.1,0.24605697393417358,-0.5280094146728516,-0.5337646007537842,0.13628967106342316,-0.05277222767472267,-0.06432205438613892
13.15,0.3371739387512207,-0.6474704742431641,-0.30616796016693115,0.07842403650283813,0.029578441753983498,-0.035759709775447845
13.2,0.07401253283023834,0.017683999612927437,-0.18375538289546967,0.03211492300033569,0.045132722705602646,-0.04530363157391548
13.25,0.08677950501441956,-0.0915975496172905,-0.13153192400932312,-0.023925112560391426,-0.005274991039186716,-0.075242780148983
13.3,-0.11681117117404938,0.28075411915779114,-0.13130491971969604,0.0076938197016716,-0.05878642946481705,-0.08686726540327072
13.35,-0.15587852895259857,0.39732271432876587,-0.28230494260787964,0.027248825877904892,-0.08299437910318375,-0.0943714827299118
13.4,-0.3322627544403076,0.08347892761230469,-0.39635148644447327,0.05346330255270004,0.016848789528012276,-0.06857670843601227
13.45,-0.6185431480407715,0.07299420237541199,-0.21188214421272278,0.07199041545391083,0.1663961559534073,0.018387652933597565
13.5,-0.6197988390922546,-0.025624321773648262,-0.10069110989570618,0.17184293270111084,0.17840223014354706,0.18766610324382782
13.55,-0.2898487150669098,-0.29275423288345337,0.07565084099769592,0.1912207007408142,-0.012768587097525597,0.24467262625694275
13.6,0.22707681357860565,-0.15370464324951172,0.16951501369476318,0.2026958465576172,-0.21318885684013367,0.18817554414272308
13.65,0.8098146915435791,-0.008829058147966862,0.057087868452072144,0.24160566926002502,-0.2376067191362381,0.18211057782173157
13.7,0.6611114740371704,0.216467946767807,-0.09031672030687332,0.29813122749328613,-0.14370015263557434,0.12388444691896439
13.75,0.7632743120193481,0.30123624205589294,-0.2151474952697754,0.25164589285850525,-0.07225234061479568,0.10412710160017014
13.8,0.34009137749671936,0.05506041646003723,0.08533301204442978,0.15944316983222961,0.09159842133522034,0.007026770152151585
13.85,0.18873368203639984,-0.1966400444507599,0.24541990458965302,0.12905897200107574,0.2119775414466858,-0.07036265730857849
13.9,-0.10732336342334747,0.08307168632745743,0.44577592611312866,0.10477285832166672,0.23643110692501068,-0.11360225081443787
13.95,-0.01924438774585724,-0.029021281749010086,0.289415568113327,0.09889968484640121,0.1565481275320053,-0.09907888621091843
14.0,-0.19220703840255737,0.006001440808176994,0.3886011242866516,0.09084046632051468,0.11893768608570099,-0.13563914597034454
14.05,-0.17868977785110474,-0.10260681807994843,0.31206077337265015,0.10909733176231384,0.11628872156143188,-0.0871477872133255
14.1,-0.153285950422287,0.18509578704833984,0.14439146220684052,0.13972681760787964,0.0717875137925148,-0.04793582111597061
14.15,0.009359654039144516,0.07739830017089844,0.11641628295183182,0.09786946326494217,-0.02758735977113247,-0.022022336721420288
14.2,0.1787012815475464,0.0017108964966610074,0.1988413780927658,0.0721624493598938,-0.07792657613754272,-0.008363968692719936
14.25,0.2712703347206116,-0.03659246861934662,0.06599826365709305,0.12194335460662842,-0.09579481184482574,0.03645290434360504
14.3,0.06795928627252579,-0.03340531140565872,0.16721341013908386,0.20088356733322144,-0.058491457253694534,0.004114332143217325
14.35,-0.29451295733451843,0.0813569724559784,0.2803085446357727,0.2473216950893402,-0.12706318497657776,-0.025017324835062027
14.4,-0.2879825234413147,0.07013414055109024,0.24773070216178894,0.20315121114253998,-0.4172973930835724,-0.06944877654314041
14.45,-0.10039041936397552,0.1080312728881836,0.15510572493076324,0.1046222522854805,-0.7561895251274109,-0.16041098535060883
14.5,0.17767973244190216,0.8300029039382935,0.05725979059934616,0.0723525732755661,-0.9318427443504333,-0.11190946400165558
14.55,0.6428918242454529,0.2116318643093109,-0.2689479887485504,0.1536175012588501,-0.8207598924636841,-0.06275757402181625
14.6,0.7773699760437012,0.08578498661518097,-0.2018861323595047,0.09278619289398193,-0.5493811964988708,0.0380600169301033
14.65,0.5029460191726685,-0.3459768295288086,-0.08998484909534454,0.03079782798886299,-0.24595218896865845,-0.002381374593824148
14.7,0.14996539056301117,-0.1983938366174698,-0.15050403773784637,0.09520739316940308,-0.08259433507919312,-0.07159461081027985
14.75,0.057918429374694824,0.296943724155426,-0.4748229682445526,0.14755046367645264,-0.032895106822252274,-0.09346155822277069
14.8,-0.1066843792796135,0.37214091420173645,-0.3989579379558563,0.07250096648931503,0.018811732530593872,-0.08220131695270538
14.85,-0.23081077635288239,-0.12282374501228333,0.013590153306722641,-0.1169106587767601,0.029524752870202065,-0.06716447323560715
14.9,0.139422208070755,0.0014534040819853544,0.13784687221050262,-0.12201227247714996,-0.04589943215250969,0.02859310433268547
14.95,-0.120541051030159,-0.2695799469947815,0.2776554524898529,-0.10083936899900436,-0.047469884157180786,-0.03895100951194763
15.0,0.007250017486512661,-0.3611145317554474,-0.02385617606341839,0.009174074977636337,-0.045530159026384354,-0.031108301132917404
15.05,0.0201269444078207,0.22173121571540833,-0.08057759702205658,0.0863146111369133,-0.039527926594018936,-0.034899696707725525
15.1,0.05966860055923462,0.296939879655838,-0.2078303098678589,0.011669870465993881,-0.05043797194957733,-0.04769112169742584
15.15,-0.23065032064914703,1.001236081123352,0.06319092959165573,-0.09836705029010773,-0.07027013599872589,-0.03969505801796913
15.2,0.14730294048786163,0.2569132149219513,0.03274814784526825,-0.19194775819778442,-0.11604820191860199,3.222828672733158e-05
15.25,0.1567676067352295,-0.22889329493045807,0.05666135624051094,-0.16946138441562653,-0.10737059265375137,0.011791026219725609
15.3,0.20469121634960175,-0.07638930529356003,0.06365631520748138,-0.09593838453292847,-0.11027376353740692,-0.010226788930594921
15.35,0.16146279871463776,0.18704988062381744,0.13883067667484283,-0.1255030333995819,-0.09297814965248108,-0.03427121043205261
15.4,0.3589373826980591,-0.20391368865966797,0.06860612332820892,-0.18071436882019043,-0.04173724353313446,-0.015238579362630844
15.45,-0.23428422212600708,-0.2457008957862854,0.382899671792984,-0.22287994623184204,0.016276437789201736,-0.08859968930482864
15.5,-0.4003639817237854,-0.5669118165969849,0.6106017231941223,-0.14110387861728668,-0.14782927930355072,-0.09923058748245239
15.55,-0.2588036358356476,-0.06767755001783371,0.4712897539138794,0.058512210845947266,-0.44093161821365356,-0.12997645139694214
15.6,-0.04442845284938812,-0.23396305739879608,0.23034705221652985,0.13764861226081848,-0.6264966726303101,-0.047060754150152206
15.65,0.22810128331184387,0.07520965486764908,-0.19761869311332703,0.23578080534934998,-0.6752935647964478,0.06417623907327652
15.7,0.40821871161460876,-0.044108349829912186,-0.269795686006546,0.20436659455299377,-0.6699877977371216,0.13532929122447968
15.75,0.38397884368896484,0.07391076534986496,-0.27666622400283813,0.2040194571018219,-0.6285986304283142,0.08617135137319565
15.8,0.24546939134597778,0.330355703830719,-0.29184433817863464,0.20973315834999084,-0.5921324491500854,0.022173896431922913
15.85,0.3337354063987732,0.4990330636501312,-0.32400229573249817,0.11138464510440826,-0.5471546649932861,-0.052716899663209915
15.9,0.09340188652276993,0.22868256270885468,-0.22454358637332916,0.016943372786045074,-0.3852110207080841,-0.13043266534805298
15.95,-0.09718258678913116,0.04957485571503639,-0.07365110516548157,-0.011010393500328064,-0.25736480951309204,-0.14851294457912445
16.0,-0.196785569190979,-0.0118265300989151,-0.04137764126062393,0.02183164656162262,-0.18852294981479645,-0.17838189005851746
16.05,-0.2325289249420166,0.02175520546734333,-0.052178677171468735,0.032995522022247314,-0.12953996658325195,-0.19483177363872528
16.1,-0.30572277307510376,0.13443945348262787,-0.009926307015120983,0.049254074692726135,-0.0749652311205864,-0.16734987497329712
16.15,-0.3245425522327423,0.3731832504272461,0.03629918769001961,0.0528668537735939,-0.08350421488285065,-0.17414699494838715
16.2,-0.1268446296453476,0.07031059265136719,0.019162634387612343,0.016857068985700607,-0.1131734549999237,-0.09927913546562195
16.25,-0.008174988441169262,-0.17278577387332916,-0.002595034660771489,0.09556548297405243,-0.1197904646396637,-0.12074980139732361
16.3,0.4025394320487976,-0.1168966069817543,-0.07016236335039139,0.15520694851875305,-0.10595092177391052,-0.10315831750631332
16.35,0.07482236623764038,0.16561318933963776,0.03302112966775894,0.15656447410583496,0.05701986700296402,-0.028754947707057
16.4,0.01818881183862686,0.03558063879609108,0.05671776458621025,0.10649719834327698,0.10643000155687332,-0.03469737991690636
16.45,0.07472503930330276,-0.1355295330286026,0.022378528490662575,0.10567985475063324,0.09029197692871094,-0.00546410633251071
16.5,-0.07625192403793335,-0.05298710986971855,-0.02947196550667286,0.08222304284572601,0.07932063192129135,0.029673101380467415
16.55,-0.20572783052921295,0.2591266632080078,0.05886739492416382,0.08919401466846466,0.019931230694055557,0.0070715490728616714
16.6,0.15097704529762268,8.393511234316975e-05,-0.004534423351287842,0.09104441106319427,-0.05741262435913086,0.025315457955002785
16.65,0.2288745790719986,0.06283000111579895,-0.13180840015411377,0.07482001185417175,-0.028022324666380882,0.033049821853637695
16.7,0.1422344446182251,0.317324697971344,-0.1161671131849289,0.050509676337242126,0.028998641297221184,0.04588216170668602
16.75,0.06485024094581604,0.145540252327919,-0.008552182465791702,-0.023695874959230423,0.056747473776340485,0.03738484904170036
16.8,-0.06411629170179367,-0.11454012244939804,0.08295304328203201,-0.06469027698040009,0.030628185719251633,0.03623545914888382
16.85,0.22671177983283997,0.03666307404637337,0.06985054165124893,-0.040157802402973175,-0.009964284487068653,0.045785076916217804
16.9,0.23941874504089355,0.0404978021979332,0.027272101491689682,-0.007515527307987213,0.028051648288965225,0.022503895685076714
16.95,0.10792683064937592,-0.0021018940024077892,0.08085449039936066,0.026168623939156532,0.04041490703821182,-0.02973637916147709
17.0,0.21356487274169922,0.19067005813121796,-0.0433613620698452,0.06639240682125092,0.043276596814394,-0.06039857491850853
17.05,-0.02858193963766098,-0.04358864203095436,-0.022421758621931076,0.020313560962677002,0.09581881761550903,-0.038759514689445496
17.1,-0.033563196659088135,0.21754267811775208,0.07683179527521133,0.024477455765008926,0.06388642638921738,-0.04667477309703827
17.15,0.019267629832029343,0.1540699154138565,0.09071828424930573,0.02336055412888527,0.05612578243017197,-0.05787123367190361
17.2,0.1429058462381363,0.08733941614627838,-0.0007507574046030641,-0.0010874196887016296,0.045961860567331314,-0.10270155221223831
17.25,0.2373257577419281,-0.03762531280517578,0.34419432282447815,-0.05519130825996399,-0.0035195096861571074,-0.24628984928131104
17.3,0.500693678855896,-0.5440921783447266,0.09852143377065659,0.05418004095554352,0.04382903128862381,-0.3159160614013672
17.35,0.16300050914287567,-0.12223149091005325,0.06359081715345383,0.14033469557762146,0.20488758385181427,-0.31964635848999023
17.4,-0.1384650617837906,0.2969551384449005,-0.12988881766796112,0.1432841718196869,0.2972855269908905,-0.21103177964687347
17.45,-0.20611993968486786,0.3962011933326721,-0.26663875579833984,0.05855926126241684,0.2952934503555298,-0.09543696790933609
17.5,-0.3638424277305603,0.49416548013687134,-0.29504039883613586,-0.05456716939806938,0.23883949220180511,-0.01570948027074337
17.55,-0.139597088098526,0.19452384114265442,-0.12822705507278442,-0.16032513976097107,0.15528088808059692,0.04757195711135864
17.6,-0.07094571739435196,-0.06076624244451523,0.1841753125190735,-0.15476565062999725,0.12024594843387604,0.027612458914518356
17.65,0.09277467429637909,-0.2545938789844513,0.3248289227485657,-0.07001037895679474,0.10216698795557022,-0.03346927836537361
17.7,0.1886650025844574,-0.22929099202156067,0.3175303041934967,0.03653965890407562,0.11496936529874802,-0.04953203722834587
17.75,0.05230679735541344,-0.05029965192079544,0.0768023431301117,0.1004096046090126,0.15313664078712463,-0.08213038742542267
17.8,0.04223546385765076,0.13808538019657135,-0.032138340175151825,0.08623383194208145,0.13422271609306335,-0.04200522601604462
17.85,-0.06718441843986511,0.04645157605409622,-0.15966752171516418,0.04591481387615204,0.09836772829294205,-0.03146747872233391
17.9,0.39965546131134033,0.9916793704032898,-0.21343381702899933,-0.03210509195923805,0.06671350449323654,-0.0025217956863343716
17.95,0.07579706609249115,0.14320185780525208,-0.08226967602968216,-0.14270955324172974,0.18025946617126465,0.04854435846209526
18.0,0.1734693944454193,-0.5942612290382385,0.07570808380842209,-0.16718249022960663,0.17546068131923676,0.04292760044336319
18.05,0.0008806511759757996,-0.16237452626228333,0.2201412171125412,-0.09727251529693604,0.15550942718982697,0.03410237282514572
18.1,0.03161705657839775,-0.18715764582157135,0.13795459270477295,-0.034984737634658813,0.10488435626029968,-0.00590103305876255
18.15,0.13326437771320343,0.04107286036014557,0.0054615698754787445,0.01420450210571289,0.074526347219944,-0.02452271431684494
18.2,0.07759283483028412,0.18701079487800598,-0.12450215220451355,-0.018547093495726585,0.07256823033094406,-0.02979576401412487
18.25,0.037652648985385895,0.1287403404712677,-0.12380926311016083,-0.05008353292942047,0.07415028661489487,-0.024747781455516815
18.3,-0.07927022129297256,-0.02028084546327591,0.006341652944684029,-0.08545403182506561,0.0835803896188736,0.002635907381772995
18.35,0.08131998032331467,0.20722296833992004,0.01779918000102043,-0.10869660973548889,0.055781006813049316,0.008672238327562809
18.4,0.11894772946834564,0.051759734749794006,0.010775153525173664,-0.16219991445541382,0.052093543112277985,0.02279624529182911
18.45,0.1049204170703888,0.08408452570438385,-0.02244267798960209,-0.16917437314987183,0.05734590068459511,0.023535648360848427
18.5,0.07585078477859497,-0.10691262036561966,0.03541676327586174,-0.20302730798721313,0.037694305181503296,0.0058341133408248425
18.55,0.18519410490989685,-0.06840037554502487,-0.006651407573372126,-0.14412802457809448,0.004567011725157499,-0.05320167914032936
18.6,0.6199978590011597,0.12287624180316925,-0.22274336218833923,-0.09143035113811493,0.06939414143562317,-0.05702873319387436
18.65,-0.06991879642009735,-0.1864633709192276,-0.04824356734752655,-0.14021143317222595,0.23406122624874115,-0.061047572642564774
18.7,0.21065779030323029,-0.14705942571163177,-0.1472425013780594,-0.13042783737182617,0.21507123112678528,-0.05112199857831001
18.75,0.21180085837841034,-0.014775259420275688,-0.04325990006327629,-0.17009282112121582,0.3004366159439087,0.013232369907200336
18.8,-0.032778963446617126,0.02794838137924671,-0.02534578926861286,-0.16578371822834015,0.3648149371147156,0.02465512603521347
18.85,0.02288217470049858,-0.00033759718644432724,-0.03904653340578079,-0.1961393654346466,0.28004691004753113,-0.024158289656043053
18.9,0.037576597183942795,0.0008153992821462452,-0.10248363018035889,-0.22023943066596985,0.19733008742332458,-0.038692642003297806
18.95,0.13427478075027466,0.03649426996707916,-0.04232943803071976,-0.23182187974452972,0.1735510677099228,-0.02914116531610489
19.0,-0.030459841713309288,-0.05609036609530449,0.03860129043459892,-0.22381456196308136,0.1675662249326706,-0.053000666201114655
19.05,0.042849864810705185,0.023264890536665916,0.0012944622430950403,-0.18630915880203247,0.14778347313404083,-0.07768778502941132
19.1,-0.1554507613182068,0.051248542964458466,0.06869246810674667,-0.1590997278690338,0.15452730655670166,-0.08121263980865479
19.15,0.0026438385248184204,0.1498718410730362,-0.004282417707145214,-0.09585386514663696,0.09901974350214005,-0.04211543872952461
19.2,-0.05624057725071907,-0.019762994721531868,-0.09706252068281174,-0.15146350860595703,0.0786057561635971,0.011013712733983994
19.25,-0.049518465995788574,-0.28611186146736145,0.1541137397289276,-0.16471073031425476,0.045374613255262375,0.01763731613755226
19.3,0.04924960061907768,-0.10584452003240585,0.1922505646944046,-0.09791827201843262,-0.04543684422969818,-0.05241457745432854
19.35,0.1441734880208969,-0.10021211206912994,0.212614968419075,-0.07359331846237183,-0.11169151961803436,-0.0985998585820198
19.4,0.04955539479851723,-0.10689451545476913,0.21884383261203766,0.0006882287561893463,-0.13119792938232422,-0.10679229348897934
19.45,0.30240142345428467,0.0947590246796608,-0.03460085391998291,0.08831320703029633,-0.15569479763507843,-0.15034298598766327
19.5,0.389157235622406,0.025756875053048134,-0.12517884373664856,0.08262366056442261,-0.07631810754537582,-0.09908997267484665
19.55,-0.1290367692708969,0.10208415985107422,0.11541292816400528,0.03925953060388565,0.014247394166886806,-0.06476493924856186
19.6,0.1169244647026062,-0.12624837458133698,0.05140575021505356,0.010663039982318878,-0.03056814707815647,-0.06863359361886978
19.65,0.022233450785279274,0.02928638644516468,0.07617572695016861,0.04954662546515465,-0.024247638881206512,-0.04731214419007301
19.7,0.023985469713807106,-0.026947978883981705,0.036074306815862656,0.08981047570705414,-0.03905203938484192,-0.05317728593945503
19.75,0.001986803486943245,0.053141605108976364,-0.0382268987596035,0.08942245692014694,-0.06146674603223801,-0.08408104628324509
19.8,0.057834185659885406,0.14546111226081848,-0.20269213616847992,0.09957590699195862,-0.07470040768384933,-0.0732482448220253
19.85,0.12866076827049255,-0.007277473341673613,-0.14174972474575043,0.06803619116544724,-0.057699862867593765,-0.06745793670415878
19.9,-0.01036524586379528,0.05382252112030983,0.027247650548815727,0.0429719015955925,-0.0056222183629870415,-0.05657878518104553
