Time [s],Acc_x [m/s^2],Acc_y [m/s^2],Acc_z [m/s^2],Gyro_x [1/s],Gyro_y [1/s],Gyro_z [1/s]
0.0,-0.0030200122855603695,0.09367943555116653,0.007500301115214825,0.014641962945461273,0.0018889468628913164,0.005904184188693762
0.05,-0.005561755038797855,0.09367180615663528,0.014047768898308277,0.014642000198364258,0.001888802507892251,0.005904144141823053
0.1,-0.009544086642563343,0.08895111829042435,0.009878327138721943,0.014642339199781418,0.00188837933819741,0.005903442390263081
0.15,-0.04710637032985687,-0.015852922573685646,-0.22776591777801514,-0.002660350874066353,0.026875842362642288,0.01951325312256813
0.2,-0.004805851727724075,0.02896023355424404,-0.039330437779426575,0.019478630274534225,-0.0377497635781765,0.0571507103741169
0.25,0.21536660194396973,0.05612184852361679,0.021624213084578514,0.017557471990585327,-0.053285207599401474,0.06935065239667892
0.3,0.22845906019210815,0.05676652863621712,0.12645533680915833,0.008263295516371727,-0.009873723611235619,0.06574201583862305
0.35,0.19026583433151245,0.1252022087574005,0.059967439621686935,-0.0008127689361572266,0.0442541278898716,0.03701779991388321
0.4,0.033480022102594376,0.02404213696718216,-0.04204399511218071,-0.0025444552302360535,0.07341610640287399,0.02830885723233223
0.45,-0.021018410101532936,0.016721725463867188,0.007387144956737757,0.022028589621186256,0.04957560822367668,0.03918379545211792
0.5,0.02463742345571518,0.09302331507205963,-0.11888157576322556,0.019855786114931107,0.03184879198670387,0.03999013453722
0.55,-0.04991842061281204,0.04609108716249466,-0.19406282901763916,0.011692538857460022,0.014803881756961346,0.03952748328447342
0.6,0.09961260855197906,0.10253717750310898,-0.005080828443169594,0.0030797217041254044,-0.0198794174939394,0.041329145431518555
0.65,0.07172796130180359,0.14057543873786926,-0.04831312969326973,-0.012777450494468212,-0.018903719261288643,0.035843946039676666
0.7,0.13693779706954956,0.11983492225408554,0.09317109733819962,-0.024729115888476372,-0.014967408031225204,0.024313582107424736
0.75,0.08005382865667343,0.0050926231779158115,0.0910244733095169,-0.023806322365999222,0.014159266836941242,0.00325384852476418
0.8,0.0509629026055336,0.03687954694032669,0.01327265240252018,-0.012169761583209038,0.024271229282021523,-0.015165390446782112
0.85,0.03426363691687584,0.058566104620695114,-0.021659761667251587,0.009356926195323467,0.01956927590072155,-0.00665245158597827
0.9,-0.007548194378614426,0.06600858271121979,-0.10324110090732574,0.0046445466578006744,0.013412853702902794,0.003502293722704053
0.95,0.01419125497341156,0.050845157355070114,-0.07675190269947052,0.005755412857979536,0.0013400653842836618,0.0068348306231200695
1.0,0.0675416812300682,0.028106696903705597,0.04207781329751015,0.00536367017775774,-0.001658057328313589,0.012864571996033192
1.05,0.18119007349014282,0.03939725086092949,0.12247276306152344,-0.00273304944857955,7.379156886599958e-05,0.016465269029140472
1.1,0.18004998564720154,0.11742784827947617,0.1392742097377777,-0.021984534338116646,0.032274287194013596,0.004518019966781139
1.15,0.020024821162223816,0.030918128788471222,-0.03205636516213417,-0.014010402373969555,0.054442524909973145,-0.023134808987379074
1.2,0.012419374659657478,0.07023145258426666,-0.07782939821481705,0.008752865716814995,0.03448802977800369,-0.010162395425140858
1.25,-0.04735659062862396,0.08371830731630325,-0.11649046093225479,0.014228038489818573,0.03394290804862976,0.0015502197202295065
1.3,-0.005276881158351898,0.05512334033846855,-0.08898849040269852,0.014984622597694397,0.01765522174537182,0.020280711352825165
1.35,0.02232479676604271,0.05791951343417168,-0.04560517892241478,0.004275435581803322,0.004007606767117977,0.017989739775657654
1.4,0.00026246788911521435,0.03711605444550514,-0.007036315742880106,-0.0017146645113825798,-0.0029845417011529207,0.026492711156606674
1.45,0.06637430191040039,0.05213357135653496,0.0633808970451355,-0.0069560883566737175,-0.009617681615054607,0.018031295388936996
1.5,0.10783597826957703,0.07486535608768463,0.090647853910923,-0.01234596036374569,0.007844898849725723,0.0045635756105184555
1.55,0.2163078635931015,0.13426020741462708,0.054305944591760635,-0.00864122062921524,0.023293515667319298,-0.006398963741958141
1.6,-0.019013497978448868,-0.009870529174804688,-0.0478564128279686,-0.010722663253545761,0.04331802576780319,-0.021475719287991524
1.65,-0.09137515723705292,0.07348347455263138,-0.09238623082637787,0.015892591327428818,0.011678589507937431,-0.009046381339430809
1.7,0.03447851166129112,0.07965852320194244,-0.10029476135969162,0.024760782718658447,-0.011672558262944221,0.005125938914716244
1.75,-0.005773581564426422,0.046981822699308395,-0.061608895659446716,0.006631394382566214,-0.007334217429161072,0.010627654381096363
1.8,-0.024585850536823273,0.04384422302246094,0.02247173711657524,0.019938824698328972,-0.04238332808017731,0.019032400101423264
1.85,0.11843837052583694,0.0832672268152237,0.05962354317307472,0.009733712300658226,-0.057574450969696045,0.022966798394918442
1.9,0.17755179107189178,0.057078372687101364,0.2083992213010788,-0.004934132564812899,-0.03401518985629082,0.016213957220315933
1.95,0.2242804616689682,0.025451673194766045,0.16740041971206665,-0.014819562435150146,0.0005193684482946992,-0.004668109584599733
2.0,0.04645753279328346,0.1432943493127823,0.03881382942199707,0.0020208624191582203,0.05512581393122673,-0.0001892206637421623
2.05,0.003788728266954422,0.049751292914152145,-0.03769426792860031,0.017999328672885895,0.07494430989027023,-0.001397258834913373
2.1,-0.06738807260990143,0.021973611786961555,-0.10401400178670883,0.023720720782876015,0.08644291013479233,0.018099896609783173
2.15,-0.1328311711549759,0.04687977209687233,-0.16435080766677856,0.03685275465250015,0.05679040029644966,0.05056356266140938
2.2,-0.006856977939605713,0.019666679203510284,-0.13324856758117676,0.03652535378932953,0.0224929079413414,0.07418501377105713
2.25,0.03367604315280914,0.0006008211057633162,-0.07858685404062271,0.017405979335308075,0.015218215063214302,0.10826671868562698
2.3,0.13175585865974426,0.03418732434511185,0.1697022020816803,0.026489321142435074,0.001165561843663454,0.11559347808361053
2.35,0.23213884234428406,0.173740416765213,0.19338177144527435,0.0162753164768219,0.016774022951722145,0.07023480534553528
2.4,0.1028672456741333,0.06577111780643463,0.06689395755529404,-0.008404013700783253,0.07863166928291321,-0.0017445823177695274
2.45,-0.10725758224725723,-0.010729795321822166,-0.08629775047302246,0.01688389852643013,0.072904571890831,-0.005227899178862572
2.5,-0.0556168407201767,0.06824589520692825,-0.05249299854040146,0.07489173114299774,0.011898077093064785,0.018881894648075104
2.55,-0.12404195964336395,0.06467247754335403,-0.1405508816242218,0.06098075211048126,0.02117643877863884,0.044343627989292145
2.6,-0.07111150026321411,0.03570556640625,-0.04168524220585823,0.05812785029411316,-0.011972198262810707,0.08061873912811279
2.65,-0.05430914834141731,0.05236244574189186,-0.0022143954411149025,0.041026342660188675,-0.030061183497309685,0.09857558459043503
2.7,0.07278220355510712,0.07065106928348541,-0.03838972747325897,0.000787828117609024,-0.04277199134230614,0.08267586678266525
2.75,0.4109615981578827,0.18150238692760468,0.16104891896247864,-0.03358497470617294,-0.03125419467687607,0.047055020928382874
2.8,0.46415358781814575,0.37686261534690857,0.28282395005226135,-0.07510750740766525,0.014146190136671066,-0.04574920982122421
2.85,-0.011564698070287704,0.12617017328739166,-0.03806464001536369,-0.12508296966552734,0.10701221972703934,-0.12499789148569107
2.9,-0.329807847738266,-0.03902341425418854,-0.3062135577201843,-0.04494362324476242,0.05075352266430855,-0.1251426637172699
2.95,-0.16989196836948395,0.009942052885890007,-0.2133162021636963,0.012834791094064713,-0.06503256410360336,-0.07881101220846176
3.0,-0.03923456370830536,0.0635681301355362,-0.16906830668449402,-0.006350986659526825,-0.11918220669031143,-0.040901221334934235
3.05,-0.0752105712890625,0.11629488319158554,-0.21800093352794647,-0.0780467540025711,-0.13603532314300537,-0.05094446614384651
3.1,-0.1283288151025772,0.06009389087557793,-0.2565726637840271,-0.17102283239364624,-0.14404602348804474,-0.05378486216068268
3.15,-0.12556423246860504,0.08983613550662994,-0.3258433938026428,-0.2431599199771881,-0.15723560750484467,-0.07333183288574219
3.2,-0.09369052946567535,0.05265427380800247,-0.1833435595035553,-0.24587228894233704,-0.1615898460149765,-0.07594257593154907
3.25,-0.12506365776062012,0.049897201359272,-0.24312426149845123,-0.23283657431602478,-0.15744221210479736,-0.06089026480913162
3.3,-0.49911874532699585,-0.043956778943538666,-0.3861501216888428,-0.16783210635185242,-0.14784783124923706,-0.05177696794271469
3.35,-0.3401221036911011,-0.022004151716828346,-0.06686462461948395,-0.06695115566253662,-0.24494971334934235,-0.03801431506872177
3.4,-0.06612643599510193,0.10666370391845703,0.25340643525123596,-0.07232728600502014,-0.3575766384601593,0.04301347956061363
3.45,-0.08408510684967041,0.07271193712949753,0.2044365406036377,-0.05536616966128349,-0.3491799831390381,0.022695980966091156
3.5,0.13416612148284912,-0.029551515355706215,0.34912872314453125,-0.032794564962387085,-0.36660462617874146,0.016663815826177597
3.55,0.3547400236129761,0.07332134991884232,0.5344269871711731,-0.03008306957781315,-0.3524121046066284,0.053757041692733765
3.6,0.4693494439125061,0.11614325642585754,0.41395288705825806,-0.05118294805288315,-0.24695366621017456,0.05700066313147545
3.65,0.3635246753692627,0.08750631660223007,0.2988912761211395,-0.05589976906776428,-0.10274091362953186,0.016586527228355408
3.7,0.35656699538230896,0.08895304054021835,0.30927926301956177,-0.03317105025053024,-0.011136483401060104,0.0077068740501999855
3.75,0.4338668882846832,0.07114412635564804,0.31633490324020386,-0.0052174171432852745,0.07134488224983215,0.022269051522016525
3.8,0.38726502656936646,0.09362605214118958,0.23660169541835785,0.00637107715010643,0.1745671033859253,0.026411786675453186
3.85,0.2186194658279419,0.04087163507938385,0.1222861185669899,0.016311466693878174,0.23320303857326508,0.0333133265376091
3.9,0.18824583292007446,0.015487686730921268,0.007361607160419226,0.030276985839009285,0.23784534633159637,0.05322995409369469
3.95,0.04736623913049698,-0.007855408824980259,-0.08167928457260132,0.04536417871713638,0.22372578084468842,0.06259793043136597
4.0,0.08670242130756378,0.035138145089149475,-0.06479116529226303,0.06161050871014595,0.1560908406972885,0.07486871629953384
4.05,-0.0025158890057355165,0.041161540895700455,0.004134535789489746,0.07121333479881287,0.09459228813648224,0.0796772837638855
4.1,0.03102845698595047,0.04237652197480202,0.03117644600570202,0.0643015205860138,0.051626622676849365,0.07598438858985901
4.15,0.11171954870223999,0.10961725562810898,0.03258652240037918,0.06042841076850891,0.055869899690151215,0.06376684457063675
4.2,0.15823623538017273,0.0941791757941246,0.15122981369495392,0.056196872144937515,0.0872163400053978,0.054119475185871124
4.25,0.1000334694981575,0.034159667789936066,0.11909495294094086,0.0484120137989521,0.10933040082454681,0.056392356753349304
4.3,0.04987605661153793,0.11791136115789413,-0.012270068749785423,0.034422654658555984,0.11368218064308167,0.06252866983413696
4.35,0.015541580505669117,0.05263997241854668,-0.03786059841513634,0.019329393282532692,0.13434851169586182,0.06288006901741028
4.4,-0.05636954307556152,-0.00719547551125288,-0.053545739501714706,0.03912967070937157,0.12804603576660156,0.07608875632286072
4.45,-0.050491783767938614,0.05422116443514824,-0.1340620368719101,0.05884956941008568,0.11891234666109085,0.08772901445627213
4.5,-0.10112838447093964,-0.015525820665061474,-0.13852597773075104,0.07470996677875519,0.1397871971130371,0.09218339622020721
4.55,-0.15875990688800812,0.016247743740677834,-0.08337078988552094,0.1267538219690323,0.129729762673378,0.11981997638940811
4.6,-0.12427756190299988,0.048801422119140625,-0.02835189551115036,0.15660028159618378,0.12498302012681961,0.1439233124256134
4.65,-0.09392774105072021,0.03435229882597923,-0.01877286657691002,0.17048564553260803,0.1361190378665924,0.15024791657924652
4.7,0.11389201879501343,0.05937005579471588,0.06181995943188667,0.19981378316879272,0.12898537516593933,0.13553819060325623
4.75,0.0995500236749649,0.17778588831424713,0.012390085496008396,0.17257049679756165,0.1718684434890747,0.09472067654132843
4.8,0.029318958520889282,0.1407337486743927,-0.16922669112682343,0.12255130708217621,0.2031611204147339,0.055033765733242035
4.85,0.12481486052274704,0.14573195576667786,-0.06841687858104706,0.1040363684296608,0.17611275613307953,0.008163482882082462
4.9,0.13368673622608185,0.15082934498786926,-0.010148489847779274,0.06569870561361313,0.15198658406734467,-0.04011955484747887
4.95,0.06618758291006088,0.11165239661931992,-0.06710091233253479,0.029826492071151733,0.13058799505233765,-0.06623805314302444
5.0,0.05208957940340042,0.08150102198123932,-0.03604947030544281,0.01881811022758484,0.07587482780218124,-0.09433146566152573
5.05,-0.02927742898464203,0.0972747802734375,0.21298091113567352,-0.00877009704709053,0.02493584156036377,-0.09950841218233109
5.1,-0.08264608681201935,0.008469554595649242,0.46931737661361694,-0.06873170286417007,-0.07524456828832626,-0.08037116378545761
5.15,0.222385972738266,0.08112526684999466,0.40920042991638184,-0.12533313035964966,-0.20638775825500488,-0.03432963788509369
5.2,0.2807585597038269,0.1264677494764328,-0.019647229462862015,-0.24106691777706146,-0.1826065182685852,-0.011373886838555336
5.25,-0.07575806975364685,-0.014222132973372936,-0.4189944267272949,-0.31588637828826904,-0.03626607358455658,-0.013584318570792675
5.3,-0.2088315784931183,-0.061713218688964844,-0.5010643601417542,-0.2207513153553009,0.0027009909972548485,-0.018455438315868378
5.35,-0.2532004117965698,0.028252597898244858,-0.25529783964157104,-0.07461906969547272,0.008105884306132793,-0.03256799653172493
5.4,-0.23920372128486633,0.04718112200498581,-0.06663505733013153,0.006625823676586151,0.017463138327002525,-0.05065714567899704
5.45,-0.13637450337409973,0.024168964475393295,-0.0725787878036499,0.0483865812420845,-0.0010828879894688725,-0.07082109153270721
5.5,0.017561063170433044,0.007298469543457031,0.051013000309467316,0.07055821269750595,-0.028715016320347786,-0.07679032534360886
5.55,0.035266656428575516,0.014966967515647411,0.034307193011045456,0.06470322608947754,-0.03673052042722702,-0.06297744065523148
5.6,0.0021412232890725136,0.02882099710404873,-0.024060212075710297,0.04441796615719795,-0.028280453756451607,-0.03937100991606712
5.65,0.05127798765897751,0.08155251294374466,0.005510970950126648,0.04503180831670761,-0.03829684853553772,-0.01688501425087452
5.7,0.04188567027449608,0.06759835034608841,0.005341042298823595,0.02771826647222042,-0.022404061630368233,-0.0023261283058673143
5.75,0.018633050844073296,0.07164383679628372,-0.006769061088562012,0.013622084632515907,-0.012124013155698776,0.01390931662172079
5.8,0.07257711887359619,0.07170964777469635,0.025208961218595505,0.010940464213490486,-0.012266801670193672,0.020522311329841614
5.85,0.041803665459156036,0.0930175855755806,0.0798955112695694,0.003974462393671274,-0.005123534705489874,0.02249215915799141
5.9,0.018866928294301033,0.0880889967083931,0.03451615571975708,-0.0005992809310555458,-0.0003392505750525743,0.019444024190306664
5.95,0.056536946445703506,0.08300019800662994,-0.01950901560485363,-0.008672465570271015,0.0008421851671300828,0.008244464173913002
6.0,0.04632598161697388,0.09163285046815872,0.058001648634672165,-0.016617558896541595,0.0020343796350061893,-0.0025778987910598516
6.05,0.03290272504091263,0.04930878430604935,0.06102626398205757,-0.012341266497969627,-0.005157839506864548,-0.010564138181507587
6.1,0.017000092193484306,0.03658295050263405,0.048128411173820496,-0.01531887985765934,-0.012807904742658138,-0.009793820790946484
6.15,0.0005718432366847992,0.04563808813691139,0.04126511141657829,-0.014992090873420238,-0.018339887261390686,-0.008547013625502586
6.2,0.04647790640592575,0.0704202726483345,0.019208084791898727,-0.01148134283721447,-0.019048187881708145,-0.005037565715610981
6.25,0.01272413320839405,0.0518798902630806,-0.009733262471854687,-0.013814848847687244,-0.010559478774666786,-0.007010713219642639
6.3,0.016540400683879852,0.007948878221213818,-0.019634615629911423,-0.016881953924894333,-0.005986562464386225,-0.009874827228486538
6.35,0.027666987851262093,0.03126431256532669,-0.03147903457283974,-0.01667802408337593,-0.008395398035645485,-0.004544935654848814
6.4,0.02042250521481037,-0.0013237001840025187,0.03580799326300621,-0.016130356118083,-0.00858636200428009,-0.0011675589485093951
6.45,0.05605216696858406,0.029429439455270767,0.07357237488031387,-0.009739594534039497,-0.012287654913961887,0.003435090184211731
6.5,0.05019531771540642,0.011066439561545849,0.036440618336200714,-0.00855335034430027,-0.006526524666696787,0.003300039330497384
6.55,0.05679622292518616,0.030654912814497948,0.05978156998753548,-0.007188692688941956,-0.003394091734662652,-0.004807245451956987
6.6,0.010773831978440285,0.07849980145692825,0.06424351781606674,-0.00433476734906435,0.00017148425104096532,-0.006365927867591381
6.65,0.014104481786489487,0.09554578363895416,0.012488997541368008,-0.0006905351765453815,-0.003730197437107563,-0.005452087614685297
6.7,-0.010287168435752392,0.07223702222108841,-0.05107823759317398,-0.002729664323851466,-0.001553228939883411,-0.007851333357393742
6.75,-0.0344141349196434,0.06786156445741653,0.00416178023442626,-0.007075728848576546,-0.0015002182917669415,-0.002807209501042962
6.8,-0.042008377611637115,0.02954387664794922,-0.0004000823537353426,-0.007030740845948458,-0.0023007027339190245,0.0016086096875369549
6.85,-0.11578383296728134,-0.012451178394258022,-0.08146287500858307,-0.010704070329666138,0.015104074031114578,0.023210672661662102
6.9,-0.17779257893562317,0.002816194901242852,-0.17378494143486023,-0.014101069420576096,0.007551748771220446,0.07157190144062042
6.95,-0.1647201031446457,0.07216358184814453,-0.17879541218280792,-0.006844144314527512,-0.038737088441848755,0.1256001889705658
7.0,-0.14219655096530914,0.03303241729736328,-0.12055205553770065,0.0015485957264900208,-0.07924073189496994,0.15828868746757507
7.05,-0.18876095116138458,9.917267743730918e-05,-0.10798335075378418,-0.001155175268650055,-0.10780749469995499,0.16859589517116547
7.1,-0.3042328357696533,0.12731361389160156,-0.19109605252742767,-0.009152613580226898,-0.12306956946849823,0.16750794649124146
7.15,-0.5350894927978516,0.2859210968017578,-0.25916537642478943,-0.01461167261004448,-0.13657499849796295,0.13728342950344086
7.2,-0.5372734665870667,0.23005962371826172,-0.18099626898765564,-0.011259317398071289,-0.19077900052070618,0.05348631367087364
7.25,-0.09051472693681717,0.09136104583740234,-0.04394723102450371,-0.03033491037786007,-0.2274681180715561,-0.0009175956365652382
7.3,-0.11251657456159592,0.31502631306648254,0.12810811400413513,-0.09020312875509262,-0.32397744059562683,0.08641090989112854
7.35,0.15695178508758545,0.32088759541511536,0.3264908790588379,-0.0911753848195076,-0.5165073871612549,0.031449899077415466
7.4,0.5542988777160645,0.23005588352680206,-0.02966860868036747,-0.17584195733070374,-0.4431130588054657,-0.13699358701705933
7.45,0.27546367049217224,-0.02398296259343624,-0.4903337359428406,-0.2956531345844269,-0.19592949748039246,-0.21845021843910217
7.5,0.33877065777778625,-0.11438081413507462,-0.22735713422298431,-0.1827341616153717,-0.11702316254377365,-0.2287585288286209
7.55,0.45387279987335205,-0.00988577026873827,0.3469865918159485,-0.07262913137674332,-0.039762333035469055,-0.19968988001346588
7.6,0.3146953880786896,-0.1115875393152237,0.5231571197509766,-0.07424008846282959,0.08843319118022919,-0.17049893736839294
7.65,0.31346067786216736,-0.07325172424316406,0.37986135482788086,-0.08434277772903442,0.11656814068555832,-0.1344713270664215
7.7,0.4207879900932312,0.008365655317902565,0.18737491965293884,-0.09113623201847076,0.08839231729507446,-0.09697792679071426
7.75,0.45012277364730835,-0.034893009811639786,0.11780065298080444,-0.06000801920890808,0.08992252498865128,-0.08691981434822083
7.8,0.2450314164161682,0.04967595636844635,0.24391165375709534,-0.01657237857580185,0.1227845624089241,-0.08790142834186554
7.85,-0.00782719999551773,0.06638431549072266,0.1617419272661209,0.019543271511793137,0.12848006188869476,-0.07367956638336182
7.9,-0.012967929244041443,0.07086087018251419,0.041993752121925354,0.06543326377868652,0.08777637779712677,-0.07744675129652023
7.95,0.1852448582649231,0.12408259510993958,0.006436284631490707,0.052702151238918304,0.10042781382799149,-0.09485379606485367
8.0,0.35759109258651733,0.08521752059459686,-0.25675442814826965,0.00548965111374855,0.21131345629692078,-0.10642693936824799
8.05,0.548365592956543,-0.10272973775863647,-0.6887248754501343,0.014822889119386673,0.37008383870124817,-0.12381882965564728
8.1,0.7359380125999451,-0.2584332823753357,-0.6296042203903198,0.11574093252420425,0.683482825756073,-0.1335878223180771
8.15,0.41525745391845703,0.03352167084813118,0.3884681165218353,0.24028827250003815,1.0391395092010498,-0.11497161537408829
8.2,-0.29037556052207947,0.29575154185295105,1.0637915134429932,0.22421465814113617,1.0425838232040405,-0.05836571007966995
8.25,-0.7908976674079895,0.26082414388656616,0.8016164302825928,0.09367086738348007,0.6686574816703796,-0.020186888054013252
8.3,-0.631915271282196,0.07903380692005157,0.13164526224136353,-0.008505353704094887,0.2292882204055786,-0.02526008151471615
8.35,-0.3185701072216034,-0.10059931129217148,-0.3861609399318695,-0.010043064132332802,-0.04356249049305916,-0.027462899684906006
8.4,-0.17533600330352783,-0.031216630712151527,-0.15897300839424133,0.07706546038389206,-0.17404203116893768,-0.012882604263722897
8.45,-0.07783275097608566,0.08953094482421875,0.09094496071338654,0.13336923718452454,-0.22836923599243164,0.012646196410059929
8.5,-0.10578830540180206,0.11643219739198685,-0.08783724904060364,0.11729493737220764,-0.21874170005321503,0.024013318121433258
8.55,-0.1349368393421173,0.04162883758544922,-0.12496201694011688,0.0924181193113327,-0.17701902985572815,0.005945957265794277
8.6,-0.061172958463430405,0.0067644063383340836,0.039785828441381454,0.08579746633768082,-0.13563328981399536,-0.01956149749457836
8.65,0.09080010652542114,0.057388316839933395,0.08683047443628311,0.08957986533641815,-0.1140679270029068,-0.017759686335921288
8.7,0.07032991200685501,0.04980279505252838,-0.0054927123710513115,0.08368739485740662,-0.10189571976661682,0.018540332093834877
8.75,-0.018803628161549568,0.032293323427438736,-0.05639088526368141,0.09641122817993164,-0.1129024401307106,0.043379683047533035
8.8,-0.01914054900407791,0.06997586041688919,-0.08340258151292801,0.10294757783412933,-0.10681376606225967,0.04117896780371666
8.85,0.050084635615348816,0.10309316962957382,-0.06700897216796875,0.05184192955493927,-0.06282489001750946,0.032258424907922745
8.9,0.14538098871707916,0.12366297096014023,0.03702554479241371,-0.007460140623152256,-0.015021516010165215,0.02256850153207779
8.95,0.16968458890914917,0.15815261006355286,0.07797305285930634,-0.044319916516542435,0.030821042135357857,0.018076352775096893
9.0,0.12676119804382324,0.13358594477176666,0.08383895456790924,-0.07319699227809906,0.07694879174232483,0.006739770527929068
9.05,0.05381215736269951,0.0670776441693306,0.06237747520208359,-0.08975575864315033,0.11045606434345245,-0.004890402313321829
9.1,-0.0055406540632247925,0.022774696350097656,0.037246618419885635,-0.07698039710521698,0.10774637758731842,-0.003694010665640235
9.15,-0.01373101957142353,0.032064441591501236,0.017440225929021835,-0.04794808477163315,0.07195323705673218,-0.0024110404774546623
9.2,-0.0037812991067767143,0.05196858197450638,-0.022210264578461647,-0.028596632182598114,0.024832841008901596,-0.004561970476061106
9.25,0.06912651658058167,0.046983733773231506,-0.06876986473798752,-0.02305532991886139,-0.002415016293525696,-0.0044542597606778145
9.3,0.0921390950679779,0.026781093329191208,-0.0110291363671422,-0.026958763599395752,0.0005182330496609211,-0.008503188379108906
9.35,0.03539014980196953,0.013523103669285774,0.057475436478853226,-0.025265756994485855,0.012682470493018627,-0.012757147662341595
9.4,0.027727026492357254,0.009572030045092106,0.042752720415592194,-0.0073027233593165874,0.003376541892066598,-0.006120420526713133
9.45,0.017504416406154633,0.029755596071481705,0.022181246429681778,0.01641431823372841,-0.01786152645945549,0.003981596790254116
9.5,-0.056383147835731506,0.14097405970096588,-0.006443262565881014,0.025715921074151993,-0.041013095527887344,0.004070620983839035
9.55,-0.3187914788722992,0.1327524036169052,-0.026268187910318375,0.011530892923474312,-0.05624488368630409,0.0013864078791812062
9.6,-0.6993023157119751,0.07683654129505157,-0.04993002861738205,0.016360405832529068,-0.151946559548378,0.008492681197822094
9.65,-0.7516258358955383,0.10607143491506577,-0.12032147496938705,0.05428622290492058,-0.3860419690608978,-0.013748968951404095
9.7,-0.5287543535232544,0.10847089439630508,-0.11953695863485336,0.09821518510580063,-0.5408675074577332,-0.072755828499794
9.75,-0.656693160533905,0.2882823646068573,0.035588111728429794,0.13409361243247986,-0.5227972269058228,-0.11170538514852524
9.8,-0.0015728473663330078,0.4932556450366974,0.7170538902282715,0.09963902831077576,-0.614953875541687,-0.2247440218925476
9.85,1.6299176216125488,0.4324246942996979,1.058671474456787,-0.05013754963874817,-0.5859394669532776,-0.46456432342529297
9.9,2.321556806564331,0.0957309752702713,0.04225946217775345,-0.3006129562854767,0.14558221399784088,-0.6674220561981201
9.95,1.891825556755066,-0.3208797872066498,-0.7823923826217651,-0.5766032338142395,1.236656665802002,-0.7362334728240967
10.0,0.860920250415802,-0.31633272767066956,-1.0123050212860107,-0.7058092951774597,1.9656147956848145,-0.6343832612037659
10.05,-0.1336120069026947,-0.2515068054199219,-1.096139907836914,-0.6884750723838806,2.1797220706939697,-0.5126974582672119
10.1,-1.020134687423706,-0.3755846917629242,-0.7775112390518188,-0.5641472339630127,2.0662682056427,-0.469150185585022
10.15,-1.4806376695632935,-0.43955153226852417,0.09082593768835068,-0.3331308662891388,1.6640372276306152,-0.5285884737968445
10.2,-1.092787265777588,0.11979283392429352,0.7847540378570557,-0.08067110180854797,0.8878089189529419,-0.6932753920555115
10.25,-0.29260098934173584,0.9231043457984924,1.0389387607574463,0.016381293535232544,0.15908777713775635,-0.8273624181747437
10.3,-0.4774188995361328,1.1517744064331055,1.0789018869400024,0.01713550090789795,-0.15462231636047363,-0.8876804113388062
10.35,-0.040719084441661835,0.0420675165951252,0.284959614276886,0.08115708827972412,-0.5276341438293457,-0.6937921643257141
10.4,1.436644434928894,-0.7380151152610779,-0.6003321409225464,0.02252698689699173,-0.6850026249885559,-0.2937905192375183
10.45,1.4735350608825684,0.12237370759248734,0.09676337987184525,0.018951892852783203,0.009968217462301254,-0.236810564994812
10.5,0.5740419626235962,0.0650501549243927,0.49958863854408264,-0.10975001752376556,0.6597232222557068,-0.13293004035949707
10.55,-0.5191755890846252,-0.6773730516433716,0.29331693053245544,-0.17186664044857025,0.7838050723075867,-0.1372710019350052
10.6,-0.16780082881450653,-0.5271883606910706,-0.007243128959089518,-0.10029474645853043,0.3899122178554535,-0.21180939674377441
10.65,0.6654138565063477,-0.13599583506584167,0.02887471206486225,-0.10549730062484741,0.05990052595734596,-0.13209956884384155
10.7,0.9276989698410034,0.1211758404970169,0.3035218417644501,-0.20034798979759216,0.051153142005205154,-0.06930817663669586
10.75,0.5427790880203247,-0.4026651978492737,0.5818779468536377,-0.25546514987945557,0.059470437467098236,-0.07331457734107971
10.8,0.3269854784011841,-0.6904439926147461,-0.2773248851299286,-0.22884465754032135,-0.11265570670366287,0.04047803953289986
10.85,0.26523885130882263,0.2361937016248703,0.05960752069950104,-0.036013443022966385,-0.22514040768146515,0.05557580664753914
10.9,0.8247672319412231,0.4385663568973541,-0.2798630893230438,0.04648234695196152,-0.33868494629859924,0.11808577179908752
10.95,0.7422336935997009,-0.1455192118883133,-0.11787056922912598,0.05978665500879288,0.05565974488854408,0.19651402533054352
11.0,1.2375898361206055,0.6802598237991333,0.36036837100982666,0.1846778690814972,0.006862194277346134,0.4662362337112427
11.05,1.1863136291503906,0.899726152420044,-0.03227511793375015,0.13335035741329193,0.11158525198698044,0.6524128913879395
11.1,-1.6576294898986816,-0.024334033951163292,-1.1017036437988281,-0.001178637146949768,1.1101951599121094,0.29415157437324524
11.15,-1.6793006658554077,0.2007540613412857,0.16121985018253326,0.26286381483078003,0.791312038898468,-0.15878908336162567
11.2,-0.28932249546051025,-0.11603455245494843,0.09358931332826614,0.48191481828689575,-0.37152791023254395,-0.06715691089630127
11.25,0.5764463543891907,0.4919368028640747,-0.013306812383234501,0.3323788344860077,-0.35433870553970337,-0.11007708311080933
11.3,0.4655618667602539,-0.2799329459667206,-0.25792205333709717,0.08442024886608124,0.1255185455083847,-0.024726862087845802
11.35,-0.3942115604877472,-0.6895390748977661,0.4664127230644226,0.019506100565195084,0.651732325553894,0.007194066885858774
11.4,-0.3073740601539612,-0.24783524870872498,0.6665543913841248,0.034592922776937485,0.5082734227180481,-0.024030646309256554
11.45,0.06518786400556564,0.43444639444351196,0.14800672233104706,-0.022782161831855774,0.01140628196299076,0.059630148112773895
11.5,0.50336092710495,0.42463406920433044,-0.03810714930295944,-0.15163850784301758,-0.051585663110017776,-0.035989563912153244
11.55,0.8881984949111938,0.25226032733917236,-0.4400230944156647,-0.22238968312740326,-0.07216569036245346,0.0039376625791192055
11.6,0.15877383947372437,0.16177845001220703,0.4311957061290741,-0.19404862821102142,0.11656194925308228,-0.008230914361774921
11.65,0.5983386635780334,0.07631020992994308,-0.042043186724185944,-0.0912172794342041,-0.24539639055728912,-0.06429774314165115
11.7,0.5850536227226257,0.3148060739040375,-0.18953579664230347,-0.1088724285364151,-0.16957838833332062,-0.026819754391908646
11.75,0.15954282879829407,0.21771720051765442,0.2034047394990921,-0.17037495970726013,-0.012704559601843357,-0.0063151950016617775
11.8,0.02766299992799759,0.07098866999149323,-0.1332181841135025,-0.18292981386184692,-0.12236921489238739,0.03846582770347595
11.85,-0.013647019863128662,-0.0023174185771495104,-0.24304541945457458,-0.1583934873342514,-0.13232135772705078,0.09557536989450455
11.9,-0.28462347388267517,-0.11436179280281067,-0.08411405235528946,-0.11034979671239853,-0.14455437660217285,0.10624214261770248
11.95,-0.11779852211475372,0.19298842549324036,-0.10925668478012085,-0.022152934223413467,-0.2919640839099884,0.10520471632480621
12.0,0.0774206593632698,0.42567163705825806,0.3905459940433502,0.03051113337278366,-0.6092397570610046,0.11108512431383133
12.05,1.0697859525680542,0.18383705615997314,-0.43037179112434387,-0.04087524116039276,-0.7329016327857971,0.11381839215755463
12.1,0.4259997308254242,-0.018121687695384026,-0.020136984065175056,-0.06583188474178314,-0.18509937822818756,0.1519453376531601
12.15,-0.5274940729141235,0.12387748062610626,0.3529890179634094,-0.018121425062417984,0.055774614214897156,0.12139703333377838
12.2,0.41968026757240295,0.3662720322608948,-0.09074771404266357,0.10457269847393036,-0.4779316484928131,0.018297860398888588
12.25,1.2231427431106567,-0.08963481336832047,0.099708192050457,0.2700687348842621,-1.2223119735717773,0.3973495364189148
12.3,0.9410053491592407,0.17607510089874268,-0.5915893912315369,0.24172818660736084,-0.7735478281974792,0.531785786151886
12.35,-0.196253702044487,-0.11729909479618073,-0.3223344385623932,0.3137194812297821,-0.2046763002872467,0.4810217618942261
12.4,-0.46571728587150574,-0.06260401010513306,0.3668383061885834,0.4426620602607727,-0.4912668764591217,0.5786066651344299
12.45,0.5318505167961121,0.12640385329723358,0.2362603396177292,0.4762873351573944,-0.6771156191825867,0.6414644122123718
12.5,0.07749830186367035,0.2288513481616974,0.2680959403514862,0.39102309942245483,-0.3295413553714752,0.5320598483085632
12.55,-0.10909342765808105,0.15473461151123047,0.17487689852714539,0.32411858439445496,-0.2070433646440506,0.3943248391151428
12.6,0.28619450330734253,0.12746813893318176,0.1387055665254593,0.3843918442726135,-0.38044968247413635,0.31920668482780457
12.65,-0.009325247257947922,0.11155415326356888,0.14137683808803558,0.2856214940547943,-0.22316999733448029,0.3501145541667938
12.7,0.1028287261724472,-0.25223445892333984,-0.21100842952728271,0.2803229093551636,-0.13868415355682373,0.33776211738586426
12.75,-0.2898676097393036,-0.31096750497817993,0.06279543787240982,0.38119253516197205,-0.12426877021789551,0.4096478521823883
12.8,-0.9930688738822937,0.1738986223936081,0.18336279690265656,0.39102962613105774,-0.19345469772815704,0.47289469838142395
12.85,-0.4925987124443054,0.40445616841316223,0.07050771266222,0.31546974182128906,-0.2883833944797516,0.3007367253303528
12.9,-0.4615137577056885,0.2870635986328125,-0.250233918428421,0.1966453194618225,-0.1453530490398407,0.1624196320772171
12.95,-0.0788678228855133,0.32018187642097473,-0.20912186801433563,0.14588230848312378,-0.16991187632083893,0.056280747056007385
13.0,0.4759845435619354,0.2851439118385315,-0.020186875015497208,0.0993833914399147,-0.09653342515230179,-0.057825952768325806
13.05,0.12514853477478027,0.23128704726696014,-0.0943278819322586,0.042974479496479034,0.07139736413955688,-0.06459952890872955
13.1,-0.2905919551849365,0.014048564247786999,-0.17447209358215332,0.007478717714548111,0.08479522168636322,-0.06961227208375931
13.15,-0.0679529681801796,0.054072387516498566,-0.10136616975069046,0.024475224316120148,-0.04948294162750244,-0.04009449854493141
13.2,0.035712648183107376,0.07407188415527344,0.1863665133714676,-0.002538556233048439,-0.06410545110702515,-0.03562973439693451
13.25,-0.29235583543777466,0.08235453069210052,-0.022107623517513275,-0.08897608518600464,0.023536596447229385,-0.0318811871111393
13.3,0.30402082204818726,0.1247415840625763,0.12683217227458954,-0.10469293594360352,-0.006368998438119888,-0.007874519564211369
13.35,-0.45623329281806946,0.11663338541984558,0.2693912982940674,-0.15440210700035095,0.03359769284725189,0.007978050969541073
13.4,-0.08240870386362076,0.1202859878540039,0.16901682317256927,-0.13752231001853943,-0.1471863090991974,-0.016991572454571724
13.45,0.34747183322906494,0.23882490396499634,-0.09490791708230972,-0.09281039983034134,-0.04544946923851967,-0.022586822509765625
13.5,0.4432019293308258,0.20087534189224243,-0.06247710809111595,-0.2482900470495224,0.24972185492515564,-0.02570056915283203
13.55,-0.36003345251083374,0.3184518814086914,-0.07681572437286377,-0.44427376985549927,0.4970841109752655,-0.027356579899787903
13.6,-0.49768614768981934,0.46292975544929504,0.0017513600178062916,-0.59145587682724,0.4972979724407196,-0.17359225451946259
13.65,-0.1096683144569397,0.4384623169898987,-0.3417617082595825,-0.695486843585968,0.7206518054008484,-0.5478221774101257
13.7,-0.7454355955123901,-0.2067757248878479,-0.656406044960022,-0.9890609979629517,1.5433045625686646,-0.8335971832275391
13.75,-1.1374495029449463,-1.0316364765167236,1.6899577379226685,-0.7889859080314636,1.1939890384674072,-0.8581047654151917
13.8,1.0603141784667969,0.3305912911891937,0.4975118339061737,-0.40366676449775696,-0.18097873032093048,-0.8408387303352356
13.85,2.0959348678588867,-0.1452224999666214,-0.36584383249282837,-0.6611798405647278,0.38188672065734863,-0.8455203175544739
13.9,-0.0001923050731420517,-0.30031970143318176,-0.06600736081600189,-0.7286651730537415,1.2629512548446655,-0.6627753376960754
13.95,-0.4059293568134308,-0.40954598784446716,0.2327856421470642,-0.4089937210083008,0.8108643293380737,-0.4270537495613098
14.0,0.5251491665840149,-0.027178741991519928,0.30421972274780273,-0.12042999267578125,-0.11604283004999161,-0.07959527522325516
14.05,0.21854789555072784,0.12149336189031601,0.16401062905788422,-0.1269669085741043,-0.12537938356399536,0.11139537394046783
14.1,0.12540408968925476,0.08664419502019882,-0.05767134577035904,-0.18313384056091309,0.04602988436818123,0.0706280842423439
14.15,0.7704633474349976,-0.07731238752603531,-0.6598244905471802,-0.2237359881401062,0.11434827744960785,0.04249240830540657
14.2,0.3398427665233612,0.03573518991470337,-0.6759894490242004,-0.16066274046897888,0.3802904188632965,-0.00850368570536375
14.25,0.5099747776985168,0.0014458369696512818,-0.5966566801071167,0.005297156050801277,0.19410546123981476,0.06695101410150528
14.3,0.06044584512710571,0.10661698132753372,0.20663860440254211,0.06162922829389572,0.16216261684894562,0.036451369524002075
14.35,-0.24257540702819824,0.15161225199699402,0.5086367726325989,-0.006208074279129505,0.22969503700733185,-0.03126806393265724
14.4,-0.5531007051467896,0.193723663687706,0.167998269200325,-0.02059953659772873,0.05764687806367874,0.0024631614796817303
14.45,-0.09488090872764587,0.1046467050909996,-0.3063761293888092,0.03497181460261345,-0.22270475327968597,0.06527519971132278
14.5,0.5945793390274048,0.2455502152442932,0.2444387972354889,-0.009798566810786724,-0.264082133769989,-0.051004521548748016
14.55,0.5416358709335327,0.1253557652235031,0.3986777663230896,0.10527483373880386,-0.4653233289718628,-0.12759216129779816
14.6,0.037703439593315125,0.12222196906805038,-0.12437979131937027,0.026725374162197113,-0.29846736788749695,-0.08439511060714722
14.65,-0.003085843287408352,-0.03159523382782936,-0.03821851313114166,0.026889238506555557,-0.28501781821250916,-0.058166105300188065
14.7,0.1280253380537033,0.09379200637340546,-0.37474822998046875,0.1361865997314453,-0.5809891819953918,0.11834761500358582
14.75,-0.05424667149782181,0.08859825879335403,-0.07470561563968658,0.18578970432281494,-0.5888228416442871,0.17304185032844543
14.8,0.09102067351341248,0.004626280162483454,0.028473131358623505,0.2578890919685364,-0.6634130477905273,0.24674895405769348
14.85,0.5836868286132812,0.017296863719820976,-0.5504992604255676,0.3926466405391693,-0.8862316608428955,0.4160248041152954
14.9,0.5228589773178101,0.11221987009048462,-0.06467819958925247,0.4013368487358093,-0.7128503918647766,0.47345083951950073
14.95,0.293742835521698,0.1629353016614914,-0.14571765065193176,0.23714180290699005,-0.20956799387931824,0.24939562380313873
15.0,-0.10023258626461029,0.3275308609008789,0.24030840396881104,0.15542848408222198,0.15808464586734772,0.06164088472723961
15.05,0.22534805536270142,0.24906353652477264,0.11806406080722809,0.04846266657114029,0.21174855530261993,-0.030988959595561028
15.1,0.30896198749542236,0.13567452132701874,-0.18417200446128845,-0.06434077024459839,0.3989831507205963,-0.08665750175714493
15.15,0.13210555911064148,0.14266684651374817,-0.21412666141986847,-0.10190927982330322,0.5965693593025208,-0.02659875713288784
15.2,0.2110878825187683,-0.02306746505200863,0.09309851378202438,-0.06338073313236237,0.5069593787193298,0.004126562271267176
15.25,0.13738973438739777,-0.005705824121832848,0.01757228374481201,-0.005274908617138863,0.45617568492889404,0.025788292288780212
15.3,0.17208613455295563,-0.11697769910097122,0.11545625329017639,0.07294225692749023,0.3185204267501831,0.13739816844463348
15.35,0.6358071565628052,0.06116968020796776,0.02867901884019375,0.23238876461982727,0.09872766584157944,0.26337194442749023
15.4,-0.008598297834396362,-0.08449747413396835,0.2932528853416443,0.3219202160835266,0.1817413568496704,0.3069473206996918
15.45,-0.32597586512565613,-0.09818655252456665,0.4138317108154297,0.35725003480911255,0.16839894652366638,0.29799410700798035
15.5,0.2908720374107361,0.11176875233650208,0.11356387287378311,0.4116969108581543,-0.02818535454571247,0.33936285972595215
15.55,0.06861748546361923,0.4265337586402893,0.15144430100917816,0.3635548949241638,0.04603199288249016,0.31497547030448914
15.6,-0.29443496465682983,0.4335508644580841,0.16194389760494232,0.20671024918556213,0.22561006247997284,0.11126773804426193
15.65,-0.2181968092918396,0.2762908935546875,0.40303343534469604,0.08374370634555817,0.39493027329444885,-0.10033104568719864
15.7,-0.2501908540725708,0.1734485626220703,-0.19176720082759857,0.07631471008062363,0.13800682127475739,-0.2371145784854889
15.75,-0.1163676455616951,0.24497511982917786,-0.24518179893493652,-0.013268887996673584,0.19208620488643646,-0.34663763642311096
15.8,-0.6005120277404785,-0.02588564157485962,0.22856006026268005,-0.030421659350395203,0.20031312108039856,-0.47607505321502686
15.85,0.09243829548358917,0.19692616164684296,-0.1148742213845253,0.017367646098136902,-0.12330973893404007,-0.4683253765106201
15.9,0.25857555866241455,0.16258910298347473,-0.04961887001991272,-0.019817858934402466,-0.1205553486943245,-0.357014000415802
15.95,-0.3326249122619629,0.08513830602169037,0.009763486683368683,-0.04936206340789795,-0.03984428569674492,-0.25586795806884766
16.0,-0.1386018693447113,0.06960105895996094,-0.07586123049259186,-0.04995818808674812,-0.1354248970746994,-0.1939956247806549
16.05,-0.11863905191421509,0.034076690673828125,-0.0831848531961441,-0.046278320252895355,-0.19668011367321014,-0.07429250329732895
16.1,-0.030561305582523346,0.04062367230653763,-0.1640518605709076,-0.023922652006149292,-0.1789797991514206,-0.0035923824179917574
16.15,0.14866848289966583,0.07380392402410507,-0.034045036882162094,0.017176363617181778,-0.18534596264362335,0.028429625555872917
16.2,0.18086320161819458,0.06050112470984459,-0.09024421125650406,0.018245171755552292,-0.10086197406053543,0.04831782355904579
16.25,0.25140365958213806,0.060059573501348495,-0.020452531054615974,0.033904969692230225,-0.055723100900650024,0.0659455880522728
16.3,0.09419932961463928,0.011860857717692852,-0.029573163017630577,0.03676195815205574,0.014114250428974628,0.08126208931207657
16.35,0.1281125694513321,0.02782537043094635,-0.03810141980648041,0.052170414477586746,-0.013328053057193756,0.08510307967662811
16.4,0.2095988690853119,0.12307074666023254,-0.007841493934392929,0.046873416751623154,9.67244413914159e-05,0.0764208436012268
16.45,-0.002158994786441326,0.11756135523319244,0.035742323845624924,0.05236169323325157,-0.008737792260944843,0.06914439052343369
16.5,0.2684062123298645,0.09433750063180923,-0.08979246020317078,0.023670630529522896,-0.0670798122882843,0.0556049644947052
16.55,0.13545288145542145,0.07690813392400742,-0.08601322025060654,0.030243784189224243,-0.020873378962278366,0.053852539509534836
16.6,0.09255748242139816,0.0825662761926651,-0.03790140897035599,0.046511877328157425,-0.019575461745262146,0.05248846858739853
16.65,0.08059534430503845,0.08856107294559479,0.007546946872025728,0.03634339198470116,-0.018297400325536728,0.05981633439660072
16.7,0.11442399770021439,0.09418299794197083,-0.0856221616268158,0.03162718564271927,-0.04515121877193451,0.058240409940481186
16.75,0.13576894998550415,0.11058332771062851,-0.003825498279184103,0.022951101884245872,-0.012657307088375092,0.05199573189020157
16.8,0.13208501040935516,0.10565856099128723,-0.03922745957970619,0.013801785185933113,0.008659066632390022,0.03688697889447212
16.85,0.0991092175245285,0.07836534082889557,0.015924692153930664,0.009997144341468811,0.004492281004786491,0.029479561373591423
16.9,0.15566955506801605,0.10398676991462708,-0.011882135644555092,-0.0031063747592270374,0.019686050713062286,0.01845880039036274
16.95,0.09885266423225403,0.10092928260564804,0.0011146531905978918,-0.0021136407740414143,-0.01571936532855034,0.009627413004636765
17.0,0.15445347130298615,0.1127176582813263,-0.04849104955792427,-0.004502215422689915,-0.019460145384073257,0.010777657851576805
17.05,0.14749252796173096,0.06465151160955429,-0.005219990387558937,-0.002684754552319646,-0.022504698485136032,0.005730138160288334
17.1,0.1278802454471588,0.09615138173103333,-0.0727776363492012,-0.015224269591271877,-0.01609301008284092,-0.003983264323323965
17.15,0.05716707557439804,0.08981038630008698,-0.07406757026910782,-0.00752635020762682,-0.015389123931527138,-0.0065826051868498325
17.2,-0.08026199042797089,0.0906534269452095,-0.07872357964515686,-0.01908412203192711,-0.009493990801274776,0.001659658388234675
17.25,-0.13367733359336853,0.08475112915039062,-0.03911067545413971,-0.013012148439884186,-0.06302735954523087,0.03429445996880531
17.3,-0.0694294273853302,0.0637674331665039,0.008482074365019798,-0.013376761227846146,-0.09886596351861954,0.0886339619755745
17.35,0.3494724929332733,0.17452053725719452,0.045419469475746155,0.03258026763796806,-0.13933761417865753,0.1139252781867981
17.4,0.2895335853099823,0.09486774355173111,0.058749936521053314,-0.007384318858385086,-0.030930422246456146,0.07584945112466812
17.45,0.2330205738544464,0.17809298634529114,0.13708104193210602,-0.00046685710549354553,-0.005202481988817453,0.01618126779794693
17.5,0.07241052389144897,0.09519960731267929,0.03256864845752716,-0.012754762545228004,0.04532095044851303,-0.03393689915537834
17.55,0.0040524862706661224,0.05233956500887871,-0.0982377901673317,-0.0014890562742948532,0.010573661886155605,-0.05051203444600105
17.6,-0.11489711701869965,0.05994892492890358,-0.10944976657629013,0.01010473258793354,-0.0012241416843608022,-0.034573446959257126
17.65,0.0581686794757843,0.06706144660711288,-0.17675673961639404,0.019334886223077774,-0.04917099326848984,-0.004001983441412449
17.7,-0.023724937811493874,0.08170510083436966,-0.06404939293861389,0.0013189669698476791,-0.03190028667449951,0.03091185726225376
17.75,0.13472507894039154,0.11417867988348007,0.024553461000323296,0.0032396018505096436,-0.05838778242468834,0.05416674166917801
17.8,0.026541952043771744,0.06352902203798294,0.04482344537973404,-0.023797214031219482,-0.023296097293496132,0.06246884912252426
17.85,0.15738196671009064,0.11138441413640976,0.10571374744176865,-0.008927542716264725,-0.03523482754826546,0.052857089787721634
17.9,0.10324905812740326,0.02559853345155716,0.08897977322340012,-0.008968716487288475,-0.017972305417060852,0.041498322039842606
17.95,0.21166987717151642,0.13561251759529114,0.05141148343682289,0.02455219253897667,-0.035865116864442825,0.022515971213579178
18.0,0.031186342239379883,0.05773545429110527,-0.06037469208240509,0.011938809417188168,0.02063228003680706,-0.0038728942163288593
18.05,0.05382629111409187,0.07812024652957916,-0.12127325683832169,0.0069317203015089035,0.0110035864636302,0.016222821548581123
18.1,-0.0905430018901825,0.05612087622284889,-0.03605075553059578,0.002159083727747202,0.0053319623693823814,0.018875498324632645
18.15,0.08890596777200699,0.15579894185066223,-0.02520042471587658,0.009040690958499908,-0.04259016737341881,0.04101043567061424
18.2,-0.04180420935153961,0.03780078887939453,-0.017339911311864853,-0.009969556704163551,-0.03659608215093613,0.04645521566271782
18.25,0.0921952873468399,-0.028511997312307358,0.0055692135356366634,0.000793948769569397,-0.1122208833694458,0.05394730716943741
18.3,0.016218530014157295,0.03251361846923828,0.08069995790719986,0.02222253382205963,-0.15013821423053741,0.057392384856939316
18.35,0.12425898015499115,0.07157423347234726,-0.06162446737289429,0.03916385397315025,-0.21129824221134186,0.04843870550394058
18.4,-0.0024214063305407763,0.09177399426698685,-0.0007895938470028341,0.053202174603939056,-0.22227121889591217,0.030608413740992546
18.45,0.15170451998710632,-0.22632314264774323,0.0008153787348419428,0.08295020461082458,-0.2801612615585327,0.028017176315188408
18.5,0.047375258058309555,-0.05304431915283203,-0.04975385218858719,0.09975080192089081,-0.2857179045677185,0.032841235399246216
18.55,-0.11545123904943466,-0.024681104347109795,-0.0021092502865940332,0.14260321855545044,-0.34773969650268555,0.03737553581595421
18.6,0.0006844978779554367,0.06866741925477982,0.020956145599484444,0.19313554465770721,-0.4704345464706421,0.07276130467653275
18.65,-0.0029846616089344025,0.07855129987001419,-0.07314279675483704,0.21611252427101135,-0.5428609848022461,0.08800236135721207
18.7,0.23172922432422638,0.10176852345466614,-0.007907671853899956,0.22882844507694244,-0.5573052167892456,0.07556650787591934
18.75,-0.16750308871269226,0.05062389001250267,-0.05826881155371666,0.22434085607528687,-0.5314988493919373,0.09297309815883636
18.8,-0.04624643921852112,-0.10869312286376953,-0.431888610124588,0.278547465801239,-0.7051941752433777,0.07119572162628174
18.85,0.058285005390644073,0.13402558863162994,0.2150242030620575,0.3083232641220093,-0.730000913143158,0.12096976488828659
18.9,0.13458213210105896,0.12091448158025742,0.04126116260886192,0.2579658627510071,-0.6342871189117432,0.10792020708322525
18.95,0.35260817408561707,0.17182259261608124,0.03651303052902222,0.18397563695907593,-0.4978000521659851,0.07096870988607407
19.0,0.029117779806256294,0.1263151317834854,-0.06078718230128288,0.06942982971668243,-0.2914084494113922,0.07510830461978912
19.05,0.05070333927869797,0.18265630304813385,-0.01921996660530567,-0.03646180033683777,-0.17065554857254028,0.06601213663816452
19.1,0.015917543321847916,0.09456540644168854,-0.040736883878707886,-0.10589292645454407,-0.0896613672375679,0.07457233965396881
19.15,-0.023033643141388893,0.11190415918827057,0.019487375393509865,-0.17897775769233704,-0.04572280868887901,0.11200200021266937
19.2,0.2091003805398941,0.15176013112068176,0.015327422879636288,-0.1758376508951187,-0.07024350017309189,0.12649056315422058
19.25,0.06229008361697197,0.10413554310798645,-0.14327894151210785,-0.17580056190490723,0.007450532168149948,0.13179726898670197
19.3,-0.01290770061314106,-0.07821942120790482,0.04652655869722366,-0.15746614336967468,0.035553380846977234,0.13599757850170135
19.35,0.3175612688064575,0.16989806294441223,0.15290899574756622,-0.046055421233177185,-0.047251101583242416,0.11478935927152634
19.4,0.10906346887350082,0.1465788036584854,0.1890643835067749,-0.1292649209499359,0.1045897826552391,0.0639103576540947
19.45,-0.09012733399868011,0.07972337305545807,-0.23402754962444305,-0.19781865179538727,0.29171863198280334,0.02819988504052162
19.5,-0.2823788523674011,-0.24907688796520233,-0.04947826266288757,-0.12681826949119568,0.2246074676513672,0.030832519754767418
19.55,0.10036678612232208,0.09310819208621979,0.037912435829639435,-0.016600459814071655,0.0011942676501348615,0.0049293432384729385
19.6,0.06286025047302246,0.1076069101691246,-0.0027681568171828985,-0.016914203763008118,0.0029940938111394644,-0.010296184569597244
19.65,0.13361133635044098,0.1253357082605362,0.1290469914674759,-0.040078096091747284,0.046470947563648224,0.003094762098044157
19.7,-0.032519422471523285,0.048749927431344986,0.06666768342256546,-0.07859822362661362,0.11079693585634232,0.013635137118399143
19.75,0.02375055104494095,0.09148121625185013,-0.007093433290719986,-0.0640261173248291,0.07849428802728653,0.024622250348329544
19.8,-0.31453073024749756,-0.06675627082586288,-0.15435472130775452,-0.02718723937869072,0.04345858842134476,0.04276721552014351
19.85,-0.07244275510311127,0.02391529083251953,-0.027225973084568977,0.03538527712225914,-0.06840108335018158,0.04538411274552345
19.9,0.1279062032699585,0.0642557293176651,-0.01390998624265194,0.04868731275200844,-0.13661515712738037,0.05644717812538147
