Time [s],Acc_x [m/s^2],Acc_y [m/s^2],Acc_z [m/s^2],Gyro_x [1/s],Gyro_y [1/s],Gyro_z [1/s]
0.0,0.005132663995027542,0.1414937973022461,-0.14329171180725098,0.02162526175379753,-0.010925861075520515,-0.005897437687963247
0.05,-0.0371129997074604,0.10066413879394531,-0.14004896581172943,-0.0006132728303782642,0.00044831918785348535,-0.002828221535310149
0.1,-0.0041848174296319485,-0.05257129669189453,0.0016651879996061325,-0.007423102855682373,0.0007953482563607395,0.007973737083375454
0.15,-0.026936223730444908,0.0002536757674533874,0.04653313755989075,-0.002417704090476036,-0.0047925966791808605,-0.005994876846671104
0.2,-0.011007068678736687,0.08253192901611328,-0.02196585200726986,0.00606634421274066,-0.003790452377870679,-0.0014788095140829682
0.25,0.008277598768472672,0.12339210510253906,-0.015125532634556293,0.0028089405968785286,-0.002820470603182912,-0.0003545530780684203
0.3,-0.04544119909405708,0.07080554962158203,-0.05857192724943161,0.009905070066452026,-0.005215910729020834,0.00138133077416569
0.35,-0.019606059417128563,0.03240680694580078,-0.017884017899632454,0.005275712814182043,-0.005535891279578209,-0.00037211476592347026
0.4,0.0012248046696186066,0.01082992646843195,-0.031914856284856796,0.001313618733547628,-0.003813694464042783,-0.002643957268446684
0.45,-0.007475085556507111,0.08864498138427734,-0.049302566796541214,-0.00022074833395890892,-0.002010125434026122,0.0004803586343768984
0.5,-0.01725081354379654,0.05318164825439453,-0.006079824175685644,8.827204510453157e-06,-0.00445509422570467,-0.00010184147686231881
0.55,-0.008999068289995193,0.08220100402832031,-0.05105099081993103,0.011119341477751732,-0.007073885761201382,-0.0019186073914170265
0.6,-0.011974386870861053,0.025875091552734375,-0.01584731787443161,0.002771997358649969,-0.004856168758124113,0.00034431208041496575
0.65,-0.017399627715349197,0.06478691101074219,-0.04336711764335632,-0.00017088001186493784,-0.0020498724188655615,0.0007727788179181516
0.7,0.0006015233229845762,0.026474952697753906,0.002123997313901782,0.004653191193938255,-0.003494255244731903,-0.001273773959837854
0.75,0.007928796112537384,0.049979209899902344,0.010568669065833092,-0.004406074061989784,-0.0011572703951969743,0.0010207875166088343
0.8,0.0031764907762408257,0.02997875213623047,-0.024794578552246094,-0.0008622126770205796,-0.0036372991744428873,0.0016106738476082683
0.85,-0.012380270287394524,0.07558155059814453,0.00855579786002636,0.0015548323281109333,-0.00193965679500252,0.0015144655480980873
0.9,-0.01465265266597271,0.10002803802490234,-0.061806682497262955,0.006123475730419159,-0.002655381802469492,0.0011416943743824959
0.95,-0.0476561039686203,0.0806264877319336,-0.057986121624708176,0.0037641371600329876,-0.00443646963685751,-0.0037346433382481337
1.0,0.0012223684461787343,0.03787517547607422,-0.0067685795947909355,-0.001723873894661665,-0.0021079566795378923,0.004917389713227749
1.05,-0.0016666739247739315,0.050586700439453125,0.01720695197582245,0.00835843849927187,-0.0053851306438446045,0.0010184516431763768
1.1,-0.001755986362695694,0.008242608048021793,-0.03870248422026634,0.01904275082051754,-0.011496622115373611,-0.00939702708274126
1.15,-0.027402527630329132,0.09600830078125,-0.031064968556165695,0.010728677734732628,-0.01479079108685255,-0.004040044266730547
1.2,0.013566454872488976,0.1049346923828125,0.011257092468440533,-0.004940143786370754,-0.0005731115234084427,0.007926063612103462
1.25,-0.0021175500005483627,0.08765888214111328,-0.04238530993461609,0.004085112363100052,0.002006274415180087,0.0006783607532270253
1.3,0.029440201818943024,0.11342430859804153,-0.28206923604011536,-0.002167949452996254,-0.006526364479213953,-7.171960169216618e-05
1.35,0.2634859085083008,0.3963584899902344,-0.26652413606643677,-0.1628568023443222,-0.012403399683535099,0.028356611728668213
1.4,-0.04974915087223053,0.7189664840698242,-0.6292272806167603,-0.5885142683982849,0.1949671506881714,-0.07767381519079208
1.45,-0.988740861415863,0.9850969314575195,-0.8225581645965576,-1.128749966621399,0.5782309174537659,-0.18908517062664032
1.5,-1.8423165082931519,1.4089908599853516,-0.663981556892395,-1.6133902072906494,0.6544593572616577,-0.1374160498380661
1.55,-1.4979969263076782,1.5730924606323242,-0.37889713048934937,-1.4991165399551392,0.6425496339797974,-0.0922546461224556
1.6,-1.9582446813583374,-0.2166776806116104,-0.5266657471656799,-0.6462361812591553,0.34294021129608154,0.07136917859315872
1.65,-1.7752563953399658,-0.5116949677467346,0.3579505383968353,-0.7624679803848267,0.210832878947258,0.37723803520202637
1.7,-1.1299235820770264,-1.5864572525024414,0.5846655964851379,-1.0176851749420166,0.31094953417778015,0.7040084600448608
1.75,0.18811827898025513,-1.474349021911621,0.5912038087844849,-1.366798758506775,0.4080468714237213,1.1219611167907715
1.8,1.2277454137802124,-0.5443429946899414,0.9228432178497314,-0.9580360651016235,0.2020406872034073,1.2637159824371338
1.85,1.3551435470581055,-0.6766386032104492,-0.25296419858932495,0.3577592372894287,-0.28809747099876404,1.1127945184707642
1.9,1.5929365158081055,-0.3047027289867401,-0.027669379487633705,0.5473378300666809,-0.442714661359787,0.8550456762313843
1.95,1.3649083375930786,0.022215859964489937,-0.021966636180877686,0.21205902099609375,-0.382783442735672,0.6561927795410156
2.0,1.2639050483703613,0.07571221888065338,0.0689898133277893,-0.23465926945209503,-0.2828276753425598,0.4812694489955902
2.05,0.918365478515625,-0.1165618747472763,-0.09032067656517029,-0.3631572723388672,-0.21748864650726318,0.36566072702407837
2.1,0.7793937921524048,0.08126546442508698,-0.0895603597164154,-0.4749218821525574,-0.11245797574520111,0.28779226541519165
2.15,0.6453695297241211,0.6605720520019531,-0.08958739787340164,-0.5030505657196045,-0.08583082258701324,0.18733665347099304
2.2,0.5514429807662964,0.1471881866455078,0.18087400496006012,-0.279167503118515,-0.1521451473236084,0.056330811232328415
2.25,0.2852434813976288,-0.11853885650634766,0.035586100071668625,-0.7363061904907227,-0.15851730108261108,0.03734486922621727
2.3,0.1955113261938095,0.32303524017333984,-0.39982321858406067,-0.8039050698280334,-0.11425456404685974,0.10262840986251831
2.35,0.2806140184402466,0.14565658569335938,-0.05066557601094246,-0.5798486471176147,-0.10289152711629868,0.09606857597827911
2.4,0.1994936764240265,0.3019695281982422,-0.3734961748123169,-0.17562656104564667,-0.10566379129886627,0.03814920410513878
2.45,0.4077264070510864,-0.8042411804199219,-0.36840003728866577,-0.35721030831336975,-0.05365344136953354,-0.0690290555357933
2.5,1.041951298713684,1.081864356994629,0.43189579248428345,-0.5899635553359985,0.00894146878272295,-0.020822525024414062
2.55,1.2616595029830933,1.4875144958496094,0.15764380991458893,0.24057580530643463,0.15717795491218567,-0.317171573638916
2.6,1.3575174808502197,1.3215866088867188,0.4782167673110962,0.5966559648513794,0.3221871852874756,-0.7896385192871094
2.65,1.2772681713104248,0.7810277938842773,0.9442315101623535,0.3977312445640564,0.477620393037796,-1.176012396812439
2.7,1.1151881217956543,0.40531444549560547,0.7797014713287354,-0.024743616580963135,0.6743882298469543,-1.4396041631698608
2.75,0.717455267906189,-0.1436014324426651,0.9025695323944092,-0.1512853503227234,0.8538579940795898,-1.5534155368804932
2.8,0.8712072372436523,-0.16693687438964844,0.17321421205997467,0.00824117660522461,0.9938966631889343,-1.57012939453125
2.85,0.11025866866111755,-0.5977602005004883,0.20566676557064056,0.11266961693763733,1.0006773471832275,-1.5820910930633545
2.9,0.16942492127418518,-0.4990377426147461,-0.17496328055858612,0.1787196695804596,0.9612323045730591,-1.523714542388916
2.95,-0.30614233016967773,-0.4339761734008789,-0.2562125623226166,0.1464979648590088,0.9717707633972168,-1.4445339441299438
3.0,-0.2648729979991913,-0.35813236236572266,-0.5382912755012512,0.2556361258029938,0.8253353834152222,-1.4068723917007446
3.05,-0.43866613507270813,-0.2942543029785156,-0.501396894454956,0.39674681425094604,0.5669649243354797,-1.4028927087783813
3.1,-0.5287314653396606,-0.2997922897338867,-0.6830936670303345,0.5365184545516968,0.28138017654418945,-1.3765931129455566
3.15,-1.014146327972412,-0.40378570556640625,-0.42824143171310425,0.5202209949493408,0.1248958483338356,-1.249691128730774
3.2,-0.6260159015655518,-0.1361856460571289,-0.4831708073616028,0.36945515871047974,0.16398099064826965,-0.99421226978302
3.25,-0.5705105066299438,-0.1075754165649414,-0.32356980443000793,0.30988168716430664,0.10714197158813477,-0.843953549861908
3.3,-0.34247344732284546,-0.05214404687285423,-0.26018306612968445,0.3510350286960602,-0.04890656843781471,-0.8191432356834412
3.35,-0.05011991411447525,-0.06947135925292969,-0.08088769018650055,0.3822101354598999,-0.1997981071472168,-0.8453565835952759
3.4,-0.03227623179554939,-0.17825794219970703,-0.10274621099233627,0.29713141918182373,-0.18248730897903442,-0.8038387894630432
3.45,-0.2735553979873657,-0.042756084352731705,0.044709086418151855,0.15236909687519073,-0.10919518023729324,-0.7164602875709534
3.5,-0.7735136151313782,0.11822793632745743,0.3594672679901123,0.14034661650657654,-0.22900445759296417,-0.7361502647399902
3.55,-0.5729614496231079,-0.2074308544397354,0.11854863911867142,0.25398921966552734,-0.45571035146713257,-0.7864315509796143
3.6,-0.5254778861999512,-0.010462766513228416,-0.028018906712532043,0.2867954671382904,-0.5532945394515991,-0.7281200289726257
3.65,-0.5285547971725464,0.09503840655088425,0.020929772406816483,0.21009062230587006,-0.4287845194339752,-0.5314427018165588
3.7,-0.24921941757202148,0.226715087890625,0.06957601010799408,0.12362891435623169,-0.24956730008125305,-0.36377033591270447
3.75,-0.2139185667037964,0.039898864924907684,0.15009263157844543,0.12399919331073761,-0.22405658662319183,-0.3421117663383484
3.8,-0.10174993425607681,-0.03926564007997513,0.2569168210029602,0.11178813874721527,-0.22203175723552704,-0.3258824050426483
3.85,-0.1793203055858612,0.04736613482236862,0.13513755798339844,0.0859866812825203,-0.18968649208545685,-0.2881563603878021
3.9,-0.24729976058006287,0.029332153499126434,0.18638628721237183,0.06711460649967194,-0.1666320115327835,-0.23028869926929474
3.95,-0.11410454660654068,0.039789192378520966,0.18820437788963318,0.07218603789806366,-0.17153048515319824,-0.1939791589975357
4.0,-0.1793295294046402,0.020993223413825035,0.2736920118331909,0.07002443075180054,-0.14310559630393982,-0.16732698678970337
4.05,-0.17673131823539734,0.054989807307720184,0.22836346924304962,0.0415789932012558,-0.0838533267378807,-0.13148494064807892
4.1,-0.20431296527385712,0.0771932527422905,0.2433008998632431,0.029999272897839546,-0.10271360725164413,-0.14838790893554688
4.15,-0.17837001383304596,0.018147461116313934,0.20339781045913696,0.02286630868911743,-0.11772958189249039,-0.16308985650539398
4.2,-0.1930311918258667,0.03153323009610176,0.25914791226387024,0.01483195647597313,-0.0979200080037117,-0.14744949340820312
4.25,-0.06161269545555115,-0.003268250497058034,0.2846612334251404,-0.0024326592683792114,-0.037177976220846176,-0.09498753398656845
4.3,-0.16369414329528809,0.010837546549737453,0.23518970608711243,0.0038993917405605316,-0.044351521879434586,-0.09703650325536728
4.35,-0.13467375934123993,0.13512516021728516,0.1689170002937317,0.0030759181827306747,-0.05229382589459419,-0.09049934148788452
4.4,-0.12175849080085754,0.11535929888486862,0.3065378665924072,0.010728135704994202,-0.06486588716506958,-0.09119204431772232
4.45,-0.15365861356258392,0.07441519945859909,0.24371060729026794,0.03157728537917137,-0.07574079185724258,-0.09063710272312164
4.5,-0.1896347999572754,0.03489970415830612,0.2435363382101059,0.051843274384737015,-0.08534505218267441,-0.09532790631055832
4.55,-0.2544243037700653,0.02919863723218441,0.26268503069877625,0.04493480920791626,-0.06138414144515991,-0.07904433459043503
4.6,-0.2714225947856903,0.04885004833340645,0.3028537929058075,0.03955142945051193,-0.03851078078150749,-0.0660126805305481
4.65,-0.27457329630851746,0.04844950884580612,0.21289759874343872,0.04494229704141617,-0.04660390317440033,-0.06452970206737518
4.7,-0.2323893904685974,-0.007920275442302227,0.2711210250854492,0.02904577925801277,-0.030165808275341988,-0.04263795167207718
4.75,-0.23950999975204468,0.008660306222736835,0.2623773515224457,0.018495365977287292,-0.0265151709318161,-0.03290509432554245
4.8,-0.2647543251514435,0.020037639886140823,0.27251550555229187,0.016043711453676224,-0.03284807503223419,-0.03129081800580025
4.85,-0.2267356663942337,0.0372762568295002,0.34561729431152344,0.015672318637371063,-0.03721752017736435,-0.031065402552485466
4.9,-0.27654218673706055,0.06651781499385834,0.3124253749847412,0.02227126993238926,-0.04451403394341469,-0.04107365012168884
4.95,-0.26891157031059265,-0.019314775243401527,0.24276982247829437,0.00778537942096591,-0.025314725935459137,-0.029135163873434067
5.0,-0.2648140788078308,-0.034042369574308395,0.25516924262046814,-0.005788653623312712,-0.020809318870306015,-0.020196566358208656
5.05,-0.28461912274360657,-0.06027127429842949,0.30671510100364685,-0.013751402497291565,-0.019590506330132484,0.0013246935559436679
5.1,-0.31290286779403687,-0.07890988886356354,0.2811526656150818,-0.016616422683000565,-0.023824602365493774,0.0310553889721632
5.15,-0.2711196541786194,-0.05961419269442558,0.24186387658119202,-0.04538305848836899,0.01267270091921091,0.08827085793018341
5.2,-0.21386374533176422,0.009043683297932148,0.27894559502601624,-0.072372667491436,0.039979029446840286,0.11997794359922409
5.25,-0.2737935781478882,0.03349970653653145,0.2534935176372528,-0.09507551789283752,0.03673744201660156,0.11606801301240921
5.3,-0.27914565801620483,0.04512976482510567,0.29003962874412537,-0.1268058717250824,0.04894418641924858,0.12674257159233093
5.35,-0.3720313608646393,0.06018923595547676,0.1867040991783142,-0.16818925738334656,0.11005017161369324,0.1706155389547348
5.4,-0.4424252212047577,-0.03547383099794388,0.08972848951816559,-0.2310640811920166,0.22628368437290192,0.2618229389190674
5.45,-0.5054984092712402,-0.3393392562866211,-0.06487754732370377,-0.29106733202934265,0.32346075773239136,0.3856131434440613
5.5,-0.5769780874252319,-0.6660966873168945,-0.11997576802968979,-0.31379833817481995,0.29002249240875244,0.47576403617858887
5.55,-0.43137770891189575,-0.8135395050048828,-0.07178664207458496,-0.34930044412612915,0.19538076221942902,0.6075215935707092
5.6,-0.2945680320262909,-0.7118120193481445,-0.01964700035750866,-0.35290345549583435,0.04219931736588478,0.7438310980796814
5.65,-0.19717565178871155,-0.4636659622192383,0.09054569900035858,-0.3160035014152527,-0.1363714635372162,0.8477253317832947
5.7,-0.3730228543281555,-0.27329540252685547,0.19144882261753082,-0.26770496368408203,-0.31408002972602844,0.9116746783256531
5.75,-0.4542122781276703,0.13190172612667084,0.2837289869785309,-0.2529580593109131,-0.41811203956604004,0.9424079656600952
5.8,-0.5184053182601929,0.3645133674144745,0.3422824740409851,-0.369284451007843,-0.3350774347782135,0.9607279896736145
5.85,-0.5522772073745728,0.5758495330810547,0.31333014369010925,-0.5802010297775269,-0.10121086239814758,0.9511472582817078
5.9,-0.6749471426010132,0.721980094909668,0.3127332329750061,-0.6936338543891907,0.07794317603111267,0.8804641366004944
5.95,-0.7292765378952026,0.6145820617675781,0.2806752026081085,-0.7571153044700623,0.22031298279762268,0.8106409311294556
6.0,-0.584504246711731,0.3475618064403534,0.41033729910850525,-0.8695347309112549,0.3620738089084625,0.7514585256576538
6.05,-0.03727063536643982,0.23913000524044037,0.6728478074073792,-0.7745926380157471,0.2834445536136627,0.5987752079963684
6.1,-0.012230217456817627,-0.1678629070520401,0.6816582083702087,-0.4523843824863434,0.034012794494628906,0.3901989758014679
6.15,-0.19852568209171295,-0.49728110432624817,0.6776586771011353,-0.08796681463718414,-0.17537496984004974,0.2890293300151825
6.2,-0.48082274198532104,-0.4382772743701935,0.36286187171936035,0.2021769881248474,-0.20379948616027832,0.36747604608535767
6.25,-0.3372531533241272,-0.2952766418457031,-0.054011568427085876,0.3449448347091675,-0.10116323083639145,0.5165677070617676
6.3,-0.027264511212706566,-0.23024654388427734,-0.013695217669010162,0.49120280146598816,-0.20309224724769592,0.5231772661209106
6.35,-0.5268017649650574,0.3422345817089081,0.3560425639152527,0.3829793334007263,-0.30394402146339417,0.46502774953842163
6.4,-0.8088257312774658,1.033768653869629,0.48083722591400146,-0.0008635222911834717,-0.15990294516086578,0.42581915855407715
6.45,-0.6189829111099243,1.1800508499145508,0.29167667031288147,-0.06778142601251602,-0.05985113978385925,0.2384643852710724
6.5,-0.34052032232284546,0.4801015555858612,0.4533011019229889,-0.0018852641806006432,-0.055667828768491745,-0.03724982962012291
6.55,-0.26761946082115173,-0.03537464886903763,0.11661498248577118,0.06246504187583923,-0.07592011243104935,-0.17632156610488892
6.6,-0.45379918813705444,-0.18367578089237213,0.22855475544929504,0.07278714329004288,-0.08416814357042313,-0.15541911125183105
6.65,-0.48717963695526123,-0.055274978280067444,0.2722042202949524,0.010155778378248215,-0.040334511548280716,-0.0957372710108757
6.7,-0.3628133535385132,0.013155925087630749,0.27011358737945557,-0.04453035444021225,-0.007017555180937052,-0.07558655738830566
6.75,-0.3297204375267029,0.1153087466955185,0.26570433378219604,-0.04596339911222458,0.00018176618323195726,-0.08739014714956284
6.8,-0.3615703582763672,0.099059097468853,0.23870429396629333,-0.01157137006521225,-0.006390285212546587,-0.11673206090927124
6.85,-0.36966001987457275,-0.008818638511002064,0.26979923248291016,0.023615282028913498,-0.0137702114880085,-0.14077311754226685
6.9,-0.40183910727500916,-0.0279245488345623,0.2604808807373047,0.046498507261276245,-0.017559971660375595,-0.14151595532894135
6.95,-0.4150207042694092,-0.05509377643465996,0.24534392356872559,0.04278172180056572,0.0014216451672837138,-0.11235950142145157
7.0,-0.427531361579895,-0.07017137110233307,0.2581879198551178,0.043905261904001236,0.019726471975445747,-0.08163511753082275
7.05,-0.43882128596305847,-0.04459859058260918,0.2583771049976349,0.0406503900885582,0.0320291593670845,-0.0603475421667099
7.1,-0.4170635938644409,-0.052783023566007614,0.24586784839630127,0.0309801883995533,0.03858917951583862,-0.04866696894168854
7.15,-0.38197243213653564,-0.036158572882413864,0.21103321015834808,0.033341001719236374,0.03313782811164856,-0.04606333374977112
7.2,-0.36880922317504883,-0.07169533520936966,0.20103862881660461,0.040389981120824814,0.027314256876707077,-0.03778801113367081
7.25,-0.42220568656921387,-0.07776833325624466,0.21826326847076416,0.04666572064161301,0.020888928323984146,-0.020226962864398956
7.3,-0.4000987410545349,-0.05082894489169121,0.23754899203777313,0.036770738661289215,0.014650288037955761,-0.0024873954243957996
7.35,-0.3519344925880432,-0.01043606922030449,0.24253623187541962,0.018696559593081474,0.014328966848552227,0.005403211805969477
7.4,-0.33601635694503784,-0.008337986655533314,0.30431321263313293,0.0041185542941093445,0.018260153010487556,0.006010761484503746
7.45,-0.31315889954566956,-0.048670779913663864,0.273672491312027,0.0037993164733052254,0.01992569863796234,0.007472106721252203
7.5,-0.38154083490371704,-0.012166988104581833,0.2566329538822174,0.021081984043121338,0.01697186939418316,0.01511733140796423
7.55,-0.37648674845695496,0.0650329440832138,0.2647208571434021,0.016457851976156235,0.016991164535284042,0.025922169908881187
7.6,-0.309697687625885,0.053845394402742386,0.23766252398490906,0.007437617518007755,0.011601641774177551,0.020119376480579376
7.65,-0.3066626787185669,0.05574606731534004,0.2238704264163971,0.01737883873283863,0.005028186831623316,-0.00064947857754305
7.7,-0.31923314929008484,-0.01562024187296629,0.2329433262348175,0.02786070853471756,0.002797201042994857,-0.01679592952132225
7.75,-0.3718247711658478,-0.0621347539126873,0.27722644805908203,0.02756493352353573,-0.004083849955350161,-0.011487072333693504
7.8,-0.407051682472229,-0.03176786005496979,0.30815714597702026,0.007087280973792076,-0.01003454439342022,0.00844229944050312
7.85,-0.38128232955932617,-0.03156949207186699,0.2958526909351349,-0.012229466810822487,-0.003917897120118141,0.015954965725541115
7.9,-0.31481459736824036,-0.053660403937101364,0.26892349123954773,-0.005845610052347183,0.010725360363721848,0.004087075591087341
7.95,-0.31939560174942017,-0.08271504193544388,0.21844664216041565,0.020458217710256577,0.01660062000155449,-0.0037700003013014793
8.0,-0.38128435611724854,-0.006933223456144333,0.23903533816337585,0.01839682273566723,0.013545744121074677,0.014003665186464787
8.05,-0.3638600707054138,0.017219530418515205,0.28495141863822937,-0.012096281163394451,0.006331597454845905,0.032532498240470886
8.1,-0.31558430194854736,0.02704523876309395,0.2686036229133606,-0.012092485092580318,0.0062162186950445175,0.026565851643681526
8.15,-0.23847410082817078,-0.011511811055243015,0.20561185479164124,0.013517054729163647,0.01732509210705757,0.0046205176040530205
8.2,-0.3070456385612488,-0.0435953252017498,0.22450435161590576,0.03687473386526108,0.019721046090126038,-0.005066275130957365
8.25,-0.3687399923801422,-0.011742603965103626,0.2948673367500305,0.01848612353205681,0.007184432819485664,0.009670068509876728
8.3,-0.3108270764350891,0.024876583367586136,0.3008894622325897,-0.008989562280476093,-0.010352461598813534,0.019946109503507614
8.35,-0.2779027223587036,0.0013131968444213271,0.3403666615486145,0.0037578518968075514,-0.010429970920085907,0.009500543586909771
8.4,-0.27858278155326843,-0.03667260333895683,0.2580585479736328,0.04289426654577255,0.002612217329442501,-0.007371715269982815
8.45,-0.34859544038772583,-0.012436877004802227,0.21804940700531006,0.04147815704345703,0.010274287313222885,0.0018924468895420432
8.5,-0.3551492691040039,0.0030240900814533234,0.2567410171031952,-0.004757045768201351,0.0028911244589835405,0.024369550868868828
8.55,-0.2881130576133728,0.08051584661006927,0.2853071391582489,-0.022892538458108902,-0.0020295055583119392,0.02640238031744957
8.6,-0.20427116751670837,0.002603522501885891,0.21484912931919098,0.014659462496638298,0.0038964315317571163,0.00043072423432022333
8.65,-0.346463143825531,-0.05341149494051933,0.22921040654182434,0.054030947387218475,-0.002003016648814082,-0.015307281166315079
8.7,-0.4073294401168823,-0.02912236750125885,0.3415702283382416,0.006544806063175201,-0.003952973522245884,0.009159384295344353
8.75,-0.32343924045562744,0.040158260613679886,0.3073534369468689,-0.03463645651936531,-0.005180302541702986,0.03006817400455475
8.8,-0.21216470003128052,0.05278300493955612,0.24719256162643433,-0.00997580960392952,0.003014884190633893,0.021221095696091652
8.85,-0.22987914085388184,0.052289001643657684,0.23219379782676697,0.04113316163420677,0.01667027734220028,0.0016819839365780354
8.9,-0.3293567895889282,0.06524179875850677,0.28171733021736145,0.012967288494110107,0.024288274347782135,0.00837365910410881
8.95,-0.3217756152153015,0.04952143505215645,0.2861410081386566,-0.03864600509405136,0.005948131904006004,0.011337686330080032
9.0,-0.30722105503082275,0.06397341191768646,0.3011593222618103,-0.032086268067359924,-0.012402600608766079,-0.009127616882324219
9.05,-0.23520123958587646,-0.03754616901278496,0.26110294461250305,0.027990881353616714,-0.017125694081187248,-0.04007178172469139
9.1,-0.34911271929740906,-0.0712433010339737,0.26493701338768005,0.05479239672422409,-0.013507421128451824,-0.03291121870279312
9.15,-0.4165153503417969,-0.09695245325565338,0.332914799451828,-0.0038242742884904146,-0.001180295250378549,0.01150582917034626
9.2,-0.37614768743515015,-0.041684165596961975,0.3226390480995178,-0.039349548518657684,0.004449610132724047,0.038801465183496475
9.25,-0.2892568111419678,-0.02629758231341839,0.3379572629928589,-0.014850273728370667,0.014359664171934128,0.03706396743655205
9.3,-0.1888793408870697,0.034148208796978,0.24664276838302612,0.025093186646699905,0.024958215653896332,0.025478050112724304
9.35,-0.27341458201408386,0.0845479890704155,0.2596367597579956,0.0090090436860919,0.02271801233291626,0.03608021140098572
9.4,-0.3128947615623474,0.087157242000103,0.24485459923744202,-0.03774133697152138,-0.00106219167355448,0.03950701653957367
9.45,-0.18818365037441254,0.11255168169736862,0.2700481116771698,-0.045536912977695465,-0.01802317053079605,0.012760749086737633
9.5,-0.12706197798252106,0.17102907598018646,0.29957783222198486,-0.006598414853215218,-0.025796642526984215,-0.037636782974004745
9.55,-0.16846708953380585,0.26822376251220703,0.3149389922618866,0.014628255739808083,-0.031497206538915634,-0.08156351000070572
9.6,-0.31008243560791016,0.1849822849035263,0.4494423568248749,-0.03849012404680252,-0.017872000113129616,-0.10167911648750305
9.65,-0.1539379209280014,0.19244860112667084,0.31217247247695923,-0.13844920694828033,0.0012129894457757473,-0.11443866789340973
9.7,-0.027986053377389908,0.24236583709716797,0.08505241572856903,-0.13978548347949982,-0.037376705557107925,-0.19148419797420502
9.75,-0.09573973715305328,0.10417461395263672,0.080953449010849,-0.05546937882900238,-0.09972771257162094,-0.2862181067466736
9.8,-0.19559109210968018,-0.08221340924501419,0.2455044984817505,-0.02420087903738022,-0.11331455409526825,-0.3160252273082733
9.85,-0.32446226477622986,-0.20128346979618073,0.4240851104259491,-0.053815439343452454,-0.08648565411567688,-0.2781749665737152
9.9,-0.40395933389663696,-0.3232889473438263,0.5883865356445312,-0.1093885749578476,-0.04895379766821861,-0.20973503589630127
9.95,-0.43742644786834717,-0.1890897899866104,0.562276303768158,-0.13098615407943726,-0.01023941207677126,-0.15727591514587402
10.0,-0.41754382848739624,-0.06933976709842682,0.39916253089904785,-0.06288205087184906,0.04145609214901924,-0.13520260155200958
10.05,-0.39941567182540894,-0.10139943659305573,0.35773831605911255,0.04928700253367424,0.06639108806848526,-0.13784001767635345
10.1,-0.36791595816612244,-0.09683610498905182,0.3106209635734558,0.05431626737117767,0.0841011106967926,-0.1105429157614708
10.15,-0.402732253074646,-0.03320695087313652,0.2673364579677582,0.02965719625353813,0.10550139844417572,-0.07101132720708847
10.2,-0.39022380113601685,0.012186991050839424,0.3061896562576294,0.009781149215996265,0.12722919881343842,-0.04417593404650688
10.25,-0.36079782247543335,0.10177801549434662,0.35501977801322937,-0.009350743144750595,0.14799484610557556,-0.04085419699549675
10.3,-0.2090657502412796,0.1690502017736435,0.3288598656654358,-0.003087976947426796,0.1619766354560852,-0.0640123188495636
10.35,-0.37095093727111816,0.366115540266037,0.38960501551628113,-0.015378884971141815,0.1681334674358368,-0.11279896646738052
10.4,-0.6665102243423462,0.4712648093700409,0.6017158031463623,-0.13340255618095398,0.24659064412117004,-0.17475783824920654
10.45,-0.5634469389915466,0.680999755859375,0.6318853497505188,-0.20237360894680023,0.3428690433502197,-0.27396121621131897
10.5,-0.41508936882019043,0.5006875991821289,0.5528573989868164,-0.05707712471485138,0.34942206740379333,-0.4073401391506195
10.55,-0.2781022787094116,0.33749768137931824,0.49779194593429565,0.11372558772563934,0.3468015491962433,-0.5091917514801025
10.6,-0.21787159144878387,0.1590852588415146,0.4973605275154114,0.16802804172039032,0.3887745141983032,-0.5668910145759583
10.65,-0.1547214686870575,-0.058389678597450256,0.5434328317642212,0.1536640226840973,0.43260082602500916,-0.606133222579956
10.7,-0.09660635143518448,-0.21022988855838776,0.37117165327072144,0.13804744184017181,0.45651283860206604,-0.6036194562911987
10.75,-0.00779317319393158,-0.2200918346643448,0.3815459907054901,0.17420731484889984,0.4143712520599365,-0.5862144827842712
10.8,0.023670479655265808,-0.14669227600097656,0.2584080696105957,0.21583233773708344,0.3564426004886627,-0.5425410866737366
10.85,0.0265998262912035,-0.15688419342041016,0.08617445081472397,0.2294924259185791,0.29226556420326233,-0.5033670663833618
10.9,-0.05201035737991333,-0.17535877227783203,0.028009910136461258,0.20157617330551147,0.22929230332374573,-0.4901517331600189
10.95,-0.20544424653053284,-0.02162361517548561,0.07184457778930664,0.11618166416883469,0.20861397683620453,-0.46083980798721313
11.0,-0.28187692165374756,0.03312300890684128,0.14498138427734375,0.06941314041614532,0.16677744686603546,-0.45132768154144287
11.05,-0.31400182843208313,-0.11158943921327591,0.11421331763267517,0.06846792250871658,0.11570407450199127,-0.44821596145629883
11.1,-0.3859584331512451,-0.16436195373535156,0.05390971526503563,0.09922057390213013,0.08471034467220306,-0.430437833070755
11.15,-0.36491134762763977,-0.18615151941776276,0.12368524074554443,0.13375675678253174,0.043127741664648056,-0.39849579334259033
11.2,-0.4008147716522217,-0.12025929242372513,0.006584253162145615,0.17357853055000305,0.019315045326948166,-0.366169273853302
11.25,-0.620990514755249,-0.2305469661951065,0.17693202197551727,0.20589381456375122,-0.07995547354221344,-0.3776913583278656
11.3,-0.6685182452201843,-0.18677808344364166,0.10582923144102097,0.18492627143859863,-0.10475480556488037,-0.3447057604789734
11.35,-0.5294848680496216,-0.0768900066614151,0.22521580755710602,0.11338955909013748,-0.03494571894407272,-0.2590588331222534
11.4,-0.4846116900444031,-0.2191019207239151,0.17490944266319275,0.06653690338134766,-0.0077336737886071205,-0.204868882894516
11.45,-0.47887760400772095,-0.19292069971561432,0.178078755736351,0.02609749138355255,-0.014945412054657936,-0.17693038284778595
11.5,-0.35336560010910034,-0.0979003980755806,0.24332821369171143,-0.005641847848892212,0.0012347844894975424,-0.1300903558731079
11.55,-0.4832249879837036,-0.008179675787687302,0.20204423367977142,0.005222272127866745,-0.01641739532351494,-0.11893149465322495
11.6,-0.3757299780845642,0.0632171556353569,0.1842309981584549,0.011808296665549278,-0.02022353745996952,-0.09187901020050049
11.65,-0.4181984066963196,-0.026258479803800583,0.23596525192260742,0.011048976331949234,-0.05240139737725258,-0.09140916168689728
11.7,-0.3816911578178406,-0.08997441828250885,0.35247406363487244,-0.003410208970308304,-0.05481094494462013,-0.08687201142311096
11.75,-0.4042053818702698,-0.1621561199426651,0.48200395703315735,-0.02919122949242592,-0.06723425537347794,-0.10039167106151581
11.8,-0.394035667181015,-0.15286828577518463,0.4426000118255615,-0.04586736485362053,-0.08384349942207336,-0.10189428180456161
11.85,-0.26715996861457825,-0.11888028681278229,0.4453098475933075,-0.06673040986061096,-0.07969288527965546,-0.08481559157371521
11.9,-0.299506813287735,-0.03663541376590729,0.3591204583644867,-0.06911395490169525,-0.1050034612417221,-0.08977556228637695
11.95,-0.33117926120758057,0.01627444289624691,0.2273106873035431,-0.09213680028915405,-0.06314525008201599,-0.033452875912189484
12.0,-0.3308924734592438,0.07396887242794037,0.3623611032962799,-0.09944972395896912,-0.07139905542135239,-0.003265852341428399
12.05,-0.3626254200935364,0.0821838304400444,0.13957728445529938,-0.08247451484203339,-0.07377780973911285,0.01562093012034893
12.1,-0.48229944705963135,0.044863685965538025,0.26533591747283936,-0.06844785809516907,-0.07412329316139221,0.013732923194766045
12.15,-0.5507517457008362,0.018364891409873962,0.30400365591049194,-0.03387676179409027,-0.073676198720932,0.01840374432504177
12.2,-0.566718578338623,0.007859215140342712,0.309533029794693,-0.003787487745285034,-0.06387665867805481,0.021341387182474136
12.25,-0.6646971106529236,0.007574066519737244,0.24896100163459778,-0.007247305009514093,-0.056830793619155884,0.013843538239598274
12.3,-0.6028273701667786,0.03842829167842865,0.27523910999298096,-0.03648284822702408,-0.029059847816824913,0.011770826764404774
12.35,-0.6099083423614502,0.1395845264196396,0.2368202656507492,-0.04947248101234436,-0.016476664692163467,0.002820781897753477
12.4,-0.7190099954605103,0.10418795049190521,0.22039560973644257,-0.03695780038833618,-0.019639182835817337,-0.012321964837610722
12.45,-0.6505589485168457,0.17583177983760834,0.26711320877075195,-0.011574819684028625,-0.02662387490272522,-0.014948231168091297
12.5,-0.5473390817642212,0.16608618199825287,0.17156966030597687,0.0029324116185307503,-0.02827819436788559,-0.008331476710736752
12.55,-0.6457043886184692,0.07473848760128021,0.25824984908103943,0.006455827504396439,-0.04330732300877571,-0.016645926982164383
12.6,-0.5787098407745361,0.05011461675167084,0.30328187346458435,-0.006374988239258528,-0.06512681394815445,-0.0148930000141263
12.65,-0.582935094833374,0.002604468259960413,0.339370459318161,-0.013079973869025707,-0.07769115269184113,-0.010168487206101418
12.7,-0.5575153231620789,0.010462747886776924,0.2202373445034027,-0.008363848552107811,-0.07912436127662659,0.0052210260182619095
12.75,-0.43885448575019836,0.012506473809480667,0.1984613537788391,0.01931273192167282,-0.16115301847457886,-0.021059444174170494
12.8,-0.7582042217254639,-0.05662824586033821,0.33762645721435547,0.013895349577069283,-0.1620536744594574,-0.020112263038754463
12.85,-0.9422494173049927,-0.015191099606454372,0.3646518290042877,-0.035049691796302795,-0.03583291918039322,0.0890805572271347
12.9,-0.552908718585968,0.1518850177526474,0.4272966980934143,-0.05487417057156563,-0.0046820021234452724,0.15646833181381226
12.95,-0.7972033023834229,0.1623391956090927,0.44785037636756897,-0.026859059929847717,0.040832940489053726,0.16423171758651733
13.0,-0.686445951461792,0.13959598541259766,-0.2564876079559326,-0.06898407638072968,0.19847214221954346,0.23385782539844513
13.05,-0.7933251857757568,0.07155132293701172,-0.24168318510055542,-0.1497129499912262,0.17084981501102448,0.22865310311317444
13.1,-1.261296272277832,-0.07657814025878906,-0.6571997404098511,-0.21723014116287231,0.09008999913930893,0.2754824161529541
13.15,-1.5913032293319702,-0.27094078063964844,-0.5720874071121216,-0.2927074432373047,-0.12144072353839874,0.40502238273620605
13.2,-1.9751896858215332,-0.703822135925293,-0.621065616607666,-0.43136855959892273,-0.2454339563846588,0.7107648253440857
13.25,-1.5906821489334106,-0.6701507568359375,-0.6131188273429871,-0.6196122765541077,-0.24134139716625214,1.1404467821121216
13.3,-1.2013893127441406,-0.8069629669189453,-0.2242755889892578,-0.7919237613677979,-0.338515043258667,1.454473614692688
13.35,-0.8610653877258301,-0.9738836288452148,0.07458874583244324,-0.9642561674118042,-0.2794373035430908,1.7026820182800293
13.4,-0.882625937461853,-1.3770999908447266,0.5247195363044739,-0.6858428120613098,-0.7434742450714111,1.7335262298583984
13.45,-0.6764010190963745,-0.8878345489501953,0.5871320962905884,-0.5009457468986511,-0.7914543747901917,1.8773448467254639
13.5,-0.4460461735725403,-0.7111692428588867,0.1938331574201584,-0.18720638751983643,-0.949104368686676,1.9608057737350464
13.55,-0.12872447073459625,-0.5644283294677734,0.3163345158100128,-0.20537179708480835,-0.9073585867881775,1.9714012145996094
13.6,0.5062971115112305,-0.15182115137577057,0.871350884437561,-0.20028632879257202,-0.9138492941856384,1.9331190586090088
13.65,0.4967653453350067,0.5253686308860779,1.3178750276565552,-0.2859249711036682,-0.8428829312324524,1.7659558057785034
13.7,0.3044672906398773,0.6666268706321716,1.2297179698944092,-0.05061107873916626,-0.7798494696617126,1.5473047494888306
13.75,0.5092965364456177,0.5575838088989258,0.8131822943687439,0.12821263074874878,-0.6655992865562439,1.2741146087646484
13.8,0.48473572731018066,0.8314218521118164,0.9897432327270508,0.09505665302276611,-0.5947065949440002,0.9758654236793518
13.85,0.15226437151432037,0.5557584762573242,0.4666843116283417,0.05994826555252075,-0.5104602575302124,0.7221568822860718
13.9,0.11617216467857361,0.4412030875682831,1.0327314138412476,-0.08410249650478363,-0.43995729088783264,0.5470432639122009
13.95,-0.12055402994155884,0.4424285888671875,0.446344792842865,-0.1804794818162918,-0.32503026723861694,0.4144447147846222
14.0,-0.28419530391693115,0.20822617411613464,0.7794137001037598,-0.06181342154741287,-0.2483622282743454,0.31545504927635193
14.05,-0.40754321217536926,0.27529144287109375,0.3637596070766449,0.012589499354362488,-0.18377593159675598,0.24361665546894073
14.1,-0.4394483268260956,0.17910097539424896,0.3969331979751587,0.05657821148633957,-0.1372019201517105,0.21219554543495178
14.15,-0.08090676367282867,0.22828006744384766,0.2126031368970871,0.09763771295547485,-0.0759388655424118,0.18635818362236023
14.2,-0.198486328125,0.6845502853393555,0.34416964650154114,-0.061239637434482574,-0.04017199948430061,0.10170875489711761
14.25,-0.24687626957893372,0.00982378888875246,0.2808757722377777,-0.05368775874376297,-0.02732880227267742,0.06450888514518738
14.3,-0.5251756310462952,-0.14455033838748932,0.2504653334617615,-0.03326146677136421,-0.04912659153342247,0.1096264123916626
14.35,-0.3965427875518799,-0.08700371533632278,0.2273746281862259,-0.06560517847537994,0.02587931603193283,0.27783438563346863
14.4,-0.6976385712623596,0.9977511763572693,0.9093320965766907,0.1476980298757553,0.04525258019566536,0.25715041160583496
14.45,-0.6339266300201416,-0.7151412963867188,0.41161227226257324,0.5054217576980591,0.09835197031497955,0.2691015899181366
14.5,-0.18199363350868225,-0.12301924079656601,0.712887167930603,0.3895004689693451,-0.0044367932714521885,0.25388962030410767
14.55,-0.13906431198120117,0.2649831771850586,0.13752755522727966,0.10256984829902649,0.03457910194993019,0.16784802079200745
14.6,0.38244980573654175,1.1635713577270508,0.4648168087005615,-0.03705684840679169,0.04712490364909172,0.0755792111158371
14.65,0.35013696551322937,1.0426836013793945,0.5754367709159851,0.14740727841854095,0.004519016481935978,0.019150536507368088
14.7,1.5154529809951782,1.6623735427856445,1.3715778589248657,0.32333266735076904,-0.06911402940750122,-0.11499625444412231
14.75,1.9973204135894775,2.0240249633789062,1.9976543188095093,-0.1564231812953949,-0.14832624793052673,-0.6372949481010437
14.8,1.6724615097045898,3.878206253051758,3.8663692474365234,-0.03454327583312988,0.3165779709815979,-1.67153000831604
14.85,1.11619234085083,2.511566162109375,2.936910629272461,-0.2637583613395691,1.5136852264404297,-2.8103818893432617
14.9,0.42339423298835754,0.9235773086547852,1.1900687217712402,-0.7961412668228149,2.647493839263916,-3.425504446029663
14.95,-0.9599980711936951,-2.3547825813293457,0.78642338514328,-0.15218853950500488,2.9349913597106934,-3.2907443046569824
15.0,-1.6745753288269043,-3.7582807540893555,-1.7030450105667114,0.4558734893798828,2.7637295722961426,-2.741827964782715
15.05,-2.5549871921539307,-3.0229873657226562,-1.280462384223938,0.13909006118774414,2.683277130126953,-1.8596675395965576
15.1,-2.6217823028564453,-2.2619376182556152,-2.0962488651275635,-0.1449820101261139,2.3702242374420166,-0.8895539045333862
15.15,-1.9059624671936035,-1.176614761352539,-2.279606342315674,-0.23998725414276123,1.6095530986785889,-0.22051464021205902
15.2,-0.46100908517837524,0.2365741729736328,-0.20433923602104187,-0.757214367389679,1.3132983446121216,0.4621793031692505
15.25,-0.7398500442504883,2.4618120193481445,1.6908588409423828,-0.5070382356643677,0.7778260707855225,0.3006615936756134
15.3,-0.3733157813549042,0.2596559524536133,-0.2206183671951294,0.13537180423736572,0.30775004625320435,-0.1141752377152443
15.35,0.0946035385131836,0.09028147906064987,0.25579071044921875,0.06690183281898499,-0.06160389631986618,-0.3098812699317932
15.4,-0.015184186398983002,0.24229717254638672,0.18113675713539124,0.1176840215921402,-0.4033489227294922,-0.5158894062042236
15.45,-0.5293639302253723,-0.4622354805469513,0.8264421224594116,0.04195059835910797,-0.40480369329452515,-0.4449191987514496
15.5,-0.621462881565094,-0.2659921944141388,1.0349656343460083,0.030107639729976654,-0.217975452542305,-0.27496492862701416
15.55,-0.9445676803588867,-0.3051777184009552,0.6485421061515808,0.10398558527231216,-0.11196909844875336,-0.13235199451446533
15.6,-0.6158297657966614,0.03546427935361862,0.019894735887646675,0.1304686963558197,-0.0008297768654301763,-0.0051081255078315735
15.65,-0.741458535194397,0.15149307250976562,-0.48362845182418823,5.688518285751343e-05,0.13238704204559326,0.14882686734199524
15.7,-0.4062597155570984,0.16094493865966797,-0.26841819286346436,-0.1448308527469635,-0.14142195880413055,0.14057284593582153
15.75,-0.6299340724945068,-0.5293760895729065,1.0660443305969238,-0.28848081827163696,-0.2727915644645691,0.2097599059343338
15.8,-0.016096055507659912,-0.46960359811782837,1.997921109199524,-0.2887762188911438,-0.02276504598557949,0.35045376420021057
15.85,0.1341714859008789,-0.29210570454597473,1.6294938325881958,-0.03764733299612999,0.017228584736585617,0.126244455575943
15.9,-0.303355872631073,-0.2114105373620987,0.6799437403678894,0.10672906041145325,0.1279812604188919,-0.04014696180820465
15.95,-0.6893385648727417,0.2479696273803711,-0.3919014036655426,0.22109460830688477,-0.04375786334276199,-0.1478171944618225
16.0,-1.4352467060089111,-0.1863870620727539,-0.4603293836116791,0.1704035997390747,-0.15022656321525574,-0.0475221648812294
16.05,-0.11518703401088715,0.2886180877685547,-0.1379859745502472,0.003066200762987137,-0.0586230643093586,0.15622033178806305
16.1,-0.22905732691287994,-0.0902719646692276,0.541791558265686,0.07092459499835968,-0.3008609414100647,0.1089581623673439
16.15,-0.29341208934783936,-0.07790090888738632,0.5663048028945923,0.19715094566345215,-0.4990442991256714,0.0008169636130332947
16.2,-0.7198814749717712,-0.4064493477344513,0.7852369546890259,0.3253299593925476,-0.6463706493377686,-0.10734036564826965
16.25,-0.753331184387207,-0.34200671315193176,0.4767164885997772,0.3453613519668579,-0.6167037487030029,-0.08731897920370102
16.3,-0.17127442359924316,0.08636951446533203,0.01982239820063114,0.2586529552936554,-0.42711544036865234,0.004506545607000589
16.35,0.0752907544374466,0.2400035709142685,0.39782512187957764,0.2724260985851288,-0.4853694438934326,-0.1043325886130333
16.4,-0.9228721261024475,-0.03194712847471237,-0.6631379127502441,0.18524236977100372,-0.3644493818283081,-0.1388988494873047
16.45,-0.6565214991569519,-0.16950033605098724,-0.70774906873703,-0.21412500739097595,0.24157899618148804,0.05173731595277786
16.5,-0.9708335399627686,-0.18032744526863098,0.47934195399284363,-0.48726263642311096,0.5851076245307922,0.14577792584896088
16.55,-0.44845759868621826,0.40106961131095886,1.2815496921539307,-0.6493667364120483,0.7802519798278809,0.3893042504787445
16.6,0.020145326852798462,0.10258576273918152,1.0157469511032104,-0.5382945537567139,0.6753509044647217,0.4478354752063751
16.65,0.022301793098449707,-0.016457578167319298,0.7470626831054688,-0.09635219722986221,0.0855153352022171,0.2830295264720917
16.7,-0.34209519624710083,-0.29823020100593567,1.4051523208618164,0.5238916277885437,-0.6839605569839478,-0.07429695874452591
16.75,-0.8390408754348755,-0.3279743492603302,0.7180780172348022,0.8301741480827332,-0.912725567817688,-0.2725834846496582
16.8,-0.5071011185646057,0.12642572820186615,0.06370609253644943,0.5199434161186218,-0.3664975166320801,-0.1187143549323082
16.85,-0.3840235471725464,0.2704438865184784,0.5288941264152527,0.1174822673201561,0.1522153913974762,0.07581350207328796
16.9,-0.7493584752082825,0.5120363235473633,-0.7957942485809326,0.2034745216369629,0.014397256076335907,-0.04614223539829254
16.95,-0.4307157099246979,0.3852090835571289,-0.515781044960022,-0.06583064049482346,0.17205581068992615,0.012059206143021584
17.0,-0.38536909222602844,-0.17585471272468567,0.6753065586090088,-0.2198898196220398,0.21884971857070923,0.061167895793914795
17.05,-0.5505117177963257,0.06009291112422943,0.3257390260696411,-0.05050782859325409,0.012515095062553883,-0.04838551580905914
17.1,-0.2535724937915802,-0.08063509315252304,0.6136372685432434,0.004513872787356377,-0.0226635430008173,-0.08852529525756836
17.15,-0.3747391700744629,0.07556627690792084,0.45253247022628784,0.07584971189498901,-0.06724072247743607,-0.15709489583969116
17.2,-0.44511687755584717,-0.014747632667422295,0.2972370982170105,0.0528399720788002,-0.02441062591969967,-0.15338604152202606
17.25,-0.58298659324646,-0.022483838722109795,0.24822752177715302,0.03749209642410278,-0.03193116933107376,-0.13932740688323975
17.3,-0.7267264127731323,-0.04742051661014557,0.17656852304935455,0.030904144048690796,-0.04397650063037872,-0.11960890144109726
17.35,-0.7029076218605042,-0.0026226157788187265,0.10826943814754486,0.019037380814552307,-0.04378480091691017,-0.07574836164712906
17.4,-0.10453012585639954,1.4116754531860352,0.39484497904777527,0.0026952289044857025,-0.058809150010347366,-0.03569085896015167
17.45,0.36089861392974854,2.2991132736206055,0.7116854190826416,0.006248436868190765,-0.06184649467468262,-0.030214937403798103
17.5,-0.6476138830184937,0.5410242080688477,0.39100345969200134,0.010312845930457115,0.009823551401495934,-0.03419789671897888
17.55,-0.8416309952735901,0.6914615631103516,-0.04118431359529495,0.02808806486427784,0.01781882718205452,-0.08143651485443115
17.6,-0.8515350222587585,-0.33979132771492004,0.2910495102405548,0.04392782971262932,-0.01149483397603035,-0.10404257476329803
17.65,-1.0036745071411133,0.002530081430450082,0.1649908423423767,-0.005272115580737591,-0.024526169523596764,-0.03886454924941063
17.7,-0.5613792538642883,0.2837362289428711,-0.04452691227197647,-0.025219596922397614,-0.04599450156092644,0.012199447490274906
17.75,-0.11085571348667145,0.31203269958496094,0.02323572151362896,-0.09841936826705933,0.0029279892332851887,0.07271308451890945
17.8,0.04664038121700287,0.18811796605587006,0.500263512134552,-0.15498453378677368,0.09055556356906891,0.09868907183408737
17.85,-0.3615567088127136,0.09407995641231537,0.3421633839607239,-0.06490885466337204,-0.020486580207943916,-0.03220643475651741
17.9,-0.7354874610900879,-0.15863898396492004,0.5250518918037415,-0.1137332022190094,0.038908373564481735,-0.03971320763230324
17.95,-0.9745746850967407,-0.11726858466863632,0.4350668787956238,-0.12206648290157318,0.09894698858261108,-0.012996257282793522
18.0,-1.2976794242858887,-0.24456503987312317,0.4889261722564697,-0.13533005118370056,0.1496870070695877,0.04125664383172989
18.05,-1.2438567876815796,-0.2236337959766388,0.46588945388793945,-0.12685196101665497,0.15427368879318237,0.0906788632273674
18.1,-0.7594515085220337,0.01788233406841755,0.12969174981117249,-0.08373906463384628,0.08395446836948395,0.11679067462682724
18.15,-0.3087305426597595,0.10869502276182175,0.2446085512638092,-0.20262575149536133,0.19651572406291962,0.1861334890127182
18.2,-0.5000509023666382,-0.09920026361942291,0.4593966007232666,-0.32131439447402954,0.33856773376464844,0.19323593378067017
18.25,-0.9149956107139587,-0.09833623468875885,0.19040989875793457,-0.3739582598209381,0.41885194182395935,0.17156942188739777
18.3,-0.7134398221969604,-0.09569837152957916,0.15370836853981018,-0.5058434009552002,0.5415747165679932,0.22011181712150574
18.35,-0.5573665499687195,-0.11705782264471054,0.6242931485176086,-0.5246495604515076,0.5245696306228638,0.24605914950370789
18.4,-0.8786036968231201,-0.43604758381843567,1.0837981700897217,-0.22872914373874664,0.14220379292964935,0.08874978870153427
18.45,-0.7125986218452454,-0.3427028954029083,0.6684653759002686,0.09655869752168655,-0.24575257301330566,-0.053341057151556015
18.5,-0.5958234071731567,-0.10867978632450104,0.36193108558654785,0.27257126569747925,-0.4437839388847351,-0.15961278975009918
18.55,-0.6313650012016296,0.06379412859678268,-0.03211350366473198,0.21254464983940125,-0.3198413848876953,-0.18075835704803467
18.6,-0.8926446437835693,-0.03804493695497513,-0.13067065179347992,0.029266102239489555,-0.06747030466794968,-0.08786462992429733
18.65,-1.002335786819458,-0.2146768867969513,0.5244894027709961,-0.022128157317638397,-0.07295912504196167,-0.04995148256421089
18.7,-0.6427594423294067,-0.00032140605617314577,0.368545800447464,0.05158872902393341,-0.18965566158294678,-0.039508093148469925
18.75,-0.5168806314468384,-0.03892137110233307,0.345080703496933,0.12919455766677856,-0.30171042680740356,-0.07535059005022049
18.8,-0.5311076045036316,0.059649452567100525,0.3346562087535858,0.19614076614379883,-0.3850458860397339,-0.13149641454219818
18.85,-0.6446399092674255,-0.006039638537913561,0.4116777777671814,0.22173014283180237,-0.42816609144210815,-0.16159264743328094
18.9,-0.444906622171402,0.06266497075557709,0.3774282932281494,0.15864801406860352,-0.34402403235435486,-0.1123185083270073
18.95,-0.4984707534313202,0.06993673741817474,0.4532153010368347,0.0696922317147255,-0.22229637205600739,-0.07603000104427338
19.0,-0.5440757274627686,-0.0371113047003746,0.599145233631134,-0.015683043748140335,-0.08559339493513107,-0.04621843621134758
19.05,-0.4064028859138489,0.08463095128536224,0.4778144657611847,-0.04639195650815964,0.023899290710687637,-0.054562121629714966
19.1,-0.4768241047859192,-0.006842629984021187,0.4026014804840088,-0.01673845201730728,0.03759133815765381,-0.12510673701763153
19.15,-0.6448155641555786,-0.14614488184452057,0.48900070786476135,0.011345010250806808,0.03809269890189171,-0.14602425694465637
19.2,-0.7116777300834656,-0.06594183295965195,0.40031999349594116,0.03167013078927994,0.040216732770204544,-0.12597115337848663
19.25,-0.6523430943489075,-0.053421035408973694,0.24846017360687256,0.017649373039603233,0.05142958462238312,-0.09075776487588882
19.3,-0.7210847735404968,-0.24179555475711823,0.49551111459732056,-0.011370154097676277,0.06096600741147995,-0.045304782688617706
19.35,-0.7802435159683228,-0.09530451148748398,0.5136294364929199,0.000736005138605833,0.0424254946410656,-0.015330743044614792
19.4,-0.594656229019165,0.014409048482775688,0.36072903871536255,0.013754628598690033,0.027145497500896454,-0.017581356689333916
19.45,-0.6980840563774109,-0.22359946370124817,0.5665181279182434,0.024244701489806175,-0.030649231746792793,-0.034691937267780304
19.5,-0.8336119055747986,-0.14033034443855286,0.6201313138008118,0.03500393033027649,-0.06958574056625366,-0.010818489827215672
19.55,-0.7087031602859497,0.056959137320518494,0.1719619780778885,-0.002110222354531288,-0.0062807295471429825,0.059565220028162
19.6,-0.42271918058395386,0.09493159502744675,0.12801259756088257,-0.06514424085617065,0.07609917223453522,0.09592194855213165
19.65,-0.3455710709095001,0.027969345450401306,0.39475172758102417,-0.0649382695555687,0.08594067394733429,0.03943749517202377
19.7,-0.6138350963592529,-0.028459567576646805,0.4047706723213196,-0.04107446223497391,0.10386733710765839,-0.02173168584704399
19.75,-0.8013489842414856,-0.05520917847752571,0.38022834062576294,-0.03544926643371582,0.11927026510238647,-0.03106709197163582
19.8,-0.751697301864624,-0.13299275934696198,0.37982940673828125,-0.025587528944015503,0.06537782400846481,-0.016691075637936592
