Time [s],Acc_x [m/s^2],Acc_y [m/s^2],Acc_z [m/s^2],Gyro_x [1/s],Gyro_y [1/s],Gyro_z [1/s]
0.0,-0.025226721540093422,0.1135263442993164,0.05311465635895729,-0.01193925179541111,0.0038521727547049522,-0.003766315057873726
0.05,-0.0023173997178673744,0.18587589263916016,-0.004913455806672573,-0.009630326181650162,0.011138123460114002,0.004790318664163351
0.1,-0.05604822561144829,0.11622142791748047,-0.012543030083179474,-0.02608569897711277,-0.00015230986173264682,0.002413170412182808
0.15,-0.04530232399702072,0.08266448974609375,-0.08418171107769012,-0.031251151114702225,-0.018269669264554977,0.009727531112730503
0.2,-0.06958766281604767,0.4600534439086914,-0.14294706284999847,-0.0529153048992157,-0.04287256300449371,0.026530230417847633
0.25,-0.008976064622402191,0.5247335433959961,-0.2717723548412323,-0.08341526240110397,-0.06464771926403046,0.014481576159596443
0.3,0.043638408184051514,0.3871879577636719,-0.4179967939853668,-0.11326459050178528,-0.060373418033123016,-0.04754989594221115
0.35,0.12614594399929047,0.11468221247196198,-0.4113388657569885,-0.18513043224811554,-0.06262797862291336,-0.07058900594711304
0.4,0.13907144963741302,0.15425588190555573,-0.32403790950775146,-0.23965716361999512,-0.017502589151263237,-0.02344069629907608
0.45,0.13187475502490997,0.3229532241821289,0.0669688954949379,-0.3128233850002289,0.04272513464093208,-0.006885333452373743
0.5,0.11512347310781479,0.19032955169677734,-0.019080834463238716,-0.3661027252674103,0.04328695684671402,0.0015634907176718116
0.55,-0.17296215891838074,0.25759220123291016,0.04212209954857826,-0.3197774589061737,0.06718342751264572,-0.037912871688604355
0.6,-0.24831101298332214,0.2451190948486328,0.05764155834913254,-0.3162500858306885,0.026788976043462753,-0.13682186603546143
0.65,-0.07841846346855164,0.07827091217041016,0.0647781640291214,-0.3586632311344147,-0.07153502106666565,-0.16452175378799438
0.7,-0.16245399415493011,-0.2592344284057617,0.18641610443592072,-0.3089491128921509,-0.09909267723560333,-0.15415136516094208
0.75,0.08638902008533478,0.1639852523803711,0.16845908761024475,-0.25569966435432434,-0.0745840072631836,-0.11416847258806229
0.8,0.3481202721595764,0.46887779235839844,0.26295366883277893,-0.29066091775894165,-0.021040454506874084,-0.12850052118301392
0.85,0.3452882766723633,0.041104309260845184,0.4425886273384094,-0.19046351313591003,0.0636315792798996,-0.15812964737415314
0.9,-0.010649703443050385,-0.4652137756347656,0.1276385486125946,0.052413780242204666,0.08853066712617874,-0.11836332827806473
0.95,-0.08638447523117065,-0.364227294921875,0.12651240825653076,0.17398373782634735,0.05419586971402168,-0.0065528289414942265
1.0,-0.22798602283000946,-0.18932056427001953,0.03019280917942524,0.19985075294971466,0.04899339750409126,-0.013954510912299156
1.05,-0.1845037043094635,-0.22054386138916016,-0.16045662760734558,0.21319974958896637,0.05624934285879135,-0.00862426869571209
1.1,-0.1337723731994629,-0.17899702489376068,-0.37444692850112915,0.30931445956230164,0.07465046644210815,0.07662355899810791
1.15,-0.039052918553352356,-0.04170321300625801,-0.36546456813812256,0.4203644394874573,0.03849206119775772,0.1323396861553192
1.2,0.03390432149171829,0.1537618637084961,-0.04523119702935219,0.4052410423755646,0.0009166020900011063,0.11151905357837677
1.25,0.050681162625551224,0.08912468701601028,-0.1847841590642929,0.3711864948272705,-0.019484296441078186,0.13898929953575134
1.3,-0.13887152075767517,0.1496429443359375,-0.03617461398243904,0.3933039903640747,-0.045933280140161514,0.1673019677400589
1.35,0.0002800785005092621,0.4530506134033203,0.03576786071062088,0.4123447835445404,-0.11305850744247437,0.13140606880187988
1.4,0.1113259494304657,0.2556600570678711,0.03165462240576744,0.323921263217926,-0.07484839856624603,0.027943817898631096
1.45,-0.06638260930776596,0.3173332214355469,0.1120709478855133,0.24961772561073303,-0.05133703351020813,0.013964233919978142
1.5,0.03318121284246445,0.3525667190551758,0.08314379304647446,0.2865384519100189,-0.20141610503196716,0.10797060281038284
1.55,-0.1576656997203827,0.2306203842163086,0.10612764209508896,0.2962252199649811,-0.13366004824638367,0.0422745980322361
1.6,-0.22773897647857666,0.19741535186767578,0.09339787811040878,0.18244990706443787,-0.1047009602189064,-0.006638202350586653
1.65,-0.24015043675899506,0.20669078826904297,-0.030253494158387184,0.16846540570259094,-0.18078464269638062,0.01174369640648365
1.7,-0.10665625333786011,0.22581768035888672,0.20140394568443298,0.1334696263074875,-0.20820733904838562,-0.0007494564051739872
1.75,0.0372195765376091,0.2659263610839844,0.22601467370986938,0.08956970274448395,-0.2385251522064209,-0.04679868370294571
1.8,-0.049635980278253555,0.33581066131591797,0.19580549001693726,0.07394547015428543,-0.23752319812774658,-0.08383072167634964
1.85,-0.08137080073356628,0.2359285205602646,0.2589237689971924,0.04063171148300171,-0.24637076258659363,-0.11680564284324646
1.9,-0.03630764037370682,0.31617259979248047,0.3470993638038635,-0.011336727067828178,-0.2510153353214264,-0.08348488062620163
1.95,-0.08813857287168503,0.3942985534667969,0.34745848178863525,-0.03272278606891632,-0.284108966588974,-0.09500759840011597
2.0,-0.032701894640922546,0.28806209564208984,0.26024919748306274,-0.07012180984020233,-0.28290873765945435,-0.11704810708761215
2.05,-0.03500763326883316,0.21916675567626953,0.2336599975824356,-0.1049618348479271,-0.2874078154563904,-0.11047429591417313
2.1,0.03869345784187317,0.16003990173339844,0.1706434041261673,-0.11456110328435898,-0.2955266237258911,-0.10672489553689957
2.15,-0.040663428604602814,0.08253955096006393,0.3013485372066498,-0.11018434911966324,-0.2733532190322876,-0.09078972786664963
2.2,-0.006150897592306137,0.09407329559326172,0.08874785155057907,-0.13227258622646332,-0.2879657745361328,-0.06180872395634651
2.25,-0.11528205871582031,-0.022215845063328743,-0.007384680677205324,-0.11882326751947403,-0.24126046895980835,-0.05334439128637314
2.3,-0.10461322218179703,0.021518699824810028,0.19314604997634888,-0.08568520098924637,-0.18018653988838196,-0.07177732139825821
2.35,-0.16107207536697388,0.0026111493352800608,0.3301997780799866,-0.09592225402593613,-0.12271325290203094,-0.09244813024997711
2.4,-0.08641521632671356,0.13353346288204193,0.3885696828365326,-0.07828185707330704,-0.1220259815454483,-0.09852156043052673
2.45,-0.10885831713676453,-0.15137673914432526,0.32795658707618713,-0.04000982269644737,-0.15372589230537415,-0.067326620221138
2.5,-0.01749211549758911,-0.15389634668827057,0.3862321376800537,0.09574200958013535,-0.14590954780578613,-0.05675804242491722
2.55,-0.028186872601509094,0.2219085544347763,0.6894692182540894,0.19129961729049683,-0.13949362933635712,-0.053102631121873856
2.6,0.18833224475383759,0.33597275614738464,0.6490675210952759,0.22519555687904358,-0.1263960748910904,-0.07148724049329758
2.65,0.11349034309387207,-0.11361410468816757,0.9496347904205322,0.20471534132957458,-0.08126004785299301,-0.02973143942654133
2.7,0.2919926941394806,-0.11930372565984726,0.9827265739440918,0.2644287943840027,0.0031547071412205696,-0.05078813433647156
2.75,0.26130223274230957,-0.2946825325489044,1.5565779209136963,0.3060835897922516,0.13933375477790833,-0.03988401219248772
2.8,0.227841317653656,-0.40103819966316223,1.5282342433929443,0.4548054039478302,0.24943843483924866,-0.015079475939273834
2.85,-0.0419483482837677,-0.9016047120094299,1.426157832145691,0.5737266540527344,0.28258875012397766,-0.015928884968161583
2.9,-0.39481043815612793,-0.43073657155036926,1.01974356174469,0.760303795337677,0.31774505972862244,0.11322107166051865
2.95,-0.7675550580024719,0.7174854278564453,0.6443500518798828,0.9077655076980591,0.18878458440303802,0.3217078149318695
3.0,-0.5790009498596191,0.7750186920166016,0.3476860225200653,0.6965877413749695,0.1210283637046814,0.32486361265182495
3.05,-0.723388671875,-0.07812786102294922,-0.2232286036014557,0.5567010045051575,0.11807107925415039,0.19333115220069885
3.1,-0.5041078329086304,0.2962780296802521,-1.0230094194412231,0.5933838486671448,0.025663763284683228,0.10888716578483582
3.15,-0.05001187324523926,0.373233824968338,-0.9067286849021912,0.3909981846809387,-0.037348583340644836,0.06664253026247025
3.2,-0.04698759317398071,0.4564476013183594,-0.3779231309890747,0.3742161691188812,0.030344853177666664,-0.09574773162603378
3.25,-0.07188307493925095,0.6937589645385742,-0.3472822308540344,0.285325288772583,0.0739808902144432,-0.16501623392105103
3.3,-0.053092703223228455,0.9869384765625,-0.43168407678604126,0.15107879042625427,0.09940798580646515,-0.16406740248203278
3.35,-0.33877113461494446,0.9204282760620117,-0.3676639795303345,0.05472741648554802,-0.006123999133706093,-0.07428070157766342
3.4,-0.023723337799310684,-0.018381116911768913,-0.08441830426454544,-0.06237172335386276,-0.1650247722864151,-0.07191429287195206
3.45,0.07264770567417145,-0.1539621353149414,-0.1732807755470276,-0.051433779299259186,-0.2526204586029053,-0.18049582839012146
3.5,0.2776774764060974,0.1632537841796875,-0.12056900560855865,-0.04063431918621063,-0.22452950477600098,-0.29300251603126526
3.55,0.2360026240348816,0.13857650756835938,0.1410745233297348,-0.07808612287044525,-0.11972957849502563,-0.26500481367111206
3.6,0.23198430240154266,-0.15256501734256744,0.4465606212615967,-0.0836319625377655,-0.12217473983764648,-0.13381977379322052
3.65,0.42898643016815186,-0.4826812744140625,0.65691077709198,0.051463253796100616,-0.25500959157943726,-0.07177499681711197
3.7,0.11000673472881317,-0.5069417953491211,0.4068051874637604,0.23327234387397766,-0.08117903769016266,-0.20499303936958313
3.75,0.3841322362422943,-0.7126560211181641,-0.02206542156636715,0.32121193408966064,0.004419952165335417,-0.32330963015556335
3.8,0.21451100707054138,-0.19356155395507812,-0.11635728925466537,0.41336533427238464,0.0380929633975029,-0.2248654067516327
3.85,0.067718505859375,1.090956687927246,0.15063779056072235,0.3599570095539093,0.20375597476959229,-0.09284897148609161
3.9,-0.06200604885816574,0.9368610382080078,0.20155510306358337,0.07471460103988647,0.16378940641880035,-0.07554003596305847
3.95,-0.21248231828212738,0.18626214563846588,-0.4690777063369751,0.0800701454281807,0.08321219682693481,-0.023491505533456802
4.0,0.057899534702301025,0.008166328072547913,-0.5121583938598633,0.09781889617443085,0.046303678303956985,0.021309219300746918
4.05,0.11054319143295288,-0.1825704574584961,-0.018008636310696602,-0.020144470036029816,0.02350008301436901,0.03900168091058731
4.1,0.06152141094207764,0.21749496459960938,0.20336896181106567,0.070729561150074,0.09014853090047836,0.05758161097764969
4.15,0.10132277011871338,0.6661109924316406,0.09891120344400406,0.06017908826470375,0.05763907730579376,0.017298560589551926
4.2,0.12270992249250412,1.20806884765625,0.097443126142025,-0.023652445524930954,0.06627408415079117,-0.030429545789957047
4.25,0.12135906517505646,0.7654075622558594,-0.13906298577785492,-0.17458638548851013,0.010850477032363415,-0.005383595358580351
4.3,0.12436158955097198,-0.1683654636144638,-0.2557070553302765,-0.22431117296218872,-0.04985925182700157,0.07487033307552338
4.35,0.012951791286468506,0.2256479412317276,-0.6305795907974243,-0.2790716588497162,-0.05182217061519623,0.08326085656881332
4.4,-0.012287825345993042,0.3158731460571289,-0.13508932292461395,-0.38634634017944336,0.02824627421796322,0.036997780203819275
4.45,0.10782481729984283,0.5158472061157227,0.3987308144569397,-0.3659995198249817,0.026849811896681786,0.03365890681743622
4.5,0.2833496630191803,-0.27750301361083984,0.4128788113594055,-0.4360758662223816,-0.026208268478512764,0.11436615884304047
4.55,-0.2534644603729248,-0.3241004943847656,0.1018984317779541,-0.3643544018268585,0.08219030499458313,0.01285408716648817
4.6,-0.255410373210907,0.17560575902462006,0.35060185194015503,-0.2731110453605652,0.08903700113296509,-0.044792208820581436
4.65,-0.252281129360199,0.2875690162181854,0.7496011853218079,-0.2736160159111023,-0.0071613905020058155,-0.004570327699184418
4.7,-0.20981767773628235,-0.15206243097782135,0.6394393444061279,-0.33631160855293274,-0.050192903727293015,-0.005486348178237677
4.75,-0.2335939258337021,-0.28386881947517395,0.5665162801742554,-0.27334344387054443,-0.006393399555236101,-0.026832982897758484
4.8,-0.368906706571579,-0.24193479120731354,0.6221436858177185,-0.14290675520896912,0.00029049674049019814,0.05592261627316475
4.85,-0.5006080269813538,-0.03756812587380409,1.0432322025299072,-0.07591790705919266,-0.03721751645207405,0.12441172450780869
4.9,-0.5551266074180603,0.6562461853027344,0.44545498490333557,-0.22055280208587646,-0.04654940590262413,0.18342849612236023
4.95,-0.07766381651163101,1.0936651229858398,0.15140968561172485,-0.22780156135559082,-0.14148956537246704,0.19126398861408234
5.0,0.35210758447647095,1.2514848709106445,-0.15567462146282196,-0.13795720040798187,-0.24263300001621246,0.26175233721733093
5.05,0.20621170103549957,0.3018960952758789,-0.3260159492492676,-0.07492082566022873,-0.13673411309719086,0.23249629139900208
5.1,-0.047109365463256836,-0.46259593963623047,-0.5306952595710754,0.11166775971651077,-0.08540243655443192,0.08595680445432663
5.15,0.16366466879844666,-0.8629922866821289,-0.9470266103744507,0.1192585825920105,-0.20164822041988373,0.08627990633249283
5.2,0.265546053647995,-0.4237937927246094,-0.33220210671424866,0.19538123905658722,-0.16216164827346802,0.06524045020341873
5.25,0.26876863837242126,0.17716027796268463,-0.32851168513298035,0.1877242475748062,0.014103557914495468,-0.12087088823318481
5.3,0.16671603918075562,-0.2266988605260849,-0.23482246696949005,0.056020043790340424,-0.04527712240815163,-0.15959405899047852
5.35,0.4677116274833679,-0.23516367375850677,-0.48491472005844116,-0.08150596171617508,-0.10115475952625275,-0.10800905525684357
5.4,0.793610155582428,0.27852725982666016,-0.17407448589801788,-0.07895256578922272,-0.09373374283313751,-0.12838265299797058
5.45,0.5352807641029358,0.11767293512821198,-0.3386021852493286,-0.1017710268497467,-0.0911114439368248,-0.07451250404119492
5.5,0.3436303734779358,0.07888699322938919,-0.22740890085697174,-0.13434365391731262,-0.08130981773138046,0.0048109604977071285
5.55,0.3476024866104126,0.02832890674471855,-0.2604491114616394,-0.24764303863048553,-0.016078384593129158,-0.05088839307427406
5.6,0.4862140417098999,-0.019694315269589424,-0.285138875246048,-0.3070714473724365,0.025367293506860733,-0.07710467278957367
5.65,0.18145564198493958,0.16681289672851562,-0.18616782128810883,-0.2562992572784424,0.07071873545646667,-0.05113250017166138
5.7,0.11226549744606018,0.19874191284179688,-0.04669135436415672,-0.21266993880271912,0.10346890985965729,-0.08546464145183563
5.75,0.06842236965894699,0.2823200225830078,0.13474959135055542,-0.21373285353183746,0.0839226096868515,-0.13756859302520752
5.8,0.0722673311829567,0.41834354400634766,0.02344733290374279,-0.23862114548683167,0.09095492959022522,-0.1831211894750595
5.85,-0.14402732253074646,0.5233974456787109,0.07380545139312744,-0.2289319634437561,0.10025162249803543,-0.16547688841819763
5.9,-0.4335936903953552,0.002752292202785611,0.24282503128051758,-0.1797197014093399,0.027979960665106773,-0.11127738654613495
5.95,-0.30469995737075806,-0.04331685230135918,0.24909791350364685,-0.06483477354049683,-0.0568418949842453,-0.1311562955379486
6.0,-0.11141908168792725,0.11444567888975143,0.2183055281639099,-0.12146825343370438,-0.034914281219244,-0.1765613853931427
6.05,-0.11475536227226257,0.2626371383666992,0.3799416124820709,-0.08550986647605896,-0.08877237141132355,-0.17581674456596375
6.1,0.14766180515289307,0.2460765838623047,0.12650054693222046,-0.04777548462152481,-0.08198980242013931,-0.10605855286121368
6.15,-0.048397358506917953,0.18211746215820312,-0.005883789621293545,-0.08269377052783966,0.0006204243400134146,-0.09098553657531738
6.2,-0.10992338508367538,-0.029294012114405632,-0.11281351000070572,-0.07140333950519562,0.02540178969502449,-0.059731341898441315
6.25,-0.00487576425075531,-0.0779113695025444,-0.1601565033197403,-0.03149513900279999,-0.010588109493255615,-0.032998401671648026
6.3,0.008278988301753998,0.07954788953065872,-0.1447938084602356,-0.028740137815475464,-0.0017196855042129755,-0.03975336253643036
6.35,-0.0435885526239872,0.24858570098876953,-0.10884427279233932,-0.019172128289937973,0.05326978117227554,-0.03913836553692818
6.4,-0.10737787187099457,0.1287698745727539,-0.19690623879432678,-0.020040344446897507,0.021502606570720673,-0.024645991623401642
6.45,-0.1210252121090889,-0.024978632107377052,-0.2661142349243164,-0.050059761852025986,0.004784867633134127,-0.011929682455956936
6.5,-0.018014006316661835,0.2116842269897461,-0.27043938636779785,-0.06890901923179626,0.04185923561453819,-0.02775500901043415
6.55,0.01094549149274826,0.5054931640625,-0.19193141162395477,-0.06841643899679184,0.05503905564546585,-0.01592639461159706
6.6,-0.02677106112241745,0.38525867462158203,-0.25506502389907837,-0.11965656280517578,0.05685179680585861,-0.013281268998980522
6.65,0.0013697892427444458,0.08300019055604935,-0.40147945284843445,-0.16466611623764038,0.005976190324872732,-0.030506327748298645
6.7,0.05098801851272583,0.10684873163700104,-0.3915771245956421,-0.2062218338251114,0.042738188058137894,-0.017036037519574165
6.75,0.15549376606941223,0.15604306757450104,-0.33303096890449524,-0.21374252438545227,0.0764845609664917,0.010945962741971016
6.8,0.10943040251731873,0.05541135370731354,-0.46962058544158936,-0.19219955801963806,0.07262201607227325,0.03508667275309563
6.85,-0.04632385075092316,0.15506267547607422,-0.28436821699142456,-0.20951686799526215,0.10791966319084167,0.04172686114907265
6.9,-0.004482842981815338,0.2593097686767578,-0.2540815472602844,-0.25458621978759766,0.10501952469348907,0.02038220688700676
6.95,-0.07235810160636902,-0.00405406579375267,-0.16832637786865234,-0.32673799991607666,0.10818979889154434,0.012701163999736309
7.0,0.06090136244893074,-0.010573378764092922,-0.2845759093761444,-0.31622421741485596,0.11896008253097534,-0.015548493713140488
7.05,0.11114232242107391,0.025348668918013573,-0.16105708479881287,-0.343567430973053,0.14466989040374756,-0.003301534103229642
7.1,0.2375861555337906,0.0010681221028789878,-0.1479787528514862,-0.37099969387054443,0.20384922623634338,-0.008835175074636936
7.15,0.14656558632850647,0.09178925305604935,-0.07787817716598511,-0.3526277542114258,0.2704712152481079,0.024455808103084564
7.2,0.04307131469249725,0.0487375371158123,-0.436257541179657,-0.2986481189727783,0.36863797903060913,-0.015675846487283707
7.25,-0.056736916303634644,-0.3443889617919922,-0.13557679951190948,-0.28466057777404785,0.3309252858161926,0.010352480225265026
7.3,0.2829118072986603,-0.19336605072021484,0.037976138293743134,-0.15841516852378845,0.2347315549850464,0.09992905706167221
7.35,0.307020902633667,-0.029398908838629723,-0.23438876867294312,-0.08589847385883331,0.10458028316497803,0.07316301017999649
7.4,0.355714350938797,-0.5945405960083008,-0.5737444162368774,-0.0983041524887085,-0.010098000057041645,0.04595266282558441
7.45,0.18356238305568695,-0.6524744033813477,0.5585195422172546,0.11876466125249863,-0.040873296558856964,0.28856924176216125
7.5,0.2771509289741516,0.3751811981201172,0.1497306376695633,0.21685442328453064,0.053806476294994354,0.4126284122467041
7.55,-0.4086137115955353,1.3745737075805664,0.7233693599700928,0.060715943574905396,0.03175327181816101,0.319767028093338
7.6,-0.884586751461029,1.0104455947875977,0.03843057155609131,-0.10970090329647064,0.08853045850992203,0.13062044978141785
7.65,-0.33700236678123474,0.3869943618774414,-0.2016640454530716,-0.12132947146892548,-0.13349135220050812,0.2268069088459015
7.7,0.3458617627620697,0.02284814417362213,-0.3604801893234253,-0.1895698755979538,-0.11325295269489288,0.2906253933906555
7.75,0.7261080741882324,0.5857839584350586,0.1724223643541336,-0.2598436176776886,0.01319179031997919,0.12685377895832062
7.8,-0.41369155049324036,0.7037458419799805,-0.1099151000380516,-0.21426770091056824,0.1068023145198822,-0.08346148580312729
7.85,-0.5590797662734985,-0.11715604364871979,0.18813593685626984,-0.21359732747077942,-0.09007572382688522,0.08363160490989685
7.9,-0.16722947359085083,-0.8353376388549805,-0.04249436780810356,-0.10502757877111435,-0.15147820115089417,0.029754754155874252
7.95,-0.07566344738006592,-0.3673858642578125,0.011251475661993027,0.16720236837863922,-0.2937168478965759,0.11411377042531967
8.0,0.2594335079193115,-0.2235260009765625,0.23975424468517303,0.10619150102138519,-0.2807835042476654,0.18928612768650055
8.05,0.10655543953180313,0.12338733673095703,0.08650365471839905,0.06875628232955933,-0.16051681339740753,0.08418017625808716
8.1,0.2817678153514862,0.35096073150634766,0.0660245344042778,0.23076963424682617,-0.20641008019447327,0.06832335889339447
8.15,0.19805896282196045,0.5588226318359375,0.3936484754085541,0.2419615089893341,-0.24785096943378448,0.13995090126991272
8.2,0.07990360260009766,0.1470661163330078,0.0901244729757309,0.0870666429400444,-0.11799772083759308,-0.012881772592663765
8.25,0.0022123903036117554,-0.24058818817138672,-0.08873415738344193,-0.04037534445524216,-0.08424023538827896,0.0059670391492545605
8.3,-0.08715701103210449,0.3530082404613495,0.5910375714302063,0.019789643585681915,-0.2967197597026825,0.13838964700698853
8.35,-0.2207147628068924,0.6208982467651367,0.4597872197628021,0.2375248819589615,-0.09646086394786835,0.012109328992664814
8.4,-0.0973949134349823,-0.1517028957605362,0.38011419773101807,0.05262536182999611,-0.062037140130996704,-0.10141787678003311
8.45,-0.228667750954628,-0.055664077401161194,0.49839454889297485,0.012251820415258408,-0.08554695546627045,0.08554574102163315
8.5,-0.35106927156448364,0.260036438703537,0.5440647602081299,0.1053466945886612,0.004244706593453884,0.07502777874469757
8.55,-0.2117386907339096,0.19783495366573334,0.40293729305267334,0.2125847339630127,0.08431074023246765,-0.026392905041575432
8.6,-0.34432297945022583,0.031063077971339226,-0.07457565516233444,0.08385905623435974,0.021187691017985344,0.020950503647327423
8.65,-0.15014715492725372,-0.2463846355676651,0.2966572046279907,0.06064949184656143,-0.014116968028247356,-0.01756245642900467
8.7,-0.08005779981613159,0.14644907414913177,0.6050567030906677,0.3568577468395233,-0.04128392040729523,-0.06029321253299713
8.75,-0.17342621088027954,0.4882669150829315,0.6196987628936768,0.35454824566841125,-0.00683577312156558,-0.001683220500126481
8.8,-0.20353418588638306,0.11633776873350143,0.2494930773973465,0.3211260437965393,-0.0669630616903305,0.04532233253121376
8.85,-0.15782687067985535,-0.551788330078125,-0.2752090394496918,0.19228015840053558,-0.0463813878595829,0.03647218272089958
8.9,-0.10960033535957336,-0.06916140764951706,-0.3480307459831238,0.05466502904891968,-0.006554462481290102,0.10514765232801437
8.95,-0.13224899768829346,0.748499870300293,0.5554032921791077,-0.07804544270038605,-0.002086916007101536,0.13678988814353943
9.0,-0.457661896944046,0.5450363159179688,0.6649606227874756,-0.0018768161535263062,0.07017667591571808,0.09075375646352768
9.05,-0.44681355357170105,0.16796302795410156,-0.03810157999396324,0.07804134488105774,-0.044565487653017044,0.05547049641609192
9.1,-0.3146638870239258,0.24783800542354584,0.19875454902648926,0.007229696959257126,-0.08904949575662613,0.03308447077870369
9.15,-0.39185959100723267,0.27148911356925964,0.41315537691116333,-0.053700923919677734,0.01365426741540432,-0.013405431061983109
9.2,-0.31421715021133423,0.21518419682979584,0.44223517179489136,0.010096686892211437,0.02850981242954731,-0.04073674604296684
9.25,-0.26986265182495117,0.04616926982998848,0.26196175813674927,0.017058247700333595,0.03471137210726738,-0.0198780819773674
9.3,-0.26987117528915405,0.26300716400146484,0.20219160616397858,-0.017101502045989037,0.04510822892189026,0.06780841946601868
9.35,-0.017147839069366455,0.3205900192260742,0.42300257086753845,0.01814280077815056,-0.030159279704093933,0.11296699941158295
9.4,-0.007051900029182434,0.148069366812706,0.4583401083946228,0.02836526371538639,0.0006637273472733796,0.052644580602645874
9.45,-0.09562073647975922,-0.056379321962594986,0.06704556196928024,-0.01341065764427185,0.0058015515096485615,0.04351507127285004
9.5,-0.08924856781959534,0.11203765869140625,-0.0354781411588192,-0.015902914106845856,-0.024580374360084534,0.05862768366932869
9.55,-0.18078547716140747,0.26177120208740234,0.12487777322530746,0.03286418318748474,-0.0055107371881604195,-0.01662163808941841
9.6,-0.10609570890665054,0.05773734301328659,0.16607695817947388,0.03200053051114082,0.007521950174123049,-0.07326271384954453
9.65,0.022026382386684418,-0.07942485809326172,0.07065781950950623,-0.0014295198488980532,-0.06897004693746567,0.012900535017251968
9.7,-0.12233792245388031,0.3122701644897461,0.18109682202339172,0.0026698214933276176,-0.07043258100748062,0.040389563888311386
9.75,-0.18703722953796387,0.20868299901485443,0.3667893409729004,0.0025121020153164864,-0.08039581775665283,-0.045327045023441315
9.8,-0.05066080391407013,0.1905374377965927,0.30693912506103516,-0.001559901051223278,-0.07862008363008499,-0.03542247414588928
9.85,-0.03598029538989067,0.22369670867919922,0.24331538379192352,-0.03608638048171997,-0.08089388906955719,-0.0049468050710856915
9.9,-0.09943336993455887,0.140287384390831,0.29735076427459717,-0.01955716870725155,-0.04279937967658043,-0.025600260123610497
9.95,-0.17760325968265533,0.09793948382139206,0.24162499606609344,-0.015546536073088646,-0.006575373467057943,-0.030552569776773453
10.0,-0.14817267656326294,0.12518976628780365,0.2266983836889267,-0.028351780027151108,-0.025302212685346603,-0.0039695617742836475
10.05,-0.1489952653646469,0.07687091082334518,0.23724371194839478,-0.03504299372434616,-0.012047319673001766,-0.0014538824325427413
10.1,-0.17903658747673035,0.1449556201696396,0.3485329747200012,-0.02759055234491825,0.009875320829451084,-0.01437882985919714
10.15,-0.14770075678825378,0.16307829320430756,0.24648834764957428,-0.018989626318216324,0.0007251253700815141,-0.015425167977809906
10.2,-0.2236706018447876,0.07529067248106003,0.16745905578136444,-0.016730358824133873,-0.008991158567368984,-0.015829643234610558
10.25,-0.2143091857433319,0.15623949468135834,0.36623865365982056,-0.015671182423830032,0.0017495113424956799,-0.010056359693408012
10.3,-0.14889368414878845,0.17405985295772552,0.2539667785167694,-0.011441643349826336,-0.004386003129184246,-0.030124157667160034
10.35,-0.18551480770111084,0.05339717119932175,0.25157880783081055,-0.014248658902943134,-0.020909514278173447,-0.029491577297449112
10.4,-0.16028572618961334,0.12534141540527344,0.1829061359167099,-0.014069147408008575,-0.014613499864935875,-0.022337378934025764
10.45,-0.1820380836725235,0.1789865344762802,0.29614806175231934,-0.010443776845932007,-0.00047220580745488405,-0.017097337171435356
10.5,-0.15960025787353516,0.13012026250362396,0.34634748101234436,-0.0043611591681838036,0.005963771138340235,-0.015311995521187782
10.55,-0.16958937048912048,0.10019778460264206,0.21246597170829773,-0.014397552236914635,0.0035045784898102283,-0.010316034778952599
10.6,-0.143032044172287,0.14488506317138672,0.20376551151275635,-0.01994098350405693,0.0006058349390514195,-0.003783772699534893
10.65,-0.18698163330554962,0.1566905826330185,0.2465737760066986,-0.011972099542617798,-0.0042091547511518,-0.01374778337776661
10.7,-0.14869233965873718,0.0746917650103569,0.21599550545215607,-0.0026324251666665077,-0.004183785058557987,-0.020405855029821396
10.75,-0.1477675586938858,0.14835070073604584,0.25212424993515015,-0.011303521692752838,-0.025609049946069717,-0.010121270082890987
10.8,-0.11855590343475342,0.16345690190792084,0.328097403049469,-0.0029035513289272785,-0.025777220726013184,-0.005137743428349495
10.85,-0.15150031447410583,0.15645694732666016,0.18098779022693634,-0.000981838908046484,0.0026874137111008167,-0.020170871168375015
10.9,-0.1420954167842865,0.07719611376523972,0.27187177538871765,-0.006008831784129143,-0.004675893113017082,-0.04021267220377922
10.95,-0.16651684045791626,0.13094042241573334,0.2809666395187378,-0.020192481577396393,-0.001433974364772439,-0.03625397011637688
11.0,-0.1551712155342102,0.15256689488887787,0.24458089470863342,-0.019047100096940994,0.022060733288526535,-0.03543573617935181
11.05,-0.16714107990264893,0.16851137578487396,0.39739829301834106,-0.0053548626601696014,0.03967616707086563,-0.028645621612668037
11.1,-0.15763388574123383,0.22814176976680756,0.2664540112018585,-0.020366106182336807,0.021041452884674072,-0.014048795215785503
11.15,-0.2559412717819214,0.14820383489131927,0.2658258378505707,-0.027149155735969543,-0.001621554372832179,-0.019110333174467087
11.2,-0.21625185012817383,0.09088515490293503,0.23258081078529358,-0.04087240993976593,0.01053400058299303,-0.025500556454062462
11.25,-0.15829986333847046,0.1893758624792099,0.2534864842891693,-0.036016158759593964,-0.022885918617248535,-0.008611487224698067
11.3,-0.22097241878509521,0.2473878711462021,0.2606426775455475,-0.03097100369632244,-0.03323540836572647,-0.014912580139935017
11.35,-0.14864256978034973,0.048646919429302216,0.21563830971717834,-0.02921445295214653,-0.04025562107563019,-0.016368040814995766
11.4,-0.14091959595680237,0.13588808476924896,0.2684555649757385,-0.01983284391462803,-0.01778695359826088,-0.0010931981960311532
11.45,-0.1457974910736084,0.1367940753698349,0.2938237190246582,-0.011272450909018517,0.0026126685552299023,-0.001905849319882691
11.5,-0.10087839514017105,0.10298823565244675,0.2654842436313629,-0.0070981173776090145,0.0048770844005048275,-0.0015626073582097888
11.55,-0.21532806754112244,0.11510084569454193,0.33334726095199585,-0.01715300977230072,0.0026274400297552347,0.0034861620515584946
11.6,-0.1800723373889923,0.10812757909297943,0.3375813364982605,-0.0032365110237151384,0.009892014786601067,-0.002422419609501958
11.65,-0.1587734967470169,0.09727572649717331,0.29943689703941345,0.019708149135112762,0.002318259095773101,-0.0068657128140330315
11.7,-0.1784711480140686,0.13786695897579193,0.30065223574638367,0.02089092880487442,-0.013082864694297314,-0.012268958613276482
11.75,-0.14002098143100739,0.11345004290342331,0.2623070478439331,0.029867131263017654,-0.014044837094843388,-0.00923739280551672
11.8,-0.12628675997257233,0.1448526233434677,0.31623950600624084,0.03569171577692032,-0.0001594844798091799,-0.013016396202147007
11.85,-0.16011250019073486,0.17122744023799896,0.2741461992263794,0.04646287113428116,0.004545979201793671,-0.01644102856516838
11.9,-0.09373214095830917,0.21597576141357422,0.13137874007225037,0.04369469732046127,0.0035394325386732817,-0.0026312079280614853
11.95,-0.14057929813861847,0.08691119402647018,0.2761014997959137,0.029866550117731094,-0.004901895299553871,-0.003428407246246934
12.0,-0.15852227807044983,0.12323188036680222,0.2850957214832306,0.041377075016498566,-0.015292109921574593,0.003941830713301897
12.05,-0.2003360092639923,0.21005819737911224,0.2971287965774536,0.034061260521411896,0.006433894392102957,0.0029265026096254587
12.1,-0.145033597946167,0.16479872167110443,0.337691992521286,0.022739823907613754,-0.0029065608978271484,-0.008658673614263535
12.15,-0.14000311493873596,0.13951490819454193,0.2741999626159668,0.0234223660081625,-0.01325303129851818,-0.002174427267163992
12.2,-0.1135651245713234,0.18901632726192474,0.2934616208076477,0.024062875658273697,-0.009756774641573429,0.006132176611572504
12.25,-0.1240546852350235,0.10619162768125534,0.33591869473457336,0.012387579306960106,-0.002440350828692317,-0.004773281514644623
12.3,-0.14790154993534088,0.14634989202022552,0.291379451751709,0.012449230998754501,-0.007262262981384993,-0.0005840358790010214
12.35,-0.1259477138519287,0.15848635137081146,0.29828619956970215,0.0117903221398592,-0.0144864022731781,0.0019297967664897442
12.4,-0.18495436012744904,0.12836836278438568,0.2797856628894806,0.016094624996185303,-0.0005118618719279766,-0.009122258983552456
12.45,-0.15969528257846832,0.16469381749629974,0.2916952669620514,0.018820475786924362,-0.0030454271472990513,-0.012097226455807686
12.5,-0.17635968327522278,0.16763590276241302,0.30873459577560425,0.01106909941881895,0.004509726073592901,-0.019543398171663284
12.55,-0.1369336098432541,0.16719435155391693,0.33001604676246643,0.011964051984250546,0.0048009371384978294,-0.031177571043372154
12.6,-0.1664981096982956,0.0873565599322319,0.31659963726997375,0.017839165404438972,-0.0037372440565377474,-0.02158171497285366
12.65,-0.21660448610782623,0.2214212268590927,0.22228315472602844,-0.001265344675630331,0.02372199110686779,-0.009052116423845291
12.7,-0.10718107223510742,0.10389899462461472,0.2717440724372864,-0.00725030479952693,0.005645485129207373,-0.01583709567785263
12.75,-0.1569862961769104,0.035565365105867386,0.28225189447402954,0.00047036068281158805,-0.0057593053206801414,0.0023930512834340334
12.8,-0.13550081849098206,0.17877577245235443,0.22934262454509735,-0.002975831739604473,-0.005609850399196148,0.0036986416671425104
12.85,-0.16461339592933655,0.1117095872759819,0.2922683656215668,-0.018604015931487083,-0.012202507816255093,-0.012471217662096024
12.9,-0.181623637676239,0.12188815325498581,0.25400200486183167,-0.008866535499691963,-0.007099756505340338,-0.018628861755132675
12.95,-0.13822154700756073,0.1088561937212944,0.3392311632633209,-0.01093161478638649,-0.014954444952309132,-0.00921886507421732
13.0,-0.13002334535121918,0.1847677081823349,0.2922481596469879,-0.010412231087684631,-0.0007808497757650912,-0.0025911666452884674
13.05,-0.15659214556217194,0.17212866246700287,0.293050616979599,-0.002841559238731861,0.0023536179214715958,0.0031301877461373806
13.1,-0.1373382955789566,0.1119527742266655,0.22231636941432953,0.0026166613679379225,-0.0075820088386535645,0.0013554024044424295
13.15,-0.12351121753454208,0.18935106694698334,0.29654088616371155,-0.010853043757379055,-0.005960449110716581,-0.0031323765870183706
13.2,-0.090192049741745,0.15500162541866302,0.3378762900829315,-0.0037875454872846603,-0.006929259281605482,0.008695988915860653
13.25,-0.1351461112499237,0.14465807378292084,0.2191435992717743,0.005662310402840376,0.014782832935452461,0.0032803297508507967
13.3,-0.15658943355083466,0.1514863818883896,0.23953011631965637,0.0007245959131978452,-0.0036963142920285463,-0.0006467745406553149
13.35,-0.14697377383708954,0.16610907018184662,0.28610944747924805,-0.010359426960349083,-0.009413747116923332,0.01243979949504137
13.4,-0.17406927049160004,0.14572428166866302,0.3247298300266266,-0.005923199467360973,-0.005111359525471926,0.009752344340085983
13.45,-0.13818666338920593,0.12977980077266693,0.3379196226596832,-0.0011805492686107755,0.00018066097982227802,-0.002646980807185173
13.5,-0.15764817595481873,0.14330194890499115,0.2632105350494385,-0.008747460320591927,-0.006750188767910004,0.002486657118424773
13.55,-0.13252021372318268,0.09519099444150925,0.24532295763492584,-0.009415607899427414,-0.013977749273180962,0.005007526371628046
13.6,-0.1653098464012146,0.09241389483213425,0.2605678141117096,-0.013303715735673904,-0.0014049096498638391,-0.0031967819668352604
13.65,-0.13361282646656036,0.1369771808385849,0.2914148271083832,-0.00571982329711318,-0.012073901481926441,0.0006542204646393657
13.7,-0.15635369718074799,0.13262270390987396,0.3082110583782196,-0.0008021689136512578,-0.007420407608151436,0.0026826774701476097
13.75,-0.14852948486804962,0.06657027453184128,0.3419496715068817,-0.014904162846505642,-0.0003175903402734548,-0.004074982833117247
13.8,-0.17990361154079437,0.09839724749326706,0.2111363410949707,-0.01713082194328308,0.006324714981019497,-0.007222844287753105
13.85,-0.14320102334022522,0.1872415393590927,0.2798823118209839,-0.014810537919402122,0.017752591520547867,0.008001021109521389
13.9,-0.15110327303409576,0.11226747930049896,0.3804328739643097,-0.0021849735639989376,0.009573881514370441,0.0005756886093877256
13.95,-0.1818518489599228,0.11574172228574753,0.2604970335960388,-0.012203739956021309,0.007251346949487925,0.0056622931733727455
14.0,-0.18523326516151428,0.20366095006465912,0.20946764945983887,-0.01965978369116783,-0.004476649221032858,0.015064092352986336
14.05,-0.1586390882730484,0.12743090093135834,0.31164661049842834,-0.007845073007047176,0.002492733998224139,-0.0030801850371062756
14.1,-0.1709040105342865,0.15357016026973724,0.35789379477500916,0.00046220957301557064,-0.002040855586528778,-0.00841306522488594
14.15,-0.21269385516643524,0.1483316272497177,0.3740219175815582,0.00526336207985878,-0.018064137548208237,-0.0009192843572236598
14.2,-0.0822463110089302,0.11517428606748581,0.3143964111804962,0.005858962889760733,0.019442254677414894,-0.017428657039999962
14.25,-0.15887236595153809,0.1207418292760849,0.4175817668437958,0.013463271781802177,0.05072246491909027,-0.03901780769228935
14.3,-0.15168897807598114,0.15967939794063568,0.34234297275543213,0.018944382667541504,0.053534068167209625,-0.045628149062395096
14.35,-0.15745863318443298,0.16794298589229584,0.28197038173675537,0.00687740184366703,0.04278023913502693,-0.06842835247516632
14.4,-0.106287881731987,0.08400439471006393,0.3524336814880371,0.013985851779580116,0.019890453666448593,-0.07423558831214905
14.45,-0.11443422734737396,0.031781189143657684,0.19018876552581787,0.02976207062602043,-0.0002523451403249055,-0.07168719917535782
14.5,-0.13250795006752014,0.22600649297237396,0.4643894135951996,0.02425851672887802,-0.0030521058943122625,-0.06506460905075073
14.55,-0.16332250833511353,0.24669168889522552,0.48889046907424927,0.02738199010491371,-0.018225518986582756,-0.07491528987884521
14.6,-0.2120850384235382,0.13850878179073334,0.46454760432243347,0.052376288920640945,-0.03199894726276398,-0.08650896698236465
14.65,-0.18778912723064423,0.09089945256710052,0.414588063955307,0.06340619921684265,-0.06418497860431671,-0.05962737277150154
14.7,-0.10238006711006165,0.11024855077266693,0.3791658878326416,0.0692281648516655,-0.0631960853934288,-0.058446142822504044
14.75,-0.13313555717468262,0.18978498876094818,0.49596479535102844,0.09005707502365112,-0.06746213883161545,-0.06530198454856873
14.8,-0.09451037645339966,0.2440614551305771,0.331906795501709,0.1101088747382164,-0.08464133739471436,-0.05116557329893112
14.85,-0.05892057716846466,0.15593813359737396,0.33773624897003174,0.1206115186214447,-0.0736226737499237,-0.04999096691608429
14.9,-0.07183071225881577,0.14569281041622162,0.3156385123729706,0.11331365257501602,-0.06662536412477493,-0.021785510703921318
14.95,-0.19035041332244873,0.20839594304561615,0.21958135068416595,0.08487467467784882,-0.06049709394574165,0.017132773995399475
15.0,-0.1965014934539795,0.2135629653930664,0.08097978681325912,0.08774564415216446,-0.052283965051174164,0.012671159580349922
15.05,-0.1605686992406845,0.019076339900493622,0.19092509150505066,0.07459299266338348,-0.05285533890128136,0.009086450561881065
15.1,-0.20517510175704956,-0.1039276197552681,0.24578656256198883,0.08375271409749985,-0.06257116794586182,0.042928654700517654
15.15,-0.3376747965812683,0.02722547948360443,0.41684502363204956,0.1033993661403656,-0.04077327623963356,0.06463658809661865
15.2,-0.442449688911438,-0.011531852185726166,0.6358075141906738,0.15795683860778809,-0.055458467453718185,0.06213107332587242
15.25,-0.4615337550640106,-0.06624414771795273,0.5868664979934692,0.2395109236240387,-0.052971068769693375,0.06678178906440735
15.3,-0.4359813630580902,-0.21168139576911926,0.6298549175262451,0.3077112138271332,-0.08055753260850906,0.07461921870708466
15.35,-0.5356277823448181,-0.5256547927856445,0.608558714389801,0.3909163475036621,-0.08678364753723145,0.09678063541650772
15.4,-0.644438624382019,-0.4985866844654083,0.6475296020507812,0.4896799325942993,-0.11826261878013611,0.16976282000541687
15.45,-0.6681539416313171,-0.0668192207813263,0.808276355266571,0.6063446402549744,-0.1921183317899704,0.21699176728725433
15.5,-0.35277608036994934,1.0408411026000977,0.9020156860351562,0.5891907811164856,-0.17848218977451324,0.20864857733249664
15.55,-0.18791960179805756,1.0117816925048828,0.6044775247573853,0.45058077573776245,-0.12161076068878174,0.10026264935731888
15.6,0.15939441323280334,0.5141563415527344,-0.4607142210006714,0.4137333035469055,-0.13115717470645905,-0.052179593592882156
15.65,0.25713562965393066,0.4127855598926544,-1.1551709175109863,0.1901659071445465,-0.17188385128974915,-0.14312845468521118
15.7,0.28212279081344604,0.5518865585327148,-0.9003539085388184,0.023358508944511414,-0.21561549603939056,-0.18212085962295532
15.75,0.5354863405227661,0.8594837188720703,-0.6610310673713684,-0.11327303946018219,-0.18670570850372314,-0.20573674142360687
15.8,0.7360612154006958,0.8039121627807617,-0.2512310743331909,-0.28418636322021484,-0.1387295126914978,-0.26121601462364197
15.85,0.9491449594497681,1.0607433319091797,0.02961433120071888,-0.49622511863708496,-0.0022103236988186836,-0.2542417049407959
15.9,0.4624023139476776,0.24098969995975494,-0.07331442087888718,-0.6697708964347839,0.2419252097606659,-0.24990716576576233
15.95,0.23207780718803406,-0.24768829345703125,-0.1530093252658844,-0.7310667634010315,0.3589051365852356,-0.1674438863992691
16.0,0.1128641813993454,-0.17423057556152344,-0.03935018181800842,-0.7127683758735657,0.3461175262928009,-0.10542293637990952
16.05,-0.21494385600090027,-0.13878250122070312,0.0827048122882843,-0.6404997706413269,0.21781130135059357,-0.17787331342697144
16.1,-0.26606136560440063,-0.2545185089111328,0.18747259676456451,-0.5089035630226135,0.1719183623790741,-0.23371106386184692
16.15,-0.06783003360033035,-0.3424386978149414,0.27819252014160156,-0.31479084491729736,0.17086145281791687,-0.22579452395439148
16.2,-0.15890419483184814,-0.5065736770629883,0.4543565511703491,-0.1360815018415451,0.16372163593769073,-0.144667387008667
16.25,-0.2816956043243408,-0.11451150476932526,0.3857255280017853,-0.05451420694589615,0.13741064071655273,-0.052345164120197296
16.3,-0.49195918440818787,0.27488991618156433,0.5375685691833496,-0.029332753270864487,0.11939214169979095,-0.012522321194410324
16.35,-0.3579829931259155,0.43329426646232605,0.5910236835479736,-0.057235237210989,0.17283496260643005,-0.00843107234686613
16.4,-0.3373599648475647,0.1414346545934677,0.448868066072464,-0.11879782378673553,0.13514986634254456,-4.060163701069541e-05
16.45,-0.28463149070739746,-0.04373838007450104,0.3874744772911072,-0.0676809772849083,0.11298282444477081,-0.004162576515227556
16.5,-0.24399587512016296,-0.02029515616595745,0.3663971722126007,-0.03761420026421547,0.09060528129339218,-0.004112965427339077
16.55,-0.2095552384853363,0.12241362780332565,0.3091041147708893,0.003979373257607222,0.06690254807472229,0.01578505150973797
16.6,-0.2003241628408432,0.122069351375103,0.23485705256462097,0.0377580001950264,0.047448717057704926,0.03428526967763901
16.65,-0.17608384788036346,0.21399305760860443,0.2821544408798218,0.021064231172204018,0.02657894231379032,0.04366780072450638
16.7,-0.11483675241470337,0.1524362564086914,0.19996115565299988,0.014649203047156334,0.0228568185120821,0.038966283202171326
16.75,-0.044143177568912506,0.04706096276640892,0.10502927750349045,0.029558569192886353,-0.0015514376573264599,0.014786065556108952
16.8,-0.046537239104509354,0.06463336199522018,0.1296495795249939,0.053331390023231506,-0.011603722348809242,0.0009385101730003953
16.85,0.03478403389453888,0.1204376146197319,0.2436899095773697,0.049233563244342804,-0.017895830795168877,0.009593219496309757
16.9,0.016056377440690994,0.11184405535459518,0.17458854615688324,0.024911127984523773,-0.004352819640189409,0.024242214858531952
16.95,0.008409112691879272,0.06653594225645065,0.20865169167518616,0.043039966374635696,-0.009909223765134811,0.021377967670559883
17.0,-0.029590334743261337,0.21537399291992188,0.15647265315055847,0.05370267853140831,0.021114451810717583,0.020938413217663765
17.05,-0.041034091264009476,0.11145400255918503,0.16395190358161926,0.03222597762942314,0.013791041448712349,0.01638808473944664
17.1,-0.0725165605545044,0.10025977343320847,0.20084744691848755,0.03635229170322418,0.006932629272341728,-0.0010404863860458136
17.15,0.011285882443189621,0.2214221954345703,0.13432277739048004,0.03340384364128113,0.0038640196435153484,0.015864666551351547
17.2,0.0612628236413002,0.3023824691772461,0.1127924993634224,0.004985989071428776,0.026679297909140587,0.014315971173346043
17.25,-0.014753684401512146,0.10079001635313034,0.26924949884414673,0.024032417684793472,0.029135841876268387,-0.021962255239486694
17.3,-0.07352685928344727,0.17859363555908203,0.10568911582231522,-0.006200822535902262,0.035083554685115814,0.003764971625059843
17.35,-0.09639822691679001,0.1035613939166069,0.22379367053508759,-0.0025708614848554134,0.009183399379253387,-0.00872277095913887
17.4,-0.018687017261981964,0.1879749298095703,0.1742761731147766,-0.0006066774949431419,0.0071867541410028934,-0.009832355193793774
17.45,-0.059995152056217194,0.18198108673095703,0.2028016448020935,0.007513690739870071,0.004038162063807249,-0.018434664234519005
17.5,-0.15715190768241882,0.17278099060058594,0.1916639804840088,0.014918748289346695,-0.003210116410627961,-0.020932860672473907
17.55,-0.07857641577720642,0.16765975952148438,0.09051903337240219,-0.012061398476362228,-0.031734973192214966,-0.008998042903840542
17.6,-0.026312127709388733,0.12247180193662643,0.13182786107063293,-0.008382480591535568,-0.020717063918709755,-0.010106776840984821
17.65,-0.051742203533649445,0.15371322631835938,0.16321668028831482,-0.004302557557821274,-0.007676092907786369,-0.030633611604571342
17.7,-0.033171214163303375,0.15777969360351562,0.0959717407822609,-0.0177810899913311,-0.02468988113105297,-0.015388335101306438
17.75,-0.003103099763393402,0.18581867218017578,0.19336910545825958,-0.010307032614946365,-0.02813604474067688,-0.012296642176806927
17.8,-0.030316565185785294,0.1037740632891655,0.13656429946422577,-0.016631871461868286,-0.018593857064843178,-0.0245529655367136
17.85,-0.039216961711645126,0.09943484514951706,0.16514858603477478,-0.01183631457388401,-0.0014431230956688523,-0.018487125635147095
17.9,-0.08394409716129303,0.2013864517211914,0.16556371748447418,-0.008657271042466164,-0.01897279918193817,-0.01783338189125061
17.95,-0.027665041387081146,0.20688438415527344,0.15238389372825623,-0.016661057248711586,-0.014668282121419907,-0.0026460266672074795
18.0,-0.016901977360248566,0.11374472826719284,0.21126380562782288,-0.014639327302575111,0.015391137450933456,-0.00475288275629282
18.05,-0.02755862846970558,0.10730647295713425,0.20506508648395538,-0.005749695003032684,0.013482502661645412,-0.0019151907181367278
18.1,0.00646895170211792,0.08212756365537643,0.16364124417304993,0.0009373822249472141,0.028751574456691742,0.019364163279533386
18.15,-0.03861061483621597,0.12950706481933594,0.07158992439508438,0.005501359701156616,0.038312237709760666,0.03069588541984558
18.2,-0.07759640365839005,0.20939922332763672,0.21999363601207733,0.04009213671088219,0.017743945121765137,-0.0023923120461404324
18.25,-0.2539031207561493,0.20023059844970703,-0.036242321133613586,0.062131643295288086,-0.05614936351776123,-0.022031763568520546
18.3,-0.0032823197543621063,0.20598411560058594,0.10550176352262497,0.04618799313902855,-0.08082281053066254,-0.046495694667100906
18.35,0.07742561399936676,0.1201772689819336,0.15317435562610626,0.055201053619384766,-0.09495015442371368,-0.045916877686977386
18.4,0.04295121133327484,0.12288475036621094,0.07997536659240723,0.047987423837184906,-0.08663731813430786,-0.09066200256347656
18.45,0.05813754349946976,0.1210165023803711,0.052462849766016006,0.0528474897146225,-0.09211862832307816,-0.09676261246204376
18.5,-0.009160587564110756,0.1017770767211914,0.0773886889219284,0.02466658502817154,-0.09509853273630142,-0.07909954339265823
18.55,0.009974850341677666,0.17658615112304688,0.06863236427307129,0.02849036455154419,-0.12071630358695984,-0.08708920329809189
18.6,0.10095121711492538,0.1456441879272461,0.06162681430578232,-0.001390332356095314,-0.1344473659992218,-0.07295473664999008
18.65,0.07071014493703842,0.21231365203857422,0.08754604309797287,-0.03845737874507904,-0.11721479892730713,-0.058607347309589386
18.7,0.0042127580381929874,0.13757610321044922,0.019432831555604935,-0.0441913902759552,-0.10376179218292236,-0.09122663736343384
18.75,-0.036427173763513565,0.17134857177734375,0.07601345330476761,-0.047676004469394684,-0.08276467025279999,-0.09566131979227066
18.8,-0.06663324683904648,0.1088399887084961,0.06678057461977005,-0.06467212736606598,-0.06766156107187271,-0.08731108903884888
18.85,-0.018973972648382187,0.11949539184570312,0.04968864843249321,-0.05385633558034897,-0.08059624582529068,-0.10285472869873047
18.9,-0.05549450218677521,0.20217609405517578,0.04552342742681503,-0.0735793188214302,-0.06489892303943634,-0.11460436135530472
18.95,-0.03675922006368637,0.12908171117305756,0.2633528411388397,-0.08121247589588165,-0.07462888211011887,-0.13168597221374512
19.0,-0.08026990294456482,0.22393129765987396,0.2433939278125763,-0.06558793783187866,-0.07415062189102173,-0.14422163367271423
19.05,-0.034946732223033905,0.2940635681152344,0.3659575879573822,-0.05829840153455734,-0.03481140732765198,-0.16614894568920135
19.1,0.014911338686943054,0.19811438024044037,0.2905653417110443,-0.06926525384187698,-0.03716786205768585,-0.1537950336933136
19.15,-0.02298729494214058,-0.07114220410585403,0.1407347023487091,-0.10147343575954437,-0.03538130596280098,-0.1442146599292755
19.2,-0.09266890585422516,0.09520529955625534,0.2968308925628662,-0.08550805598497391,0.0008274713181890547,-0.12480460852384567
19.25,-0.07661452144384384,0.2252969592809677,0.4771626591682434,-0.07451537251472473,-0.0066268485970795155,-0.08949512988328934
19.3,0.08016213029623032,0.1863250732421875,0.2556348443031311,-0.10667065531015396,0.009054871276021004,-0.057132475078105927
19.35,0.011790573596954346,-0.016681678593158722,0.24869662523269653,-0.13168556988239288,0.010349801741540432,-0.003918978851288557
19.4,-0.15628346800804138,0.1935882419347763,0.3257351517677307,-0.0827862024307251,-0.03504122421145439,0.04321731626987457
19.45,-0.12930792570114136,0.1965656280517578,0.11864529550075531,-0.06278246641159058,-0.03473997488617897,0.026603026315569878
19.5,-0.025761304423213005,-0.01194858830422163,0.10210032016038895,-0.060943603515625,-0.03250940889120102,0.013794978149235249
19.55,-0.02389366924762726,-0.05088711529970169,0.3004130721092224,0.021517574787139893,-0.014816914685070515,0.05988224595785141
19.6,-0.23716408014297485,0.08340167254209518,0.10729670524597168,0.03801179677248001,0.043356556445360184,0.09229473769664764
19.65,-0.2936580777168274,0.19229412078857422,-0.10329420119524002,0.0666104182600975,0.00024079761351458728,0.047900520265102386
19.7,-0.10957010090351105,0.10669612139463425,0.1450486183166504,0.07612665742635727,-0.0417388491332531,0.03407701104879379
19.75,0.01827862113714218,0.2046975940465927,0.33824461698532104,0.07871292531490326,-0.010771735571324825,0.044491082429885864
19.8,0.05602288991212845,0.18819236755371094,0.2514186501502991,0.10825914144515991,-0.0037270814646035433,0.03258870169520378
