Time [s],Acc_x [m/s^2],Acc_y [m/s^2],Acc_z [m/s^2],Gyro_x [1/s],Gyro_y [1/s],Gyro_z [1/s]
0.0,-0.4009670615196228,-0.5040826797485352,0.6482914090156555,-0.27583786845207214,0.022182459011673927,-0.1070450022816658
0.05,-0.3104107975959778,-0.3596506416797638,0.4563935399055481,-0.23700398206710815,0.009629630483686924,-0.09797918796539307
0.1,0.020936626940965652,0.37737178802490234,-0.1033136248588562,0.04204801470041275,-0.0728878378868103,-0.027853097766637802
0.15,0.16680563986301422,0.42813587188720703,-0.1511368453502655,0.08085502684116364,-0.024301741272211075,0.009665865451097488
0.2,0.20621876418590546,0.257293701171875,0.009386289864778519,-0.02388722449541092,0.07848495244979858,-0.020532449707388878
0.25,0.13871031999588013,-0.22667407989501953,0.07667780667543411,-0.0862114280462265,0.16046877205371857,-0.011630858294665813
0.3,-0.034495044499635696,-0.25475406646728516,-0.010599502362310886,-0.12272434681653976,0.2046017348766327,0.010169507004320621
0.35,-0.11892475932836533,-0.47891902923583984,0.3174533545970917,-0.09774795919656754,0.16890811920166016,0.041124191135168076
0.4,-0.18293501436710358,-0.00042343346285633743,0.023381277918815613,0.056670837104320526,0.10089602321386337,0.034497227519750595
0.45,-0.39152589440345764,0.3127012252807617,-0.06633524596691132,0.0695914775133133,0.09353289008140564,-0.030850671231746674
0.5,-0.3709885776042938,0.3408021926879883,0.23638246953487396,0.022676952183246613,0.10713592916727066,-0.04151123762130737
0.55,-0.131011962890625,0.3804445266723633,0.1596839874982834,0.01816839724779129,0.030329013243317604,0.006996370851993561
0.6,0.03853356093168259,0.15340137481689453,0.12024185061454773,-0.07173575460910797,0.021700553596019745,-0.0026934549678117037
0.65,-0.09147840738296509,0.03157709911465645,0.3051106631755829,0.0056364648044109344,-0.009454699233174324,0.0032294888515025377
0.7,0.2075241208076477,0.08725261688232422,0.162741556763649,0.07191401720046997,-0.07801342010498047,0.050215039402246475
0.75,0.13783526420593262,-0.03229999169707298,-0.0539398156106472,0.015142688527703285,0.00289932987652719,0.015898773446679115
0.8,-0.10197804868221283,-0.15213775634765625,0.17118623852729797,0.01860184222459793,0.0663471445441246,-0.011593293398618698
0.85,-0.17725476622581482,0.10415171831846237,0.1388162523508072,0.10116995126008987,0.04456927627325058,0.0024554706178605556
0.9,-0.22003662586212158,0.22040653228759766,0.08954507857561111,0.06792216747999191,0.06907948106527328,0.0004917422193102539
0.95,-0.19318169355392456,0.3964252471923828,0.09880286455154419,0.042569346725940704,0.07787832617759705,-0.021337032318115234
1.0,-0.2099170684814453,0.19728563725948334,0.23096522688865662,0.01582936942577362,0.07397236675024033,-0.014262281358242035
1.05,-0.12543675303459167,0.10875415056943893,0.20259158313274384,0.023989085108041763,0.049075715243816376,-0.015583298169076443
1.1,-0.17808179557323456,0.06815718859434128,0.1569681614637375,0.008152136579155922,0.03994370251893997,-0.011086185462772846
1.15,-0.0871683806180954,0.21031951904296875,0.14133089780807495,-0.006303589325398207,0.025267865508794785,-0.001074183383025229
1.2,-0.02857028692960739,0.18223857879638672,0.029214520007371902,-0.03533365949988365,0.03519660606980324,-0.009403913281857967
1.25,-0.10825714468955994,0.13058948516845703,0.15628598630428314,-0.0667693167924881,0.057514388114213943,-0.011077744886279106
1.3,-0.10052912682294846,0.01089763268828392,0.09176648408174515,-0.06184183806180954,0.031769298017024994,0.015624587424099445
1.35,-0.02397225610911846,-0.00281811086460948,0.10435882955789566,-0.014485141262412071,0.0034151063300669193,0.04296549782156944
1.4,-0.020663684234023094,0.10198497772216797,0.012197867967188358,0.023671550676226616,0.035916488617658615,0.044658225029706955
1.45,-0.047216206789016724,0.15001964569091797,0.08953366428613663,0.04252196475863457,0.09078849107027054,0.02389015443623066
1.5,-0.010264649987220764,0.11172961443662643,0.1465933471918106,-0.023781724274158478,0.17079560458660126,-0.005907103884965181
1.55,-0.038623612374067307,0.28438854217529297,0.2897888422012329,0.030501045286655426,0.20906998217105865,-0.03103535994887352
1.6,0.319021999835968,0.5260000228881836,0.028165284544229507,0.1284617781639099,0.25095921754837036,-0.07748246937990189
1.65,0.7642497420310974,0.39567089080810547,-0.22904637455940247,-0.010841796174645424,0.4264816641807556,-0.11023826152086258
1.7,0.5680860280990601,-0.15990827977657318,-0.17170031368732452,-0.2808131277561188,0.6834402084350586,-0.09955662488937378
1.75,0.2946811616420746,-0.49289608001708984,-0.11985916644334793,-0.24292799830436707,0.8171596527099609,-0.047355759888887405
1.8,-0.20320148766040802,-0.020548826083540916,0.13374286890029907,0.029245316982269287,0.8602319955825806,0.007225732784718275
1.85,-0.6057256460189819,0.31140804290771484,0.3180276155471802,0.09315519034862518,0.7947983741760254,0.03243342787027359
1.9,-0.6011286377906799,0.4387159049510956,0.370758593082428,0.014321679249405861,0.7036504745483398,0.0037645462434738874
1.95,-0.5540549755096436,0.21652697026729584,0.1326761245727539,-0.12577024102210999,0.6339565515518188,-0.009335806593298912
2.0,-0.41631051898002625,-0.1741199493408203,0.09872640669345856,-0.15974394977092743,0.5477198362350464,-0.005264441017061472
2.05,-0.40931546688079834,-0.20655155181884766,-0.09322934597730637,-0.03952190279960632,0.49156007170677185,-0.0517086535692215
2.1,-0.452730655670166,0.061151497066020966,0.1140066385269165,0.10148514062166214,0.4317787289619446,-0.06901582330465317
2.15,-0.39964956045150757,0.1812867969274521,0.42655885219573975,0.14034903049468994,0.40115082263946533,-0.0719946026802063
2.2,-0.45668667554855347,0.10046671330928802,0.3097810745239258,0.04881225898861885,0.3378506898880005,-0.039160244166851044
2.25,-0.46884685754776,0.06775186210870743,0.5353127121925354,-0.03713657706975937,0.18785950541496277,-0.015198113396763802
2.3,-0.3304781913757324,0.27675437927246094,-0.2241145223379135,0.008816402405500412,0.01184060238301754,0.004388965200632811
2.35,-0.23213937878608704,0.14570331573486328,-0.20282921195030212,0.04640320688486099,-0.04344572871923447,-0.00021650585404131562
2.4,-0.10785870254039764,-0.0028028488159179688,-0.024396764114499092,0.03842994570732117,-0.07736103236675262,0.024784503504633904
2.45,-0.12458660453557968,-0.02459430694580078,-0.008666913025081158,0.08978752791881561,-0.10953304171562195,0.062411777675151825
2.5,-0.05240964889526367,-0.025013921782374382,-0.09637599438428879,0.12905222177505493,-0.14564894139766693,0.055503297597169876
2.55,0.07722654938697815,-0.02066612057387829,-0.017392655834555626,0.15187840163707733,-0.16033200919628143,-0.014194545336067677
2.6,0.1624995619058609,-0.11098384857177734,0.13274115324020386,0.139495387673378,-0.1746428906917572,-0.04630747810006142
2.65,-0.014793194830417633,-0.06418322771787643,-0.1414981335401535,0.12463077157735825,-0.18368782103061676,-0.023290442302823067
2.7,-0.30456995964050293,0.17583370208740234,0.07040426135063171,0.16496214270591736,-0.1683889627456665,-0.001555082737468183
2.75,-0.6495506167411804,0.5743932723999023,0.27721336483955383,0.16878873109817505,-0.19384683668613434,0.007307792082428932
2.8,-0.37194812297821045,1.0374765396118164,0.09482797980308533,0.12252268195152283,-0.3116811513900757,0.03399762138724327
2.85,0.09191307425498962,0.8222789764404297,-0.23624564707279205,-0.15035657584667206,-0.384962260723114,0.060579366981983185
2.9,0.46770763397216797,0.22841550409793854,-0.25716662406921387,-0.3879549503326416,-0.34830594062805176,0.07768131047487259
2.95,0.5906774997711182,-0.10447405278682709,-0.30795979499816895,-0.4046052098274231,-0.27788951992988586,0.13207732141017914
3.0,0.5777651071548462,-0.14791010320186615,-0.12184078246355057,-0.24191632866859436,-0.21817535161972046,0.1798638105392456
3.05,0.24012166261672974,0.14489078521728516,0.24306020140647888,-0.031522899866104126,-0.1669347584247589,0.13069526851177216
3.1,0.22795704007148743,0.6705026626586914,0.3306175172328949,-0.018076065927743912,-0.15458711981773376,0.13077743351459503
3.15,0.15149933099746704,0.5857677459716797,0.3490205407142639,-0.2256069928407669,-0.13465633988380432,0.20597995817661285
3.2,0.0613320954144001,0.025664333254098892,-0.12871746718883514,-0.3902286887168884,-0.14390717446804047,0.2948530316352844
3.25,0.0873948484659195,-0.1002645492553711,0.044735267758369446,-0.39545345306396484,-0.12331614643335342,0.28266558051109314
3.3,-0.044210899621248245,0.11843966692686081,0.14776885509490967,-0.21658872067928314,-0.15538948774337769,0.2972921133041382
3.35,-0.23890845477581024,0.4284048080444336,-0.026000062003731728,-0.12980972230434418,-0.20613054931163788,0.3425946533679962
3.4,-0.1957666128873825,0.2899141311645508,-0.24510802328586578,-0.19545559585094452,-0.2189943939447403,0.3403080105781555
3.45,-0.38031089305877686,-0.40996837615966797,-0.16889722645282745,-0.29729539155960083,-0.1707981824874878,0.3250480890274048
3.5,-0.3474816381931305,-0.9308290481567383,-0.08922941237688065,-0.28993847966194153,-0.1554415076971054,0.25490400195121765
3.55,0.027932366356253624,-0.6209287643432617,-0.06773630529642105,-0.07613304257392883,-0.1623426079750061,0.12120621651411057
3.6,0.11691625416278839,-0.011276240460574627,-0.12010881304740906,0.0701230838894844,-0.10530415177345276,0.03744342923164368
3.65,-0.16945604979991913,0.24302387237548828,-0.17397037148475647,0.04451678693294525,-0.04387890547513962,0.04545095935463905
3.7,-0.17625080049037933,0.28954029083251953,0.037975337356328964,0.05300584062933922,-0.03742409870028496,0.02618986740708351
3.75,-0.016052665188908577,0.20612049102783203,0.04896632209420204,0.07365106046199799,-0.04444877430796623,0.022782031446695328
3.8,0.08850857615470886,0.11164189130067825,-0.13200731575489044,0.07583294063806534,-0.04139677807688713,0.03186717629432678
3.85,0.06971076875925064,-0.1684741973876953,-0.2233859896659851,0.018511949107050896,-0.0038088865112513304,0.026041675359010696
3.9,-0.1069985181093216,-0.13000011444091797,-0.06180896982550621,0.0774909183382988,0.016166791319847107,0.033893294632434845
3.95,-0.033629223704338074,0.24755382537841797,-0.055768247693777084,0.14874421060085297,0.008189331740140915,0.03615834191441536
4.0,-0.08960399031639099,0.4710578918457031,-0.13548077642917633,0.08220511674880981,0.017177514731884003,0.02075343206524849
4.05,-0.130635604262352,0.2649221420288086,0.01689104363322258,-0.05644368380308151,0.03507881611585617,0.021493038162589073
4.1,-0.07547309994697571,0.13140010833740234,0.06888359040021896,-0.05460542440414429,0.02926681376993656,0.035334810614585876
4.15,-0.12379112839698792,0.13917827606201172,-0.13092628121376038,-0.033521618694067,0.02804485522210598,0.03535851091146469
4.2,-0.2208326905965805,0.1696939468383789,-0.03295232728123665,-0.05030939728021622,0.035224899649620056,0.0024210589472204447
4.25,-0.20011097192764282,0.1262044906616211,0.06296785920858383,-0.1073741540312767,-0.003713589394465089,0.014628570526838303
4.3,-0.2702370285987854,0.06528758257627487,0.07004427909851074,-0.17315396666526794,-0.06788371503353119,0.042521893978118896
4.35,-0.16401396691799164,0.08658981323242188,-0.07467243075370789,-0.09309518337249756,-0.12223349511623383,0.06898849457502365
4.4,0.040163248777389526,0.059967994689941406,-0.014627614058554173,-0.005398908630013466,-0.13779379427433014,0.06823114305734634
4.45,-0.01049230806529522,0.1446523666381836,0.0088961161673069,0.04534928500652313,-0.13521388173103333,0.03461141511797905
4.5,0.019816886633634567,0.05715751275420189,0.14744912087917328,0.046451207250356674,-0.13227489590644836,0.02108561247587204
4.55,0.060278017073869705,-0.047524452209472656,-0.000959301833063364,0.04021790623664856,-0.1255539357662201,-0.009267132729291916
4.6,0.03809739276766777,0.04967213049530983,-0.07402967661619186,0.0192904993891716,-0.10429516434669495,-0.03802260756492615
4.65,0.014360733330249786,0.03498363867402077,-0.18006731569766998,-0.02305135503411293,-0.0651712492108345,-0.044114671647548676
4.7,0.09219461679458618,0.04073810949921608,-0.14243893325328827,-0.024007946252822876,-0.03367530182003975,-0.026841571554541588
4.75,0.0514838732779026,0.042043689638376236,-0.1196129098534584,0.022948062047362328,-0.005997658707201481,-0.025061268359422684
4.8,-0.1567385047674179,0.3154325485229492,0.05760306119918823,0.12301262468099594,0.022084806114435196,-0.04514320567250252
4.85,-0.04028603062033653,0.36521244049072266,-0.04444819688796997,0.20009049773216248,0.022938380017876625,-0.03233760595321655
4.9,0.1373119056224823,0.15908528864383698,-0.29721757769584656,0.1299239844083786,0.04466553032398224,-0.05156909301877022
4.95,0.1767207682132721,-0.028894416987895966,-0.2414938509464264,0.0796331837773323,0.11291506886482239,-0.08443650603294373
5.0,0.13815069198608398,-0.21538637578487396,-0.2629890441894531,0.08721431344747543,0.21057097613811493,-0.05908773094415665
5.05,-0.09426824748516083,-0.5113363265991211,-0.052941836416721344,0.1419581174850464,0.2993679940700531,0.004426065366715193
5.1,-0.2810992896556854,-0.30675315856933594,0.13757240772247314,0.1856970489025116,0.307875394821167,0.07316374033689499
5.15,-0.20251719653606415,0.37688159942626953,0.33695900440216064,0.2327243685722351,0.2320590615272522,0.02589191496372223
5.2,-0.2816043496131897,0.6553106307983398,-0.09309280663728714,0.12970300018787384,0.16973751783370972,-0.08137424290180206
5.25,-0.25251027941703796,0.35661792755126953,-0.13841594755649567,-0.019336698576807976,0.14591248333454132,-0.09797511994838715
5.3,0.07419580221176147,-0.18400190770626068,-0.28335192799568176,0.018599584698677063,0.12661179900169373,-0.050159867852926254
5.35,-0.11716944724321365,-0.3073148727416992,0.029061824083328247,0.059150923043489456,0.16792136430740356,-0.032089319080114365
5.4,-0.22151903808116913,0.05422018840909004,0.3938485383987427,0.14445430040359497,0.15422387421131134,-0.034953150898218155
5.45,-0.22963465750217438,0.5935029983520508,0.1397659182548523,0.1839519888162613,0.09027145802974701,-0.010459651239216328
5.5,-0.1648469716310501,0.611659049987793,0.04157521575689316,0.02567591704428196,0.03693337365984917,0.00807240605354309
5.55,-0.0339040607213974,0.19750118255615234,-0.1336575597524643,-0.07428209483623505,0.011258793994784355,0.019960710778832436
5.6,-0.030126143246889114,-0.1408681869506836,-0.15946055948734283,-0.05936368554830551,0.027101071551442146,0.02883586660027504
5.65,-0.08527406305074692,-0.13253498077392578,-0.055004093796014786,-0.02147028222680092,0.04035225883126259,-0.009679756127297878
5.7,-0.04254341125488281,0.00501346355304122,0.07456863671541214,0.04519190266728401,0.03269021958112717,-0.022516893222928047
5.75,-0.036230213940143585,0.1539907455444336,-0.07380291074514389,0.08807922154664993,0.012496384792029858,-0.021189255639910698
5.8,-0.025417597964406013,0.1442241668701172,0.08597805351018906,0.05212275683879852,0.03312736377120018,-0.015743277966976166
5.85,0.17708152532577515,0.08881568908691406,0.055384114384651184,0.02153122052550316,0.03518471494317055,-0.010574731975793839
5.9,-0.014956274069845676,0.05329608917236328,0.012162713333964348,-0.017487334087491035,0.03670625761151314,-0.03386827930808067
5.95,-0.11628389358520508,0.03543377295136452,-0.10461950302124023,0.015583150088787079,0.02174733206629753,-0.03664349392056465
6.0,-0.017191100865602493,0.07532215118408203,-0.08311334252357483,0.11948832124471664,-0.0011592297814786434,-0.01828538067638874
6.05,0.06703438609838486,0.0637044906616211,0.06803668290376663,0.13414286077022552,-0.00932722445577383,-0.047258369624614716
6.1,-0.2274860441684723,0.29540157318115234,-0.16368432343006134,0.11114466190338135,-0.037539493292570114,-0.03236094489693642
6.15,-0.26710575819015503,0.22885417938232422,-0.18642248213291168,0.06839742511510849,-0.029367657378315926,0.0035913512110710144
6.2,-0.3253074288368225,0.049391742795705795,0.029579753056168556,0.04008103534579277,-0.06173510104417801,0.0025819633156061172
6.25,-0.16639195382595062,-0.0055360798723995686,-0.03431563451886177,0.025517215952277184,-0.12577292323112488,-0.03315543383359909
6.3,-0.21726621687412262,0.2080249786376953,0.10765360295772552,0.12910957634449005,-0.16133660078048706,-0.07473524659872055
6.35,-0.06149904429912567,0.18842792510986328,0.004780106246471405,0.12374099344015121,-0.18428707122802734,-0.04701292887330055
6.4,-0.03438684344291687,0.3032808303833008,0.18228130042552948,0.027176739647984505,-0.1770780086517334,0.0035978411324322224
6.45,0.03471710532903671,0.45868968963623047,0.17981085181236267,-0.03144407272338867,-0.17330002784729004,0.041043370962142944
6.5,-0.11172344535589218,0.4066648483276367,0.15439049899578094,-0.12497008591890335,-0.1936843991279602,0.07027897238731384
6.55,-0.0905495434999466,0.2657346725463867,0.12529407441616058,-0.22275309264659882,-0.2176913619041443,0.04478756710886955
6.6,0.04747997969388962,0.07058239728212357,-0.24705778062343597,-0.27964386343955994,-0.22752809524536133,0.07253801077604294
6.65,-0.07655955106019974,-0.17102718353271484,-0.14014901220798492,-0.2935224175453186,-0.19351455569267273,0.0739007443189621
6.7,-0.03713013604283333,0.04375744238495827,-0.180009126663208,-0.20574916899204254,-0.20321011543273926,0.029162747785449028
6.75,0.10872901976108551,0.09393025189638138,-0.1368190199136734,-0.13093005120754242,-0.17444586753845215,0.031166285276412964
6.8,0.02230054698884487,0.22384166717529297,0.11628449708223343,-0.11332236975431442,-0.12135779857635498,0.063043013215065
6.85,-0.015925437211990356,0.11911869794130325,-0.18662722408771515,-0.1858893185853958,-0.10882212221622467,0.07541963458061218
6.9,0.004684070125222206,-0.21670913696289062,-0.13658541440963745,-0.21200905740261078,-0.10800893604755402,0.03488053008913994
6.95,-0.14003755152225494,-0.11690331250429153,0.24458862841129303,-0.11656048893928528,-0.1152808666229248,-0.018930576741695404
7.0,-0.03282289206981659,0.10219479352235794,-0.23631742596626282,0.009355559945106506,-0.1587565541267395,0.002506693359464407
7.05,0.06346850097179413,0.16130924224853516,-0.13103580474853516,0.05216578021645546,-0.12412446737289429,-0.023842591792345047
7.1,0.123581662774086,-0.05314349755644798,-0.1054610162973404,-0.04712133854627609,-0.06809084862470627,-0.04831873998045921
7.15,0.03136317804455757,0.028767582029104233,0.12983715534210205,-0.027633149176836014,-0.05706076696515083,-0.07445387542247772
7.2,0.061633381992578506,0.04725170135498047,0.007129292469471693,0.01762971468269825,-0.06577825546264648,-0.05552176013588905
7.25,-0.02987806499004364,0.1544647216796875,-0.02327624149620533,-0.02057175524532795,-0.04908152297139168,-0.05234406515955925
7.3,0.040339864790439606,0.21686744689941406,-0.22207747399806976,0.012166694737970829,-0.040341392159461975,-0.03278664872050285
7.35,0.03077736869454384,0.1788492202758789,-0.1536259800195694,0.04458708316087723,0.0069411080330610275,-0.014517326839268208
7.4,-0.06338155269622803,-0.11264801025390625,-0.07081511616706848,0.043205730617046356,0.02794688381254673,-0.02001294493675232
7.45,-0.08656011521816254,-0.18718527257442474,-0.33232346177101135,0.08423573523759842,0.035808347165584564,-0.03602142632007599
7.5,-0.4504561126232147,-0.07131289690732956,-0.2692687213420868,0.13484637439250946,0.07552470266819,-0.05641123279929161
7.55,-0.44730594754219055,0.12660406529903412,0.3152710497379303,0.2146487534046173,0.053008999675512314,-0.047275837510824203
7.6,-0.3836117386817932,0.42374324798583984,0.0928657054901123,0.22940005362033844,-0.024434082210063934,-0.04108869284391403
7.65,-0.20842212438583374,0.4525594711303711,0.17421074211597443,0.10622689872980118,-0.06077699363231659,-0.021819010376930237
7.7,0.029973462224006653,0.1163930892944336,0.07759158313274384,0.02018303982913494,-0.10595940053462982,-0.03389463573694229
7.75,0.35321536660194397,0.00795555580407381,-0.07064002752304077,0.02670753002166748,-0.13713721930980682,-0.016475465148687363
7.8,0.6343295574188232,-0.1196746751666069,-0.21199102699756622,0.06933798640966415,-0.07841004431247711,-0.0008989130146801472
7.85,0.39620068669319153,0.04190922528505325,-0.2044624537229538,0.11520367860794067,0.032239727675914764,0.007271808572113514
7.9,0.09796252101659775,0.16600322723388672,-0.009190232492983341,0.11511070281267166,0.10133285075426102,-0.002881307853385806
7.95,-0.011133559048175812,0.21075057983398438,0.06808200478553772,0.08063319325447083,0.13119754195213318,-0.010484769940376282
8.0,-0.06815671175718307,0.17401790618896484,-0.012111878953874111,0.023340975865721703,0.13861499726772308,-0.022311992943286896
8.05,-0.1463485062122345,0.02668284997344017,0.08320803940296173,-0.052613645792007446,0.12333148717880249,-0.06283636391162872
8.1,-0.12224529683589935,0.10199642181396484,0.01826079562306404,-0.020157642662525177,0.10270051658153534,-0.0937342420220375
8.15,-0.1326049417257309,0.20571136474609375,0.0027826973237097263,0.01154410745948553,0.0850948616862297,-0.07418951392173767
8.2,-0.11120115220546722,0.2410440444946289,-0.04390716552734375,0.02283320389688015,0.06391336768865585,-0.03895867243409157
8.25,-0.16887156665325165,0.055581092834472656,-0.053979165852069855,-0.024005837738513947,0.06934718042612076,-0.02851044572889805
8.3,-0.12246719747781754,0.04684734344482422,0.028677845373749733,0.00035310001112520695,0.05975012481212616,-0.015242337249219418
8.35,-0.15572546422481537,0.0930633544921875,0.021656865254044533,0.022037221118807793,0.05790410935878754,0.0024821748957037926
8.4,-0.2134713977575302,0.024113651365041733,0.059368036687374115,0.008493660017848015,0.055644914507865906,0.003636386012658477
8.45,-0.20910783112049103,0.16369152069091797,0.09611386805772781,0.03490903601050377,0.030976053327322006,-0.009915555827319622
8.5,-0.08539222180843353,0.2435455322265625,-0.03587434068322182,0.03501139581203461,0.007456359453499317,-0.017023589462041855
8.55,-0.07864712178707123,0.10112953186035156,0.06349511444568634,0.0060754697769880295,0.011400047689676285,-0.011107324622571468
8.6,-0.0671846941113472,-0.0058984775096178055,0.05254435911774635,0.02045561373233795,-0.004611749202013016,0.0046495660208165646
8.65,-0.01653367280960083,0.0045938496477901936,-0.01897757686674595,0.04509834572672844,-0.011690862476825714,0.003655434353277087
8.7,-0.02680734544992447,0.07740211486816406,0.02005785144865513,0.050828006118535995,-0.01691066101193428,0.0007745534530840814
8.75,0.030495446175336838,0.15093708038330078,-0.04543653503060341,0.0427803099155426,-0.020694691687822342,-0.007695604581385851
8.8,0.00854456890374422,0.1421060562133789,0.0030565212946385145,0.03772856667637825,-0.012798640877008438,-0.004867014940828085
8.85,-0.07568535953760147,0.07023906707763672,-0.059809859842061996,0.03879324346780777,-0.011414268054068089,-0.014460111036896706
8.9,-0.1476283073425293,0.1664581298828125,-0.06798844784498215,0.03612283989787102,-0.016546977683901787,-0.01693863235414028
8.95,-0.08080227673053741,0.14719867706298828,0.06289621442556381,0.03730000555515289,-0.038122665137052536,0.010217515751719475
9.0,-0.029772112146019936,0.14200782775878906,-0.010697875171899796,0.03297505900263786,-0.0548308864235878,0.022166481241583824
9.05,-0.030169814825057983,0.14892864227294922,0.034490615129470825,-0.017746197059750557,-0.05656658485531807,0.024825744330883026
9.1,0.00530855730175972,-0.004452703520655632,-0.06187077611684799,-0.024075277149677277,-0.05613259971141815,0.01486382819712162
9.15,-0.04184393212199211,-0.016201019287109375,-0.016950754448771477,0.007361464202404022,-0.05759856104850769,0.023141231387853622
9.2,-0.2639728784561157,1.012796401977539,0.7193360924720764,-0.10038439929485321,-0.059733569622039795,0.031971901655197144
9.25,-0.9006069302558899,2.0305213928222656,0.8451077342033386,-0.599627673625946,0.044639308005571365,0.03618551790714264
9.3,-1.0246989727020264,-0.2852821350097656,-0.07216749340295792,-0.7080671191215515,0.2063043862581253,0.06456359475851059
9.35,-0.21316826343536377,-0.17803478240966797,0.12677313387393951,-0.0009954795241355896,-0.055491648614406586,0.11400724202394485
9.4,0.007430626079440117,-0.03101634979248047,0.014762106351554394,0.06662941724061966,-0.1604631543159485,-0.023194409906864166
9.45,0.22600549459457397,0.3744716942310333,-0.5369667410850525,-0.03903784602880478,-0.1751403957605362,-0.04711038991808891
9.5,0.3209512531757355,-0.11689279973506927,-0.42635560035705566,-0.07540193200111389,-0.07041734457015991,-0.021432718262076378
9.55,0.27286526560783386,-0.1847991943359375,0.07491233199834824,0.11162672191858292,-0.005870908498764038,-0.0004697723197750747
9.6,0.1501903533935547,-0.1016235426068306,0.23957090079784393,0.19355091452598572,0.008217144757509232,-0.01440831646323204
9.65,0.08098820596933365,0.024832725524902344,0.012659898027777672,0.28837722539901733,-0.0174525398761034,-0.01493008527904749
9.7,0.15672563016414642,0.24851036071777344,-0.1846715807914734,0.3394429087638855,-0.020120033994317055,-0.028052471578121185
9.75,-0.029030833393335342,0.21316814422607422,-0.2217034548521042,0.24027276039123535,0.06320083141326904,-0.06546197831630707
9.8,-0.20188234746456146,0.11987590789794922,0.0020906401332467794,0.20595063269138336,0.11548158526420593,-0.06229386478662491
9.85,-0.18379399180412292,0.16304683685302734,0.05479956045746803,0.2242387980222702,0.10032065212726593,-0.05494913086295128
9.9,-0.22094519436359406,0.26334095001220703,0.11525832861661911,0.18250875174999237,0.08319069445133209,-0.062491822987794876
9.95,-0.12534695863723755,0.2253713607788086,0.06297535449266434,0.07576759159564972,0.06083507463335991,-0.08215176314115524
10.0,0.02896995097398758,0.166778564453125,-0.2465032935142517,-0.029436957091093063,0.030428964644670486,-0.06268687546253204
10.05,0.14277538657188416,0.09018231183290482,-0.19811835885047913,-0.07542926073074341,0.04878108203411102,-0.02694767154753208
10.1,0.0407550223171711,0.07373619079589844,-0.027164116501808167,0.00474496278911829,0.07195156812667847,-0.0016401890898123384
10.15,-0.0029495907947421074,0.042069435119628906,0.015310883522033691,0.03912542760372162,0.07371707260608673,0.015261607244610786
10.2,-0.06879362463951111,0.23879241943359375,-0.006112463306635618,0.05705675110220909,0.06674312800168991,0.01712857186794281
10.25,0.061055127531290054,0.4996976852416992,-0.07029395550489426,0.021248236298561096,0.06097383797168732,-0.024424102157354355
10.3,0.17245544493198395,0.4323873519897461,-0.19823752343654633,-0.10419826954603195,0.08983403444290161,-0.06604321300983429
10.35,0.016503099352121353,0.17297649383544922,-0.12364669144153595,-0.23697231709957123,0.16795264184474945,-0.06008392944931984
10.4,-0.1119115874171257,-0.1609048843383789,-0.03654832765460014,-0.24476397037506104,0.2204490602016449,0.02214057371020317
10.45,-0.08558693528175354,-0.3851184844970703,0.36608412861824036,-0.1381130814552307,0.23244646191596985,0.06562254577875137
10.5,-0.1953417956829071,-0.13383008539676666,0.28982019424438477,0.038126297295093536,0.17284806072711945,0.04181160032749176
10.55,-0.09282808005809784,0.15555667877197266,0.1608167141675949,0.11104293167591095,0.08374124765396118,0.05244506895542145
10.6,-0.11074312031269073,0.5058994293212891,-0.15419252216815948,0.10867848992347717,0.023789912462234497,0.053367894142866135
10.65,-0.06539745628833771,0.4148836135864258,-0.19959427416324615,-0.0015985583886504173,0.021725375205278397,0.049356695264577866
10.7,-0.04832606762647629,0.0819559171795845,-0.15703463554382324,-0.1039862185716629,0.04908409342169762,0.06579333543777466
10.75,-0.06332987546920776,-0.16106891632080078,-0.1198967769742012,-0.12348522245883942,0.06257130205631256,0.047306183725595474
10.8,-0.09040257334709167,-0.1422109603881836,-0.11552631109952927,-0.029706794768571854,0.047526828944683075,0.025446994230151176
10.85,0.06567777693271637,0.0772714614868164,0.011155985295772552,0.06719507277011871,0.04979585111141205,0.005436033476144075
10.9,0.15769317746162415,0.36393070220947266,0.12552426755428314,0.0782783031463623,0.06149051710963249,0.0023760106414556503
10.95,0.11788281798362732,0.49263668060302734,0.19943830370903015,-0.007794761098921299,0.07877664268016815,-0.02195051871240139
11.0,0.12023140490055084,0.4701852798461914,0.07714682072401047,-0.06100935861468315,0.09626470506191254,-0.06517402827739716
11.05,0.3064839243888855,0.2584257125854492,-0.2513720691204071,-0.08756933361291885,0.13659894466400146,-0.0868787094950676
11.1,0.3394371271133423,0.254062682390213,-0.5231998562812805,-0.05589800328016281,0.2204577475786209,-0.08993473649024963
11.15,-0.08278034627437592,0.14258766174316406,0.003614096436649561,-0.023410815745592117,0.32561707496643066,-0.03752309828996658
11.2,-0.5440661907196045,0.12920282781124115,0.2425675094127655,-0.014130540192127228,0.2820724844932556,0.07126250118017197
11.25,-0.583541989326477,0.12825296819210052,0.16733483970165253,-0.10389067232608795,0.12043898552656174,0.14452305436134338
11.3,-0.4632185697555542,-0.1732969433069229,0.2315448373556137,-0.3159143924713135,-0.011491947807371616,0.17172887921333313
11.35,-0.3817808926105499,-0.3340330123901367,0.17255225777626038,-0.6605640053749084,-0.11912248283624649,0.18305090069770813
11.4,-0.19380608201026917,-0.010166185908019543,0.5499211549758911,-0.6951662302017212,-0.34644362330436707,0.19321423768997192
11.45,-0.3254762887954712,1.3913679122924805,0.9665100574493408,-0.21828237175941467,-0.5934768319129944,0.2460632473230362
11.5,0.3009873032569885,1.1141633987426758,-0.8540481925010681,-0.060626059770584106,-0.6684638261795044,0.39588025212287903
11.55,1.3651020526885986,1.0645246505737305,-1.5337867736816406,0.28904396295547485,-0.5115731358528137,0.5469004511833191
11.6,0.6861430406570435,0.2883262634277344,-0.08096884936094284,0.391721248626709,-0.04845316708087921,0.6751652956008911
11.65,-0.2823500633239746,-0.2430124282836914,0.1632632613182068,0.22910910844802856,0.1297449916601181,0.8347761631011963
11.7,-0.42605945467948914,0.4751100540161133,-0.2033049762248993,0.4481644630432129,0.05695305019617081,0.8492418527603149
11.75,0.107143834233284,-0.06895540654659271,-0.5923280715942383,-0.05911468714475632,0.04363815113902092,0.5947442650794983
11.8,-0.17901888489723206,-0.6770315170288086,-0.4264070391654968,-0.9363933205604553,0.09409928321838379,0.23623444139957428
11.85,-0.16988441348075867,-1.5422182083129883,0.32512611150741577,-0.7990047931671143,0.14899730682373047,0.11629784852266312
11.9,-0.115452840924263,-1.500258445739746,0.37444713711738586,-0.3234524726867676,0.13876751065254211,-0.021569207310676575
11.95,-0.27864164113998413,-0.6388063430786133,0.1674526035785675,-0.008589308708906174,0.06756315380334854,-0.13194921612739563
12.0,-0.23327049612998962,0.4275484085083008,-0.1739039272069931,0.29626232385635376,0.029579047113656998,-0.12415922433137894
12.05,-0.17306259274482727,0.6136980056762695,-0.34133902192115784,0.13691958785057068,0.02512805350124836,-0.15797682106494904
12.1,-0.1662324219942093,0.2951545715332031,0.09598357230424881,-0.0001125037670135498,0.04056834802031517,-0.13297389447689056
12.15,-0.11593180149793625,0.10574817657470703,0.05174541845917702,0.012962611392140388,0.031220855191349983,-0.05833299085497856
12.2,-0.1287163496017456,-0.04053116217255592,0.08047883957624435,-0.03941024839878082,0.022738708183169365,-0.036176037043333054
12.25,-0.3812990188598633,-0.2835550606250763,0.6179325580596924,-0.12371162325143814,-0.017174644395709038,-0.05570732429623604
12.3,-0.2487023025751114,-0.15289783477783203,-0.054832298308610916,-0.07668134570121765,-0.1319861114025116,-0.07064860314130783
12.35,-0.016991473734378815,0.09151937067508698,-0.4206204116344452,-0.10568348318338394,-0.14502282440662384,-0.151167631149292
12.4,-0.06251734495162964,-0.11938953399658203,-0.04795481264591217,-0.14690259099006653,-0.08052027970552444,-0.21314039826393127
12.45,-0.005619548261165619,-0.09483814984560013,0.201800137758255,0.03584541380405426,-0.05223596841096878,-0.19806838035583496
12.5,0.11781376600265503,0.22644329071044922,-0.20252342522144318,0.22013342380523682,-0.0811828076839447,-0.11589184403419495
12.55,-0.08321990072727203,0.3691987991333008,-0.028864510357379913,0.16183675825595856,-0.08080632239580154,-0.10402368009090424
12.6,-0.25383201241493225,0.4588155746459961,0.05259864404797554,0.01866159960627556,-0.10658646374940872,-0.10500849783420563
12.65,-0.19064491987228394,0.37114429473876953,-0.022782696411013603,-0.08916832506656647,-0.14094868302345276,-0.05963918939232826
12.7,-0.27373480796813965,0.21026039123535156,0.1186605766415596,-0.18116086721420288,-0.17880918085575104,-0.02781144343316555
12.75,-0.2213820368051529,-0.03998566046357155,0.0984412133693695,-0.27235859632492065,-0.2490268349647522,-0.01860823482275009
12.8,-0.07720857858657837,-0.027834884822368622,-0.2789711356163025,-0.25136786699295044,-0.3019551634788513,-0.03814304620027542
12.85,-0.07798640429973602,0.1659078598022461,-0.11429981142282486,-0.16605813801288605,-0.2577146589756012,-0.09480508416891098
12.9,-0.043823473155498505,0.03869915381073952,-0.08550538867712021,-0.11242762207984924,-0.25071579217910767,-0.09209839254617691
12.95,0.02327021211385727,-0.0587606355547905,-0.23865951597690582,-0.00559559091925621,-0.24861183762550354,-0.06565246731042862
13.0,0.05258197337388992,-0.25527286529541016,-0.27262696623802185,-0.014147642999887466,-0.2157687246799469,-0.08837267756462097
13.05,-0.07420359551906586,-0.42005157470703125,-0.09226452559232712,-0.057498760521411896,-0.18885797262191772,-0.16102753579616547
13.1,-0.2661927044391632,-0.3238544464111328,0.03236371651291847,0.010550875216722488,-0.19391918182373047,-0.2264658510684967
13.15,-0.3612615168094635,-0.12107086181640625,0.016256902366876602,0.1249086856842041,-0.2668093740940094,-0.2324201464653015
13.2,-0.18207156658172607,-0.10210323333740234,0.017761364579200745,0.2447773963212967,-0.35101139545440674,-0.26416805386543274
13.25,1.192570686340332,0.300083190202713,-1.0158417224884033,0.10704143345355988,-0.36999309062957764,-0.42775845527648926
13.3,1.6553539037704468,0.4796667695045471,-1.7112269401550293,-0.0853235125541687,-0.13213439285755157,-0.7483126521110535
13.35,0.1471814513206482,0.6302328109741211,0.06050914525985718,0.585160493850708,0.04860083386301994,-0.7201159000396729
13.4,1.0071333646774292,1.5755014419555664,0.1565658301115036,1.6297850608825684,-0.18226923048496246,0.008500630035996437
13.45,1.538612961769104,2.3221750259399414,-0.8773944973945618,1.8647265434265137,0.00910082459449768,0.49249204993247986
13.5,0.841981053352356,1.3428030014038086,-0.4077232778072357,0.46398797631263733,0.6461144685745239,0.3058618903160095
13.55,0.10014374554157257,-0.6631183624267578,0.18675567209720612,-0.904737114906311,1.0514001846313477,-0.17559127509593964
13.6,-0.491005003452301,-1.1621065139770508,0.7372838854789734,-1.0054830312728882,1.0101776123046875,-0.26010245084762573
13.65,-0.5931357145309448,-0.8786182999610901,1.1669671535491943,-0.6241381764411926,0.7333760261535645,-0.13227318227291107
13.7,-0.9402557611465454,0.25040340423583984,0.17525319755077362,-0.013113927096128464,0.3160667419433594,-0.01648399978876114
13.75,-1.7911436557769775,0.6852817535400391,-0.25485464930534363,0.3157954812049866,-0.10062763094902039,0.09066909551620483
13.8,-1.6136358976364136,0.5381889343261719,0.47886043787002563,0.4325955808162689,-0.395173579454422,0.20641525089740753
13.85,0.3751599192619324,2.535994529724121,-0.38488563895225525,1.1013633012771606,-0.6322003602981567,0.6648308038711548
13.9,0.9665651321411133,3.38350772857666,-0.9604521989822388,0.38571715354919434,-0.2831677496433258,0.9929380416870117
13.95,-0.052440375089645386,2.952977180480957,-1.0642956495285034,-1.2809717655181885,0.20642809569835663,1.1763966083526611
14.0,-0.7321598529815674,1.1546401977539062,-0.9573196172714233,-1.9503753185272217,0.3109208345413208,1.4446337223052979
14.05,-0.9369943737983704,-0.6793832778930664,-0.32541167736053467,-1.8595671653747559,0.2563691735267639,1.480255365371704
14.1,-0.5559247136116028,-2.317890167236328,-0.49769264459609985,-1.570995569229126,0.17376136779785156,1.5219875574111938
14.15,0.04047437384724617,-3.6634321212768555,-0.11992527544498444,-1.0793070793151855,0.3151835799217224,1.31924307346344
14.2,0.5525170564651489,-3.7774839401245117,0.9719728827476501,-0.6280198693275452,0.4468991160392761,0.7492648363113403
14.25,0.7379860877990723,-2.9024314880371094,1.0018633604049683,-0.11337792873382568,0.42118847370147705,0.0919066071510315
14.3,0.23681074380874634,-1.8512859344482422,0.5305591821670532,0.4587678611278534,0.37722519040107727,-0.5139631032943726
14.35,-0.16196848452091217,-1.0122737884521484,0.43730127811431885,0.7605897784233093,0.3134658932685852,-0.9203266501426697
14.4,-0.256725549697876,-0.8369626998901367,0.4746350944042206,0.8685293197631836,0.18034209311008453,-1.0763249397277832
14.45,-0.6364532709121704,-0.6037263870239258,0.8090873956680298,0.7332834005355835,-0.053839437663555145,-1.1599880456924438
14.5,-1.004013180732727,0.0684337317943573,0.6612716317176819,0.9266830682754517,-0.28573375940322876,-1.1964672803878784
14.55,-0.7565167546272278,1.100320816040039,-0.3866908848285675,1.3405479192733765,-0.4451810419559479,-1.057346224784851
14.6,0.14277242124080658,1.4286937713623047,-0.8048940896987915,0.9587535858154297,-0.48563262820243835,-0.9359930753707886
14.65,0.15321284532546997,1.028752326965332,-0.4477234184741974,0.353191614151001,-0.3803465962409973,-0.9031646847724915
14.7,0.06508822739124298,1.0292577743530273,0.14709727466106415,0.32000598311424255,-0.287977933883667,-0.732868492603302
14.75,0.4013499617576599,1.2572736740112305,-0.04513663798570633,0.5694210529327393,-0.2504870593547821,-0.46827828884124756
14.8,0.5186108946800232,1.1797246932983398,-0.2997746765613556,0.44697386026382446,-0.1806025207042694,-0.24980974197387695
14.85,0.22979101538658142,0.6840171813964844,-0.1576986163854599,0.10146445035934448,-0.01918543316423893,-0.1599941849708557
14.9,-0.01747763343155384,0.2614126205444336,0.05394119769334793,0.016914479434490204,0.02411186881363392,-0.08751854300498962
14.95,-0.0672164112329483,0.03892612084746361,0.07102999836206436,0.11114250123500824,-0.03397854045033455,0.02913142740726471
15.0,-0.21296437084674835,0.30258655548095703,0.027547156438231468,0.11752945929765701,-0.08474044501781464,0.03752294182777405
15.05,0.022682825103402138,0.4391965866088867,-0.1888427585363388,0.05494498461484909,-0.1733795404434204,0.06723012775182724
15.1,0.3175925016403198,1.4779367446899414,0.1659257560968399,0.29418304562568665,-0.3049643337726593,0.1550491899251938
15.15,0.001127675175666809,3.700505256652832,0.5289087891578674,0.5983715057373047,-0.3984200954437256,0.5091351866722107
15.2,0.37864184379577637,4.241538047790527,-1.2282450199127197,-0.38126426935195923,-0.2088172733783722,1.0469783544540405
15.25,0.2154431939125061,2.817521095275879,-1.9966238737106323,-1.9585111141204834,0.260417103767395,1.2282196283340454
15.3,-0.8408204913139343,0.27396491169929504,-1.1633533239364624,-2.713881015777588,0.43079477548599243,1.4392825365066528
15.35,-0.7500401139259338,-2.273770332336426,-0.6865434050559998,-2.5075440406799316,0.36374616622924805,1.6118268966674805
15.4,-0.07417447865009308,-3.495029926300049,-0.08417253196239471,-1.7043428421020508,0.45943713188171387,1.3465754985809326
15.45,0.4686778783798218,-3.8039636611938477,0.567078709602356,-1.200746774673462,0.6012919545173645,0.8230989575386047
15.5,0.4239092469215393,-3.4260458946228027,1.3939117193222046,-0.5890008211135864,0.6150525808334351,0.16070762276649475
15.55,0.042419493198394775,-2.8602075576782227,1.4741525650024414,0.24587740004062653,0.5055482983589172,-0.4422183334827423
15.6,-0.3127020597457886,-2.076505661010742,1.4955612421035767,0.8442094326019287,0.2711145877838135,-0.8777261972427368
15.65,-0.4737902879714966,-1.462890625,0.6614490747451782,1.1182355880737305,-0.06500206887722015,-1.1307364702224731
15.7,-0.374007910490036,-0.9744329452514648,-0.1335209161043167,1.0765985250473022,-0.3121578097343445,-1.2986499071121216
15.75,-0.37172892689704895,0.2238445281982422,0.10810758918523788,1.0280016660690308,-0.45759403705596924,-1.4197553396224976
15.8,-0.4159199595451355,1.6946744918823242,-0.40438511967658997,1.2121620178222656,-0.5988644957542419,-1.3046433925628662
15.85,-0.0017311573028564453,2.9884767532348633,-1.0191404819488525,1.1721103191375732,-0.5406532883644104,-1.024509310722351
15.9,0.20118212699890137,2.9550676345825195,-0.4714065194129944,0.6870732307434082,-0.2763060927391052,-0.7115183472633362
15.95,0.25359031558036804,1.7533864974975586,0.05728562921285629,0.19162783026695251,-0.09619826078414917,-0.32285669445991516
16.0,0.08512507379055023,0.8609476089477539,-0.0973350927233696,-0.04266994073987007,-0.018875107169151306,-0.006207863800227642
16.05,-0.06372218579053879,0.3170595169067383,-0.12551239132881165,-0.16335973143577576,-0.024253906682133675,0.16025133430957794
16.1,-0.07780107855796814,0.5857248306274414,-0.10217118263244629,-0.23204053938388824,-0.04501206800341606,0.17801730334758759
16.15,0.015227966010570526,1.2346115112304688,-0.5058156847953796,-0.3268572688102722,-0.04477039724588394,0.22259414196014404
16.2,0.13764381408691406,1.6294488906860352,-0.6685598492622375,-0.4356967806816101,0.048153217881917953,0.3357084095478058
16.25,0.08793596178293228,1.3581762313842773,-0.18463146686553955,-0.4726088047027588,0.15830165147781372,0.5212820768356323
16.3,-0.1583537608385086,0.6454038619995117,-0.06638951599597931,-0.5270848274230957,0.2078840732574463,0.7600832581520081
16.35,-0.37172186374664307,0.04428291693329811,-0.25847339630126953,-0.8273223042488098,0.22864429652690887,0.8353617787361145
16.4,-0.15900324285030365,-0.5371503829956055,-0.6402840614318848,-1.1577975749969482,0.21090441942214966,0.7991325855255127
16.45,-0.18471582233905792,-0.5834445953369141,0.011868697591125965,-1.0088988542556763,0.2361517697572708,0.6829864978790283
16.5,-0.0721709132194519,-0.9477291107177734,0.9132896065711975,-0.12598073482513428,0.25725674629211426,0.6394402980804443
16.55,-0.04740448296070099,-1.1666011810302734,0.5337026119232178,0.3577345311641693,0.16931000351905823,0.5523651242256165
16.6,-0.2608470320701599,-0.8225860595703125,-0.2976323366165161,0.002137802541255951,-0.007282465696334839,0.2657518982887268
16.65,-0.02101489156484604,-0.6471004486083984,-0.3418942391872406,-0.1480860710144043,-0.061627279967069626,0.08354374766349792
16.7,-0.16457149386405945,-0.24437524378299713,0.3366412818431854,-0.2832261621952057,-0.04961569979786873,0.023051833733916283
16.75,-0.2099325954914093,0.3105173110961914,-0.2086152285337448,-0.221821591258049,-0.12185399234294891,0.026665128767490387
16.8,0.09805137664079666,0.4576730728149414,-0.41690129041671753,0.038755808025598526,-0.07984563708305359,0.00021920021390542388
16.85,0.2397005259990692,-0.39781761169433594,0.2418251484632492,-0.21630434691905975,-0.04866335541009903,-0.04146274924278259
16.9,-0.055259160697460175,-1.1945562362670898,0.16923797130584717,-0.32079172134399414,-0.05362435430288315,-0.09903345257043839
16.95,-0.1246197447180748,-1.9199180603027344,-0.02966412529349327,0.007005315274000168,0.01486169546842575,-0.26203691959381104
17.0,-0.16818556189537048,-2.1667065620422363,0.5630737543106079,0.16366298496723175,-0.04475351795554161,-0.6005294919013977
17.05,-0.28121739625930786,-1.2735137939453125,0.8686067461967468,0.44784480333328247,-0.23978987336158752,-0.9381936192512512
17.1,-0.143343985080719,-0.24141786992549896,-0.38857123255729675,0.8856122493743896,-0.40548834204673767,-1.0696347951889038
17.15,0.053350433707237244,0.3874559700489044,-0.9491890668869019,1.2463486194610596,-0.3737245500087738,-1.1070784330368042
17.2,0.17646197974681854,2.2229347229003906,-0.3803464472293854,1.7848689556121826,-0.26318445801734924,-1.07383131980896
17.25,0.4051089584827423,3.469646453857422,0.1635674387216568,1.7912280559539795,-0.20758122205734253,-0.8202635049819946
17.3,0.5067154765129089,2.655215263366699,-0.5598344206809998,0.6999108195304871,-0.04209650680422783,-0.4418880343437195
17.35,0.409268856048584,0.5545864105224609,-0.6023010015487671,-0.2670386731624603,0.28416767716407776,-0.22583462297916412
17.4,0.08043855428695679,-0.5375452041625977,0.47363021969795227,-0.2007603794336319,0.42570745944976807,-0.27068522572517395
17.45,-0.020141854882240295,0.16898439824581146,0.6628169417381287,0.20633995532989502,0.3066691756248474,-0.19613496959209442
17.5,-0.3512212634086609,0.34613990783691406,0.22684507071971893,0.17805540561676025,0.17128892242908478,0.10619940608739853
17.55,-0.2883191704750061,0.26068782806396484,-0.13286547362804413,0.062182746827602386,0.033320363610982895,0.18666931986808777
17.6,0.10408830642700195,-0.12818048894405365,-0.318702757358551,0.06537917256355286,-0.013106731697916985,0.07128604501485825
17.65,-0.021747395396232605,-0.4379463195800781,-0.06200096756219864,0.025921542197465897,0.05421491712331772,-0.006157880183309317
17.7,-0.09123572707176208,-0.12001896649599075,0.2112227976322174,0.1408216506242752,0.07804010808467865,-0.048994749784469604
17.75,-0.02370993234217167,0.5053825378417969,0.08857150375843048,0.22440823912620544,0.05331364646553993,-0.08531282842159271
17.8,0.0010134652256965637,0.661381721496582,0.08797111362218857,0.06620456278324127,0.07599873095750809,-0.0764111652970314
17.85,0.054714448750019073,0.3651609420776367,-0.06243940070271492,-0.09276581555604935,0.10164423286914825,0.0029029801953583956
17.9,0.16041284799575806,0.21148109436035156,-0.19317811727523804,-0.13418735563755035,0.14482979476451874,0.029069554060697556
17.95,0.37494632601737976,0.5455341339111328,-0.050241388380527496,-0.10292641818523407,0.21948692202568054,0.038207512348890305
18.0,0.8727061748504639,1.222670555114746,-0.5539482831954956,-0.05213078856468201,0.29702842235565186,0.09492075443267822
18.05,1.086470365524292,0.9063540101051331,-1.2195429801940918,-0.32312941551208496,0.5410789251327515,0.22033803164958954
18.1,0.8128985166549683,-0.04296393692493439,-1.2887884378433228,-0.834872841835022,0.9484416842460632,0.28693488240242004
18.15,0.1807936728000641,-1.2957878112792969,-0.8949392437934875,-0.8925544023513794,1.2668747901916504,0.253317266702652
18.2,-0.5490216016769409,-1.7806310653686523,-0.02716612070798874,-0.43027496337890625,1.3340237140655518,0.09046155214309692
18.25,-1.226314902305603,-0.8084669709205627,0.7265809774398804,0.0737699419260025,1.240378737449646,-0.09931589663028717
18.3,-1.3980579376220703,-0.18891243636608124,1.2479777336120605,0.22565627098083496,0.9990963935852051,-0.1500542163848877
18.35,-1.2085808515548706,0.1910352259874344,1.098842740058899,-0.09287794679403305,0.6208401918411255,-0.14038552343845367
18.4,-0.7963318824768066,0.3511047065258026,0.8861715793609619,-0.22912132740020752,0.23425514996051788,-0.16935202479362488
18.45,-0.2979838252067566,0.379512757062912,0.8312259316444397,0.026782851666212082,-0.14453299343585968,-0.2571508288383484
18.5,0.06146983802318573,0.7051372528076172,0.451414555311203,0.1857142448425293,-0.425285667181015,-0.3038337826728821
18.55,0.22770774364471436,0.47435760498046875,0.0802239179611206,0.08772887289524078,-0.5034756660461426,-0.18243883550167084
18.6,0.2577363848686218,-0.2804145812988281,-0.24022851884365082,-0.028422938659787178,-0.4636315703392029,-0.06753866374492645
18.65,0.3337149918079376,-0.38374996185302734,-0.340658038854599,0.029283491894602776,-0.3939064145088196,-0.14142607152462006
18.7,0.2721710801124573,0.026644716039299965,-0.2426968216896057,0.16674980521202087,-0.3210815191268921,-0.2264212816953659
18.75,0.1640167236328125,0.1363678127527237,-0.27654770016670227,0.13732334971427917,-0.2306033968925476,-0.18455159664154053
18.8,0.07784658670425415,-0.08425044268369675,-0.2096666842699051,0.02509981580078602,-0.11415542662143707,-0.12785960733890533
18.85,-0.024553531780838966,-0.17429256439208984,0.07858240604400635,0.04662901163101196,-0.05821898952126503,-0.13127698004245758
18.9,-0.3100581765174866,-0.016465196385979652,0.26877760887145996,0.11460127681493759,-0.08982361853122711,-0.17664065957069397
18.95,-0.3375577926635742,0.452728271484375,0.11715274304151535,0.150857612490654,-0.24692875146865845,-0.2302454113960266
19.0,-0.16478046774864197,0.6805839538574219,-0.2739126980304718,0.09552793204784393,-0.3932614326477051,-0.18516768515110016
19.05,-0.019151300191879272,0.6720876693725586,-0.4799458086490631,0.0408194363117218,-0.410936176776886,-0.029210519045591354
19.1,0.028060898184776306,0.8072099685668945,-0.8144521117210388,0.041699521243572235,-0.34525901079177856,0.14034052193164825
19.15,0.0936548039317131,0.37531185150146484,-0.46109238266944885,-0.06723444163799286,-0.1898941844701767,0.25385501980781555
19.2,0.09511033445596695,0.07541275024414062,-0.036111924797296524,-0.19562748074531555,-0.1666993945837021,0.20429390668869019
19.25,0.13258834183216095,-0.09751223772764206,-0.1297198385000229,-0.2620115876197815,-0.2098291516304016,0.11439750343561172
19.3,0.36263251304626465,-0.29615020751953125,0.006593337748199701,-0.17324569821357727,-0.19087651371955872,0.13674519956111908
19.35,0.301505446434021,-0.17748449742794037,-0.2676137387752533,-0.028547460213303566,-0.17151978611946106,0.13898997008800507
19.4,0.23637425899505615,0.011939061805605888,-0.40427500009536743,-0.02604854851961136,-0.08915877342224121,0.07237163186073303
19.45,0.22169695794582367,0.08069515228271484,-0.004626420792192221,-0.0573573112487793,-0.003590068081393838,0.026812326163053513
19.5,0.04786591976881027,0.07154560089111328,-0.02406652271747589,-0.07725638896226883,0.0068986243568360806,0.023350274190306664
19.55,-0.026738561689853668,0.17171192169189453,-0.24163469672203064,-0.054387517273426056,0.007095730863511562,0.018026024103164673
19.6,-0.050237976014614105,0.13121986389160156,-0.03374168276786804,-0.03290584683418274,0.03469628095626831,0.02024306170642376
19.65,-0.15157635509967804,-0.03371429815888405,0.13455834984779358,-0.03953007236123085,0.03249143809080124,0.03926634415984154
19.7,-0.15088795125484467,-0.0004882856155745685,0.11172594130039215,-0.019446667283773422,-0.0027644294314086437,0.04613376408815384
19.75,-0.13576127588748932,0.2138681411743164,0.04557313770055771,0.009877648204565048,-0.052132509648799896,0.043518710881471634
19.8,-0.012719640508294106,0.3602762222290039,-0.11791720986366272,0.013006512075662613,-0.08776940405368805,0.057728007435798645
19.85,0.09401369839906693,0.23101522028446198,-0.3123153746128082,-0.0375523567199707,-0.07907412946224213,0.06024479120969772
