Time [s],Acc_x [m/s^2],Acc_y [m/s^2],Acc_z [m/s^2],Gyro_x [1/s],Gyro_y [1/s],Gyro_z [1/s]
0.0,-0.1783749759197235,0.6123361587524414,-0.44616594910621643,0.4544265568256378,0.6413085460662842,-0.013936835341155529
0.05,-0.20510782301425934,0.40353870391845703,-0.300682932138443,0.5021301507949829,0.37294143438339233,-0.03451566770672798
0.1,-0.09167131781578064,0.35114383697509766,-0.08607491105794907,0.5163726210594177,0.20003391802310944,-0.05430956184864044
0.15,0.04835504665970802,0.39095497131347656,-0.09311768412590027,0.5030629634857178,0.036793824285268784,-0.09343297779560089
0.2,-0.49732521176338196,0.4214925765991211,-0.6120299100875854,0.49268123507499695,-0.11027276515960693,-0.1480589359998703
0.25,-0.5007708072662354,-0.02414892427623272,-0.6899545192718506,0.41152697801589966,-0.10579626262187958,-0.12455853074789047
0.3,-0.22960838675498962,-0.30440330505371094,-0.3550545573234558,0.2595958113670349,-0.19225676357746124,-0.16041794419288635
0.35,0.8582735061645508,-0.15290163457393646,-0.12218794971704483,0.1491052806377411,-0.39394256472587585,-0.2776455283164978
0.4,0.1652098000049591,-0.4593954086303711,0.5531100034713745,0.11561214923858643,-0.6865841150283813,-0.5056321620941162
0.45,-0.8313112258911133,-0.41809943318367004,0.5639248490333557,0.12033088505268097,-0.6531711220741272,-0.5837924480438232
0.5,-1.0043261051177979,-0.03808976337313652,0.08636753261089325,0.111241914331913,-0.3985997438430786,-0.4705701768398285
0.55,-1.2828360795974731,0.2878694534301758,-0.4689275324344635,0.09493938833475113,-0.20739583671092987,-0.2604231834411621
0.6,-0.7918023467063904,0.4245901107788086,-0.4858936667442322,0.007991226390004158,0.02459634840488434,0.02316356636583805
0.65,-0.38561999797821045,0.31908512115478516,-0.035363711416721344,-0.004181284457445145,0.1419447660446167,0.19303858280181885
0.7,0.06052551418542862,0.1404094696044922,0.2541538178920746,0.031041666865348816,0.18434692919254303,0.2833710014820099
0.75,0.011355258524417877,-0.11627484112977982,0.29983431100845337,0.07102303206920624,0.1181119903922081,0.23784270882606506
0.8,0.12637753784656525,-0.2111043930053711,0.2153485119342804,0.0877140536904335,0.06940009444952011,0.1580832600593567
0.85,0.10069781541824341,-0.2526054382324219,0.06105588376522064,0.08149418979883194,0.04763810709118843,0.09235541522502899
0.9,-0.011448848992586136,-0.06354999542236328,0.017852770164608955,0.04296914488077164,-0.014569603838026524,0.02917882800102234
0.95,-0.06480403989553452,0.01786041259765625,-0.03273077681660652,-0.02274690568447113,-0.078462615609169,-0.01561042945832014
1.0,-0.1525389850139618,0.13062000274658203,-0.19684602320194244,-0.12210313230752945,-0.1034027636051178,-0.011268525384366512
1.05,-0.15596650540828705,0.1257181167602539,-0.035159919410943985,-0.17306369543075562,-0.1065186858177185,0.016137871891260147
1.1,-0.2208539992570877,0.15512560307979584,0.2597113847732544,-0.14857736229896545,-0.17085018754005432,0.0035262801684439182
1.15,-0.29369547963142395,0.08262346684932709,0.3169398903846741,-0.05972638726234436,-0.14792728424072266,0.0068782600574195385
1.2,-0.4434676170349121,0.05705833435058594,-0.07271123677492142,0.024640846997499466,-0.055729735642671585,0.0344526544213295
1.25,-0.32178524136543274,0.119599349796772,-0.22939904034137726,0.03419818729162216,0.03509368374943733,0.07726135849952698
1.3,-0.14920571446418762,0.030203815549612045,0.11192841827869415,0.04779845103621483,0.10482752323150635,0.09111311286687851
1.35,-0.09366294741630554,-0.00402451166883111,0.18372057378292084,0.07906252890825272,0.12638556957244873,0.06455334275960922
1.4,-0.2668033838272095,-0.07174300402402878,-0.29074907302856445,0.1263623982667923,0.1849849820137024,0.03812601417303085
1.45,-0.5230957865715027,-0.19276903569698334,-0.6395267844200134,0.1621323972940445,0.28538843989372253,0.04396682605147362
1.5,-0.6090916991233826,-0.4455356299877167,-0.8378266096115112,0.20303483307361603,0.4034319818019867,0.0836433470249176
1.55,-0.45055443048477173,-0.5228786468505859,-1.0369981527328491,0.2519840598106384,0.6101908683776855,0.16484804451465607
1.6,-0.393648624420166,-0.12136171013116837,-0.7987927198410034,0.3041403293609619,0.9122076034545898,0.24694031476974487
1.65,-0.5728194117546082,0.36500072479248047,0.060765307396650314,0.3096465766429901,1.0345426797866821,0.21766303479671478
1.7,-0.42220252752304077,0.6973628997802734,0.5613661408424377,0.219586580991745,0.9974640607833862,0.1820831000804901
1.75,-0.5553296208381653,0.43108272552490234,0.144944429397583,0.13252072036266327,1.0365597009658813,0.27229437232017517
1.8,-1.1476500034332275,-0.1581735610961914,-0.3532842695713043,0.03919277340173721,1.0235098600387573,0.3373188376426697
1.85,-1.7107902765274048,-0.7101831436157227,-0.26891711354255676,-0.04474479705095291,1.1306946277618408,0.5109157562255859
1.9,-0.8558569550514221,-0.27283385396003723,0.4652770459651947,-0.06443745642900467,1.3458888530731201,0.7494692206382751
1.95,-0.18516182899475098,-0.19627860188484192,0.9799318313598633,-0.03890039026737213,1.3240456581115723,0.7712398767471313
2.0,0.8862755298614502,0.053144436329603195,0.916772723197937,-0.019900143146514893,1.1769121885299683,0.674233078956604
2.05,1.0817768573760986,0.2200469821691513,0.7308676242828369,-0.024464257061481476,0.8444462418556213,0.42147737741470337
2.1,0.4169846177101135,0.24999713897705078,0.24336418509483337,0.0024209246039390564,0.7584927082061768,0.2524212896823883
2.15,-0.07185143232345581,0.14636610448360443,0.47548118233680725,0.015532858669757843,0.6776882410049438,0.1347079575061798
2.2,0.15329763293266296,0.18309113383293152,0.9004960656166077,0.037022702395915985,0.5549331307411194,0.0935777947306633
2.25,0.33303576707839966,0.48355576395988464,0.6615799069404602,0.06739339232444763,0.31120938062667847,-8.011240424821153e-05
2.3,0.32503199577331543,0.4060544967651367,0.27455934882164,0.0744127631187439,0.14206472039222717,0.03821367397904396
2.35,0.4974282681941986,0.28626537322998047,0.47467267513275146,0.04134446382522583,-0.040067996829748154,0.09104125201702118
2.4,0.5492295622825623,0.1724090576171875,0.2981942296028137,0.025225788354873657,-0.16420993208885193,0.058422721922397614
2.45,0.037386178970336914,-0.0392303541302681,0.20932038128376007,0.006059194914996624,-0.2998378872871399,-0.005529006477445364
2.5,-0.07999343425035477,0.010920526459813118,-0.07218354940414429,-0.005930690094828606,-0.3065227270126343,0.031838688999414444
2.55,0.06521919369697571,0.014920232817530632,0.08101487904787064,-0.009054978378117085,-0.3395392596721649,-0.0004813030827790499
2.6,0.2090234011411667,-0.089447982609272,0.2765689790248871,0.01411549560725689,-0.33777913451194763,-0.09316928684711456
2.65,0.37340793013572693,0.09656906127929688,0.03733455762267113,0.04730695113539696,-0.2730160355567932,-0.15563452243804932
2.7,0.42503100633621216,0.2926778793334961,0.11733411997556686,0.033166829496622086,-0.32001441717147827,-0.2730306386947632
2.75,0.38044479489326477,0.22002696990966797,0.2466118037700653,-0.028941161930561066,-0.39838865399360657,-0.3970626890659332
2.8,0.13708578050136566,-0.06462383270263672,-0.04707958176732063,-0.09789758920669556,-0.41621699929237366,-0.41441503167152405
2.85,0.3602360188961029,0.11337948590517044,-0.24640491604804993,-0.13646437227725983,-0.4269721210002899,-0.4380580484867096
2.9,0.23701448738574982,0.2951040267944336,-0.06126762181520462,-0.16224852204322815,-0.4637371897697449,-0.5429503917694092
2.95,-0.09615917503833771,0.22579288482666016,-0.16783234477043152,-0.14900416135787964,-0.3385794162750244,-0.5315362215042114
3.0,-1.00492525100708,-0.09534073621034622,0.03798210248351097,-0.12934206426143646,-0.2065800279378891,-0.45399588346481323
3.05,-0.7715631723403931,0.21735666692256927,0.4665556252002716,-0.09710328280925751,-0.004201032686978579,-0.2685741186141968
3.1,-0.625072181224823,0.4529866874217987,0.5773885846138,-0.030537936836481094,-0.009045221842825413,-0.2495376020669937
3.15,-0.46041327714920044,0.4265851676464081,0.5293726325035095,0.09827595949172974,0.051286645233631134,-0.23863177001476288
3.2,-0.38402417302131653,0.44371604919433594,-0.0906204953789711,0.19260144233703613,0.09852509945631027,-0.2726471424102783
3.25,-0.4357363283634186,0.3333730697631836,-0.007729893084615469,0.1766224205493927,0.06223272904753685,-0.2886480391025543
3.3,-0.5792478322982788,0.25931453704833984,0.3398388624191284,0.16189543902873993,-0.007594009395688772,-0.29997313022613525
3.35,-0.3538469076156616,0.5766925811767578,0.4786394238471985,0.1540132761001587,-0.01767854392528534,-0.23864470422267914
3.4,-0.6038714051246643,0.08119295537471771,0.3741984963417053,0.11755304783582687,-0.08903073519468307,-0.18360325694084167
3.45,-0.3716501295566559,-0.6300039291381836,-0.23431049287319183,0.11998077481985092,-0.015607807785272598,-0.048127222806215286
3.5,-0.2202707678079605,-1.0527048110961914,-0.39914199709892273,0.13415226340293884,0.006192005705088377,0.04639042541384697
3.55,-0.038007646799087524,-0.7255029678344727,-0.12816022336483002,0.11093897372484207,-0.06332677602767944,0.07930080592632294
3.6,0.15132758021354675,-0.1957998275756836,-0.02670704387128353,0.04110641032457352,-0.17167559266090393,0.09359294176101685
3.65,0.11835683137178421,0.14036178588867188,-0.03960133716464043,-0.05627800524234772,-0.24969393014907837,0.09508397430181503
3.7,-0.1689811646938324,0.07015037536621094,-0.11186505109071732,-0.0932660847902298,-0.2281326949596405,0.12937065958976746
3.75,-0.2418769747018814,0.02576923370361328,-0.09535965323448181,-0.0678476095199585,-0.15051403641700745,0.17494603991508484
3.8,0.012973442673683167,0.08612442016601562,0.031323399394750595,-0.06727532297372818,-0.1310274600982666,0.19576755166053772
3.85,0.1537056863307953,-0.03277587890625,0.049721717834472656,-0.08109293133020401,-0.15703251957893372,0.1668832153081894
3.9,0.13415980339050293,-0.02707766741514206,-0.21009835600852966,-0.10964067280292511,-0.16924966871738434,0.1425403505563736
3.95,0.19849079847335815,0.14316844940185547,-0.1552763134241104,-0.0915444865822792,-0.13292619585990906,0.08784431964159012
4.0,-0.056494057178497314,0.1592416763305664,-0.08785232156515121,-0.03941808268427849,-0.07523532211780548,-0.004676538519561291
4.05,-0.0668385773897171,0.12027454376220703,0.05602538585662842,-0.006101119332015514,-0.02831447497010231,-0.05400725454092026
4.1,0.049630384892225266,0.05003547668457031,0.04454202577471733,-0.010327564552426338,-0.007869425229728222,-0.04282555356621742
4.15,0.11435364186763763,0.08298015594482422,0.07361746579408646,-0.06085647642612457,-0.025023682042956352,-0.032899755984544754
4.2,0.17155146598815918,0.08244513720273972,0.39424270391464233,-0.08770769834518433,-0.04450911283493042,-0.0457286611199379
4.25,0.1911853551864624,0.09732626378536224,0.5348303318023682,-0.07918136566877365,-0.1269490271806717,-0.07086507230997086
4.3,0.11466877162456512,0.07102107256650925,0.2902058959007263,-0.10982948541641235,-0.25316813588142395,-0.08150427043437958
4.35,-0.03103150799870491,0.18482208251953125,0.2075960487127304,-0.1721648871898651,-0.2981472313404083,-0.07907270640134811
4.4,-0.07644960284233093,0.042332641780376434,0.2737554609775543,-0.13829338550567627,-0.25297707319259644,-0.07498958706855774
4.45,-0.22908106446266174,-0.0001363805786240846,0.1183798611164093,-0.07585527002811432,-0.19376856088638306,-0.08018771559000015
4.5,-0.04351671040058136,-0.12558650970458984,0.16773970425128937,0.02516775205731392,-0.0672922283411026,-0.05955691263079643
4.55,0.07936950027942657,0.00992107205092907,0.08871375024318695,0.09192492812871933,-0.038099732249975204,-0.08380594849586487
4.6,0.23194435238838196,0.15324878692626953,0.14354434609413147,0.08617222309112549,-0.14167091250419617,-0.15969564020633698
4.65,0.27483803033828735,0.21426773071289062,0.21366843581199646,0.04788622632622719,-0.3097233176231384,-0.2506711483001709
4.7,0.01735392026603222,0.12691783905029297,0.03966662287712097,-0.021279163658618927,-0.40200239419937134,-0.27413639426231384
4.75,-0.2926524877548218,0.1558542251586914,-0.2042144238948822,-0.042125411331653595,-0.3811055123806,-0.2320782095193863
4.8,-0.09954759478569031,0.1041879653930664,-0.10820361971855164,-0.04299390688538551,-0.43391790986061096,-0.20763862133026123
4.85,-0.08890484273433685,0.19951343536376953,-0.14478439092636108,-0.03826184198260307,-0.5239874124526978,-0.2375551015138626
4.9,-0.369619756937027,-0.019619936123490334,-0.2660980820655823,-0.04219655692577362,-0.46522819995880127,-0.1903974860906601
4.95,-0.431718647480011,-0.1262502521276474,-0.4819316267967224,-0.015302088111639023,-0.24259337782859802,-0.105806365609169
5.0,-0.42033058404922485,-0.029711710289120674,-0.5401636362075806,0.026841139420866966,-0.03162965923547745,-0.043022364377975464
5.05,-0.641351044178009,-0.10389518737792969,-0.2564578652381897,0.06089688837528229,0.10611255466938019,-0.03581390529870987
5.1,-0.5778506994247437,-0.00855160504579544,0.1033501923084259,0.08398798853158951,0.3046548366546631,0.047701552510261536
5.15,-0.45301318168640137,-0.22404195368289948,0.4155753254890442,0.08489836752414703,0.25950515270233154,0.07547932118177414
5.2,-0.014446482062339783,-0.13611698150634766,0.24777303636074066,0.07825295627117157,0.08882186561822891,0.11253616213798523
5.25,0.3363794982433319,0.08887767791748047,0.03847917914390564,0.10932387411594391,-0.04698069766163826,0.1938592791557312
5.3,0.2054448425769806,-0.0005531178903765976,-0.4044577479362488,0.07097457349300385,-0.05449695885181427,0.23319843411445618
5.35,0.4232960343360901,0.013723386451601982,-0.33922404050827026,-0.07789061963558197,-0.04406138136982918,0.18564650416374207
5.4,0.2719607353210449,-0.04807377606630325,0.35241109132766724,-0.20635205507278442,-0.04342687502503395,0.07893703877925873
5.45,0.08108244836330414,0.06590746343135834,0.5230443477630615,-0.1848706156015396,-0.013607789762318134,-0.024521751329302788
5.5,-0.14933593571186066,0.2211923450231552,0.38533076643943787,-0.06764118373394012,0.06793949753046036,-0.05440789461135864
5.55,0.0010602325201034546,0.1646566241979599,0.26865941286087036,0.01909080147743225,0.1675015091896057,0.009167059324681759
5.6,0.10994257777929306,0.15682697296142578,0.26641350984573364,0.06019365042448044,0.15276215970516205,0.026789633557200432
5.65,0.13029326498508453,-0.026902208104729652,0.360639750957489,0.08104494214057922,0.08581133186817169,0.011677799746394157
5.7,0.058982595801353455,-0.060799602419137955,0.17357705533504486,0.07359322160482407,0.017209190875291824,0.005303422454744577
5.75,0.12229019403457642,-0.13097095489501953,-0.14823287725448608,0.04589506983757019,-0.016071893274784088,0.03058941476047039
5.8,0.08325961977243423,-0.06020163744688034,-0.22556768357753754,-0.016097338870167732,-0.027743415907025337,0.02667768858373165
5.85,0.18785253167152405,0.10002041608095169,-0.18084275722503662,-0.04283560812473297,0.0004637617093976587,0.009835099801421165
5.9,0.065369613468647,0.10131073743104935,-0.36308249831199646,-0.1328706443309784,-0.13821500539779663,-0.08911646157503128
5.95,0.30746352672576904,-0.02003287710249424,-0.10050122439861298,-0.19048504531383514,-0.03408531844615936,-0.037138521671295166
6.0,-0.19805249571800232,0.3108053207397461,0.04934068024158478,-0.19739516079425812,0.1168459877371788,-0.08638881146907806
6.05,-0.16091014444828033,0.2195577472448349,0.2762306332588196,-0.08984306454658508,0.23865027725696564,-0.09845174103975296
6.1,0.779065728187561,0.7641534805297852,0.06318601220846176,-0.1309298723936081,0.08803527802228928,-0.08026348054409027
6.15,-0.47120416164398193,0.1262025535106659,1.0049899816513062,-0.1065371111035347,0.04565088078379631,-0.01069896761327982
6.2,-0.29315152764320374,0.5414886474609375,0.3938315808773041,-0.017329715192317963,0.11883856356143951,0.15155115723609924
6.25,-0.30898141860961914,-0.08480741083621979,0.3354310095310211,0.00205380842089653,-0.031649090349674225,0.21236053109169006
6.3,-0.26919758319854736,0.025919906795024872,0.18782967329025269,-0.07137836515903473,-0.19342361390590668,0.286158949136734
6.35,0.6446836590766907,0.06687069684267044,-0.0742570012807846,-0.06347992271184921,-0.12792690098285675,0.3436379134654999
6.4,0.5778602957725525,-0.21376323699951172,-0.08146735280752182,-0.05242181941866875,-0.05194246396422386,0.1700042337179184
6.45,0.3099454641342163,0.18958568572998047,0.07238223403692245,-0.073395274579525,-0.015534129925072193,0.007606360595673323
6.5,-0.27253854274749756,0.14136408269405365,0.24000053107738495,-0.08214898407459259,-0.09869788587093353,-0.12148769199848175
6.55,-0.18414783477783203,0.09496591985225677,0.3609873950481415,0.06084424629807472,0.09698104858398438,0.001269223284907639
6.6,-0.3611166775226593,0.04088686779141426,0.3568117022514343,0.14365890622138977,0.11829932034015656,0.062483981251716614
6.65,-0.2992992699146271,0.10807514190673828,-0.18871232867240906,0.2132752388715744,0.16449768841266632,0.15605731308460236
6.7,0.08844800293445587,0.22803594172000885,-0.25770965218544006,0.19813942909240723,0.23476718366146088,0.24771003425121307
6.75,0.18175530433654785,-0.07164668291807175,-0.27828285098075867,0.11865054070949554,0.15770097076892853,0.16812355816364288
6.8,-0.04380682110786438,-0.24335764348506927,-0.4692205488681793,0.0135080236941576,0.10925871133804321,0.10698793828487396
6.85,0.1905840039253235,-0.7249422073364258,-0.12083020061254501,-0.01754188723862171,0.10755374282598495,0.06812052428722382
6.9,-0.443734347820282,-0.35709381103515625,0.039945561438798904,-0.05669952929019928,0.03187497332692146,-0.011645492166280746
6.95,-0.18614239990711212,0.23710918426513672,-0.08465748280286789,0.004249210469424725,0.10792510211467743,0.04237371310591698
7.0,-0.25159892439842224,-0.05383778735995293,0.3641032576560974,-0.003920258954167366,0.15177130699157715,0.11471594125032425
7.05,0.04728015884757042,0.03648471087217331,0.2546965777873993,0.079808309674263,0.2892749309539795,0.17311780154705048
7.1,-0.39391767978668213,0.08682727813720703,-0.08147386461496353,0.07147794961929321,0.21649017930030823,0.15114730596542358
7.15,0.06753997504711151,-0.019268034026026726,-0.07908732444047928,0.11643624305725098,0.17298007011413574,0.15507304668426514
7.2,0.020871181041002274,0.09389401227235794,-0.1979520320892334,0.08716727048158646,-0.11968190222978592,-0.059696175158023834
7.25,0.17460854351520538,0.1919260025024414,-0.14387544989585876,0.05058971419930458,-0.18602925539016724,-0.100517138838768
7.3,0.0830109715461731,0.3447589874267578,-0.027347005903720856,-0.00027046166360378265,-0.09686416387557983,-0.11830029636621475
7.35,-0.24973860383033752,0.19411753118038177,0.3538537323474884,-0.010568805038928986,-0.07504235953092575,-0.1795641928911209
7.4,-0.1123192235827446,0.3058786392211914,0.3786972165107727,-0.03561224043369293,-0.22562240064144135,-0.14200571179389954
7.45,0.046073317527770996,-0.2268543392419815,0.5038424730300903,-0.14137722551822662,-0.4611092209815979,-0.08953174948692322
7.5,-0.016477741301059723,0.04103947803378105,-0.3345538079738617,-0.3377845287322998,-0.5953340530395508,-0.022569973021745682
7.55,0.0056447237730026245,-0.050396908074617386,-0.3433162271976471,-0.4004717469215393,-0.4817054867744446,0.06627213954925537
7.6,0.2582079768180847,-0.21705150604248047,-0.13083724677562714,-0.3805946707725525,-0.3961969316005707,0.008719022385776043
7.65,0.1822342723608017,-0.14119817316532135,0.41708528995513916,-0.3195679783821106,-0.35927289724349976,-0.1112571731209755
7.7,-0.05130687728524208,0.09484195709228516,0.11125403642654419,-0.11735646426677704,-0.18367651104927063,-0.1908244788646698
7.75,-0.05577758699655533,0.2865142822265625,-0.08919316530227661,0.07956306636333466,0.02632831037044525,-0.21884219348430634
7.8,0.3605812191963196,0.2635641396045685,-0.46509143710136414,0.21062088012695312,0.20925846695899963,-0.23132266104221344
7.85,-0.24792571365833282,0.19632244110107422,-0.037167370319366455,0.1450803279876709,0.21540848910808563,-0.2779965102672577
7.9,-0.3018124997615814,0.25034618377685547,0.07331425696611404,0.13786926865577698,0.25652801990509033,-0.2438143640756607
7.95,-0.5227866172790527,0.08754061907529831,0.14986178278923035,0.16878022253513336,0.2564186155796051,-0.15607960522174835
8.0,-0.3515400290489197,-0.020342834293842316,0.1672251969575882,0.2022024542093277,0.2322365939617157,-0.03959180787205696
8.05,-0.2477279007434845,0.03649615868926048,0.12621814012527466,0.1913285255432129,0.17760059237480164,0.03495623543858528
8.1,0.07908525317907333,0.16528034210205078,-0.09903772175312042,0.17477503418922424,0.17850840091705322,0.09903625398874283
8.15,0.03541131317615509,0.22539615631103516,0.08244127035140991,0.12819090485572815,0.1420178860425949,0.10743532329797745
8.2,0.12174306809902191,0.1564950942993164,0.20257572829723358,0.09184309095144272,0.13573551177978516,0.11724700033664703
8.25,0.034097883850336075,0.15226364135742188,0.23571796715259552,0.06080232560634613,0.11014591157436371,0.0762915089726448
8.3,0.11263379454612732,0.09603976458311081,0.2064632624387741,0.05784997344017029,0.08020088821649551,0.06852317601442337
8.35,0.038764528930187225,-0.05230046063661575,0.2470395863056183,0.059082094579935074,0.04223127290606499,0.03797515481710434
8.4,0.04263555258512497,-0.0061636026948690414,0.1982642561197281,0.06440313160419464,0.0036369822919368744,0.02052932418882847
8.45,0.12980471551418304,-0.04938889294862747,0.2394101321697235,0.06969684362411499,-0.013245249167084694,0.0068382215686142445
8.5,0.12558622658252716,0.008092878386378288,0.09939038753509521,0.060054026544094086,-0.016740212216973305,0.0015275138430297375
8.55,0.17263099551200867,0.017702098935842514,0.1518266797065735,0.043939705938100815,-0.005640406161546707,0.005139402113854885
8.6,0.025204746052622795,-0.03332424536347389,0.1051536574959755,0.026686960831284523,-0.0062932888977229595,-0.0131502915173769
8.65,-0.03549305349588394,-0.03049946017563343,0.05151046812534332,0.002354361116886139,-0.024359799921512604,-0.03403500095009804
8.7,-0.0491052120923996,0.02414035238325596,0.1666516661643982,-0.024030359461903572,-0.06761245429515839,-0.016459135338664055
8.75,0.03412652760744095,0.06930255144834518,0.15231944620609283,-0.032733988016843796,-0.08313871920108795,0.0013525461545214057
8.8,0.05265749618411064,0.06445025652647018,0.23549820482730865,-0.004280418623238802,-0.060592494904994965,0.015746820718050003
8.85,-0.008833351545035839,0.0792531967163086,0.06569381058216095,0.004830413497984409,-0.05644906312227249,0.009548061527311802
8.9,0.031991880387067795,0.04828357696533203,0.015292752534151077,-0.023323439061641693,-0.07964955270290375,0.02023434452712536
8.95,0.17312604188919067,0.04012584686279297,0.10463841259479523,-0.1095879077911377,-0.13136538863182068,0.02285139448940754
9.0,0.13605423271656036,0.07909487932920456,0.17482082545757294,-0.1393861621618271,-0.16438965499401093,-0.00638859486207366
9.05,0.1900695264339447,0.21782873570919037,0.3188498616218567,-0.10335534811019897,-0.1147528737783432,-0.0426301546394825
9.1,-0.1424880027770996,0.1544637531042099,0.29266074299812317,-0.03888104856014252,-0.09269604831933975,-0.0757807195186615
9.15,-0.6094728708267212,0.2343587875366211,-0.06941492110490799,0.028963390737771988,-0.03955235704779625,-0.04037070646882057
9.2,-0.21519993245601654,0.22076702117919922,-0.18092218041419983,-0.05122574418783188,-0.1234021931886673,-0.006075452081859112
9.25,0.4965639114379883,-0.17662526667118073,0.40987226366996765,-0.1562315672636032,-0.2922925055027008,-0.09719453006982803
9.3,0.4726119041442871,-0.1126566007733345,0.2808458209037781,-0.1126665249466896,-0.19391441345214844,-0.1279592365026474
9.35,0.0016553103923797607,-0.7764720916748047,0.1422848105430603,0.11437118798494339,0.16371634602546692,-0.020871540531516075
9.4,-0.6206373572349548,-0.060917843133211136,-0.5095952749252319,0.18102535605430603,0.0920495018362999,-0.11559812724590302
9.45,-0.08876103162765503,0.21849918365478516,-0.24471789598464966,0.0740354061126709,-0.08445373177528381,-0.1717779040336609
9.5,0.10932132601737976,0.3923616409301758,-0.013755402527749538,-0.0013340860605239868,-0.07831872254610062,-0.1299789398908615
9.55,-0.32429784536361694,0.12225627154111862,0.20011499524116516,0.05319574475288391,0.1320069432258606,-0.03583294898271561
9.6,-0.35955798625946045,0.18065166473388672,-0.07227586209774017,0.1333436518907547,0.24062252044677734,0.03441546484827995
9.65,-0.3312382698059082,0.08174801617860794,-0.24067248404026031,0.13386763632297516,0.14991891384124756,0.026071758940815926
9.7,0.009795568883419037,-0.09590529650449753,-0.2966977059841156,0.0994059219956398,0.04919455572962761,0.044135961681604385
9.75,0.2107563316822052,-0.20987318456172943,-0.26525023579597473,0.014751998707652092,-0.02803236059844494,0.05417981743812561
9.8,0.2790078818798065,-0.08774089813232422,0.004681316204369068,-0.08564454317092896,-0.02773703634738922,0.0567329004406929
9.85,0.06102662533521652,-0.10623741894960403,0.19581732153892517,-0.10304370522499084,-0.0042756302282214165,0.031644970178604126
9.9,-0.15032675862312317,0.015843387693166733,0.08155244588851929,-0.06693578511476517,0.033559802919626236,0.03486054390668869
9.95,-0.05629551410675049,0.06634616106748581,0.31340140104293823,-0.031948547810316086,0.009051739238202572,0.0321199893951416
10.0,0.20060570538043976,0.29078197479248047,0.1671915501356125,0.000391979468986392,0.001629673526622355,0.011085658334195614
10.05,0.2854074239730835,0.3287992477416992,0.016733964905142784,0.01321002934128046,0.02320442721247673,-0.004516675602644682
10.1,0.4288456439971924,0.06953717023134232,-0.08279985934495926,-0.03188418596982956,-0.031712912023067474,-0.06349965184926987
10.15,0.13322032988071442,-0.15052032470703125,-0.05174776539206505,-0.11287835240364075,-0.19776389002799988,-0.1929117888212204
10.2,0.48902517557144165,-0.28618717193603516,-0.06153173744678497,-0.08631923794746399,-0.2546282410621643,-0.25771859288215637
10.25,0.5528360605239868,-0.2841615676879883,-0.1385410726070404,-0.09450516104698181,-0.49103328585624695,-0.3862453103065491
10.3,0.035399261862039566,-0.10201358795166016,-0.019923396408557892,-0.15294501185417175,-0.7264158725738525,-0.48774439096450806
10.35,-0.13145780563354492,0.18405914306640625,-0.11156950145959854,-0.24105331301689148,-0.6704584956169128,-0.40111950039863586
10.4,-0.22424697875976562,0.23058032989501953,-0.14810490608215332,-0.2537228465080261,-0.44336196780204773,-0.26722991466522217
10.45,-0.9937647581100464,0.46220874786376953,-0.022435607388615608,-0.31027859449386597,-0.4232140779495239,-0.18179021775722504
10.5,-0.8182173371315002,0.4723930358886719,0.21547526121139526,-0.39642786979675293,-0.2901849150657654,0.015347971580922604
10.55,-0.39696022868156433,0.4280538558959961,0.3570971190929413,-0.4278212785720825,-0.19333289563655853,0.14951667189598083
10.6,0.048611611127853394,0.48460671305656433,0.6340356469154358,-0.3586592972278595,-0.08548285812139511,0.22919854521751404
10.65,0.3173157572746277,0.2671670615673065,0.6302903294563293,-0.15346142649650574,0.029288560152053833,0.24551497399806976
10.7,0.29477447271347046,0.039853088557720184,0.273216187953949,0.03855060786008835,0.0581907220184803,0.16577613353729248
10.75,0.34202519059181213,-0.09810352325439453,0.19221359491348267,0.1328684687614441,0.07909677922725677,0.10637851059436798
10.8,0.28360509872436523,-0.12067508697509766,0.05948628857731819,0.16206558048725128,0.04259585589170456,0.040398236364126205
10.85,0.2787518799304962,-0.08863449096679688,-0.018857793882489204,0.15784306824207306,-0.019282080233097076,-0.036698754876852036
10.9,0.27885326743125916,0.048308372497558594,0.03877178207039833,0.16910822689533234,-0.0453864224255085,-0.09712062776088715
10.95,-0.12584786117076874,0.36727431416511536,-0.5710197687149048,0.23603233695030212,-0.2956547439098358,-0.26156625151634216
11.0,-0.4543353021144867,1.690333366394043,-1.1922125816345215,0.26937010884284973,-1.2061498165130615,-0.9098259210586548
11.05,0.012891694903373718,-0.5504026412963867,-0.7531399130821228,-0.07692468166351318,-3.051163911819458,-2.7328040599823
11.1,0.869907557964325,-0.5960149765014648,1.0332776308059692,-0.3092597723007202,-1.3714154958724976,-1.3659982681274414
11.15,0.2016366422176361,0.8235817551612854,-1.0721216201782227,-0.5297321081161499,-0.5264697074890137,-0.9711225628852844
11.2,0.5096150636672974,-0.29294681549072266,-0.20993714034557343,-0.4843084216117859,-0.06473680585622787,-0.27613723278045654
11.25,0.7311989665031433,-0.038923267275094986,0.31375035643577576,-0.6317784190177917,-0.47406864166259766,-0.317252516746521
11.3,-0.36310040950775146,0.507512092590332,-0.6252207159996033,-0.9217305183410645,-0.9724111557006836,-0.3876686096191406
11.35,0.5782873630523682,0.40250304341316223,-0.6445449590682983,-0.5704894065856934,-0.24979528784751892,0.10543207079172134
11.4,-0.06450646370649338,-0.4008665382862091,0.5538501143455505,-0.15920066833496094,-0.10967244952917099,0.13730376958847046
11.45,-0.16389502584934235,-0.29850006103515625,-0.048631977289915085,-0.003221273422241211,-0.11137872189283371,0.13456927239894867
11.5,-0.7264547348022461,-0.32566261291503906,-0.4009385108947754,-0.05775485932826996,-0.12201645225286484,0.07275252044200897
11.55,-0.25121447443962097,-0.3413972854614258,0.3851833641529083,-0.06611397862434387,0.018880289047956467,0.09294170886278152
11.6,0.7924151420593262,-0.03731919452548027,0.5521697402000427,-0.028694510459899902,-0.1714913696050644,-0.11218485236167908
11.65,0.4151563346385956,0.050749775022268295,0.24004215002059937,0.013788830488920212,-0.30655959248542786,-0.24441948533058167
11.7,0.10132284462451935,0.43585681915283203,0.06512420624494553,0.04172796010971069,-0.45085829496383667,-0.34751638770103455
11.75,0.7206624150276184,0.01993178389966488,0.5025590062141418,0.07482010126113892,-0.3475993871688843,-0.29740163683891296
11.8,-0.5675667524337769,0.027487752959132195,-0.09972035884857178,0.065335214138031,-0.5379374623298645,-0.34097811579704285
11.85,0.1245851069688797,0.06516361981630325,-0.13480858504772186,0.018473874777555466,-0.33239126205444336,-0.1798621118068695
11.9,0.13406677544116974,-0.1318225860595703,-0.16695894300937653,-0.050285592675209045,-0.20752783119678497,-0.08081600815057755
11.95,-0.1812790036201477,-0.05497932434082031,-0.03824812173843384,-0.06934469193220139,-0.1277189999818802,-0.03615051880478859
12.0,-0.07604862004518509,0.14450836181640625,0.2331870049238205,0.003391548292711377,0.005811731331050396,0.0021277195774018764
12.05,-0.1982574760913849,0.12072943896055222,0.32054442167282104,0.06341084837913513,-0.05243630334734917,0.017810793593525887
12.1,0.15723007917404175,0.13686752319335938,0.1452208012342453,0.10645971447229385,-0.03883940726518631,0.09981729835271835
12.15,0.45069512724876404,0.2726736068725586,-0.022078104317188263,0.12219405174255371,0.058422643691301346,0.11248832941055298
12.2,0.42473161220550537,0.21673299372196198,-0.4518128037452698,0.11704538762569427,0.12873828411102295,0.053904056549072266
12.25,0.3213239908218384,0.2156667858362198,-0.5772144198417664,0.035191625356674194,0.19536051154136658,-0.02132495306432247
12.3,0.1051793247461319,0.1771383285522461,-0.12161380797624588,-0.09598804265260696,0.2627616822719574,-0.1036764532327652
12.35,0.18076969683170319,0.06804942339658737,0.36472782492637634,-0.16286030411720276,0.225432887673378,-0.17577475309371948
12.4,-0.21424755454063416,-0.1396322399377823,0.4376116394996643,-0.11841650307178497,0.0874340832233429,-0.24785004556179047
12.45,-0.41455507278442383,-0.18270684778690338,0.23071454465389252,-0.062426429241895676,0.0068192551843822,-0.26292896270751953
12.5,-0.33918315172195435,0.0310668908059597,0.06421712785959244,-0.02589784562587738,-0.08090788871049881,-0.23064428567886353
12.55,-0.3025485873222351,-0.0714883804321289,-0.14925208687782288,0.016272928565740585,-0.062184493988752365,-0.0996420606970787
12.6,-0.07604578137397766,0.04226017743349075,-0.27769675850868225,-0.037092819809913635,-0.08856108784675598,-0.00796095933765173
12.65,0.4340982735157013,0.11844731122255325,-0.021591510623693466,-0.06082764267921448,0.02901272103190422,0.05646062269806862
12.7,0.2870609760284424,0.12880325317382812,-0.1064501404762268,-0.08401017636060715,0.08554355800151825,0.022380592301487923
12.75,0.1557086557149887,0.03924179449677467,-0.03775445744395256,-0.0754598006606102,0.2193445861339569,-0.02464701235294342
12.8,0.17468851804733276,-0.04457855597138405,0.18862739205360413,-0.033545274287462234,0.29389625787734985,-0.054105982184410095
12.85,0.1018892228603363,0.01336574088782072,0.19652621448040009,0.015272972173988819,0.3113863468170166,-0.07998738437891006
12.9,-0.3574798107147217,0.08807944506406784,0.12135039269924164,0.04484756663441658,0.2836896777153015,-0.07654617726802826
12.95,-0.2904120087623596,0.09442996233701706,0.2229594886302948,0.05335307866334915,0.274455189704895,-0.03260211646556854
13.0,-0.13534314930438995,-0.18860530853271484,-0.051771629601716995,0.04966435208916664,0.24784663319587708,0.041982024908065796
13.05,-0.07512964308261871,0.03397846594452858,-0.14160582423210144,0.03160436078906059,0.2092968076467514,0.06939566135406494
13.1,-0.016634684056043625,0.17788314819335938,-0.16558873653411865,0.023514220491051674,0.19722476601600647,0.07638021558523178
13.15,0.24103108048439026,0.1454305797815323,-0.6116865873336792,-0.022894125431776047,0.19670075178146362,0.048184361308813095
13.2,0.08074498921632767,0.19560813903808594,-0.19752097129821777,-0.16314047574996948,0.2150578796863556,0.031359124928712845
13.25,-0.24966973066329956,-0.05222894623875618,0.5350626111030579,-0.21136876940727234,0.15623272955417633,0.016972053796052933
13.3,-0.47355008125305176,-0.0999021902680397,1.0955959558486938,-0.10193842649459839,0.11502282321453094,0.032529715448617935
13.35,-0.27410805225372314,-0.3042764961719513,0.8952366709709167,0.10443108528852463,0.061727236956357956,0.09589976072311401
13.4,0.3102778494358063,-0.22446061670780182,0.39553579688072205,0.2569870948791504,-0.04300134256482124,0.1306787133216858
13.45,0.4076777696609497,-0.10523127764463425,-0.23082363605499268,0.24690982699394226,-0.10610534250736237,0.12447914481163025
13.5,0.2485138177871704,-0.12549589574337006,-0.5504483580589294,0.10701652616262436,-0.12771163880825043,0.06419171392917633
13.55,0.06026994436979294,-0.0002832268364727497,-0.4854445457458496,-0.00783707294613123,-0.10443949699401855,-0.04503370821475983
13.6,-0.21854431927204132,0.1879739761352539,-0.15052387118339539,-0.025936586782336235,-0.04262600466609001,-0.13065792620182037
13.65,-0.2848041355609894,0.3672456741333008,-0.09128738194704056,0.016345612704753876,0.028413206338882446,-0.11155977845191956
13.7,-0.36798617243766785,0.5061321258544922,0.35091087222099304,0.05889410525560379,0.050293587148189545,-0.07174619287252426
13.75,0.023619085550308228,0.04621885344386101,0.686348557472229,0.19814682006835938,0.11043749749660492,0.03870101645588875
13.8,0.37127885222435,-0.2571287155151367,0.27873581647872925,0.30938974022865295,0.10140132158994675,0.14315862953662872
13.85,0.4796411991119385,-0.122220978140831,-0.28042280673980713,0.23665036261081696,0.08204325288534164,0.11881944537162781
13.9,0.5886024236679077,0.11456587165594101,-0.738185465335846,0.07520812749862671,0.07214950770139694,0.06767335534095764
13.95,0.03617139905691147,0.21195316314697266,-0.11228770762681961,-0.12336947023868561,0.02969101071357727,-0.037124719470739365
14.0,-0.33380240201950073,0.27971363067626953,0.19446679949760437,-0.1836654245853424,0.09050555527210236,-0.055080682039260864
14.05,-0.328291654586792,0.36411190032958984,0.41424161195755005,-0.12141402065753937,0.12457403540611267,0.007728470489382744
14.1,-0.431173712015152,0.5604457855224609,0.3103535771369934,-0.005900003015995026,0.1335604190826416,0.08335776627063751
14.15,-0.2876824140548706,0.5311698913574219,0.23968519270420074,0.12112566828727722,0.10646352916955948,0.13604736328125
14.2,0.1959194391965866,-0.11561870574951172,0.009700179100036621,0.18791751563549042,0.10566884279251099,0.1846098154783249
14.25,0.024692261591553688,-0.2622690200805664,0.02072152867913246,0.13312488794326782,0.06689795851707458,0.14894041419029236
14.3,-0.043644994497299194,-0.12380599230527878,-0.1589011698961258,0.07011095434427261,0.0312054306268692,0.08480659872293472
14.35,-0.1756591647863388,0.012099268846213818,-0.13696907460689545,0.0005618138238787651,-0.008896357379853725,0.044524554163217545
14.4,0.05057284235954285,0.07400227338075638,-0.1447334736585617,-0.07382175326347351,-0.009506074711680412,0.030798297375440598
14.45,0.16103413701057434,0.10776519775390625,-0.08477151393890381,-0.10793162882328033,0.04112320393323898,0.014540000818669796
14.5,0.3692891597747803,0.003105162177234888,0.14692966639995575,-0.09671145677566528,0.10163331031799316,-0.018166841939091682
14.55,0.4335363805294037,-0.13603878021240234,0.22721999883651733,-0.0757850781083107,0.10781890153884888,-0.0424644760787487
14.6,0.22156932950019836,-0.049929630011320114,0.3828790485858917,-0.12355943024158478,0.05461188405752182,-0.018979081884026527
14.65,0.1532561182975769,-0.05368901044130325,0.3212277591228485,-0.12524369359016418,0.014194179326295853,-0.012407604604959488
14.7,0.04352278634905815,-0.3240547180175781,0.17291688919067383,-0.09128251671791077,0.03838372975587845,0.03413817286491394
14.75,0.03395082801580429,-0.3954610824584961,0.13269536197185516,-0.07382769137620926,0.07432705163955688,0.04354046285152435
14.8,0.09381231665611267,-0.3833799362182617,0.15104204416275024,-0.05165819078683853,0.0999591052532196,0.030455652624368668
14.85,0.09610704332590103,-0.29386043548583984,0.11940082162618637,-0.02713940478861332,0.08489201217889786,-0.015549181029200554
14.9,0.38060232996940613,0.0053682271391153336,0.30182191729545593,0.005400635302066803,0.08276212215423584,-0.07361486554145813
14.95,0.2551329433917999,0.13642501831054688,0.2712862491607666,0.07121847569942474,0.025903290137648582,-0.15313318371772766
15.0,-0.09869299829006195,0.1804952621459961,0.16619187593460083,0.12452906370162964,-0.019121380522847176,-0.17962646484375
15.05,-0.15645743906497955,-0.030488012358546257,-0.13122084736824036,0.14496295154094696,0.04137939214706421,-0.11444474011659622
15.1,0.0733138769865036,-0.16536998748779297,-0.052432190626859665,0.11289595067501068,0.07793164253234863,-0.03221580758690834
15.15,-0.04283420369029045,-0.42543506622314453,0.37034353613853455,0.04591185227036476,0.029750682413578033,0.021692823618650436
15.2,-0.1847163289785385,-0.4308052361011505,0.7817833423614502,0.036379724740982056,0.002823097398504615,0.08139070868492126
15.25,0.2273087501525879,-0.22395040094852448,0.4265259802341461,0.059835780411958694,-0.008127129636704922,0.07022171467542648
15.3,0.04000396654009819,0.055152904242277145,-0.35392969846725464,0.028949685394763947,-0.06867223978042603,-0.022292407229542732
15.35,-0.3479135036468506,0.1280241161584854,-0.7387199401855469,-0.09728493541479111,-0.06644885241985321,-0.08584917336702347
15.4,-0.30651289224624634,0.40842342376708984,-0.4562012851238251,-0.25526437163352966,-0.01340706180781126,-0.08609705418348312
15.45,-0.3814888596534729,0.5886096954345703,-0.3031459450721741,-0.3291899859905243,0.024058394134044647,-0.07692800462245941
15.5,-0.4554080665111542,0.8021116256713867,-0.12078394740819931,-0.2981576919555664,0.016268430277705193,-0.04741453006863594
15.55,-0.4177452325820923,0.8210268020629883,-0.15586546063423157,-0.16590334475040436,0.08696167916059494,0.016692912206053734
15.6,-0.21332333981990814,0.5688295364379883,-0.15145249664783478,-0.02505306899547577,0.1334858536720276,0.07860533893108368
15.65,-0.10315296798944473,0.1485576629638672,-0.2471550703048706,0.043338704854249954,0.13820412755012512,0.13643433153629303
15.7,0.368150532245636,-0.21811199188232422,0.08520949631929398,0.040465403348207474,0.15402060747146606,0.14910201728343964
15.75,0.5306701064109802,-0.4767446517944336,0.1980895847082138,-0.0356254056096077,0.1331435889005661,0.1108863577246666
15.8,0.3126024305820465,-0.5075569152832031,0.32616108655929565,-0.13413386046886444,0.09650930762290955,0.05744639039039612
15.85,0.11243443936109543,-0.29908180236816406,0.5218008756637573,-0.1767507791519165,0.05589405074715614,0.030563848093152046
15.9,0.09794469177722931,-0.22106744349002838,0.6093104481697083,-0.1285407543182373,0.010609575547277927,0.05208887532353401
15.95,0.05086425691843033,-0.28810977935791016,0.4992416501045227,-0.04378202557563782,-0.02005341462790966,0.07829754799604416
16.0,0.18398550152778625,-0.2514181137084961,0.32462620735168457,0.016318511217832565,0.038934893906116486,0.09681069105863571
16.05,0.32577642798423767,-0.20099258422851562,0.34157025814056396,0.09117019176483154,0.08611124753952026,0.10729970037937164
16.1,0.0801837295293808,-0.008138665929436684,0.3302595317363739,0.17912030220031738,0.031400833278894424,0.028822310268878937
16.15,-0.08822771161794662,0.13548658788204193,0.5120491981506348,0.20974305272102356,-0.036148715764284134,-0.05207355320453644
16.2,-0.04806198179721832,-0.11331083625555038,0.6710354089736938,0.22488273680210114,-0.05799312889575958,-0.01669898070394993
16.25,-0.3892068862915039,-0.09516622126102448,0.3040141463279724,0.19169145822525024,-0.2365126609802246,0.0010838102316483855
16.3,-0.2614593505859375,0.1448831409215927,0.23804566264152527,0.11537682265043259,-0.3609083294868469,0.018421076238155365
16.35,-0.012634340673685074,0.05712795630097389,-0.11120885610580444,0.0038499440997838974,-0.38727977871894836,0.053022366017103195
16.4,0.21844246983528137,-0.0661315768957138,-0.42227205634117126,-0.10285033285617828,-0.3457331955432892,0.06308204680681229
16.45,0.051647771149873734,-0.005652427673339844,0.008479402400553226,-0.10935760289430618,-0.33322232961654663,-0.017060695216059685
16.5,-0.2591991126537323,0.13811682164669037,0.35268986225128174,-0.021575625985860825,-0.33079829812049866,-0.09618663042783737
16.55,-0.4126151502132416,0.29981040954589844,-0.05355453863739967,0.07718099653720856,-0.2910718321800232,-0.07134347409009933
16.6,-0.010115474462509155,0.08756158500909805,0.6837893128395081,0.1308283656835556,-0.20718829333782196,-0.0010712320217862725
16.65,0.11554025113582611,-0.49875640869140625,0.3907333314418793,0.22887834906578064,-0.15911929309368134,0.04244588315486908
16.7,0.1068267822265625,0.043465662747621536,-1.6075587272644043,0.1921895295381546,-0.15178921818733215,-0.010344636626541615
16.75,0.1500173807144165,0.5035915374755859,-0.8594840168952942,-0.05529969558119774,-0.06577305495738983,0.01733062043786049
16.8,-0.38869398832321167,0.24803732335567474,0.3155857026576996,-0.08619221299886703,0.036057502031326294,0.027686676010489464
16.85,-0.42022716999053955,0.21524713933467865,0.40554186701774597,0.006078627891838551,0.12826058268547058,0.0559418685734272
16.9,-0.22695490717887878,0.4482707977294922,0.03809286653995514,0.03270193189382553,0.17722219228744507,0.1308405101299286
16.95,0.1519106775522232,0.5633506774902344,-0.3673737049102783,-0.0018815696239471436,0.1726178228855133,0.1405409425497055
17.0,0.4591245949268341,0.48575595021247864,-0.8094891309738159,-0.13540741801261902,0.03411061316728592,0.03932889550924301
17.05,0.4859333336353302,0.0885925441980362,-0.33892905712127686,-0.28542205691337585,-0.17097902297973633,-0.06433787196874619
17.1,0.2124955952167511,-0.40913867950439453,0.4829087257385254,-0.341703861951828,-0.32930782437324524,-0.1637822538614273
17.15,-0.19090895354747772,-0.6012649536132812,0.5695605278015137,-0.30170294642448425,-0.44575709104537964,-0.2192031592130661
17.2,-0.3486901521682739,-0.6306877136230469,0.5184069275856018,-0.31080397963523865,-0.516323983669281,-0.19336970150470734
17.25,0.6115802526473999,-0.8019504547119141,0.663252592086792,-0.34496331214904785,-0.605319619178772,-0.15344609320163727
17.3,0.4002799093723297,-0.7699012756347656,-0.25886601209640503,-0.3354811370372772,-0.8025034666061401,-0.24149203300476074
17.35,-0.20524464547634125,0.031138446182012558,-0.9634414911270142,-0.3687271475791931,-0.7131603956222534,-0.2497776597738266
17.4,-0.5763051509857178,0.2702169716358185,-0.6849343776702881,-0.3111517131328583,-0.3961186110973358,-0.15243999660015106
17.45,-0.697547197341919,0.6438436508178711,-0.18301469087600708,-0.081146240234375,-0.0106009216979146,-0.10489353537559509
17.5,-0.6511766314506531,0.8556337356567383,-0.046271760016679764,0.11521356552839279,0.2507745027542114,-0.062815822660923
17.55,-0.4156666398048401,0.36359214782714844,0.38725316524505615,0.28405603766441345,0.3407324552536011,-0.05057312920689583
17.6,-1.0709660053253174,-0.000825895753223449,0.1970970332622528,0.3795134723186493,0.24931450188159943,-0.04753248393535614
17.65,-0.5251848697662354,-0.023165706545114517,-0.0018505014013499022,0.32329902052879333,0.15069296956062317,0.039409030228853226
17.7,0.24563640356063843,-0.35585781931877136,-0.5269967913627625,0.16769206523895264,0.08093832433223724,0.11918777227401733
17.75,0.3399020731449127,-0.3781709372997284,-0.5781826972961426,-0.008577312342822552,0.03419126197695732,0.09017889201641083
17.8,0.269867479801178,-0.37140464782714844,-0.2839999198913574,-0.0938730239868164,0.04689262434840202,0.08284332603216171
17.85,0.03950386121869087,-0.27475547790527344,-0.38147643208503723,-0.10941024124622345,0.07071313261985779,0.09655927121639252
17.9,-0.2859528660774231,-0.08768747001886368,-0.9000893831253052,-0.1674029529094696,0.2091154009103775,0.10294880717992783
17.95,-0.9590727090835571,-0.24408242106437683,-1.3859513998031616,-0.31683018803596497,0.41507261991500854,0.12642286717891693
18.0,-2.4682602882385254,-0.6582803130149841,-2.022368907928467,-0.4416792392730713,0.8803247213363647,0.2566206753253937
18.05,-2.6575567722320557,-0.7915105819702148,-0.940911054611206,-0.4959941506385803,2.0892910957336426,0.5601044297218323
18.1,-3.365145206451416,-1.251967430114746,0.1127217635512352,-0.4623037576675415,2.9709413051605225,0.9241169691085815
18.15,-2.623819351196289,-1.203938603401184,1.7796391248703003,-0.3236253261566162,3.480515956878662,1.381198525428772
18.2,0.7816482186317444,-0.6940881013870239,3.4228572845458984,-0.13420456647872925,3.874046564102173,1.6960458755493164
18.25,1.8450508117675781,0.04868026077747345,2.0407280921936035,0.016451776027679443,3.618439197540283,1.535111904144287
18.3,3.38999605178833,0.9260120391845703,0.718715488910675,-0.03669734299182892,3.0728750228881836,1.087836742401123
18.35,4.290520668029785,2.002688407897949,0.2032213807106018,-0.06854169815778732,2.140284776687622,0.6163601875305176
18.4,3.2766003608703613,1.4008798599243164,0.66888827085495,0.05387565493583679,1.133179783821106,-0.010147691704332829
18.45,1.0813781023025513,-0.09258747845888138,0.6638751029968262,0.10654310882091522,0.1723267287015915,-0.43019041419029236
18.5,-0.7324983477592468,-0.608424186706543,0.7003880143165588,0.034803953021764755,-0.3342898190021515,-0.339059978723526
18.55,-1.020528793334961,-0.34879782795906067,0.8068009614944458,-0.05611037835478783,-0.37430331110954285,-0.004949348047375679
18.6,-0.43012118339538574,0.2807120978832245,0.6138044595718384,-0.08243861794471741,-0.3663390874862671,0.31908509135246277
18.65,-0.06358055025339127,0.7627744674682617,0.1274675577878952,-0.043280214071273804,-0.31049564480781555,0.41798871755599976
18.7,0.2502334713935852,0.8988666534423828,-0.20303332805633545,0.018139705061912537,-0.24054931104183197,0.33459368348121643
18.75,0.44347915053367615,0.8041105270385742,-0.29335111379623413,0.0980747640132904,-0.25837385654449463,0.14447163045406342
18.8,-0.013506680727005005,0.37049007415771484,-0.4527405798435211,0.15514257550239563,-0.2553030848503113,-0.08923666924238205
18.85,-0.6686785817146301,-0.2910757064819336,-0.44297128915786743,0.11083905398845673,-0.28473368287086487,-0.17601418495178223
18.9,-0.5865432620048523,-0.2901430130004883,-0.3873371183872223,-0.020579654723405838,-0.22161856293678284,-0.06355156004428864
18.95,-0.03747139126062393,0.1553201675415039,-0.11345066130161285,-0.10637561231851578,-0.1327325850725174,0.041775334626436234
19.0,0.42147696018218994,0.20839405059814453,0.21975606679916382,-0.1298539787530899,-0.06383085995912552,0.04313487187027931
19.05,0.42719709873199463,0.1667756885290146,0.42971131205558777,-0.11983399093151093,-0.011212529614567757,-0.019665569067001343
19.1,-0.020449012517929077,-0.07070447504520416,0.6072104573249817,-0.08674664795398712,0.031133372336626053,-0.058908432722091675
19.15,-0.7346113920211792,0.12714289128780365,0.261847585439682,-0.09567529708147049,0.06823275238275528,0.04491223394870758
19.2,-0.4750291407108307,0.681788444519043,0.1820635348558426,-0.10364621132612228,0.0927361249923706,0.1491471230983734
19.25,0.4744678735733032,0.5586185455322266,0.043028347194194794,0.0030173752456903458,0.07097502052783966,0.11963613331317902
19.3,0.3004834055900574,-0.16875456273555756,-0.49303925037384033,0.09363211691379547,-0.039987340569496155,-0.026441723108291626
19.35,-0.15528300404548645,-0.6941146850585938,-0.8670167326927185,-0.013248838484287262,-0.16472554206848145,-0.15886184573173523
19.4,-0.4685734808444977,-0.8910598754882812,-0.42885783314704895,-0.20002271234989166,-0.23333421349525452,-0.15902303159236908
19.45,-0.865376353263855,-0.7179155349731445,0.3733484745025635,-0.24022623896598816,-0.2317781150341034,-0.046301234513521194
19.5,-0.5851596593856812,-0.3655910789966583,0.5489740967750549,-0.15033194422721863,-0.11510466784238815,0.10727421194314957
19.55,-0.18116427958011627,0.05814836174249649,0.7819527983665466,0.015023987740278244,-0.04155225306749344,0.2214358150959015
19.6,-0.19812217354774475,0.11233805119991302,0.48602065443992615,0.1901138871908188,0.04860222712159157,0.2666272819042206
19.65,0.25895434617996216,0.009408009238541126,-0.33647871017456055,0.23076912760734558,0.19500358402729034,0.27082106471061707
19.7,0.8933241367340088,-0.002413718029856682,-0.8646701574325562,0.1205737292766571,0.23738519847393036,0.19803406298160553
19.75,0.896282434463501,-0.18093964457511902,-0.7868419885635376,-0.06401827186346054,0.15213747322559357,0.06045268103480339
19.8,0.31739699840545654,-0.34801387786865234,-0.24478992819786072,-0.22539812326431274,-0.019719285890460014,-0.058961693197488785
19.85,-0.24197816848754883,-0.2616395950317383,0.39177897572517395,-0.2847581207752228,-0.16596369445323944,-0.08035610616207123
