Time [s],Acc_x [m/s^2],Acc_y [m/s^2],Acc_z [m/s^2],Gyro_x [1/s],Gyro_y [1/s],Gyro_z [1/s]
0.0,-0.21652966737747192,0.03740499168634415,-1.8552803993225098,-0.03413795679807663,-0.4939616322517395,0.013853012584149837
0.05,-0.17966172099113464,0.032874077558517456,-1.8830522298812866,-0.03410027548670769,-0.4939543306827545,0.014203676022589207
0.1,-0.13222277164459229,0.018783526495099068,-1.8819018602371216,-0.0340687595307827,-0.49394577741622925,0.01457014586776495
0.15,0.07031436264514923,-0.19387446343898773,-1.2120033502578735,0.06242406368255615,-0.4689309000968933,-0.05932553485035896
0.2,-0.09370259195566177,-0.13766005635261536,-0.5638819932937622,0.3167491555213928,-0.6174478530883789,-0.07459184527397156
0.25,0.32601314783096313,0.15384766459465027,-0.13431325554847717,0.4217018783092499,-0.8601013422012329,-0.03519929200410843
0.3,0.22701863944530487,0.4014282822608948,0.2002539485692978,0.35020095109939575,-0.7861364483833313,0.03133013844490051
0.35,0.551851212978363,0.5852317810058594,0.18931065499782562,0.16203650832176208,-0.6427899599075317,0.019860751926898956
0.4,0.38871368765830994,0.15039917826652527,0.12083959579467773,-0.09206539392471313,-0.35919997096061707,0.13017435371875763
0.45,0.3970486521720886,0.1411246955394745,0.16493329405784607,-0.04268156737089157,-0.3114977478981018,0.08071412146091461
0.5,0.12292642146348953,0.055835723876953125,0.1314823180437088,-0.03985821455717087,-0.27157139778137207,0.11444311589002609
0.55,0.33152419328689575,0.07864472270011902,0.15595689415931702,0.009882774204015732,-0.297216534614563,0.015022767707705498
0.6,0.10187099874019623,-0.0709085762500763,0.12368985265493393,-0.002801463007926941,-0.1754104197025299,0.04784490168094635
0.65,-0.001475010416470468,-0.05637456476688385,0.008467660285532475,0.03699987009167671,-0.12095072865486145,0.003318566596135497
0.7,-0.08325409889221191,-0.11136724054813385,0.02988865040242672,0.01280998159199953,-0.1239481270313263,0.04212290793657303
0.75,-0.04795079678297043,0.018353477120399475,0.06999632716178894,0.04351310431957245,-0.17697618901729584,0.005489841103553772
0.8,0.19868366420269012,0.05055234581232071,0.038036640733480453,0.022099431604146957,-0.20849856734275818,0.02176198549568653
0.85,0.05655813217163086,0.1775226891040802,-0.012745658867061138,0.04304620251059532,-0.15654517710208893,-0.010393872857093811
0.9,0.023898955434560776,-0.0560932420194149,-0.20749470591545105,0.020373230800032616,-0.09020181000232697,-0.012694095261394978
0.95,0.07870786637067795,0.11217786371707916,-0.08407119661569595,0.055263131856918335,-0.09648601710796356,-0.0021888581104576588
1.0,-0.033155299723148346,0.0742969661951065,-0.07955937832593918,0.022414594888687134,-0.07055050134658813,0.03891785815358162
1.05,0.0780334621667862,0.04674243927001953,0.038436658680438995,0.030813463032245636,-0.0844755619764328,0.00922927912324667
1.1,0.10941463708877563,0.15783599019050598,0.09283718466758728,0.03968029469251633,-0.06032104417681694,0.04992975294589996
1.15,-0.03720740228891373,0.10017207264900208,0.05636642873287201,0.04947385936975479,-0.028241556137800217,0.01540087629109621
1.2,0.14356401562690735,0.11236382275819778,0.16474147140979767,0.042180392891168594,-0.05153791233897209,0.014155665412545204
1.25,-0.16772910952568054,0.16921813786029816,0.19505605101585388,0.05260852351784706,-0.004254905041307211,0.031340230256319046
1.3,0.3989110291004181,0.21820543706417084,0.42794153094291687,0.054928723722696304,-0.048006102442741394,0.007270584814250469
1.35,1.4699442386627197,1.6266967058181763,1.532758355140686,-0.06531527638435364,0.01886756159365177,0.1370178461074829
1.4,3.6946706771850586,1.3395869731903076,1.53568434715271,-1.0001299381256104,0.5707588791847229,0.7357710599899292
1.45,2.5184836387634277,1.8770743608474731,1.4119771718978882,-1.769539713859558,2.0507431030273438,1.697356939315796
1.5,0.45344656705856323,2.5656487941741943,1.1109256744384766,-2.387486457824707,3.517270088195801,1.8609694242477417
1.55,-3.031017303466797,0.45441222190856934,2.1004199981689453,-3.0868523120880127,4.533576965332031,0.760959267616272
1.6,-2.7979118824005127,0.6089665293693542,1.6377954483032227,-3.18198823928833,3.284696340560913,-0.3310791254043579
1.65,-3.2021589279174805,-0.6416669487953186,1.6366654634475708,-2.9769904613494873,2.10719895362854,-0.4281146228313446
1.7,-2.9032185077667236,0.12679630517959595,0.06444009393453598,-2.6122825145721436,0.17654144763946533,-0.5873108506202698
1.75,-1.6509780883789062,-0.708244264125824,-1.88255774974823,-2.4832751750946045,-1.3203657865524292,-0.07184314727783203
1.8,-1.130866527557373,-2.126552104949951,-2.7012746334075928,-2.04919171333313,-1.9647191762924194,0.4642941653728485
1.85,-0.8917896747589111,-2.7019827365875244,-2.049224853515625,-1.1801915168762207,-2.3179361820220947,0.6967023015022278
1.9,0.19460004568099976,-0.9985460638999939,-3.317052125930786,-0.20986205339431763,-2.770169973373413,0.7438709735870361
1.95,0.4916369915008545,-0.23084190487861633,-3.2117908000946045,-0.42328816652297974,-2.343094825744629,0.6278035044670105
2.0,0.3284430503845215,-0.06940378248691559,-1.747900128364563,-0.8616265058517456,-1.825746774673462,0.7077773809432983
2.05,1.902138352394104,2.536461114883423,-1.5039796829223633,-1.1356067657470703,-1.6511924266815186,1.679124355316162
2.1,3.8136205673217773,0.03840573504567146,0.6424891352653503,-2.3079371452331543,-0.715226411819458,3.105095386505127
2.15,0.6973267197608948,0.5889959335327148,0.3839653730392456,-2.0498034954071045,0.4062149226665497,1.7278999090194702
2.2,1.0188238620758057,1.364558458328247,0.29331886768341064,-1.8501390218734741,0.8513540625572205,1.4980846643447876
2.25,0.18417391180992126,1.1269705295562744,0.07156657427549362,-1.4457168579101562,1.0784403085708618,1.0998506546020508
2.3,0.16854283213615417,0.8915340900421143,0.8045040369033813,-1.1001710891723633,0.2649605870246887,0.7579843401908875
2.35,-0.3703960180282593,0.4945070147514343,0.15859904885292053,-0.7728992700576782,0.14688514173030853,0.37768182158470154
2.4,-0.05857478082180023,-0.49353042244911194,-0.7288209199905396,-0.5862610340118408,0.2222883701324463,0.3767732083797455
2.45,-0.09018011391162872,0.3304387032985687,-0.1161285936832428,-0.9424602389335632,0.05963345244526863,0.8693156242370605
2.5,0.7365447878837585,0.6749468445777893,0.24034614861011505,-0.739912211894989,0.084182508289814,0.9515252709388733
2.55,-0.7487538456916809,-0.34135720133781433,-0.21939103305339813,-0.4998093843460083,0.12085749208927155,0.5361607074737549
2.6,1.1330206394195557,0.7496995329856873,-0.33474013209342957,-0.43090736865997314,0.3893722593784332,0.7764989137649536
2.65,1.0885066986083984,0.36819541454315186,-0.545569896697998,-0.08430251479148865,0.25991180539131165,0.22279784083366394
2.7,0.009025078266859055,-0.2450733780860901,0.023969335481524467,0.10567154735326767,0.3191514313220978,-0.2860511541366577
2.75,0.3430720567703247,0.33468058705329895,0.09088143706321716,0.17780593037605286,0.5417826175689697,-0.42669883370399475
2.8,-0.44356921315193176,0.6933968663215637,0.9267086386680603,0.20684416592121124,0.47457173466682434,-0.5840300917625427
2.85,-1.9763747453689575,0.3456873893737793,1.093345284461975,0.24775677919387817,0.07549081742763519,-0.528939962387085
2.9,-1.2565150260925293,-0.39109402894973755,1.4183510541915894,0.20064465701580048,-0.47692015767097473,0.015961136668920517
2.95,-1.4753243923187256,0.5192484259605408,0.6207462549209595,0.054770275950431824,-0.5317453145980835,0.41599172353744507
3.0,-0.7568324208259583,-0.18965139985084534,-0.10547325760126114,-0.17876394093036652,-0.09401577711105347,0.09539507329463959
3.05,-0.33329156041145325,-0.1452464759349823,0.12116730958223343,-0.41145023703575134,0.04473064839839935,0.39219528436660767
3.1,-0.1901147961616516,0.34998810291290283,0.21012605726718903,-0.5096434950828552,0.11890053749084473,0.6519945859909058
3.15,-0.034812260419130325,0.4630833864212036,0.17739802598953247,-0.5159377455711365,0.1182815432548523,0.6033817529678345
3.2,-0.2842308580875397,0.02185637131333351,0.23120464384555817,-0.3617611825466156,-0.11941293627023697,0.522031307220459
3.25,0.7385340332984924,0.07869994640350342,-0.4073101282119751,-0.19556830823421478,-0.26745039224624634,0.6214874386787415
3.3,0.26725494861602783,0.10577675700187683,-0.22484423220157623,-0.0794190987944603,-0.27408260107040405,0.4060856103897095
3.35,0.19208304584026337,0.01980013959109783,-0.5164464116096497,-0.057772453874349594,-0.05526995286345482,0.26444798707962036
3.4,0.7239719033241272,0.041546691209077835,-0.39300915598869324,-0.03876875340938568,-0.0009029274224303663,0.15102553367614746
3.45,0.8664036989212036,0.4860677421092987,0.33185508847236633,-0.019020866602659225,0.11267993599176407,-0.01866205409169197
3.5,-0.36446279287338257,0.06813248991966248,0.21060223877429962,0.06065663322806358,0.06182989105582237,-0.06298265606164932
3.55,-0.024756621569395065,0.23203761875629425,0.10972978174686432,0.06207337975502014,-0.02194635011255741,0.06665065884590149
3.6,-0.8343214988708496,0.08915440738201141,-0.20566996932029724,0.0024541050661355257,0.0177177544683218,-0.011114723049104214
3.65,0.6178867816925049,0.4196481704711914,0.373110294342041,0.030547885224223137,0.12480991333723068,-0.005547104403376579
3.7,0.08724575489759445,0.11265850067138672,-0.4319077134132385,0.05643998086452484,0.1089010015130043,0.024366039782762527
3.75,-0.5579613447189331,0.22055736184120178,-0.11433039605617523,0.06040310114622116,0.08233819156885147,-0.045974310487508774
3.8,0.11204851418733597,0.04372977092862129,-0.07414579391479492,0.05612751841545105,-0.010198595933616161,-0.012378096580505371
3.85,0.3023560643196106,0.17546461522579193,-0.01983080618083477,0.08932714909315109,-0.07835931330919266,-0.01691102236509323
3.9,-0.4657200872898102,-0.09345145523548126,-0.46351733803749084,0.098402239382267,-0.1247008740901947,-0.09505412727594376
3.95,0.13055936992168427,-0.017071768641471863,-0.4731930196285248,0.06531202793121338,-0.022641319781541824,-0.04248547926545143
4.0,-0.08918462693691254,0.26369673013687134,-0.21973581612110138,0.03700826317071915,0.02028474770486355,-0.0313849039375782
4.05,-0.45736581087112427,0.05525313317775726,0.23942571878433228,0.013011821545660496,0.004653276409953833,-0.074320487678051
4.1,-0.22939980030059814,0.255468487739563,0.19471071660518646,0.004407722502946854,-0.02496710792183876,0.010279458947479725
4.15,0.11668596416711807,0.21208859980106354,-0.17265377938747406,0.01967686414718628,-0.05826625972986221,0.06623546034097672
4.2,0.08761372417211533,0.2064848244190216,-0.04948987439274788,0.0365859717130661,-0.07720658928155899,0.041586898267269135
4.25,0.011031927540898323,0.13045790791511536,0.10866912454366684,0.05967205390334129,-0.10461407899856567,-0.005772916600108147
4.3,0.02713531255722046,0.1533060371875763,0.09992118179798126,0.09545257687568665,-0.12139256298542023,-0.04334380477666855
4.35,-0.027694541960954666,0.08919432759284973,-0.0004293367965146899,0.07437870651483536,-0.1422683596611023,-0.028553077951073647
4.4,0.06544371694326401,0.20095637440681458,-0.00010063630907097831,0.06548918783664703,-0.12950007617473602,0.005495191551744938
4.45,-0.09623944759368896,0.05265047401189804,-0.13405698537826538,0.09129420667886734,-0.13018739223480225,-0.038110245019197464
4.5,-0.023447679355740547,-0.0070600565522909164,-0.21293945610523224,0.06703192740678787,-0.11171586811542511,-0.00742646399885416
4.55,0.01828693598508835,-0.010302555747330189,-0.16912198066711426,0.006995132192969322,-0.03009667992591858,0.029405346140265465
4.6,0.10423968732357025,0.10778521746397018,-0.3147611916065216,-0.04213564842939377,0.07349038869142532,0.017422735691070557
4.65,0.3752414584159851,0.009508069604635239,0.0013215484796091914,-0.04768088087439537,0.15458838641643524,-0.10062891244888306
4.7,-0.101997509598732,0.21961507201194763,0.15061712265014648,-0.004285886883735657,0.19936785101890564,-0.21988610923290253
4.75,-0.4486227333545685,0.34550970792770386,0.4337049126625061,0.02194150909781456,0.15644271671772003,-0.22495189309120178
4.8,-0.1800713986158371,0.2228442281484604,0.29307594895362854,0.05616554617881775,-0.12607066333293915,-0.12335371226072311
4.85,-0.17843465507030487,-0.20734597742557526,-0.08379048854112625,0.018498249351978302,-0.15886424481868744,-0.060653574764728546
4.9,0.12430915981531143,0.1689911186695099,0.043550677597522736,-0.0836598128080368,-0.22575592994689941,0.14143753051757812
4.95,0.2671014070510864,0.08759590983390808,-0.14949534833431244,-0.11736617237329483,-0.22613562643527985,0.11003987491130829
5.0,0.07127994298934937,0.08368587493896484,-0.18187619745731354,-0.12446652352809906,-0.17299331724643707,0.050937388092279434
5.05,-0.2134571671485901,0.13824564218521118,-0.12253110855817795,-0.13416503369808197,-0.04330842196941376,0.02589806541800499
5.1,0.030485384166240692,0.03472137451171875,-0.08863992989063263,-0.1376989185810089,0.15283381938934326,-0.026877371594309807
5.15,-0.2556091547012329,0.2603522539138794,0.26591575145721436,-0.1095907911658287,0.10609081387519836,0.009500866755843163
5.2,-0.014142202213406563,0.11348345875740051,-0.04023868218064308,-0.12123127281665802,-0.010975341312587261,0.08702854812145233
5.25,0.46424609422683716,0.06683056056499481,-0.19268083572387695,-0.10296161472797394,-0.005420580506324768,0.10112354159355164
5.3,0.255746990442276,0.3077402114868164,-0.038877397775650024,-0.029853492975234985,-0.008386440575122833,0.06142726540565491
5.35,0.0024756528437137604,-0.11595062166452408,-0.18639487028121948,0.0287012942135334,0.05134521797299385,-0.07795370370149612
5.4,-0.07834260165691376,0.13593964278697968,0.06667707860469818,-0.02261194959282875,0.17227347195148468,-0.09171783179044724
5.45,-0.09021937847137451,0.12845806777477264,0.0499730259180069,0.009709253907203674,0.24841102957725525,-0.12615978717803955
5.5,-0.22250621020793915,0.020409628748893738,-0.0010578894289210439,0.02386365830898285,0.2182403802871704,-0.13078811764717102
5.55,-0.11939317733049393,0.25851354002952576,0.4662850499153137,-0.0009393598884344101,0.20034094154834747,-0.0495256707072258
5.6,0.021760229021310806,0.22129541635513306,0.05478590354323387,0.014876211993396282,0.10874270647764206,-0.010147185064852238
5.65,-0.0069603100419044495,0.03959178924560547,-0.2949824929237366,-0.010492363013327122,0.12246860563755035,-0.05794044956564903
5.7,0.14884771406650543,0.013335197232663631,-0.19088421761989594,0.01727737858891487,0.1538606882095337,-0.0669875517487526
5.75,0.003273189999163151,0.1750498265028,0.03952272608876228,0.05520406737923622,0.14962702989578247,-0.07366885244846344
5.8,-0.352967768907547,0.2460891157388687,0.4488373398780823,0.029019515961408615,0.1634332835674286,-0.05523809790611267
5.85,-0.059778567403554916,0.26516255736351013,0.2001131922006607,-0.027845710515975952,0.08367942273616791,0.046419207006692886
5.9,-0.02371324598789215,0.0915842354297638,0.05105729401111603,-0.024597715586423874,-0.031475573778152466,0.06972674280405045
5.95,0.002041297033429146,0.11119082570075989,-0.04814653471112251,0.03808818385004997,-0.028067952021956444,0.06809909641742706
6.0,0.2940678298473358,-0.031485624611377716,-0.23549959063529968,0.1368568390607834,-0.032062724232673645,0.04279930144548416
6.05,-0.028106454759836197,-0.020741460844874382,0.04714689031243324,0.0420130118727684,0.036635514348745346,0.016180993989109993
6.1,-0.37584105134010315,0.13085375726222992,0.364003986120224,-0.041312023997306824,0.10242974758148193,0.04641106724739075
6.15,0.04840414971113205,0.2746582627296448,0.09249746054410934,-0.04129114747047424,0.09697934985160828,0.0801294818520546
6.2,-0.1875637322664261,0.13413721323013306,0.029102740809321404,-0.0717182382941246,-0.002257915213704109,0.07525958120822906
6.25,0.028965093195438385,0.10142423212528229,-0.07328008115291595,-0.06974846869707108,-0.0004385487991385162,0.0707305297255516
6.3,-0.04566110298037529,0.13738062977790833,-0.06319688260555267,-0.06399688124656677,-0.04905043914914131,0.05376853048801422
6.35,0.038121532648801804,0.07069302350282669,-0.013374020345509052,-0.040707193315029144,-0.07576240599155426,0.050190020352602005
6.4,0.039498887956142426,0.10781098902225494,-0.009812472388148308,-0.025257408618927002,-0.11405504494905472,0.06306543201208115
6.45,0.07718020677566528,0.049040786921978,-0.09666714817285538,-0.012525379657745361,-0.11772771924734116,0.05840419605374336
6.5,0.16697603464126587,0.06143949553370476,-0.12151817232370377,0.0009148889221251011,-0.08964632451534271,0.03819037973880768
6.55,0.060338348150253296,0.10641098767518997,-0.10844943672418594,0.008694703690707684,-0.031810637563467026,0.006417954806238413
6.6,-0.04273022338747978,0.11893943697214127,0.006572829559445381,-0.003954836167395115,-0.0045409738086164,-0.00855245441198349
6.65,-0.020891832187771797,0.07598020136356354,-0.031002681702375412,-0.0057507953606545925,0.018590200692415237,-0.020488997921347618
6.7,0.03665434569120407,0.1251697838306427,0.0023635919205844402,0.0016971305012702942,0.008375969715416431,-0.018030479550361633
6.75,-0.0014366336399689317,0.06082440912723541,-0.011454122141003609,0.008530288003385067,-0.005435366183519363,-0.01887059025466442
6.8,-0.026975730434060097,0.09195521473884583,0.03500722721219063,0.012666856870055199,0.0003255979681853205,-0.013816400431096554
6.85,0.0030785873532295227,0.04997922107577324,0.02808627299964428,0.014820650219917297,0.02819213829934597,-0.012638700194656849
6.9,0.013620540499687195,0.12528041005134583,-0.002459676004946232,0.017998134717345238,0.027867641299962997,0.0007852473063394427
6.95,-0.004962455481290817,0.13372614979743958,0.009071816690266132,0.014837436378002167,0.010431328788399696,0.0018644747324287891
7.0,0.01497618667781353,0.1867695301771164,-0.009721041657030582,0.006645800545811653,0.0067011709325015545,-0.012986330315470695
7.05,-0.005988561548292637,0.09189894050359726,0.031630001962184906,0.0017620581202208996,0.015617393888533115,-0.016901401802897453
7.1,0.061208996921777725,0.1247425302863121,0.053222909569740295,-0.005141891539096832,0.021760959178209305,-0.012315074913203716
7.15,-0.007233560085296631,0.07196427881717682,0.020202666521072388,-0.012260965071618557,0.016880759969353676,-0.013889105059206486
7.2,0.014125424437224865,0.22217661142349243,0.009198114275932312,-0.0050542717799544334,0.018138401210308075,0.011019201949238777
7.25,0.004412710666656494,0.11351588368415833,-0.028699824586510658,0.02106531336903572,0.016596529632806778,0.03630411997437477
7.3,-0.37507763504981995,-0.12905974686145782,0.1857561618089676,0.0659206211566925,0.01959613524377346,0.061777908354997635
7.35,-0.8653278350830078,-0.056591857224702835,-0.11631155759096146,0.013434384018182755,-0.06743797659873962,0.017586344853043556
7.4,1.1914713382720947,0.30661383271217346,1.855781078338623,-0.07960519194602966,-0.29878607392311096,0.2229982316493988
7.45,-0.38717275857925415,0.3332425653934479,-0.09181002527475357,0.4707494378089905,0.28246769309043884,0.20366041362285614
7.5,-0.033895380795001984,0.10874273627996445,-0.24064938724040985,0.18285484611988068,0.2159394770860672,0.11409249156713486
7.55,0.25783365964889526,0.031176529824733734,0.017298059538006783,-0.05550239980220795,0.2067667692899704,0.08883658796548843
7.6,-0.19201841950416565,-0.24490834772586823,0.2648408114910126,0.11175769567489624,0.2008611559867859,0.007142719347029924
7.65,1.2428058385849,0.5427817106246948,0.029066182672977448,0.4060482978820801,0.1803925633430481,0.21309688687324524
7.7,-0.9132105112075806,-0.555722177028656,0.08615744858980179,-0.200144425034523,-0.021764695644378662,-0.36724090576171875
7.75,0.12313124537467957,0.23553280532360077,0.2615553140640259,-0.2711082696914673,-0.07378339767456055,-0.19197143614292145
7.8,0.2988744378089905,0.5384522080421448,0.07162589579820633,-0.029174312949180603,-0.06699636578559875,-0.1899554431438446
7.85,-0.02830825001001358,0.18856149911880493,0.36863046884536743,0.09111540019512177,-0.1764252483844757,-0.601889967918396
7.9,-0.6268873810768127,-0.22254174947738647,0.20411722362041473,0.17853765189647675,-0.1728495955467224,-0.5325636863708496
7.95,-0.13282035291194916,-0.0018663211958482862,-0.08980947732925415,0.16823580861091614,-0.1644010841846466,-0.23607687652111053
8.0,0.36262428760528564,0.11497016996145248,-0.09704601019620895,0.11596554517745972,-0.09192159026861191,-0.17346817255020142
8.05,-0.14818330109119415,-0.12817193567752838,-0.14616601169109344,0.08457614481449127,-0.0330546610057354,-0.111366406083107
8.1,0.05034184828400612,0.15968899428844452,0.10450270771980286,0.06793099641799927,-0.05052141472697258,0.054189492017030716
8.15,-0.012798327952623367,0.16781525313854218,0.06282535940408707,0.10769352316856384,-0.0019492231076583266,0.05728965997695923
8.2,-0.1170186996459961,0.07796100527048111,0.14397965371608734,0.07151773571968079,-0.001326295081526041,0.08310635387897491
8.25,0.07396495342254639,0.20222190022468567,-0.009016981348395348,0.11476603895425797,-0.04215960204601288,0.06378274410963058
8.3,-0.17373232543468475,0.06340985745191574,0.16270534694194794,0.10744278877973557,-0.028150014579296112,0.0248460341244936
8.35,-0.011197373270988464,0.08694079518318176,0.07091610133647919,0.09878887981176376,0.009300335310399532,0.09322406351566315
8.4,-0.049131762236356735,0.15088944137096405,0.03902329131960869,0.07435666024684906,-0.019377833232283592,0.11992465704679489
8.45,-0.0420842282474041,0.09587481617927551,-0.03909618407487869,0.024529876187443733,-0.0167586300522089,0.1547996997833252
8.5,0.046131715178489685,-0.047949813306331635,-0.12638121843338013,0.05515093356370926,-0.06080380827188492,0.10400070995092392
8.55,0.05713467672467232,0.1001281812787056,-0.10356985777616501,0.00728566013276577,0.02541365846991539,0.07390013337135315
8.6,0.009558194316923618,0.13274195790290833,-0.008525378070771694,-0.07299642264842987,0.08645405620336533,0.1166124939918518
8.65,0.2469104528427124,0.1353149265050888,-0.06663203984498978,-0.08778977394104004,0.1029253676533699,0.15706196427345276
8.7,-0.0635899230837822,0.06575491279363632,-0.03978379815816879,-0.07331614196300507,0.07911940664052963,0.13296528160572052
8.75,-0.32513031363487244,0.08039481937885284,-0.028552494943141937,-0.04621873423457146,0.06164906546473503,0.16357260942459106
8.8,0.007655303925275803,0.1893177479505539,-0.07705278694629669,-0.04618754982948303,0.050828587263822556,0.2093326598405838
8.85,0.22581009566783905,0.03589626029133797,-0.22077423334121704,-0.01303861103951931,0.0628284364938736,0.11215205490589142
8.9,-0.5007294416427612,0.3275901675224304,0.1988396942615509,-0.012656217440962791,0.16515596210956573,0.02710196189582348
8.95,-2.6656928062438965,0.9729630351066589,-1.1785647869110107,-0.0024508656933903694,0.10722626000642776,0.03217184543609619
9.0,-0.9221352934837341,0.256389856338501,0.1405840516090393,0.0050069717690348625,0.014727306552231312,0.034472331404685974
9.05,0.39731740951538086,-0.08016213774681091,0.16318154335021973,0.014722692780196667,-0.012206757441163063,-0.010766272433102131
9.1,-0.26882216334342957,0.33012595772743225,0.1886492818593979,0.017717082053422928,-0.04319154471158981,-0.03707273676991463
9.15,0.19946834444999695,0.1959848701953888,0.35817843675613403,0.033608704805374146,-0.05485398694872856,-0.030345549806952477
9.2,-0.04498431086540222,-0.09502313286066055,0.9452179074287415,0.010811563581228256,-0.032000843435525894,-0.02634989656507969
9.25,-2.519681692123413,0.2166142463684082,-0.08428194373846054,0.01653667725622654,-0.03322215378284454,-0.05979199707508087
9.3,1.2828593254089355,0.16040118038654327,0.48899784684181213,0.04722033068537712,-0.05050525814294815,-0.038223620504140854
9.35,-2.3270108699798584,0.1258082240819931,0.48006245493888855,0.05671719089150429,-0.04727961868047714,-0.07655955106019974
9.4,0.8996097445487976,-0.03836071863770485,1.0887854099273682,0.019812949001789093,-0.008726049214601517,-0.0038283613976091146
9.45,0.6851986050605774,0.08975213766098022,1.094184398651123,0.027700547128915787,-0.02273283712565899,-0.03236516937613487
9.5,-2.7341411113739014,1.1442323923110962,-1.9712318181991577,0.023212198168039322,-0.013579589314758778,-0.05522351339459419
9.55,3.6063437461853027,0.2787957191467285,2.251112937927246,0.05164756998419762,-0.032158490270376205,0.013249080628156662
9.6,0.9141442775726318,-0.1975957602262497,1.0768476724624634,0.004880624823272228,0.0003422576410230249,-0.045353781431913376
9.65,3.498471260070801,-0.5111804604530334,4.609025955200195,0.005258381832391024,-0.011315709911286831,0.0410274975001812
9.7,3.701131820678711,-0.7963980436325073,0.19822117686271667,-0.005971603095531464,0.0302007757127285,-0.04375021904706955
9.75,-5.270149230957031,1.4169572591781616,1.051673173904419,0.013234295882284641,-0.002156313043087721,-0.007462488953024149
9.8,14.760993957519531,0.3915952444076538,-0.2593969702720642,-0.05543673783540726,-0.0019512366270646453,0.054643385112285614
9.85,7.563248634338379,-1.9239885807037354,3.596243143081665,-0.033024296164512634,-0.01461853552609682,-0.006041608285158873
9.9,11.572613716125488,-2.404921531677246,5.520027160644531,-0.035543832927942276,-0.017480874434113503,-0.01952653005719185
9.95,23.6842041015625,-2.6238842010498047,3.0877151489257812,-0.012482318095862865,-0.031407710164785385,-0.004668352194130421
10.0,5.761959075927734,1.665187120437622,-2.9669511318206787,0.0016059055924415588,-0.04761568829417229,-0.1988372951745987
10.05,-15.048659324645996,3.9748055934906006,-3.154210329055786,0.04242616891860962,-0.15547196567058563,-0.10127272456884384
10.1,-10.902654647827148,1.3095859289169312,-0.7266097068786621,0.04012501612305641,-0.27688169479370117,-0.16807466745376587
10.15,6.797482490539551,-0.6965316534042358,1.3668915033340454,-0.08803302049636841,-0.1222374364733696,-0.21462611854076385
10.2,0.7352805137634277,0.00646287202835083,-1.3866691589355469,-0.17602336406707764,-0.13657358288764954,-0.26355233788490295
10.25,6.276806354522705,-0.5990392565727234,1.8106659650802612,-0.15463852882385254,-0.09907776862382889,-0.030462726950645447
10.3,-4.724194049835205,-0.707958459854126,2.052640438079834,-0.12939156591892242,0.011242263950407505,-0.011290019378066063
10.35,-7.706737995147705,1.473967432975769,0.7021594643592834,-0.0537874773144722,-0.14723211526870728,0.10119371116161346
10.4,7.2895097732543945,-0.9304347038269043,1.8010077476501465,0.08675441890954971,-0.05980706959962845,0.1955568492412567
10.45,-1.1806365251541138,0.8086742162704468,-1.047302007675171,0.41834211349487305,-0.12199145555496216,-0.004656970035284758
10.5,-7.183805465698242,2.1692912578582764,-1.4065074920654297,0.36771219968795776,-0.16537238657474518,-0.04639929533004761
10.55,6.166904449462891,-0.6309568881988525,2.336660861968994,0.15216565132141113,-0.11759081482887268,0.055706579238176346
10.6,-1.5621826648712158,0.6575226783752441,-0.029327454045414925,0.2231629341840744,-0.1071668267250061,0.14723043143749237
10.65,-7.339404582977295,0.6993880867958069,1.3445085287094116,0.3510490655899048,-0.3730660080909729,0.21670690178871155
10.7,6.2776641845703125,-1.847166657447815,1.2928941249847412,0.24954743683338165,-0.37808647751808167,0.5625646710395813
10.75,-2.2599520683288574,0.4305853843688965,-0.10552002489566803,0.28372713923454285,-0.7084180116653442,0.7641348242759705
10.8,-5.187335014343262,2.1243786811828613,0.3434047996997833,0.16295874118804932,-0.6866722106933594,0.6268180012702942
10.85,1.931722640991211,-3.81770920753479,2.781078338623047,0.25497734546661377,-0.6225792169570923,0.42081040143966675
10.9,-1.7125157117843628,-0.4700019657611847,0.711659848690033,0.1711379885673523,-0.35428479313850403,0.5529901385307312
10.95,4.194777488708496,1.9180238246917725,1.2299784421920776,0.13138797879219055,-0.4206661283969879,0.7387629151344299
11.0,-5.285506725311279,1.5761826038360596,-2.976978063583374,0.3692469894886017,-0.67592453956604,0.3822779059410095
11.05,5.063820838928223,-3.194619655609131,6.722731113433838,-0.12287986278533936,-0.5523853898048401,0.12919127941131592
11.1,-1.8621187210083008,2.444187879562378,-1.652822732925415,-0.37796324491500854,-0.04554936662316322,0.06503484398126602
11.15,-4.155634880065918,4.066229343414307,-1.8814899921417236,-0.19694292545318604,-0.07160422950983047,-0.2532917857170105
11.2,-0.9332972764968872,-5.048147678375244,4.693324565887451,-0.23284222185611725,-0.06451255828142166,-0.12405404448509216
11.25,6.9646687507629395,-2.3131167888641357,0.5126083493232727,0.033718083053827286,0.21527089178562164,-0.21151100099086761
11.3,-2.311047077178955,1.58017897605896,-0.17942969501018524,0.011666432023048401,0.14566519856452942,-0.09746076911687851
11.35,-11.771305084228516,5.549490451812744,-1.985532522201538,-0.10929460823535919,0.11916612088680267,-0.026061909273266792
11.4,5.399179458618164,-5.274100303649902,6.503581523895264,-0.18994246423244476,0.3188740909099579,0.008337088860571384
11.45,12.731114387512207,-2.245651960372925,2.22916579246521,0.054339997470378876,0.3919159471988678,-0.06603293120861053
11.5,-6.343334197998047,-0.22913452982902527,-1.590652585029602,0.10116633772850037,0.16205132007598877,0.20748871564865112
11.55,-6.5251970291137695,3.9780685901641846,-0.5330960750579834,-0.0972343236207962,0.3232475221157074,0.2796425521373749
11.6,-6.936557292938232,-3.4905495643615723,1.316603422164917,-0.15301059186458588,0.5429648160934448,-0.13006190955638885
11.65,15.924226760864258,-7.985355377197266,2.4875638484954834,-0.24067652225494385,0.5308185815811157,-0.2181207239627838
11.7,-4.946022987365723,3.679915428161621,-0.5386731624603271,-0.4377446174621582,0.3337865471839905,0.40879374742507935
11.75,-0.7712814807891846,5.51401948928833,1.1600421667099,0.044121287763118744,0.3302710950374603,-0.09343409538269043
11.8,-6.558703422546387,4.370645523071289,-2.604053020477295,0.12884941697120667,0.7620007395744324,-0.30394765734672546
11.85,0.04610595107078552,-0.6034271121025085,-2.1687519550323486,-0.10670524835586548,0.07469391822814941,0.7625548839569092
11.9,4.71441125869751,-4.0504865646362305,-8.126032829284668,0.6492903828620911,-2.0097055435180664,-0.06510790437459946
11.95,-11.279034614562988,1.4789930582046509,4.950836181640625,1.347575306892395,-1.311432957649231,-0.8948138356208801
12.0,-2.2358899116516113,0.34059593081474304,5.199713706970215,1.0885006189346313,-1.6472506523132324,-2.0581932067871094
12.05,-0.9900774359703064,0.904841959476471,2.8254287242889404,1.2831652164459229,-2.9792473316192627,-1.591468334197998
12.1,-2.1400628089904785,2.8964076042175293,8.554399490356445,1.0512844324111938,-3.064422845840454,-0.6475492715835571
12.15,1.3365213871002197,1.6900895833969116,5.865611553192139,0.12539444863796234,-2.209421396255493,-0.44751301407814026
12.2,3.4252681732177734,-0.7728382349014282,5.070470809936523,-0.2747061550617218,-1.5384855270385742,0.3752376437187195
12.25,3.2551798820495605,0.767508327960968,5.648378372192383,-1.1042269468307495,-1.82216477394104,1.2665600776672363
12.3,0.9009486436843872,2.2280447483062744,-3.4832475185394287,-1.260646104812622,-0.41170376539230347,0.7035463452339172
12.35,3.686169385910034,-2.285365104675293,4.6983513832092285,0.12789961695671082,0.6148607730865479,-0.0695841982960701
12.4,2.4844233989715576,6.034503936767578,-4.403249263763428,0.48812681436538696,1.483041763305664,-0.7588117718696594
12.45,9.031435012817383,-2.666027784347534,3.2192726135253906,0.3240392208099365,2.0481224060058594,-0.03170444071292877
12.5,1.026822805404663,-1.06680428981781,0.5329831838607788,0.40980756282806396,1.1431914567947388,0.13958245515823364
12.55,-1.1356921195983887,1.2792370319366455,-8.967453956604004,-0.2492283135652542,0.9667887687683105,-0.17167305946350098
12.6,2.520728826522827,-6.601807594299316,0.47860193252563477,0.555413007736206,1.1654216051101685,-0.09607836604118347
12.65,-0.40391480922698975,1.3227484226226807,-5.428741931915283,0.06351568549871445,1.3901786804199219,0.11196629703044891
12.7,1.912747859954834,-0.24231941998004913,2.3531408309936523,-0.48689284920692444,1.172957181930542,0.10323166102170944
12.75,-4.1150665283203125,-1.6435620784759521,-2.6585276126861572,-0.8756278157234192,0.6989094018936157,0.22949115931987762
12.8,-2.092182159423828,-0.24639475345611572,1.2088406085968018,-0.4493577480316162,1.1272631883621216,-0.18154263496398926
12.85,-6.780433654785156,-1.1684237718582153,-2.39133620262146,-0.09487329423427582,1.1177918910980225,-0.5292719602584839
12.9,3.9645485877990723,-2.197442054748535,3.7322700023651123,-0.6623673439025879,0.9305762648582458,-0.2254532426595688
12.95,5.714591979980469,5.0346999168396,0.7546154856681824,0.0045043230056762695,1.0093252658843994,-0.3257562816143036
13.0,-11.686721801757812,0.5045309662818909,-5.85308837890625,0.11461688578128815,0.7084566950798035,-0.3292301297187805
13.05,0.525326132774353,-2.687379837036133,5.902247428894043,-0.41336148977279663,0.630538821220398,0.007554472424089909
13.1,-13.206253051757812,5.422645092010498,-5.357543468475342,-0.3854238986968994,0.6843152046203613,0.07776619493961334
13.15,4.3124799728393555,-4.739084243774414,7.290592193603516,-0.35539063811302185,0.5729279518127441,0.006340553984045982
13.2,10.69633674621582,4.888360023498535,0.4706641733646393,-0.2769917845726013,0.4081929922103882,0.11523421108722687
13.25,-11.956286430358887,0.5313513278961182,-0.9448574781417847,-0.2557619512081146,0.08509136736392975,0.061699867248535156
13.3,0.8511993885040283,-5.340786457061768,5.902050495147705,-0.2842830419540405,0.03266621381044388,0.22004377841949463
13.35,-9.027663230895996,5.413405418395996,-5.124460220336914,-0.1647481471300125,-0.14365816116333008,0.19507960975170135
13.4,3.034595251083374,-4.567324638366699,8.201285362243652,-0.378191739320755,-0.16009145975112915,0.2984663248062134
13.45,12.295246124267578,4.279353141784668,1.8860020637512207,-0.3376208543777466,-0.1889267861843109,0.29865631461143494
13.5,-14.402446746826172,-0.2005963772535324,-3.570920944213867,-0.3264595568180084,-0.5978851914405823,0.2636833190917969
13.55,2.243405818939209,-2.557619094848633,4.586611747741699,-0.39655110239982605,-0.7785065174102783,0.40225374698638916
13.6,-9.085760116577148,3.1074163913726807,-5.058950901031494,-0.17868664860725403,-0.8299869894981384,0.3064831793308258
13.65,6.175321102142334,-2.0148253440856934,5.606665134429932,-0.09337188303470612,-0.7768567800521851,0.31054913997650146
13.7,10.281401634216309,3.8393614292144775,0.4346890151500702,-0.053070541471242905,-0.5774332284927368,0.17367535829544067
13.75,-10.689635276794434,-2.804415702819824,-3.6431782245635986,-0.06375440210103989,-0.3804306983947754,0.1521788090467453
13.8,6.236995697021484,-0.046600230038166046,6.9196014404296875,0.12403274327516556,0.004598173778504133,0.04992247372865677
13.85,-9.07855224609375,1.5767390727996826,-6.557670593261719,0.4139702618122101,0.3759862780570984,-0.2016918659210205
13.9,8.31063461303711,-3.384605646133423,3.124774694442749,0.37170329689979553,0.4964260458946228,-0.18467745184898376
13.95,9.270050048828125,2.075349807739258,5.415700435638428,0.7340261936187744,0.4759487211704254,-0.09858154505491257
14.0,-4.41826868057251,2.894533634185791,-4.466171741485596,0.9853329658508301,0.5256132483482361,0.065393827855587
14.05,-0.7921265959739685,-3.1812076568603516,0.21377432346343994,0.8647201061248779,0.7474658489227295,-0.3828226923942566
14.1,-3.8231441974639893,4.425445079803467,-2.5454821586608887,0.6777423620223999,1.123791217803955,-0.6560880541801453
14.15,-9.529154777526855,-1.8865206241607666,0.833807110786438,0.47502878308296204,1.3539612293243408,-0.6911208629608154
14.2,5.909811019897461,-9.046490669250488,4.250207424163818,0.4273374080657959,1.2538443803787231,-0.7532044053077698
14.25,4.874332427978516,4.17752742767334,-6.995337963104248,-0.2532554566860199,1.8401589393615723,-0.9726535081863403
14.3,-4.454727649688721,6.396092414855957,-2.244105339050293,-0.7115039229393005,2.5529072284698486,-1.2555506229400635
14.35,-2.058356523513794,2.4871349334716797,3.2242274284362793,-0.5363885164260864,2.2947347164154053,-1.6949591636657715
14.4,-0.8408882021903992,-3.8067104816436768,3.8678548336029053,-0.4339439868927002,1.7619658708572388,-1.927106261253357
14.45,-8.242199897766113,6.387718200683594,0.2318757325410843,0.10218092799186707,1.519541621208191,-1.4070261716842651
14.5,4.61728048324585,-11.947005271911621,12.552746772766113,0.2639593482017517,1.1777405738830566,-0.9564178586006165
14.55,5.16229772567749,7.354591369628906,-1.33839750289917,0.008321404457092285,0.5928347706794739,-0.7008541226387024
14.6,-4.728964328765869,4.975502014160156,2.4770219326019287,-0.2486838400363922,0.3677053153514862,-0.37682726979255676
14.65,-1.5885475873947144,-4.430616855621338,6.008782386779785,-0.16160471737384796,-0.16119496524333954,-0.22006389498710632
14.7,-2.1089088916778564,3.8318254947662354,-1.4528472423553467,0.04045713320374489,-0.9170651435852051,0.24259497225284576
14.75,-7.194427013397217,3.313098192214966,6.201389312744141,-0.32179152965545654,-1.3673248291015625,1.1446824073791504
14.8,10.275923728942871,-10.994546890258789,7.142282962799072,-0.0754447877407074,-1.3608633279800415,1.375680685043335
14.85,8.347782135009766,3.848411798477173,-3.5108611583709717,-0.21101520955562592,-1.9054478406906128,0.9339348673820496
14.9,-3.6756763458251953,2.499910593032837,0.2600288689136505,-0.6562554836273193,-2.112900733947754,-0.5715999603271484
14.95,8.941427230834961,-2.2534141540527344,4.792714595794678,-1.0721261501312256,0.6367107629776001,0.1454704850912094
15.0,-18.044525146484375,3.3544492721557617,1.5653024911880493,0.7791502475738525,1.4131592512130737,-2.7385332584381104
15.05,-9.89291000366211,-2.823928117752075,-8.901756286621094,-0.6479953527450562,-1.3293229341506958,2.297501564025879
15.1,3.967649221420288,-3.8170526027679443,-1.6245543956756592,-1.984200119972229,-2.228060245513916,4.923295497894287
15.15,-4.749358177185059,-0.8156628012657166,-2.453364372253418,-0.003890290856361389,-1.9191460609436035,1.1031941175460815
15.2,-0.21144819259643555,-2.0847394466400146,-5.9636664390563965,0.3770108222961426,-2.8517181873321533,0.9445978999137878
15.25,-1.692317008972168,-4.188416004180908,-3.7111117839813232,-0.09584581851959229,-3.8581857681274414,1.1357845067977905
15.3,-1.3861236572265625,2.7485156059265137,-11.117179870605469,0.6875312328338623,-3.1484389305114746,0.4409603178501129
15.35,12.102348327636719,-3.763108253479004,-4.736087322235107,-0.4561305344104767,-4.15924596786499,0.06909004598855972
15.4,11.31353759765625,-5.301279544830322,2.950345516204834,0.32759183645248413,-4.036401271820068,0.9131150245666504
15.45,11.183520317077637,2.6994245052337646,3.0346038341522217,-0.09230941534042358,-4.697636127471924,2.0053062438964844
15.5,8.490373611450195,0.04422943666577339,11.983845710754395,-0.2963787317276001,-4.021909713745117,1.240572214126587
15.55,4.395671367645264,5.042611122131348,1.866011381149292,-0.43104931712150574,-2.042304754257202,1.9365707635879517
15.6,-0.29474425315856934,1.8605574369430542,9.03571605682373,0.13079413771629333,-0.6944468021392822,1.860561490058899
15.65,-0.36429643630981445,5.141168594360352,12.901516914367676,0.54192715883255,0.5689113736152649,1.4195339679718018
15.7,-4.491498947143555,3.0164520740509033,14.740765571594238,1.2441219091415405,0.9879521727561951,0.32364344596862793
15.75,21.784738540649414,18.255111694335938,3.977667808532715,3.120161533355713,3.8668785095214844,-2.5972893238067627
15.8,-2.901169776916504,-4.612682819366455,-6.8755083084106445,-1.6278738975524902,6.529025077819824,-6.173696041107178
15.85,0.7733616232872009,-4.8280558586120605,7.171230792999268,-4.303035736083984,5.994113922119141,-1.6810375452041626
15.9,-16.37981414794922,1.3677424192428589,-14.19377326965332,0.5573859214782715,6.252893924713135,-0.18503686785697937
15.95,-16.809402465820312,-1.8139547109603882,2.2568471431732178,1.2486965656280518,2.316528081893921,0.9886792898178101
16.0,1.2205755710601807,5.157253742218018,0.6565185785293579,-1.0218374729156494,-0.36101269721984863,4.337420463562012
16.05,-17.983064651489258,-2.798525094985962,-8.911784172058105,0.08435836434364319,0.7092107534408569,1.2447888851165771
16.1,-3.346611261367798,-3.795288324356079,1.6220051050186157,1.9661110639572144,1.1208289861679077,-0.4578424096107483
16.15,1.531943440437317,8.514670372009277,-0.5361524820327759,1.8521596193313599,-1.3752412796020508,0.181533083319664
16.2,2.9238345623016357,8.868582725524902,9.747612953186035,2.4634265899658203,-2.821723699569702,-1.5528485774993896
16.25,1.1532516479492188,-5.429723262786865,-2.142014741897583,7.605216979980469,-2.0169832706451416,-3.5427823066711426
16.3,-3.773550510406494,-6.924891471862793,-8.870741844177246,2.0504021644592285,-2.7334177494049072,-1.1830421686172485
16.35,2.62900710105896,-5.139455318450928,-6.894439697265625,-2.103494644165039,-2.8052737712860107,1.90862238407135
16.4,7.667182445526123,1.6922376155853271,-5.107172966003418,-4.541713237762451,-2.4397220611572266,1.0930348634719849
16.45,9.322280883789062,-1.2587708234786987,5.063619136810303,-3.168865203857422,-2.7881569862365723,-0.002647123532369733
16.5,5.0951247215271,-1.2414064407348633,5.7818803787231445,-0.44386282563209534,-2.8458473682403564,0.35898858308792114
16.55,6.292309284210205,5.862269878387451,-0.6264017224311829,-0.07320022583007812,-2.8141965866088867,0.17069151997566223
16.6,4.294536113739014,-3.524512529373169,11.292323112487793,0.5209004878997803,-1.9450308084487915,0.20353800058364868
16.65,3.33384370803833,11.026147842407227,6.1544671058654785,-0.804075300693512,-0.9918099641799927,0.7002823948860168
16.7,-0.5199089050292969,4.385133266448975,11.31568431854248,1.7619757652282715,1.3433451652526855,0.5409678220748901
16.75,-5.951086044311523,4.858142375946045,-11.548480033874512,1.4859741926193237,3.2446444034576416,-1.2342902421951294
16.8,-17.779712677001953,-13.312432289123535,26.037975311279297,-2.8284451961517334,4.760811805725098,-4.236747741699219
16.85,-15.67202377319336,-2.146056652069092,-10.062832832336426,-3.2305331230163574,4.2847208976745605,-2.8166069984436035
16.9,-5.229608058929443,-2.7365739345550537,1.5846805572509766,-0.08491862565279007,2.4574737548828125,0.03506230562925339
16.95,-10.614667892456055,-1.3746687173843384,-5.344544410705566,1.6086362600326538,3.1671011447906494,-1.7228814363479614
17.0,-1.0726903676986694,-0.2053629755973816,4.1153364181518555,-1.8494712114334106,0.3036348819732666,0.984799325466156
17.05,-9.163190841674805,-8.279241561889648,1.532243013381958,0.8041933178901672,1.6787256002426147,0.08661836385726929
17.1,-6.738799095153809,10.445584297180176,-9.53449821472168,2.3383069038391113,0.9384536743164062,0.15296505391597748
17.15,-10.08663272857666,-2.7264492511749268,-11.507134437561035,-0.4870123267173767,-1.315557837486267,1.1048253774642944
17.2,4.553788661956787,-2.9702606201171875,-7.968520641326904,-0.6806170344352722,-3.010165214538574,0.9704123139381409
17.25,12.297825813293457,-3.8682477474212646,-0.8050839900970459,0.05666070803999901,-4.319376468658447,0.5108717679977417
17.3,13.636180877685547,-3.775935173034668,-1.7062053680419922,-0.005809467285871506,-3.9449028968811035,0.22324611246585846
17.35,8.937214851379395,-0.05956628546118736,-3.102102756500244,-0.1550317108631134,-4.172464847564697,-0.4538875222206116
17.4,10.155106544494629,-3.455986261367798,7.807323932647705,-0.30939215421676636,-4.272945880889893,-0.05178986117243767
17.45,5.218127250671387,2.8886098861694336,3.4336998462677,-0.010392844676971436,-2.8241162300109863,1.3491780757904053
17.5,0.3181784152984619,4.135998249053955,11.640920639038086,-0.555364727973938,-1.6270474195480347,1.7959175109863281
17.55,-2.9932618141174316,4.3060078620910645,21.026891708374023,0.8581143021583557,0.29754409193992615,1.6749669313430786
17.6,-0.9813284873962402,2.548410177230835,19.277996063232422,2.3349571228027344,2.324552297592163,0.9062785506248474
17.65,-49.44691467285156,-93.72360229492188,-114.76561737060547,2.172135829925537,3.7566699981689453,-0.8797289729118347
17.7,-6.515339374542236,-6.735714435577393,-9.861860275268555,-1.9219677448272705,6.060733795166016,-4.02647590637207
17.75,-9.090248107910156,-6.006003379821777,7.56981086730957,-3.5722200870513916,4.916459083557129,-3.7178874015808105
17.8,-14.60895824432373,4.642590045928955,-2.141033411026001,0.058364540338516235,5.313793182373047,0.980554461479187
17.85,-3.7139134407043457,3.6882901191711426,-5.4254865646362305,-1.034658670425415,1.1177961826324463,1.9738224744796753
17.9,-7.592279434204102,2.853494644165039,-2.1314237117767334,-2.126918315887451,1.0420688390731812,-1.1530976295471191
17.95,-16.34531593322754,-12.59074878692627,-14.5524263381958,1.3680864572525024,1.9263604879379272,-1.1819376945495605
18.0,0.4701573848724365,-7.096268653869629,-14.404093742370605,2.366719961166382,-0.7844370603561401,1.6693536043167114
18.05,0.17386019229888916,-4.508477687835693,-8.147001266479492,1.1354646682739258,-2.838472843170166,0.6078823804855347
18.1,9.29212760925293,-0.08435066789388657,-9.11372184753418,1.906114935874939,-5.2280731201171875,1.8926901817321777
18.15,6.8951592445373535,-1.7653015851974487,-2.175616979598999,0.42158424854278564,-5.52111291885376,1.8459930419921875
18.2,12.050422668457031,2.9657492637634277,-2.8684043884277344,-0.03947761654853821,-4.577946662902832,1.3266099691390991
18.25,10.995207786560059,-1.9524502754211426,12.054908752441406,0.24580055475234985,-3.610429286956787,-0.44251084327697754
18.3,3.3650918006896973,0.6624011397361755,9.621847152709961,0.024832751601934433,-2.806178092956543,0.05494117736816406
18.35,-2.2612383365631104,2.9078383445739746,10.47630500793457,-0.3859776258468628,-2.3796606063842773,0.06059322878718376
18.4,-8.442118644714355,-1.99591064453125,12.300945281982422,0.40247422456741333,-0.1898152083158493,0.3114613890647888
18.45,-5.846599102020264,2.824300765991211,4.494995594024658,-0.00958678126335144,0.6416891813278198,1.541754961013794
18.5,4.869260787963867,0.5489817261695862,-3.585751533508301,-0.25747960805892944,-0.4299488067626953,1.153450608253479
18.55,-4.198611259460449,-0.17469987273216248,4.830179214477539,0.07953134179115295,-1.3329854011535645,0.7427216172218323
18.6,-0.8499373197555542,-1.0291056632995605,-11.728431701660156,0.9206092953681946,0.44743064045906067,0.345914751291275
18.65,-13.754959106445312,10.319491386413574,24.702356338500977,0.20213139057159424,1.8795931339263916,-3.438157558441162
18.7,1.637652039527893,-3.3221521377563477,0.7729729413986206,3.134315013885498,7.754856109619141,-3.8054606914520264
18.75,-4.834924221038818,-0.3653123080730438,-13.37087345123291,1.2038536071777344,7.007411956787109,-3.0581305027008057
18.8,-6.262391567230225,-0.2867247462272644,5.725687026977539,-2.8812999725341797,4.764031410217285,-1.2431188821792603
18.85,-6.62662935256958,1.8676657676696777,-4.859914779663086,-0.5580648183822632,3.7084970474243164,0.6526448726654053
18.9,-8.711618423461914,-0.6164318919181824,-3.320697784423828,-0.3298565745353699,1.7064083814620972,-0.17305167019367218
18.95,-7.2367634773254395,-0.5440786480903625,0.3631432354450226,-0.462479829788208,-0.8040738105773926,0.28502872586250305
19.0,-2.912982702255249,-2.60669207572937,0.4027222990989685,-0.2613977789878845,-2.0322959423065186,1.1551170349121094
19.05,1.2861106395721436,-5.528460502624512,-0.819512128829956,0.5036386847496033,-1.8797926902770996,1.9406099319458008
19.1,4.120307445526123,-4.4415283203125,-2.141953706741333,0.963464617729187,-1.701488971710205,2.40289306640625
19.15,5.871471405029297,-3.701612949371338,0.2013377547264099,1.132542371749878,-1.6331791877746582,2.259215831756592
19.2,8.785258293151855,8.437055587768555,3.174265146255493,-0.3913903832435608,0.09468454122543335,2.4214627742767334
19.25,1.9652113914489746,-0.6309590339660645,1.1930140256881714,-0.39349788427352905,-0.29216766357421875,0.21809795498847961
19.3,1.9958326816558838,-0.4538562297821045,-6.278794288635254,0.4597351551055908,-1.5075321197509766,0.5290929079055786
19.35,3.5669827461242676,14.149007797241211,3.5616261959075928,-0.14020738005638123,-1.5565961599349976,-0.37917277216911316
19.4,-2.134521484375,-3.191753625869751,5.9523725509643555,0.20299527049064636,-0.44573530554771423,-0.7394879460334778
19.45,-4.888955593109131,-3.371600389480591,1.3613814115524292,0.2040165513753891,0.0191904716193676,-0.2373690903186798
19.5,2.5657308101654053,1.1570602655410767,-4.238185882568359,0.1729564517736435,-0.639044463634491,0.9242489337921143
19.55,-5.077503204345703,-5.19647741317749,1.8987324237823486,0.06722630560398102,-1.2030556201934814,0.8220502138137817
19.6,3.559898853302002,6.525270462036133,1.7006806135177612,-0.048267900943756104,-0.6919315457344055,-0.023136921226978302
19.65,1.231708288192749,-0.47398489713668823,4.436483860015869,0.14063964784145355,-0.17737069725990295,-1.1320312023162842
19.7,-5.006614685058594,-4.551477432250977,3.1156766414642334,0.19366469979286194,0.1490895003080368,-0.7408143877983093
19.75,2.621337890625,3.0629072189331055,-5.1043829917907715,0.05546478182077408,-0.0025382228195667267,0.579900324344635
19.8,-4.157116889953613,-3.9329674243927,-2.4085354804992676,0.10618934035301208,-0.5124757289886475,0.7194023132324219
19.85,-11.10316276550293,-7.915983200073242,4.029909133911133,0.11971371620893478,-0.4232771396636963,0.28755173087120056
19.9,6.431922912597656,12.514641761779785,-2.408766984939575,-0.07468142360448837,-0.07538484781980515,0.16582892835140228
19.95,3.439812421798706,0.9332339763641357,3.896458387374878,-0.04620075225830078,-0.01719965785741806,-0.10595104098320007
20.0,-2.446587085723877,-5.129315376281738,7.622003555297852,0.08403433114290237,-0.08799252659082413,-0.15287095308303833
20.05,3.934628963470459,7.437562942504883,-7.699690818786621,0.19763818383216858,0.07578796148300171,-0.3256707787513733
20.1,-8.894676208496094,-6.691864013671875,1.3531497716903687,0.014408305287361145,0.2402109056711197,-0.396095335483551
20.15,-5.2311506271362305,2.1665005683898926,2.422994375228882,-0.10925818979740143,0.30096039175987244,-0.0845484733581543
20.2,7.747767448425293,10.296875,-3.1638336181640625,-0.24300511181354523,0.43997225165367126,0.4242616891860962
20.25,-1.2885273694992065,-4.442028045654297,9.031365394592285,-0.18887990713119507,0.2784716486930847,0.3925338387489319
20.3,2.618378162384033,5.221347808837891,2.1862528324127197,0.1032097265124321,0.1556342989206314,0.04903214052319527
20.35,-6.335199356079102,-3.9284846782684326,0.15333785116672516,0.022443190217018127,0.31396129727363586,-0.7087782621383667
20.4,-0.15159213542938232,5.900471210479736,2.321317672729492,-0.06063066050410271,0.8966619372367859,0.04775270074605942
20.45,5.624204635620117,7.660884857177734,2.8106236457824707,-0.10735632479190826,1.635714054107666,0.14676930010318756
20.5,0.8506543040275574,-3.3247265815734863,7.49207067489624,0.040267013013362885,2.0860373973846436,0.29250553250312805
20.55,0.6899681091308594,-0.21242941915988922,-5.651113986968994,0.3358485698699951,1.7315280437469482,0.7315768599510193
20.6,-4.266066551208496,-4.968791961669922,-2.9034860134124756,0.23194895684719086,1.2782264947891235,0.5537551641464233
20.65,1.4933496713638306,2.52470064163208,-0.1172713115811348,-0.2154187709093094,0.9836186170578003,0.024051714688539505
20.7,-0.21141469478607178,0.007771666161715984,3.614983558654785,-0.4975387156009674,1.0341275930404663,-0.3590087592601776
20.75,-1.9139018058776855,-2.8857173919677734,-2.4105684757232666,-0.09601517766714096,0.8892641663551331,0.24358443915843964
20.8,-2.9433443546295166,1.0654990673065186,-2.4095451831817627,-0.06014357507228851,0.4787764847278595,0.6591765880584717
20.85,-1.504586100578308,-2.4060981273651123,2.497370481491089,-0.008685201406478882,0.4549050033092499,0.6175472140312195
20.9,5.623864650726318,3.1974830627441406,3.9872703552246094,-0.2597827613353729,0.5386145710945129,0.4473082423210144
20.95,-0.12696635723114014,-1.6352455615997314,3.2952282428741455,-0.5795751810073853,0.8311546444892883,0.20534072816371918
21.0,-1.8392235040664673,0.6005308628082275,-5.158811569213867,-0.6062504053115845,1.1262595653533936,-0.02001173049211502
21.05,-3.208021402359009,-1.5590198040008545,1.739225149154663,-0.6665832996368408,1.215332269668579,-0.012629545293748379
21.1,-1.405951738357544,-0.7416218519210815,1.5102620124816895,-0.26651516556739807,1.1445494890213013,0.43361225724220276
21.15,6.595627307891846,-2.4850833415985107,1.2242943048477173,0.2570943236351013,1.1532621383666992,0.5305114984512329
21.2,0.26153671741485596,-0.6534339785575867,1.00835382938385,0.006627410650253296,1.099184274673462,0.6731435060501099
21.25,-3.6130142211914062,-4.373599052429199,-4.614175796508789,-0.5265272855758667,1.024967074394226,0.509294867515564
21.3,-0.969964861869812,2.5832784175872803,-2.302466630935669,-0.8774189352989197,1.006734013557434,-0.3898025155067444
21.35,-3.866000175476074,-2.151628017425537,-2.3901102542877197,-0.9604282379150391,0.8628766536712646,-1.266586422920227
21.4,10.151927947998047,-4.228231906890869,6.959836006164551,-0.43868935108184814,0.48418667912483215,-0.6729478240013123
21.45,-0.18911507725715637,0.7766858339309692,-3.197336196899414,0.10548153519630432,0.5756303071975708,0.3083995282649994
21.5,-8.928811073303223,0.4775185286998749,-7.118426322937012,0.002793252468109131,0.6502581238746643,0.3292101323604584
21.55,0.7149907946586609,-3.392916440963745,0.7105266451835632,-0.6165721416473389,0.3878987431526184,0.7116414308547974
21.6,-17.84360122680664,6.580522537231445,5.411543846130371,-1.4050387144088745,-0.44667401909828186,-0.30832338333129883
21.65,-0.43408799171447754,-1.5126745700836182,0.029312191531062126,-1.3585718870162964,1.0786418914794922,-2.3342440128326416
21.7,-3.448331356048584,-4.422328948974609,-5.187551975250244,-0.12223255634307861,0.9515300393104553,-1.1992677450180054
21.75,-7.249355316162109,4.287047863006592,0.03756897896528244,0.9903807044029236,-2.32171630859375,-0.7207321524620056
21.8,2.703596591949463,2.977792263031006,6.8724045753479,1.0035381317138672,-1.925613284111023,-1.0521730184555054
21.85,-1.8441182374954224,1.5419663190841675,2.9743237495422363,0.6248404383659363,-2.293088674545288,-1.4821223020553589
21.9,-2.104097843170166,5.312514305114746,7.14304780960083,0.7702219486236572,-3.376628875732422,-0.24217556416988373
21.95,3.705613851547241,2.2181501388549805,4.578970909118652,0.525056004524231,-2.3362672328948975,-0.4230842590332031
22.0,0.8348743915557861,1.336342215538025,4.669779300689697,-0.49855470657348633,-1.8046863079071045,0.5239603519439697
22.05,0.5989759564399719,-0.1386709064245224,3.980799674987793,-0.7943263053894043,-0.99933260679245,1.3848950862884521
22.1,8.61734390258789,4.752465724945068,5.780971050262451,-0.2892721891403198,0.7141939997673035,2.0028178691864014
22.15,7.216364860534668,-3.143317222595215,2.0283961296081543,1.811875343322754,1.1446168422698975,0.8888903260231018
22.2,-2.4902312755584717,-4.35637903213501,-9.52100944519043,1.054694414138794,0.11671587824821472,1.7142654657363892
22.25,6.865585803985596,6.462411403656006,0.7076818346977234,-0.681002140045166,-0.8209965825080872,2.5020055770874023
22.3,2.176671266555786,-1.5210967063903809,7.313689231872559,-1.0977110862731934,0.2953086495399475,-1.9643781185150146
22.35,-12.366081237792969,-5.4871907234191895,-7.983914375305176,-0.20372602343559265,1.5590763092041016,-1.3617383241653442
22.4,-2.7394471168518066,-8.41189193725586,2.316251754760742,0.9981427788734436,0.6024346947669983,-0.6737306118011475
22.45,3.2868688106536865,6.298969268798828,-1.6295998096466064,0.4487459063529968,1.0177626609802246,0.5477533936500549
22.5,3.4248664379119873,-3.444593667984009,5.264361381530762,-0.5017088055610657,1.0397251844406128,-0.576805055141449
22.55,0.13091382384300232,5.301687717437744,-2.0447604656219482,-1.2827790975570679,1.319199562072754,-0.6681639552116394
22.6,-4.745237827301025,-1.3790336847305298,-1.493055820465088,-0.504026472568512,1.8942265510559082,-0.5099665522575378
22.65,-2.1298940181732178,-4.626524448394775,-1.4111987352371216,0.4693866968154907,2.113633632659912,-0.11503329873085022
22.7,5.90597677230835,6.743356227874756,-1.390802025794983,0.2794683575630188,1.5618095397949219,0.3282110393047333
22.75,-1.5480519533157349,-5.323161602020264,2.1547129154205322,-0.23972809314727783,0.9664159417152405,0.17805331945419312
22.8,-5.441876411437988,2.037010669708252,0.04150272160768509,-1.1523388624191284,1.2268565893173218,-0.05062781646847725
22.85,-9.750310897827148,-5.995121479034424,3.873185634613037,-0.4081176221370697,1.4177923202514648,-0.14718423783779144
22.9,1.3121681213378906,-1.0664620399475098,0.2813608646392822,0.4074968099594116,-0.0009225229150615633,0.5313510298728943
22.95,0.7827730774879456,-0.5331231951713562,2.5982532501220703,0.30898064374923706,0.15168742835521698,-0.3547690510749817
23.0,-5.688504695892334,2.524456739425659,-0.8155103921890259,-0.2986776828765869,-0.13655130565166473,-0.26491469144821167
23.05,-4.005328178405762,-0.8465932011604309,4.2146525382995605,-0.6905041933059692,-0.9330626726150513,-0.09733365476131439
23.1,-5.779995918273926,-0.14658936858177185,-3.145658016204834,0.19048883020877838,-1.4805192947387695,0.2582795023918152
23.15,12.002054214477539,1.4678051471710205,1.8850536346435547,0.8076907396316528,-1.4816786050796509,0.7390775084495544
23.2,0.34431374073028564,-3.2028396129608154,2.8882579803466797,1.330536961555481,-0.93919438123703,-0.2706684470176697
23.25,-0.389789342880249,0.9472848773002625,-2.766951560974121,0.675650954246521,-0.5034429430961609,-0.7378319501876831
23.3,-3.965390205383301,-5.382195949554443,4.7400593757629395,-0.2826780378818512,-0.721421480178833,0.10819471627473831
23.35,8.938586235046387,7.901558876037598,-3.61810302734375,-0.6754531860351562,-0.6465771794319153,0.4652714133262634
23.4,11.042500495910645,-0.024708468466997147,8.242077827453613,0.3750561475753784,0.4676838219165802,0.4044472873210907
23.45,-3.779811382293701,-1.521924614906311,0.5460597276687622,0.9415810108184814,0.9921339750289917,0.5617197751998901
23.5,-3.151982307434082,2.5568602085113525,-2.0191588401794434,0.6308971643447876,0.37860313057899475,0.26445066928863525
23.55,-5.56756067276001,-6.680311679840088,4.29944372177124,0.05532120540738106,-0.1006292998790741,-0.29177314043045044
23.6,1.8533363342285156,2.2516403198242188,-3.7365901470184326,-0.45506423711776733,-0.4277591109275818,-0.07705505937337875
23.65,12.009209632873535,1.7840629816055298,7.257966041564941,-0.4798227846622467,-0.6097880601882935,0.3615168333053589
23.7,-3.3920555114746094,-0.6366324424743652,0.8831216096878052,0.5522318482398987,-0.3902718722820282,-0.18346039950847626
23.75,-3.0755460262298584,1.879103660583496,-1.8961552381515503,0.6913312673568726,-0.6657953858375549,-0.12144125998020172
23.8,-6.853934288024902,-7.8167033195495605,5.329514503479004,0.610028088092804,-1.369158148765564,0.013713584281504154
23.85,-0.8178778290748596,2.666829824447632,-3.4841153621673584,0.5946104526519775,-1.7467765808105469,0.01826971024274826
23.9,8.77127742767334,9.613077163696289,2.9835622310638428,0.2056303322315216,-1.8984311819076538,0.24226489663124084
23.95,0.5620611310005188,-8.924125671386719,3.77787184715271,0.2796362638473511,-2.092996597290039,0.9108231067657471
24.0,-0.5318224430084229,3.195514440536499,-3.10758376121521,1.2489192485809326,-2.099905252456665,0.7800677418708801
24.05,3.3907902240753174,4.886925220489502,-3.0782978534698486,0.19883480668067932,-1.5840249061584473,-0.2743338346481323
24.1,2.2117908000946045,-8.410597801208496,11.826264381408691,-1.1464903354644775,-1.7126070261001587,-0.472936749458313
24.15,0.6695725917816162,10.625480651855469,0.1787453293800354,-0.8716265559196472,-0.5782891511917114,-0.31691351532936096
24.2,5.596995830535889,-0.3914041817188263,2.039900779724121,-0.14598260819911957,-0.022701801732182503,0.23669128119945526
24.25,-0.35894227027893066,-4.656381607055664,2.2012460231781006,0.718117892742157,-0.1375240683555603,0.7702870965003967
24.3,1.6937801837921143,4.276193141937256,-4.070139408111572,0.6298778057098389,-0.5292909741401672,0.8938156962394714
24.35,0.052762001752853394,-1.7721028327941895,1.603270173072815,0.26114657521247864,-0.9847022294998169,0.7524145841598511
24.4,-1.4888256788253784,-3.9177842140197754,4.671636581420898,0.42241209745407104,-1.0374367237091064,0.4052387475967407
24.45,0.8790108561515808,7.428558826446533,-3.1791679859161377,0.20121781527996063,-0.8632115125656128,-0.09351351112127304
24.5,4.611720561981201,-2.35935378074646,3.4177727699279785,0.06627945601940155,-0.6191165447235107,-0.34201768040657043
24.55,0.5413849949836731,0.35146239399909973,1.101667046546936,-0.19061565399169922,-0.8727623224258423,-0.4604611396789551
24.6,-0.2347278892993927,2.9644315242767334,-0.8776147365570068,-0.23797607421875,-0.9163405895233154,-0.4472277760505676
24.65,-1.715019702911377,-4.064703464508057,11.758974075317383,-0.34186309576034546,-0.5359659790992737,-0.7915530800819397
24.7,-3.3624353408813477,3.1953842639923096,-0.01563277281820774,-0.18861201405525208,0.15598098933696747,-1.0694440603256226
24.75,6.612109184265137,1.844838261604309,-2.8364007472991943,-0.04426228255033493,0.3131922483444214,-0.7129817008972168
24.8,3.8011953830718994,-2.3457412719726562,5.518916130065918,-0.0811694785952568,0.2252877652645111,-0.26828697323799133
24.85,0.5036759376525879,0.5437288284301758,-0.3354041874408722,-0.04863052815198898,0.17886985838413239,0.04800289869308472
24.9,-0.1104820966720581,-5.574055194854736,4.713955402374268,0.12002068012952805,-0.13446328043937683,-0.002331463387235999
24.95,-4.670522689819336,-1.9156687259674072,-1.153955101966858,0.21545259654521942,-0.29153749346733093,0.25187376141548157
25.0,5.017543792724609,2.053711175918579,-7.82959508895874,-0.11153394728899002,-0.1655329018831253,0.1469443142414093
25.05,3.62878155708313,-1.965334177017212,9.92729377746582,-0.17312750220298767,-0.13070164620876312,0.1348654329776764
25.1,0.41878223419189453,8.30687427520752,-5.610161781311035,0.022985167801380157,-0.2865270972251892,0.05418767035007477
25.15,-2.494596481323242,-8.687758445739746,8.00545597076416,-0.03817085549235344,-0.17147570848464966,-0.058263249695301056
25.2,-3.1645114421844482,0.6271206736564636,-1.5347367525100708,-0.06053270027041435,-0.08377860486507416,0.31793084740638733
25.25,7.911288261413574,2.813934564590454,-3.7874302864074707,-0.02165047824382782,-0.5090652704238892,0.5561726093292236
25.3,1.876564860343933,-1.2017301321029663,6.4947381019592285,-0.26548516750335693,-0.7250725626945496,-0.21075695753097534
25.35,-1.4796441793441772,4.847448825836182,0.6398469805717468,-0.4045669436454773,-0.31793904304504395,-1.077336072921753
25.4,-7.617593765258789,-2.44504714012146,8.707690238952637,-0.07722911238670349,0.44899967312812805,-1.0689973831176758
25.45,-1.8297570943832397,-5.550561428070068,-0.5069906115531921,0.12771153450012207,0.9303628206253052,-0.3436123728752136
25.5,6.825315952301025,6.906201362609863,-7.163684368133545,0.11869390308856964,0.4734458923339844,-0.061472002416849136
25.55,5.630450248718262,-1.4702224731445312,8.875645637512207,0.32194799184799194,-0.09363870322704315,0.05819942057132721
25.6,-1.8723344802856445,3.6814348697662354,-2.7794997692108154,0.05418001115322113,-0.03364354372024536,-0.17514130473136902
25.65,-0.690357506275177,-0.4762171506881714,2.937854766845703,-0.006306931376457214,0.20935069024562836,-0.46974098682403564
25.7,-6.462954521179199,-8.142439842224121,8.917426109313965,0.032468825578689575,0.5206931233406067,-0.15442439913749695
25.75,2.7195963859558105,5.923339366912842,-8.025080680847168,-0.00477307103574276,0.44044867157936096,-0.08482783287763596
25.8,7.653616428375244,-0.3452167510986328,12.650125503540039,-0.17031356692314148,0.8419423699378967,-0.34421369433403015
25.85,-0.6200782656669617,0.5133660435676575,2.457667350769043,-0.0777706652879715,1.4856621026992798,-0.19519545137882233
25.9,-0.9277311563491821,3.2477402687072754,-13.01018238067627,-0.07092349976301193,1.1774921417236328,-0.20630475878715515
25.95,-2.9619641304016113,-11.617193222045898,3.5803842544555664,0.14768154919147491,0.6460738182067871,0.21829853951931
26.0,-4.56967306137085,4.152079105377197,-7.0669379234313965,0.4237915873527527,-0.3847441077232361,1.0146712064743042
26.05,4.600980281829834,4.54106330871582,-9.965169906616211,0.4266120195388794,-1.1828962564468384,0.8873798251152039
26.1,2.728396415710449,0.09672648459672928,14.050471305847168,-0.20400378108024597,-0.8954439163208008,-0.07016391307115555
26.15,-0.7596321105957031,4.514019966125488,-2.342259168624878,-0.5652053952217102,0.19807563722133636,-0.8892092108726501
26.2,-1.8169320821762085,-2.959169626235962,5.674259185791016,-0.5087558627128601,0.7124797105789185,-0.8557225465774536
26.25,-4.092459201812744,-3.503274917602539,3.78359055519104,0.08251748979091644,0.4214233160018921,-0.17119166254997253
26.3,4.3672895431518555,6.971370220184326,-2.6655220985412598,-0.04332544654607773,0.5015445351600647,0.06440721452236176
26.35,7.599396705627441,-2.0005602836608887,11.35157299041748,-0.11468663811683655,1.0942655801773071,-0.2863553762435913
26.4,-4.007893085479736,0.942737340927124,-6.19158935546875,0.04650399088859558,1.2714089155197144,-0.4181879758834839
26.45,-0.8618344068527222,-3.5504708290100098,-2.852576732635498,0.058143068104982376,0.5861541032791138,-0.12338656932115555
26.5,-0.3060920238494873,-5.50618839263916,11.186698913574219,0.08615706861019135,0.2346014529466629,-0.04217270389199257
26.55,3.0807607173919678,10.333052635192871,-11.705689430236816,-0.2407570481300354,0.5118429660797119,-0.08269003033638
26.6,9.550227165222168,-3.601270914077759,13.189957618713379,-0.383445680141449,0.6303565502166748,-0.6692106127738953
26.65,-0.888269305229187,-0.14075839519500732,-0.19783645868301392,-0.2924440801143646,1.4146651029586792,-0.4045412540435791
26.7,-1.9139093160629272,2.046477794647217,-8.049432754516602,0.13533158600330353,2.1446733474731445,0.04128166660666466
26.75,4.661553859710693,-10.61121654510498,12.370960235595703,0.4118517339229584,2.1158502101898193,-0.08137597888708115
26.8,1.1131019592285156,9.672687530517578,-9.599983215332031,0.7206262946128845,1.9791911840438843,-0.025832686573266983
26.85,2.7497236728668213,-0.12590743601322174,0.5021129846572876,0.3473155200481415,1.5238683223724365,0.08915950357913971
26.9,-0.8223044872283936,-3.357640266418457,1.1639301776885986,0.4037221372127533,1.2513089179992676,0.1403760462999344
26.95,-3.7283754348754883,3.704965114593506,-4.112957000732422,0.24092969298362732,0.9087393879890442,0.24641597270965576
27.0,-3.5948920249938965,-5.939167499542236,6.292271614074707,-0.11746106296777725,0.43429046869277954,0.09268829971551895
27.05,0.21814897656440735,4.655852317810059,-1.7457282543182373,-0.18175937235355377,0.5840041041374207,-0.03233281522989273
27.1,6.819374084472656,3.315910816192627,-0.41667717695236206,-0.4203711748123169,0.29397454857826233,-0.07201281189918518
27.15,-3.689650535583496,-5.561081409454346,4.946445465087891,-0.21999140083789825,-0.19568583369255066,-0.049318503588438034
27.2,-3.2715394496917725,5.372492790222168,-4.446255683898926,0.10786405950784683,-0.5010901689529419,0.14230625331401825
27.25,-2.4925739765167236,0.7256724238395691,1.283340334892273,0.12090033292770386,-0.4573812782764435,0.0864112600684166
27.3,0.05871477723121643,-0.9871112704277039,1.810154676437378,0.22822359204292297,-0.10688923299312592,0.05505120009183884
27.35,9.436990737915039,11.40460205078125,-5.903538227081299,0.09612879157066345,0.121894471347332,0.12010259181261063
27.4,1.404915690422058,-3.51226544380188,0.8561051487922668,-0.017644667997956276,0.283247172832489,-0.1600339561700821
27.45,-4.198957920074463,3.242455005645752,-2.336991548538208,0.12859006226062775,0.26278141140937805,-0.0002917475358117372
27.5,0.9041438102722168,-1.5558093786239624,3.2036023139953613,-0.03988898545503616,-0.01870543509721756,0.10965647548437119
27.55,-1.4883813858032227,-4.748950004577637,4.074512004852295,0.03917008265852928,-0.07089821994304657,0.045935824513435364
27.6,7.893316745758057,5.785800933837891,-3.6122264862060547,-0.11726068705320358,0.023705411702394485,0.19374482333660126
27.65,4.447486400604248,-4.939576625823975,3.898013114929199,-0.20067648589611053,0.5361128449440002,0.012227221392095089
27.7,-1.849281907081604,0.6335921883583069,0.6821779012680054,-0.2046496570110321,0.8192613124847412,-0.10053040832281113
27.75,0.9092040657997131,1.715088129043579,0.611562192440033,-0.0010227672755718231,1.175199270248413,-0.15610715746879578
27.8,0.7213299870491028,-6.409194469451904,0.8230416774749756,0.20077429711818695,1.1585060358047485,0.00719775864854455
27.85,8.751800537109375,3.8927042484283447,-2.919553518295288,0.04983898252248764,1.1243647336959839,0.34719935059547424
27.9,8.098733901977539,2.5858633518218994,0.8413161039352417,0.07555733621120453,1.5934866666793823,0.5288428664207458
27.95,-2.6562609672546387,0.41300439834594727,-2.3759405612945557,0.05030146986246109,1.570731520652771,0.6889442801475525
28.0,3.037842273712158,-1.559391975402832,-1.1673080921173096,-0.3543124496936798,1.835555911064148,0.4084869921207428
28.05,-6.4176435470581055,3.5780601501464844,-2.023120880126953,-0.23828189074993134,1.7005445957183838,0.04656516760587692
28.1,-1.306808590888977,-4.120997905731201,5.180308818817139,-0.36993759870529175,1.2406692504882812,-0.5952749848365784
28.15,6.604301452636719,-0.4818635880947113,-6.181966781616211,-0.9124308228492737,1.3514254093170166,-1.2757738828659058
28.2,-7.738563060760498,3.8563618659973145,3.832669973373413,-1.9514729976654053,2.0335960388183594,-0.8644088506698608
28.25,-0.905016303062439,-4.043114185333252,1.7170454263687134,-1.1472631692886353,2.683706760406494,-1.4849960803985596
28.3,-3.6361591815948486,-2.1793243885040283,1.1850817203521729,-1.545318365097046,1.8135937452316284,-1.9560768604278564
28.35,-5.967759132385254,3.3963003158569336,5.96468448638916,-1.912434697151184,2.200932741165161,-2.0897157192230225
28.4,4.051380157470703,-8.302515983581543,5.897164821624756,-1.4279236793518066,2.7400662899017334,-2.2260117530822754
28.45,5.594326019287109,-2.829979658126831,11.142789840698242,-1.7936080694198608,2.580951452255249,-2.6518781185150146
28.5,-0.1716139316558838,7.926631450653076,8.08983039855957,-1.083019495010376,1.9137752056121826,-3.842233419418335
28.55,3.5274524688720703,1.7144629955291748,-0.050747327506542206,-0.25390684604644775,1.1807420253753662,-4.414738655090332
28.6,2.073943614959717,-0.10842260718345642,1.5814945697784424,-0.005562901496887207,0.5776808261871338,-3.675882339477539
28.65,1.3022215366363525,3.602029323577881,-3.602464437484741,-0.4048874080181122,0.2626425325870514,-1.8411656618118286
28.7,5.858633995056152,-4.586736679077148,14.819607734680176,-0.37268856167793274,0.2915045917034149,-1.0959304571151733
28.75,2.9921627044677734,-0.373508095741272,0.16393756866455078,-0.7010576725006104,-0.9240016341209412,-0.9446280598640442
28.8,2.5255260467529297,1.6221617460250854,-1.2867313623428345,-0.996986448764801,-1.2157694101333618,-0.3075331151485443
28.85,1.6814786195755005,-1.6364036798477173,0.9305858016014099,-0.5591703057289124,-1.8391867876052856,-0.07752572000026703
28.9,2.246054172515869,-10.39858341217041,-10.150450706481934,-1.0289688110351562,-3.967883348464966,1.1305830478668213
28.95,0.1263331174850464,8.178009986877441,7.830386161804199,0.46865522861480713,-0.6235114336013794,0.26594090461730957
29.0,-0.6937060356140137,14.668417930603027,1.1116631031036377,-1.4181081056594849,-4.314226150512695,2.987853765487671
29.05,4.44563627243042,-4.51270866394043,0.08062377572059631,-4.488829612731934,-6.035303592681885,7.912238597869873
29.1,0.23008155822753906,-3.5302391052246094,0.9240193367004395,-2.9918057918548584,-3.372823715209961,5.1592230796813965
29.15,-0.8800467848777771,-5.392873764038086,0.8854091167449951,-2.3418333530426025,-3.638272523880005,4.323862552642822
29.2,-1.9276924133300781,-6.344726085662842,1.0678638219833374,-0.9902619123458862,-3.0965685844421387,5.314897537231445
29.25,5.441684246063232,-6.595634937286377,2.6401615142822266,1.3775758743286133,-3.426252603530884,5.178924560546875
29.3,6.951920986175537,3.4606823921203613,0.792456865310669,4.13083553314209,-1.3434855937957764,3.310255765914917
29.35,-1.5879181623458862,1.1396832466125488,-0.5680926442146301,1.82172429561615,0.9727914333343506,1.8645371198654175
29.4,0.6549899578094482,0.4433622658252716,0.36155959963798523,1.2405807971954346,-0.11197349429130554,2.5299196243286133
29.45,0.9498894214630127,-0.9380736351013184,-1.7134909629821777,0.9212386012077332,-0.07467993348836899,0.8266939520835876
29.5,-4.28294038772583,3.4479174613952637,-3.3373494148254395,0.6491196155548096,-1.570595383644104,3.6318140029907227
29.55,-2.1375441551208496,-1.889033555984497,-2.283703565597534,-0.7708679437637329,-1.0294305086135864,-0.3456491231918335
29.6,-2.6496222019195557,1.4721355438232422,3.637528657913208,-0.21262840926647186,-0.39952200651168823,-0.138455331325531
29.65,1.5827628374099731,-3.713162660598755,1.9413115978240967,-0.008382037281990051,0.12881572544574738,-0.32714587450027466
29.7,2.5446834564208984,-2.4486284255981445,-3.5189614295959473,0.40062475204467773,0.16117505729198456,-0.03721022605895996
29.75,3.8308305740356445,2.631828546524048,2.775418519973755,0.22913293540477753,0.14012470841407776,0.45023444294929504
29.8,0.04465585947036743,-0.18632222712039948,1.1368075609207153,0.477617084980011,0.3040134608745575,0.2897901237010956
29.85,-0.03129172325134277,1.211182951927185,1.5541315078735352,0.6718604564666748,0.18605144321918488,0.5427677631378174
29.9,-1.3079029321670532,1.1598029136657715,1.8298399448394775,0.8843376040458679,0.3284818232059479,0.36309242248535156
29.95,3.462421178817749,-0.5649935007095337,3.075829267501831,0.6916529536247253,0.5212191343307495,-0.017580155283212662
30.0,2.3702292442321777,0.4866321086883545,1.7481768131256104,0.6767258644104004,0.42499467730522156,0.4676147997379303
30.05,1.7025537490844727,-0.028741125017404556,1.6806540489196777,0.39250248670578003,0.5790915489196777,0.013771741650998592
30.1,1.3403754234313965,-0.42162635922431946,1.7592676877975464,0.19726449251174927,0.7508105635643005,-0.340238094329834
30.15,0.31540581583976746,-0.23265941441059113,1.1629546880722046,0.2280893623828888,0.6940207481384277,0.31142592430114746
30.2,-0.9747991561889648,0.37923935055732727,0.5411219000816345,0.10686527192592621,0.6401411890983582,0.2682383060455322
30.25,0.3514738976955414,0.6144810318946838,0.7976382374763489,-0.16862747073173523,0.1634395718574524,0.12393926829099655
30.3,1.7412080764770508,0.2501552402973175,0.6861039996147156,-0.210958331823349,-0.1700742095708847,-0.19506941735744476
30.35,2.1378681659698486,0.20419949293136597,0.9950221180915833,-0.1478586047887802,-0.3101803958415985,-0.013676954433321953
30.4,1.5150730609893799,0.5086477994918823,1.330150842666626,-0.06236974895000458,-0.41249731183052063,0.407103955745697
30.45,1.463586449623108,-0.24950434267520905,1.7476781606674194,-0.09308355301618576,-0.36135879158973694,0.42341282963752747
30.5,1.174985647201538,0.22440999746322632,2.2279767990112305,0.23142686486244202,-0.1726803332567215,0.3932519257068634
30.55,1.0295153856277466,-0.09311400353908539,2.605175733566284,0.20885026454925537,-0.11759396642446518,0.4917318820953369
30.6,-0.07106301188468933,-0.1669473499059677,1.416607141494751,-0.12999212741851807,-0.10439798980951309,0.5173752307891846
30.65,0.09019167721271515,-0.010060307569801807,0.5770765542984009,-0.40059542655944824,-0.2199999839067459,0.31063568592071533
30.7,0.9123991131782532,-0.3663924038410187,-0.1286609172821045,-0.502612292766571,-0.26816630363464355,-0.18141819536685944
30.75,2.0386128425598145,-0.3999752402305603,0.37085476517677307,-0.3512592315673828,-0.4696636199951172,-0.17086413502693176
30.8,1.9335644245147705,-0.4383625388145447,1.025036334991455,-0.18781770765781403,-0.37079212069511414,0.3354312777519226
30.85,0.9263166189193726,-0.08813682943582535,0.7970697283744812,0.013494729995727539,0.014690046198666096,0.6766363978385925
30.9,1.0006511211395264,-1.0753024816513062,1.59132981300354,0.018039613962173462,-0.08025135099887848,0.7553357481956482
30.95,0.8842099905014038,-0.46070972084999084,2.9695239067077637,0.20666787028312683,-0.18478013575077057,1.0822205543518066
31.0,0.7146531939506531,-1.4067100286483765,2.817830801010132,-0.010938011109828949,0.10694845020771027,0.5023897290229797
31.05,1.1542763710021973,-2.8930814266204834,2.31665301322937,-0.34223583340644836,-0.04412967339158058,-0.033934563398361206
31.1,0.4415978789329529,-2.045233726501465,1.8923187255859375,0.13931168615818024,0.04096474125981331,0.11792060732841492
31.15,-0.4799467623233795,-1.1943446397781372,1.8633482456207275,0.47413453459739685,0.2716473639011383,0.12265129387378693
31.2,-0.29309284687042236,-0.6795607209205627,2.2403862476348877,0.46483349800109863,0.06459518522024155,-0.3267349600791931
31.25,0.9180017709732056,-0.4391014277935028,2.1611857414245605,-0.026413723826408386,-0.38592779636383057,-1.0134049654006958
31.3,1.027332067489624,-1.5626015663146973,0.37974971532821655,-0.4286455810070038,-0.3700387179851532,-1.6855976581573486
31.35,0.1403278261423111,-0.10880091041326523,0.5858200192451477,-0.09302006661891937,-0.5980516076087952,-1.655763864517212
31.4,2.80515718460083,1.5654629468917847,1.7445722818374634,0.07643061876296997,-0.7593234777450562,-1.7577463388442993
31.45,0.8719912767410278,0.08395184576511383,0.6230772137641907,-0.4591197967529297,-0.7624215483665466,-1.9756014347076416
31.5,-1.3145557641983032,1.2553917169570923,-1.2194483280181885,-0.27292895317077637,-0.7963411211967468,-1.6643840074539185
31.55,-2.1935362815856934,0.8589930534362793,-2.451362133026123,-0.0559810996055603,-0.9413827061653137,-2.2871572971343994
31.6,-2.98918080329895,4.020740032196045,-3.7898504734039307,-0.010758459568023682,-1.2748937606811523,-2.7222537994384766
31.65,-6.293730735778809,2.0453944206237793,-3.75598406791687,-0.008459031581878662,-1.7682764530181885,-4.164370536804199
31.7,-7.882308006286621,2.8682775497436523,-4.03469705581665,0.31910210847854614,-2.480954647064209,-3.9032955169677734
31.75,-7.971913814544678,1.3009660243988037,-3.534757137298584,0.5952513813972473,-3.628969669342041,-3.65592622756958
31.8,-5.392624378204346,2.452192544937134,-8.387918472290039,1.5379358530044556,-4.015294075012207,-3.5097596645355225
31.85,0.38969147205352783,1.4983282089233398,-7.902324676513672,2.117323160171509,-5.485039710998535,-3.1437172889709473
31.9,5.625957489013672,-1.2049678564071655,-2.7931668758392334,2.6234469413757324,-6.619400501251221,-2.0618197917938232
31.95,3.7493197917938232,-8.54168701171875,1.504151701927185,2.5352978706359863,-6.044037818908691,-0.11925268918275833
32.0,7.28834342956543,-8.949976921081543,3.3730976581573486,-0.5852751135826111,-4.877804279327393,2.953029155731201
32.05,5.961891174316406,-6.707762718200684,12.061271667480469,-3.405179977416992,-4.3336567878723145,4.11413049697876
32.1,5.3509016036987305,-1.8516234159469604,14.118782043457031,-2.6685853004455566,-2.1619560718536377,4.841472625732422
32.15,4.557855129241943,3.113990306854248,11.838007926940918,-0.8922621011734009,-0.3468368947505951,5.381002426147461
32.2,1.7712249755859375,3.2653043270111084,5.563204765319824,0.6469162702560425,0.8641895651817322,4.290301322937012
32.25,1.2813483476638794,5.242823123931885,-0.015377418138086796,-0.007664114236831665,0.5398249626159668,2.292811393737793
32.3,-1.2441747188568115,2.7755937576293945,-0.3522276282310486,0.9288022518157959,-0.27506357431411743,2.16585111618042
32.35,-1.7869905233383179,-3.1364986896514893,3.3967788219451904,1.6298152208328247,0.4887954294681549,2.4462027549743652
32.4,-0.3198395371437073,0.9461178183555603,3.68076491355896,1.527202844619751,1.5125844478607178,2.732787609100342
32.45,0.2400595247745514,2.0772337913513184,3.4134442806243896,0.44297370314598083,2.394683361053467,2.0907785892486572
32.5,3.8380913734436035,5.989901542663574,4.553257465362549,-0.13654378056526184,1.0071319341659546,0.8328772187232971
32.55,-4.666659355163574,-6.177727222442627,-1.554457187652588,-0.8844844102859497,1.1713768243789673,-0.26349154114723206
32.6,1.9598186016082764,6.639429092407227,-2.038097620010376,-0.547632098197937,1.5167075395584106,-0.5752679109573364
32.65,3.1548399925231934,-2.6171610355377197,2.886756181716919,-0.09434443712234497,0.13863681256771088,-1.6427465677261353
32.7,-1.0883458852767944,4.121121406555176,-0.4601529836654663,0.18359263241291046,-0.08427417278289795,-0.9419401288032532
32.75,1.5994921922683716,-0.8167872428894043,0.28493350744247437,0.17822802066802979,-1.0094202756881714,-2.15071177482605
32.8,1.3519736528396606,2.176074266433716,0.7993627786636353,-0.5488300323486328,-0.8084765672683716,-1.7693581581115723
32.85,4.0778961181640625,-0.697990357875824,0.6144918203353882,-0.493209570646286,-1.8471254110336304,-2.137089252471924
32.9,-1.6470290422439575,0.032760996371507645,2.1339075565338135,-0.203929603099823,-1.6268458366394043,-1.9116765260696411
32.95,-0.8988606929779053,-0.5228480100631714,1.8367260694503784,-0.05102255940437317,-1.4471665620803833,-1.749297022819519
33.0,-1.418434739112854,0.3059123456478119,0.5519168972969055,0.0731096863746643,-1.6637648344039917,-1.5777182579040527
33.05,-7.558488845825195,-5.295146942138672,1.5624908208847046,0.24947047233581543,-1.465728521347046,-1.293686032295227
33.1,-2.0665674209594727,-3.643380641937256,3.328237771987915,-0.16860666871070862,-0.6582968831062317,0.20656771957874298
33.15,1.4753022193908691,4.773746490478516,6.073018550872803,-0.13557425141334534,-1.1819918155670166,1.6584550142288208
33.2,-4.396672248840332,7.051432132720947,12.580533027648926,-0.45871418714523315,-0.9281982779502869,-1.5086803436279297
33.25,-0.7919907569885254,9.003092765808105,7.238597393035889,1.0300647020339966,0.4287169277667999,-0.17462147772312164
33.3,4.615415096282959,2.5777597427368164,3.2180957794189453,0.9824762940406799,1.4106696844100952,-4.670802116394043
33.35,1.7833964824676514,-2.913341522216797,4.56612491607666,0.3792680501937866,1.199034571647644,-5.733138084411621
33.4,4.5318922996521,-2.700253486633301,4.936479091644287,0.679330587387085,2.5249812602996826,-2.7358062267303467
33.45,8.392950057983398,-3.266955614089966,2.328909158706665,0.6194649934768677,4.288651943206787,-2.532729387283325
33.5,8.084466934204102,-4.693678379058838,0.08927809447050095,0.29513365030288696,5.634059906005859,-2.92120361328125
33.55,9.060274124145508,-2.776381492614746,-4.84845495223999,0.8363925218582153,6.757246494293213,-2.0390026569366455
33.6,3.787588596343994,1.236004114151001,-7.518801689147949,-0.6718902587890625,7.151872634887695,-2.2237770557403564
33.65,3.2116775512695312,3.0552711486816406,-4.801546573638916,-3.1526451110839844,6.771367073059082,-0.6096045970916748
33.7,-1.6433887481689453,1.7336734533309937,-7.947479724884033,-3.292593002319336,7.511813640594482,-0.2952466309070587
33.75,-4.874484062194824,-0.2080605924129486,-4.68245267868042,-3.6963412761688232,8.547552108764648,1.3320763111114502
33.8,-2.2673850059509277,-4.600917339324951,-3.5111734867095947,-1.6153464317321777,8.319204330444336,2.746241331100464
33.85,-4.070247173309326,-7.663466453552246,0.4051908254623413,-0.21628856658935547,6.7688069343566895,2.474031686782837
33.9,-7.728080749511719,-7.848429203033447,-1.5084441900253296,2.9751830101013184,5.0900983810424805,1.4356622695922852
33.95,-14.851576805114746,-1.084043264389038,-4.590035438537598,5.144354343414307,1.6002404689788818,-1.03334379196167
34.0,2.494210720062256,2.5920658111572266,18.64706039428711,-0.23367011547088623,-2.600527286529541,-0.5020356178283691
34.05,8.363435745239258,-5.189055919647217,-2.608294725418091,-1.5288790464401245,-1.0127367973327637,-2.0401294231414795
34.1,-0.5835006833076477,3.9887850284576416,2.512455701828003,-0.8339862823486328,-0.20119236409664154,-0.1006966307759285
34.15,0.924536943435669,-3.796396017074585,-1.7649720907211304,0.05851113796234131,0.47637754678726196,-1.4113394021987915
34.2,-16.988327026367188,2.162762403488159,0.691139817237854,0.4708752930164337,0.5152420997619629,1.1992230415344238
34.25,6.051216125488281,-4.9511613845825195,0.9991545081138611,-0.20987294614315033,0.7079949975013733,0.9116544127464294
34.3,-0.2224431037902832,-6.205480575561523,-5.975631237030029,-0.8396646976470947,1.3533434867858887,0.1939523071050644
34.35,-6.039600849151611,6.367419719696045,0.2854805588722229,0.5271939039230347,1.2466976642608643,1.2329213619232178
34.4,-2.0089540481567383,-2.5592100620269775,4.2206597328186035,-0.6253005862236023,0.6302131414413452,-0.9369560480117798
34.45,-6.506312847137451,-1.6834545135498047,3.0918233394622803,0.38530677556991577,-0.4616442322731018,0.07921675592660904
34.5,-6.830320358276367,3.318955659866333,6.432585716247559,1.6442019939422607,-2.1718287467956543,-0.5202949643135071
34.55,3.5278027057647705,0.7814183831214905,0.9855673909187317,0.7160335779190063,-1.6022378206253052,-1.6430970430374146
34.6,-0.09196710586547852,0.609426736831665,2.9898293018341064,0.1956978440284729,-2.1691813468933105,-1.0721580982208252
34.65,2.4496960639953613,-0.7297300696372986,5.407094955444336,-0.1418861448764801,-2.944390058517456,-0.0881052017211914
34.7,3.3254432678222656,-0.4966636300086975,4.5569868087768555,-0.3896566331386566,-2.6300466060638428,1.1214499473571777
34.75,8.151325225830078,2.8432583808898926,3.5745649337768555,-0.6081708669662476,-2.1081671714782715,0.995131254196167
34.8,3.845459222793579,-2.1023612022399902,3.547072649002075,-0.45631706714630127,-0.5474669337272644,1.211895227432251
34.85,-0.7838310599327087,3.3015382289886475,-2.5021378993988037,1.7662217617034912,1.3572291135787964,1.199622631072998
34.9,10.2533540725708,3.408538579940796,-0.2124452441930771,2.7949883937835693,1.1847271919250488,0.6136825084686279
34.95,-1.4400838613510132,-2.038527727127075,-3.202068567276001,1.5808271169662476,0.7943840622901917,-0.3389645516872406
35.0,-2.262547492980957,-0.5622080564498901,-3.901998996734619,1.0972968339920044,0.43179792165756226,0.23220579326152802
35.05,6.486825466156006,0.6244544386863708,-0.35988813638687134,0.310996949672699,1.2721333503723145,0.8721298575401306
35.1,-10.573997497558594,0.6412256360054016,-8.261601448059082,-0.07663315534591675,2.0729949474334717,1.1626728773117065
35.15,-3.687574625015259,-0.6653152108192444,-1.728798270225525,-1.4599579572677612,0.814117968082428,0.19583795964717865
35.2,-9.611052513122559,-6.516866683959961,-0.3084566295146942,-0.8648355007171631,-0.32406288385391235,1.7758655548095703
35.25,1.031308650970459,10.175468444824219,2.1096293926239014,-0.5973658561706543,-0.2584344446659088,2.5394394397735596
35.3,-2.2658355236053467,-0.9866293668746948,-0.7401555180549622,-0.7036475539207458,1.424403190612793,-0.2910154163837433
35.35,4.254891872406006,4.606876373291016,0.4922267198562622,-0.5842893719673157,0.3436669707298279,1.3490103483200073
35.4,6.204756736755371,4.284763336181641,-0.29188084602355957,-0.5030826926231384,0.7927167415618896,0.022749438881874084
35.45,-0.8477123975753784,-3.8610503673553467,1.4545559883117676,-0.198958620429039,1.598438024520874,-0.37238913774490356
35.5,-3.850536346435547,-0.05250013619661331,-1.930004358291626,0.19262659549713135,1.7254317998886108,0.10441920161247253
35.55,-3.364835500717163,1.0000780820846558,-0.6543304324150085,0.16848191618919373,1.4711095094680786,0.11045318096876144
35.6,0.7681829929351807,-3.050922155380249,0.8939811587333679,0.15789353847503662,1.413857340812683,-0.09678342938423157
35.65,5.796860694885254,-0.19523639976978302,-2.243893623352051,-0.06945586204528809,1.4726699590682983,-0.1387825608253479
35.7,-4.478126525878906,1.3432599306106567,-1.461235523223877,0.17493990063667297,1.29501211643219,0.3404436707496643
35.75,-1.229936957359314,-2.6980109214782715,-0.40953394770622253,0.3262225389480591,1.292289137840271,0.8105611801147461
35.8,-1.3958449363708496,-0.30397772789001465,1.0822292566299438,-0.19265080988407135,1.4335846900939941,1.2128043174743652
35.85,-4.215847492218018,1.3065537214279175,-7.1138482093811035,-0.9473980069160461,2.0612192153930664,-0.23080648481845856
35.9,-4.501513481140137,-10.810931205749512,1.470440149307251,-2.0745913982391357,2.100435495376587,-2.810638427734375
35.95,-2.4541494846343994,5.732022285461426,-2.60764741897583,-3.0952677726745605,1.4997382164001465,-2.591874599456787
36.0,-6.430305480957031,-9.42919635772705,9.697779655456543,-3.332313299179077,1.848254919052124,-1.6748961210250854
36.05,-0.3081846237182617,-9.661080360412598,14.278793334960938,-3.205909490585327,2.5374748706817627,-2.5300471782684326
36.1,-7.452559947967529,15.451471328735352,-5.932387351989746,-1.6066569089889526,1.9610660076141357,-2.020162582397461
36.15,0.971137285232544,-3.556518077850342,3.9334468841552734,-1.0693917274475098,1.1840626001358032,-2.1429646015167236
36.2,2.9555182456970215,4.227742671966553,2.1989805698394775,-0.3449624478816986,0.8440398573875427,-2.374176263809204
36.25,0.10418534278869629,2.5626087188720703,5.796224117279053,0.0712134838104248,0.12848839163780212,-2.0224409103393555
36.3,-0.3583943843841553,4.058249473571777,-1.1843386888504028,-0.06173029541969299,0.105601005256176,-1.9457385540008545
36.35,-0.9086720943450928,4.139282703399658,5.5005106925964355,-0.14033955335617065,-0.5650656223297119,-1.8081612586975098
36.4,2.294163942337036,3.975161075592041,-1.4933052062988281,-0.19860176742076874,-1.0067269802093506,-1.7169088125228882
36.45,1.819469928741455,-7.190303802490234,4.727642059326172,-0.5368272066116333,-0.40002015233039856,-1.0967381000518799
36.5,-1.43673574924469,-0.08849095553159714,6.912368297576904,-0.41146713495254517,-0.5503541827201843,-1.3756451606750488
36.55,-2.2796080112457275,4.814015865325928,3.420053005218506,-0.4179714620113373,-1.6936787366867065,-0.42181289196014404
36.6,6.556499004364014,-0.8015885949134827,-4.242706775665283,-1.1354271173477173,-3.7583510875701904,0.8301054835319519
36.65,-2.43583607673645,4.487411975860596,0.3071106970310211,-2.2671101093292236,-2.1208813190460205,1.0265756845474243
36.7,-4.342804908752441,0.13470806181430817,-4.677875518798828,-2.9647061824798584,-4.3029022216796875,4.680123805999756
36.75,7.839295387268066,-3.348113775253296,-2.353477716445923,-4.052511692047119,-5.776424884796143,6.203730583190918
36.8,2.743030548095703,-0.6801716685295105,-0.5294317007064819,-2.496690273284912,-2.400764226913452,3.0949831008911133
36.85,3.9426193237304688,-1.4384384155273438,2.1598055362701416,-1.8150871992111206,-0.2541624903678894,2.637761354446411
36.9,2.9839975833892822,-2.0431604385375977,0.5977619886398315,-0.3645683825016022,1.113434910774231,1.7015739679336548
36.95,2.387179136276245,-0.5084472894668579,-1.3332823514938354,0.7464580535888672,1.8434737920761108,1.5853840112686157
37.0,0.7180241942405701,-0.07045674324035645,-2.5627365112304688,0.6892331838607788,2.432224988937378,0.3870331048965454
37.05,-0.30568990111351013,-1.6876071691513062,-1.3323856592178345,-0.12253133952617645,2.4723451137542725,-0.06726627051830292
37.1,-0.04047153890132904,-0.5093499422073364,-0.6024948954582214,0.17129608988761902,2.3382935523986816,0.33050018548965454
37.15,-1.2485966682434082,0.20360016822814941,-0.6296873092651367,0.0372626818716526,2.2649548053741455,0.1426321566104889
37.2,-1.584333896636963,-1.8402440547943115,-0.4421827793121338,-0.39437806606292725,2.4300620555877686,0.2164083868265152
37.25,-1.3590960502624512,-2.291045904159546,0.795470654964447,-0.09845969080924988,2.4009881019592285,-0.32428598403930664
37.3,0.08695459365844727,3.5275537967681885,5.518861770629883,-0.776820182800293,1.0076009035110474,-1.959277629852295
37.35,0.9054507613182068,3.622701406478882,0.1520387828350067,-0.06400260329246521,-1.5842595100402832,1.4029909372329712
37.4,2.037992477416992,7.150404453277588,0.845618486404419,-2.047208786010742,-0.5955909490585327,-0.32725295424461365
37.45,6.016078948974609,-2.9444897174835205,4.849245071411133,-3.4238803386688232,0.9209868907928467,0.17438875138759613
37.5,2.7762086391448975,-9.301366806030273,9.14171028137207,-2.259686231613159,1.7875066995620728,-3.6440091133117676
37.55,3.3814735412597656,-2.76169753074646,-7.475828170776367,1.2563986778259277,1.5564591884613037,-3.4709584712982178
37.6,-0.6447081565856934,-3.379011392593384,6.6825079917907715,-0.8279743790626526,1.1267207860946655,-0.05471117049455643
37.65,-2.933487892150879,9.428976058959961,2.1958134174346924,0.06206715106964111,-0.502531111240387,1.175852656364441
37.7,-12.917817115783691,-3.6759121417999268,9.426660537719727,0.33246076107025146,-2.0764126777648926,0.06368664652109146
37.75,4.513209819793701,-8.077046394348145,-2.1985158920288086,1.329185962677002,-2.8730690479278564,1.296979308128357
37.8,-9.127154350280762,4.058835506439209,-3.3384273052215576,1.2128260135650635,-3.5124247074127197,2.386364221572876
37.85,-7.424713134765625,-3.977532148361206,-5.425962924957275,0.27309510111808777,-4.276344299316406,2.002631187438965
37.9,-3.5900940895080566,-4.558504581451416,-7.100323677062988,0.5229883193969727,-4.1037797927856445,1.6436141729354858
37.95,0.8422126770019531,-6.671840190887451,-7.765205383300781,0.606724739074707,-4.123760223388672,1.1077699661254883
38.0,9.99315357208252,3.072781801223755,-14.601869583129883,0.6722656488418579,-4.247584819793701,1.5181578397750854
38.05,21.72911834716797,3.0974977016448975,-0.7410284876823425,2.371084451675415,-4.215926170349121,0.6783140897750854
38.1,12.664040565490723,5.113915920257568,2.725393056869507,2.806898832321167,-3.0048723220825195,-0.9307374954223633
38.15,16.546785354614258,9.848224639892578,11.74821949005127,1.3650624752044678,-0.7304986119270325,-0.240757554769516
38.2,9.261910438537598,5.0495710372924805,7.611948490142822,-1.197921872138977,2.8827874660491943,-3.5972108840942383
38.25,-7.311262130737305,0.5334498286247253,5.731225490570068,-5.003612518310547,6.925100326538086,-2.3405230045318604
38.3,-2.8506500720977783,-2.8546640872955322,13.255985260009766,-4.401308059692383,8.100109100341797,-0.4012681543827057
38.35,-4.874639511108398,2.9217116832733154,4.72531270980835,-1.1112812757492065,4.637155532836914,1.3200135231018066
38.4,-4.559423923492432,0.3191550374031067,9.678662300109863,1.4364855289459229,3.085282802581787,0.12832938134670258
38.45,-6.402514457702637,-2.5270214080810547,1.8346965312957764,1.8017467260360718,2.003404378890991,1.546597957611084
38.5,0.07486104965209961,-0.8677263259887695,5.564195156097412,1.3624695539474487,1.9635024070739746,1.182377576828003
38.55,-2.2163195610046387,-0.7802739143371582,6.403677940368652,2.0544817447662354,1.3525463342666626,-2.8992674350738525
38.6,-8.155029296875,-3.2257614135742188,4.283572673797607,1.3461194038391113,1.2002191543579102,-4.556044578552246
38.65,-19.109643936157227,-0.26159441471099854,-1.877120018005371,1.4662747383117676,-0.7163588404655457,-1.954018473625183
38.7,-1.1111624240875244,-3.6649320125579834,-10.897965431213379,-1.0052250623703003,-4.255269527435303,2.7813000679016113
38.75,0.5409705638885498,-2.812678575515747,-10.322553634643555,-1.0337998867034912,-4.413791656494141,0.748386561870575
38.8,-3.3545491695404053,-6.279641151428223,-11.459447860717773,-0.20707222819328308,-4.417765140533447,1.086016297340393
38.85,-2.993847370147705,0.6838943958282471,-13.03579044342041,-1.0195519924163818,-6.623589038848877,1.234785556793213
38.9,22.07650375366211,-0.96475750207901,-6.789107322692871,1.0894043445587158,-5.246664047241211,0.4779472053050995
38.95,23.510957717895508,4.521955490112305,4.987083911895752,2.1050240993499756,-4.37002420425415,1.3152036666870117
39.0,8.231374740600586,2.554011821746826,7.870326519012451,2.3454949855804443,-0.41332298517227173,-0.8034159541130066
39.05,33.68173599243164,9.520133972167969,26.421995162963867,0.08661461621522903,1.779353380203247,0.040175747126340866
39.1,-7.735154151916504,3.6560208797454834,5.777587413787842,-3.149505376815796,5.179409503936768,-3.061800718307495
39.15,-20.358230590820312,-9.28010368347168,8.93079948425293,-6.6104936599731445,6.929975986480713,-0.8858924508094788
39.2,-1.186613917350769,-4.041117191314697,8.611102104187012,-2.8002281188964844,5.613887310028076,2.9761109352111816
39.25,-1.6178852319717407,5.344232559204102,6.221253395080566,0.891266405582428,3.1354963779449463,1.0969916582107544
39.3,-2.5262651443481445,-3.3857262134552,3.7349143028259277,-0.21381086111068726,2.3848140239715576,0.29305702447891235
39.35,-13.990635871887207,1.5951002836227417,-0.7862467169761658,2.2078070640563965,3.211439847946167,-1.5401448011398315
39.4,-7.536012172698975,-4.268689155578613,1.9106712341308594,1.3449747562408447,-0.44510751962661743,-3.0848612785339355
39.45,-5.598897457122803,-2.7095470428466797,-6.917219638824463,-0.20333078503608704,-1.7562603950500488,-1.3877767324447632
39.5,-7.186000823974609,-4.162445068359375,-5.481642723083496,-0.23815059661865234,-3.381906747817993,0.1028648391366005
39.55,-2.641739845275879,-1.0536309480667114,-8.55909252166748,0.4162404239177704,-4.558495998382568,0.953737735748291
39.6,5.664638519287109,-7.575645923614502,-14.706732749938965,1.3030585050582886,-5.065535545349121,0.30454176664352417
39.65,1.4127488136291504,-0.11375011503696442,-8.988253593444824,1.4198694229125977,-5.739185810089111,0.9751446843147278
39.7,19.70136260986328,1.8565021753311157,-8.03647232055664,1.519090175628662,-5.3364057540893555,1.9743019342422485
39.75,21.297046661376953,6.457205772399902,11.34048080444336,0.4915817975997925,-4.347152233123779,2.131765365600586
39.8,8.44347095489502,4.972281455993652,11.694916725158691,1.2961063385009766,-0.6413249969482422,0.1833222210407257
39.85,5.907876968383789,5.437882423400879,10.562830924987793,1.3764822483062744,2.4881389141082764,-0.76609867811203
39.9,-4.756152629852295,11.121129035949707,2.793611764907837,-1.5345600843429565,4.756921768188477,-0.786512017250061
39.95,-3.0590174198150635,-4.466126918792725,10.337754249572754,-4.445075511932373,4.80537748336792,-0.9908652305603027
40.0,2.201493740081787,-0.5788130164146423,2.973273754119873,-1.9865573644638062,5.296781063079834,-0.7388554215431213
40.05,-3.3216958045959473,-0.7550890445709229,9.046409606933594,-1.7332565784454346,4.434284687042236,0.15450529754161835
40.1,-2.6835989952087402,-2.7435712814331055,5.671502113342285,0.28028061985969543,4.2901153564453125,-0.23879116773605347
40.15,-11.729584693908691,3.3066625595092773,4.724053382873535,2.0924854278564453,1.365522861480713,-2.5324060916900635
40.2,-7.803888320922852,-4.582927703857422,11.011064529418945,-0.3502790629863739,-0.46970459818840027,-1.1083317995071411
40.25,-5.228825092315674,-3.674915313720703,-1.5229731798171997,0.09432882070541382,-0.2647543251514435,-1.7086268663406372
40.3,-11.902124404907227,-0.21332819759845734,0.7851237654685974,0.9511212110519409,-0.42517611384391785,-0.5353577733039856
40.35,-9.739439964294434,-5.367739200592041,1.0501446723937988,1.8662358522415161,-2.905463933944702,-0.08440528810024261
40.4,-3.0377447605133057,-2.7260022163391113,-5.660970211029053,2.2418406009674072,-3.391191244125366,0.8613452911376953
40.45,-4.793234348297119,-8.689702033996582,-1.2394078969955444,0.6551154851913452,-3.892422676086426,1.200027585029602
40.5,1.9869389533996582,4.659937381744385,-6.8964362144470215,0.2180478870868683,-4.344719409942627,0.691440999507904
40.55,8.862771034240723,4.874293327331543,-9.555675506591797,0.6422522664070129,-3.21600079536438,0.4550594091415405
40.6,12.77355670928955,-1.0018800497055054,4.425989151000977,-0.47886598110198975,-3.6372148990631104,-0.2798321545124054
40.65,4.958238124847412,-0.018235141411423683,-0.47162365913391113,0.025855030864477158,-3.0469753742218018,0.2398184984922409
40.7,9.058073043823242,3.7678189277648926,4.300482273101807,0.6264173984527588,-2.0710062980651855,0.9039085507392883
40.75,5.441524505615234,1.244205117225647,9.268516540527344,0.20193201303482056,-1.7721877098083496,1.1325945854187012
40.8,-3.125190496444702,1.8681896924972534,-5.058884620666504,-0.1929023563861847,-1.487892985343933,0.38690781593322754
40.85,-4.635104179382324,0.11945419758558273,-2.0094661712646484,-0.10444480925798416,0.48260095715522766,-0.45323339104652405
40.9,-5.716724395751953,-4.033999443054199,-3.963669776916504,0.391761839389801,1.285756230354309,-1.0090553760528564
40.95,1.6154849529266357,6.0354485511779785,6.244265556335449,-1.2205466032028198,0.30983856320381165,-0.21331296861171722
41.0,-0.601391077041626,3.282128095626831,-4.01472806930542,-1.2772936820983887,2.188652992248535,-1.6566764116287231
41.05,-2.6599936485290527,0.43432873487472534,2.4869441986083984,-1.2739689350128174,0.12306045740842819,-0.5614747405052185
41.1,7.445318698883057,-0.09871592372655869,6.10997200012207,-1.6974749565124512,0.09307114034891129,-1.227131962776184
41.15,0.2753693461418152,-2.9013631343841553,0.10252159833908081,-1.2420122623443604,2.092271327972412,-1.6874139308929443
41.2,-4.298511505126953,0.3767232596874237,2.0364949703216553,-0.5324463844299316,1.9601352214813232,-0.5773891806602478
41.25,-0.6697655916213989,-0.9958498477935791,-3.420133590698242,0.08177392184734344,1.1562519073486328,0.43203315138816833
41.3,-6.968188285827637,2.388566017150879,2.883593797683716,0.13578957319259644,0.15736646950244904,0.7108440399169922
41.35,1.8101730346679688,-3.790372848510742,-2.098839282989502,0.6794415712356567,-0.0772411972284317,0.727032482624054
41.4,5.035035133361816,-3.9203507900238037,-5.88095235824585,0.6858537197113037,-0.09268209338188171,0.5305336713790894
41.45,-4.136284351348877,1.5023767948150635,3.6222007274627686,0.6815099716186523,-0.3565536439418793,0.7304747104644775
41.5,-0.31735143065452576,0.8300125002861023,-1.3521652221679688,0.5111163854598999,-0.46250247955322266,0.6387414336204529
41.55,-2.8150289058685303,3.7662901878356934,1.8162181377410889,0.16322752833366394,-0.3172733783721924,0.11563865840435028
41.6,-3.414477825164795,-0.23503616452217102,3.833519697189331,-0.05282067507505417,-0.14708709716796875,-0.24666960537433624
41.65,4.502041816711426,-2.5145161151885986,-6.719207763671875,-0.12471723556518555,0.3259943127632141,-0.8093691468238831
41.7,-1.3566534519195557,-1.3124457597732544,-1.084972858428955,-0.4485662877559662,0.2125028520822525,-1.133235216140747
41.75,-3.5101735591888428,-1.8826501369476318,3.2077174186706543,-0.26229968667030334,0.09379591047763824,-1.3293715715408325
41.8,1.784340500831604,-0.597005307674408,0.29987064003944397,0.24210478365421295,0.02902780845761299,-0.9354560375213623
41.85,-6.614323616027832,2.413440704345703,6.3980512619018555,0.19127899408340454,0.07163587957620621,-0.3003578782081604
41.9,-1.1791261434555054,0.15662512183189392,2.1745951175689697,0.6292559504508972,0.40924304723739624,0.4003143012523651
41.95,4.837985038757324,0.18368254601955414,-1.4474155902862549,0.7458683252334595,-0.2811400890350342,0.3996214270591736
42.0,1.0208100080490112,0.9210340976715088,4.661552429199219,0.655110239982605,-1.1401708126068115,0.18639227747917175
42.05,2.338552951812744,0.5888697504997253,0.02783818729221821,0.6057075262069702,-1.1707398891448975,0.18089675903320312
42.1,-2.0806491374969482,1.692631483078003,0.18709199130535126,-0.3272596597671509,-1.7788987159729004,-0.12608227133750916
42.15,-3.178964614868164,1.146310806274414,3.3768880367279053,-1.300610899925232,-1.332160234451294,-0.008082419633865356
42.2,0.5054905414581299,0.8475707173347473,5.091289520263672,-1.653761386871338,-0.4692789614200592,-0.4478667080402374
42.25,2.2471537590026855,1.451560139656067,4.29081392288208,-0.984515905380249,-0.5152930021286011,-1.1021082401275635
42.3,0.8919287919998169,0.5030338764190674,7.595937728881836,-0.5896334648132324,-0.6605451703071594,-1.3208369016647339
42.35,4.31825590133667,-0.187692329287529,4.246383190155029,0.04993940889835358,0.023320084437727928,-0.5586920380592346
42.4,5.636337757110596,6.558377742767334,0.38191506266593933,1.8170515298843384,0.5922922492027283,0.3485741913318634
42.45,10.91585922241211,1.4236072301864624,-0.16672919690608978,1.3725703954696655,2.6086790561676025,-0.1272796243429184
42.5,-0.024806857109069824,0.730837881565094,-3.329453706741333,0.632026731967926,2.421527147293091,-0.8274868130683899
42.55,4.902534008026123,-1.9468661546707153,-4.354960918426514,1.3090579509735107,1.1836239099502563,-0.2509957253932953
42.6,-2.9633750915527344,-2.028717517852783,-3.1248133182525635,0.5970991253852844,0.1736467331647873,1.1135966777801514
42.65,-0.8327435255050659,-2.9430904388427734,0.4625048041343689,0.48854774236679077,0.04113259166479111,1.8210906982421875
42.7,-1.2405883073806763,-0.37929537892341614,-4.2847394943237305,0.2931027412414551,0.7844159007072449,1.8152251243591309
42.75,-1.2871525287628174,-2.896446466445923,-4.78107213973999,-0.43433135747909546,1.0012048482894897,0.30010825395584106
42.8,-5.326735019683838,-0.3023312985897064,-6.346940517425537,-0.8228750824928284,0.9478484988212585,0.19492916762828827
42.85,2.991947650909424,-4.624558448791504,3.9370148181915283,-0.8905173540115356,0.34035906195640564,0.7540512084960938
42.9,-4.494652271270752,-2.60947847366333,-3.097792863845825,0.18636679649353027,0.3481622636318207,0.2729659080505371
42.95,-12.30472183227539,5.053828716278076,-3.675171375274658,0.2688494026660919,-0.2110546976327896,0.6030201315879822
43.0,-0.11393451690673828,0.5507025718688965,8.958828926086426,0.06258492171764374,-1.202620267868042,-1.2028149366378784
43.05,-13.77426815032959,3.154991626739502,2.633971929550171,1.1180744171142578,-1.7585906982421875,-0.9930813908576965
43.1,-1.3417816162109375,1.550344467163086,10.302000999450684,1.1013531684875488,-1.4365252256393433,-1.48604416847229
43.15,1.350232481956482,-0.9888184070587158,5.802117347717285,0.8063739538192749,-2.3166112899780273,-1.5032382011413574
43.2,1.1355910301208496,0.3508750796318054,7.460883617401123,0.209290012717247,-3.1185600757598877,-1.0351765155792236
43.25,1.6133403778076172,1.4155648946762085,6.049219608306885,-0.5750948786735535,-2.6785526275634766,0.10807448625564575
43.3,4.333100318908691,2.0816757678985596,11.545392990112305,-0.5055716037750244,-1.2370792627334595,0.5262923240661621
43.35,3.487407922744751,-1.8192873001098633,3.674262762069702,-1.5095975399017334,-0.021978575736284256,-0.45707377791404724
43.4,5.926391124725342,3.407844066619873,-3.30226731300354,-0.516269326210022,1.6462993621826172,1.4171457290649414
43.45,9.613914489746094,1.5788019895553589,5.610915660858154,0.9998098611831665,2.2225067615509033,1.6007593870162964
43.5,-0.8120853900909424,1.1554127931594849,-5.836144924163818,0.8837988972663879,1.6812999248504639,0.32195013761520386
43.55,2.1896045207977295,-2.529632329940796,-1.7903401851654053,0.8758030533790588,1.006224274635315,0.8266715407371521
43.6,-0.6841522455215454,-5.315370082855225,-1.539731502532959,0.6898279786109924,1.2352046966552734,0.1941409558057785
43.65,-1.316344976425171,-0.8414956331253052,-3.8964319229125977,-0.07797063142061234,1.5206799507141113,0.1409904956817627
43.7,1.8404579162597656,-0.3065684735774994,1.7316186428070068,-0.9718267321586609,1.5987037420272827,0.1280798465013504
43.75,-2.3294014930725098,-1.5275888442993164,-2.8463542461395264,-0.7915111184120178,1.7527142763137817,-0.33039411902427673
43.8,-1.3876537084579468,0.722475528717041,1.723289966583252,-0.4207770526409149,1.4784094095230103,0.44141054153442383
43.85,-6.271742343902588,-0.200066477060318,-0.18010345101356506,0.39894017577171326,1.5263530015945435,0.019131002947688103
43.9,0.6468068361282349,-3.829455852508545,3.9497478008270264,0.43690282106399536,1.438917636871338,0.3060665428638458
43.95,4.765005588531494,1.5320143699645996,-0.8129386305809021,-0.1976555436849594,1.1064386367797852,0.3201372027397156
44.0,-1.6886634826660156,-0.22682352364063263,1.455125093460083,-1.0217350721359253,1.1891673803329468,-0.9931911826133728
44.05,2.9714951515197754,-0.1353677362203598,5.5261054039001465,-0.7248532772064209,1.5145601034164429,-0.6555251479148865
44.1,-8.414204597473145,4.590386867523193,0.16928206384181976,-0.006227567791938782,1.0173707008361816,-0.7049252986907959
44.15,0.9435282945632935,-3.793574571609497,9.825382232666016,-0.08064921200275421,0.5373075604438782,-0.957733154296875
44.2,0.6020428538322449,0.6243113875389099,-1.9348348379135132,-0.1588863730430603,0.29645147919654846,-0.11647287756204605
44.25,-2.0544590950012207,5.575469493865967,-3.3296892642974854,-0.2737552225589752,-0.3090151250362396,0.4543115198612213
44.3,1.148224949836731,-1.5908617973327637,2.186738967895508,0.04025857150554657,-0.16054844856262207,-0.33504724502563477
44.35,-3.125092029571533,1.4074534177780151,-3.1413612365722656,0.5061309337615967,-0.020271744579076767,-0.3758750259876251
44.4,3.3154296875,-1.294548749923706,6.242239475250244,0.19341975450515747,-0.012562675401568413,-0.35956859588623047
44.45,1.4947233200073242,0.10217629373073578,-3.4970037937164307,-0.08176156878471375,0.47971299290657043,-0.5001736879348755
44.5,-4.952329635620117,2.410196542739868,-1.0326650142669678,-0.43653276562690735,0.3757038712501526,-0.1584177166223526
44.55,2.244891405105591,-2.1503140926361084,4.1404128074646,-0.3509744703769684,-0.09131918102502823,-0.012106264010071754
44.6,-9.06557559967041,3.5143284797668457,-2.106786012649536,0.3173922598361969,-0.2733765244483948,-0.44287359714508057
44.65,7.812471389770508,-4.740736484527588,9.755276679992676,0.20008817315101624,-0.31426674127578735,-0.3170171082019806
44.7,-1.510791301727295,1.763537049293518,-2.704620361328125,-0.18705151975154877,-0.30965256690979004,-0.19855834543704987
44.75,-6.693106651306152,3.50569748878479,0.684526801109314,-0.6199485063552856,-0.5217764377593994,0.02097892388701439
44.8,-0.5103568434715271,-0.363334596157074,1.9101818799972534,-0.1909012645483017,-0.7865495681762695,-0.05376096069812775
44.85,-6.70194149017334,2.2206132411956787,-1.2595008611679077,0.38603830337524414,-0.9594088792800903,-0.0747506394982338
44.9,2.9262874126434326,-5.164717197418213,-0.45897728204727173,0.4360617995262146,-1.1336534023284912,0.09799816459417343
44.95,1.199440360069275,3.2830538749694824,-1.1504100561141968,0.19728389382362366,-1.353134036064148,0.2838454246520996
45.0,-1.2991697788238525,-1.3318233489990234,3.4226503372192383,-0.10636670887470245,-1.446670651435852,0.31413018703460693
45.05,-0.852231502532959,0.3918515741825104,-2.602264404296875,0.06186804547905922,-1.5726317167282104,0.3215767443180084
45.1,-0.6286218762397766,-0.16924187541007996,-0.9686256051063538,0.20567861199378967,-1.7291730642318726,0.5118275880813599
45.15,-3.975769519805908,-1.7995259761810303,-0.48411670327186584,0.05262494832277298,-1.7631272077560425,0.6462563276290894
45.2,3.5223631858825684,2.4663312435150146,-5.007257461547852,-0.2713898718357086,-1.740373969078064,0.6185857057571411
45.25,1.667738437652588,-6.734433650970459,6.614389419555664,-0.3189455270767212,-1.7524703741073608,0.16230951249599457
45.3,1.4174331426620483,1.5792655944824219,-1.910085916519165,0.04201041907072067,-1.7113808393478394,-0.023174501955509186
45.35,0.7491990327835083,4.076344966888428,-6.314037322998047,0.5133559703826904,-1.6583904027938843,0.2509544789791107
45.4,4.3631911277771,-7.056082248687744,3.541008710861206,0.3276301920413971,-1.8893499374389648,1.0769288539886475
45.45,5.681816577911377,4.534665107727051,-5.06544303894043,0.12936124205589294,-2.1007208824157715,1.0562435388565063
45.5,10.656051635742188,4.585522174835205,5.53590202331543,0.15050305426120758,-1.2258108854293823,0.14154712855815887
45.55,5.534213542938232,2.316061019897461,12.953868865966797,-0.8412783741950989,-0.7347069382667542,-0.18015481531620026
45.6,6.218245506286621,2.0597774982452393,22.495067596435547,-0.732466995716095,0.38949060440063477,-0.4855080842971802
45.65,-37.65626525878906,7.088568687438965,-27.00673484802246,1.9976732730865479,3.221550703048706,-2.530395984649658
45.7,-6.131275177001953,-0.25314605236053467,1.4470806121826172,-4.235707759857178,2.604062557220459,-1.2955602407455444
45.75,0.06240081787109375,-7.32582426071167,12.455252647399902,-2.993443727493286,2.987497568130493,-2.8765571117401123
45.8,-3.5071218013763428,2.9767346382141113,-0.3890659809112549,-0.43367165327072144,4.794295787811279,-0.32104137539863586
45.85,-6.997397422790527,0.49007847905158997,3.3163623809814453,-0.7748374342918396,3.669952869415283,0.7209504246711731
45.9,-3.6891958713531494,4.671675205230713,1.234490990638733,-0.30169227719306946,2.879697561264038,1.0268703699111938
45.95,-9.252287864685059,1.1969574689865112,-0.9826719760894775,0.22371052205562592,2.647020101547241,-0.20085477828979492
46.0,-13.86720085144043,-8.88282585144043,-4.03252649307251,0.5705578923225403,1.6014995574951172,-0.004692811984568834
46.05,-2.4519448280334473,3.2000033855438232,-9.77487850189209,0.7787660360336304,-0.6023156046867371,1.4812307357788086
46.1,-1.8176350593566895,-1.202266812324524,-4.0514373779296875,2.574845314025879,-0.0897931382060051,-1.6063103675842285
46.15,-4.449421405792236,-0.1627509444952011,-12.828947067260742,3.1369314193725586,-1.6752424240112305,-2.2555863857269287
46.2,-3.1202950477600098,-6.037839412689209,-6.922674655914307,-0.16884571313858032,-3.3158481121063232,-0.4496751129627228
46.25,0.9191210269927979,1.147429347038269,-5.336176872253418,0.043343447148799896,-4.322954177856445,0.5690622925758362
46.3,18.587982177734375,0.46297791600227356,-4.770300388336182,-0.2522823214530945,-4.274966716766357,0.4314514994621277
46.35,7.792876720428467,0.2766205668449402,1.0477327108383179,0.5007317066192627,-3.493134021759033,1.1765046119689941
46.4,1.711294412612915,-2.044182062149048,2.388174533843994,-0.6873917579650879,-4.301229476928711,-0.28288841247558594
46.45,10.00802230834961,0.8607842922210693,10.244572639465332,-0.028104528784751892,-2.447762966156006,0.6777536273002625
46.5,0.6108485460281372,1.137976050376892,5.9671549797058105,0.5653094053268433,-1.4199419021606445,0.41898706555366516
46.55,0.4871441423892975,5.371066570281982,-1.8166556358337402,-0.07299306988716125,-1.0481106042861938,1.3019304275512695
46.6,0.14454573392868042,-0.8111544251441956,3.8741507530212402,0.5766347646713257,0.6231099963188171,0.3964296877384186
46.65,2.974675416946411,2.09132719039917,16.053470611572266,0.5712770819664001,0.27828431129455566,-0.21451957523822784
46.7,12.730289459228516,7.61755895614624,25.445066452026367,-0.7592078447341919,2.4131808280944824,-1.7769572734832764
46.75,-5.360799312591553,2.549828290939331,-0.7494977712631226,-2.4721310138702393,2.8466625213623047,-2.9760026931762695
46.8,-2.6169753074645996,-2.3919684886932373,7.077845573425293,-2.0521674156188965,3.729917049407959,-2.682324171066284
46.85,4.2213873863220215,-3.2562222480773926,0.4987529516220093,-0.01646028459072113,3.9945437908172607,-1.2216942310333252
46.9,2.262204885482788,0.08107743412256241,6.200918674468994,-0.6442118883132935,2.8879239559173584,0.3191899359226227
46.95,-0.02826094627380371,4.087711334228516,5.047743797302246,0.5847704410552979,3.434969186782837,0.8778069019317627
47.0,-12.615433692932129,-4.057250499725342,4.085873603820801,0.1765613853931427,3.32470703125,0.6057103276252747
47.05,-7.165085315704346,-2.6556556224823,2.0357491970062256,0.43813958764076233,1.1033416986465454,1.6922426223754883
47.1,-8.134749412536621,2.138947010040283,-12.385954856872559,1.9545135498046875,-0.7324857115745544,0.29829099774360657
47.15,-5.790613651275635,-8.094818115234375,-0.08352459967136383,1.8936415910720825,-1.1573020219802856,-1.8096144199371338
47.2,8.703232765197754,-0.37841302156448364,-2.9794137477874756,0.4110379219055176,-1.3160629272460938,0.9961897134780884
47.25,10.613306045532227,2.147844076156616,5.527200222015381,1.2526330947875977,-2.4033071994781494,0.07604055106639862
47.3,-0.6423074007034302,-4.650623321533203,2.6523935794830322,2.701404571533203,-2.736912250518799,-0.4646643400192261
47.35,0.11950989067554474,-1.480202078819275,-0.9713600277900696,1.9175945520401,-2.0941834449768066,0.1642804592847824
47.4,14.266046524047852,9.12171459197998,5.524316310882568,0.7657355070114136,-0.41066569089889526,1.3689968585968018
47.45,0.03854846954345703,-1.459876298904419,4.341497898101807,-0.20497359335422516,-0.4501660168170929,-0.1876557618379593
47.5,4.705896854400635,9.063011169433594,0.21002091467380524,-0.16419601440429688,-0.21552808582782745,-0.08492010831832886
47.55,2.6677703857421875,-1.4003093242645264,3.555767774581909,0.03594958037137985,0.12183383852243423,0.2922821640968323
47.6,-1.1525816917419434,-1.60737144947052,-0.29557710886001587,0.09006062150001526,0.07597236335277557,0.34271854162216187
47.65,-2.348567485809326,4.266899585723877,-3.247192144393921,-0.33997422456741333,0.06255821883678436,-0.1449975222349167
47.7,-2.009031057357788,-7.469081401824951,3.414137840270996,-0.5628256797790527,0.08439236879348755,-0.08127854019403458
47.75,1.6902790069580078,2.6398072242736816,1.3360145092010498,-0.9247409701347351,0.3218599855899811,-0.18178324401378632
47.8,7.274816036224365,8.586149215698242,0.11447773873806,-0.8443768620491028,1.1051416397094727,0.013310778886079788
47.85,4.852182865142822,-1.7341099977493286,4.899209022521973,-0.3849678039550781,1.9255106449127197,0.32255154848098755
47.9,2.369201898574829,0.8022258281707764,-0.2969573438167572,0.11118552833795547,2.150400400161743,0.7165026664733887
47.95,-1.811787724494934,-2.1244261264801025,-3.4366374015808105,0.5586249828338623,2.306292772293091,1.2990950345993042
48.0,-4.276162147521973,-0.2420639544725418,-4.423915863037109,0.3068249523639679,1.861952543258667,1.5411419868469238
48.05,-2.7533183097839355,-1.5074272155761719,-1.9168835878372192,-0.4484747648239136,0.6749910712242126,0.6599538326263428
48.1,-4.571378707885742,-0.14947253465652466,-3.233837604522705,-1.1622549295425415,0.011424382217228413,-0.19290664792060852
48.15,-0.29435282945632935,0.8288155794143677,-2.6708619594573975,-2.327880620956421,-0.6335830688476562,-0.20583438873291016
48.2,-9.552196502685547,-1.0394023656845093,4.359307289123535,-1.9445501565933228,-0.32550689578056335,-0.7442219853401184
48.25,4.935023307800293,-5.615947246551514,-1.0329771041870117,-0.3870140314102173,0.6282053589820862,-1.8476272821426392
48.3,-7.425787448883057,-2.2897512912750244,0.0354655459523201,0.18955855071544647,0.11244241148233414,0.1928807497024536
48.35,0.636877715587616,-1.0146914720535278,6.833285331726074,0.439007431268692,-0.3976311683654785,0.3046472370624542
48.4,-6.234701156616211,1.226978063583374,7.979067802429199,0.9584827423095703,-1.1489534378051758,-1.2936718463897705
48.45,-2.4325287342071533,-1.7734335660934448,4.0617876052856445,2.275545597076416,-0.9526345729827881,-1.8139142990112305
48.5,-5.634549140930176,10.088068962097168,0.10047091543674469,1.3700428009033203,-2.9435057640075684,-1.4863107204437256
48.55,-0.07736039161682129,-0.4742305278778076,9.180171012878418,-1.0539077520370483,-4.480356693267822,-0.6936018466949463
48.6,6.640545845031738,4.120001792907715,11.859745979309082,-1.0625370740890503,-2.3455357551574707,-0.6039543747901917
48.65,1.5361214876174927,-1.1741098165512085,5.19575834274292,0.12108573317527771,0.2743931710720062,-2.0376968383789062
48.7,-1.7998218536376953,-2.5025410652160645,-1.0861685276031494,-1.0368084907531738,0.1524747908115387,-0.21009306609630585
48.75,9.484535217285156,1.8218356370925903,10.064030647277832,-0.34717169404029846,1.456979751586914,1.8677880764007568
48.8,8.526359558105469,4.872268199920654,-1.0846701860427856,1.0513255596160889,1.4366610050201416,1.3335418701171875
48.85,4.666835784912109,3.8789212703704834,-8.317553520202637,1.0701342821121216,-0.030443836003541946,-1.1829441785812378
48.9,8.468520164489746,-0.18537980318069458,-5.552020072937012,0.8564441204071045,1.2715784311294556,-1.5862512588500977
