Time [s],Acc_x [m/s^2],Acc_y [m/s^2],Acc_z [m/s^2],Gyro_x [1/s],Gyro_y [1/s],Gyro_z [1/s]
0.0,-0.029041245579719543,0.11536125093698502,0.044166818261146545,0.086068294942379,-0.0961335301399231,0.05632948502898216
0.05,-0.04962439835071564,0.1136970967054367,0.08039479702711105,0.08605748414993286,-0.09613464027643204,0.05634409561753273
0.1,0.039246153086423874,0.0826730877161026,0.05114788934588432,0.06717552244663239,-0.11203131079673767,0.05509994924068451
0.15,-0.003756517544388771,0.05106164515018463,0.07897864282131195,0.08327288180589676,-0.11215254664421082,0.05599547177553177
0.2,0.02664383314549923,0.05150891840457916,0.214982271194458,0.10610056668519974,-0.07304827868938446,0.05893582105636597
0.25,-0.04709126800298691,0.07230761647224426,0.16192947328090668,0.0815075933933258,-0.01386873796582222,0.04270267114043236
0.3,0.015531068667769432,0.11350730061531067,0.1644786149263382,0.07663774490356445,-0.032431043684482574,0.0352250374853611
0.35,0.03800840675830841,0.09273245930671692,0.31386974453926086,0.0487520806491375,-0.021219614893198013,0.026612229645252228
0.4,-0.015818621963262558,0.030013106763362885,0.30800706148147583,0.036502763628959656,0.019637025892734528,0.013671500608325005
0.45,-0.05347555875778198,0.07838062196969986,0.16674219071865082,0.044249068945646286,0.038872938603162766,0.019953854382038116
0.5,0.005373544991016388,0.10651496052742004,0.30464133620262146,0.033122044056653976,-0.010258800350129604,0.016533466055989265
0.55,-0.0387016162276268,0.0392465814948082,0.16631563007831573,0.04389708489179611,-0.0058921827003359795,0.020588327199220657
0.6,-0.030829718336462975,0.03825761750340462,0.14418038725852966,0.03630007430911064,-0.007187660317867994,0.02114097587764263
0.65,-0.051701951771974564,0.04437734931707382,0.05043435096740723,0.046756476163864136,-0.00688563659787178,0.02205619402229786
0.7,-0.11732062697410583,0.029824288561940193,0.09705183655023575,0.03341523930430412,-0.01405909564346075,0.021482842043042183
0.75,-0.021269485354423523,0.04308702424168587,0.11411774158477783,0.04369527846574783,-0.03088277019560337,0.023867955431342125
0.8,-0.08838987350463867,0.11593823879957199,0.1953667253255844,0.04714357480406761,-0.038087986409664154,0.033683404326438904
0.85,-0.04321601241827011,0.03532125800848007,0.2219059020280838,0.04038437828421593,-0.03552278131246567,0.025846609845757484
0.9,-0.05463031679391861,0.07103636860847473,0.11402451992034912,0.030769670382142067,-0.008447506465017796,0.024442456662654877
0.95,-0.0675925686955452,0.16474252939224243,0.17812585830688477,0.026666756719350815,-0.01565367355942726,0.021820200607180595
1.0,-0.04176662862300873,0.06293871998786926,0.14766590297222137,0.00864529050886631,0.00489334249868989,0.01948065124452114
1.05,-0.10685854405164719,0.17135818302631378,0.13576294481754303,0.007072108797729015,0.02453661896288395,0.016400739550590515
1.1,-0.037634603679180145,0.058007266372442245,0.07318521291017532,-0.013848116621375084,0.0050843884237110615,0.011961924843490124
1.15,-0.045577436685562134,0.07772830128669739,0.18477267026901245,0.004442173521965742,-0.0036498659756034613,0.018973182886838913
1.2,-0.08705700933933258,0.1078520342707634,0.29157206416130066,0.012007094919681549,-0.021736541762948036,0.02227698266506195
1.25,-0.07462503015995026,0.12947088479995728,0.2913855314254761,-0.0026248572394251823,0.006404630374163389,0.022162780165672302
1.3,0.00026668980717658997,0.08938315510749817,0.13209283351898193,-0.014988058246672153,0.009960895404219627,0.017884578555822372
1.35,-0.0009570068214088678,0.0912485346198082,-0.0013296225806698203,-0.05128910019993782,0.05286470055580139,0.011885295622050762
1.4,-0.15759791433811188,0.170933797955513,0.06321727484464645,-0.07837792485952377,0.07013651728630066,-0.0041644093580543995
1.45,-0.2498141974210739,0.5456640124320984,0.34900063276290894,-0.2234015017747879,0.03301885351538658,-0.05583002418279648
1.5,0.027545936405658722,0.5523988008499146,0.35921376943588257,-0.490882933139801,-0.024477079510688782,-0.1744423508644104
1.55,-0.12944337725639343,0.6922237873077393,0.698559582233429,-0.7992647886276245,-0.06399045884609222,-0.2988169491291046
1.6,0.6202530264854431,0.07842247188091278,0.3687025010585785,-1.0827363729476929,-0.15246447920799255,-0.36085250973701477
1.65,0.46904444694519043,-0.3122960925102234,-1.0038871765136719,-1.0138654708862305,0.096778005361557,-0.36699292063713074
1.7,0.32156556844711304,-0.07863817363977432,-0.4986150860786438,-0.8391186594963074,0.30200159549713135,-0.2746531665325165
1.75,0.10538966953754425,0.4601784944534302,0.6066815853118896,-0.789214015007019,0.3367769718170166,-0.17300714552402496
1.8,-0.03966408967971802,0.05626780912280083,1.2953133583068848,-0.7641083598136902,0.32280462980270386,-0.09663267433643341
1.85,-0.6885307431221008,-0.3433675169944763,1.1135245561599731,-0.7939624786376953,0.3004642426967621,-0.0733732357621193
1.9,-0.6018397808074951,-0.4166087806224823,0.26349902153015137,-0.9982631206512451,0.13233451545238495,-0.11142481118440628
1.95,-0.7222000360488892,-0.41542717814445496,-0.4969273507595062,-1.084998607635498,0.02857925184071064,-0.1351260542869568
2.0,-0.9052963256835938,-0.5478305816650391,-0.5621486902236938,-1.1013898849487305,-0.24884754419326782,-0.051604390144348145
2.05,-0.5030823945999146,-0.2797117233276367,-0.3972344994544983,-1.150403618812561,-0.44645246863365173,0.02347579039633274
2.1,-0.018776848912239075,-0.09667211025953293,-0.9373731017112732,-1.1238864660263062,-0.426682710647583,-0.07125875353813171
2.15,0.33240029215812683,0.2055034041404724,-1.1696653366088867,-1.113396406173706,-0.3678780496120453,-0.11742455512285233
2.2,0.6199840307235718,0.2610224783420563,-1.1158196926116943,-1.0851229429244995,-0.2899720072746277,-0.16453035175800323
2.25,0.8285586833953857,0.12119565159082413,-0.6660230159759521,-1.128013253211975,-0.1820845901966095,-0.1669183075428009
2.3,0.16106964647769928,0.023838959634304047,-0.37799355387687683,-1.248836874961853,-0.02517867460846901,-0.2250673770904541
2.35,-0.20961284637451172,-0.032713882625103,-0.5714685320854187,-1.3687636852264404,0.09135784208774567,-0.2823176085948944
2.4,-0.739479660987854,0.1713792383670807,-0.8551125526428223,-1.5087432861328125,0.11956751346588135,-0.2950235605239868
2.45,0.31701093912124634,1.2226420640945435,-0.6016300320625305,-1.5109108686447144,0.16555285453796387,0.04707023501396179
2.5,0.8571870923042297,1.2378625869750977,-0.8278260231018066,-1.1916172504425049,0.31653469800949097,0.1576247215270996
2.55,0.5285123586654663,0.5151882767677307,0.7660875916481018,-0.7538948655128479,0.30316025018692017,-0.0790877714753151
2.6,0.0006478428840637207,0.047086820006370544,2.4889233112335205,-0.3990318179130554,0.2156401127576828,-0.17815536260604858
2.65,-0.45999789237976074,-0.3731945753097534,3.614161968231201,-0.14678113162517548,0.1259671002626419,-0.22733710706233978
2.7,-0.9440445899963379,-0.3034542500972748,1.519533634185791,0.10058965533971786,0.1333034485578537,-0.060363586992025375
2.75,-1.6520559787750244,0.12766294181346893,-0.767235517501831,0.1579606831073761,0.0721004530787468,0.1547032743692398
2.8,-1.1438922882080078,0.25658437609672546,-1.6523517370224,0.09604419767856598,-0.041512660682201385,0.3852689266204834
2.85,0.11519202589988708,0.2134999930858612,-1.5420396327972412,0.08500147610902786,-0.05446025729179382,0.3206877112388611
2.9,1.1643189191818237,0.3471173048019409,-0.31937313079833984,0.030956676229834557,-0.06931415945291519,0.2311633974313736
2.95,1.1085633039474487,0.26840293407440186,0.028589654713869095,0.012930253520607948,-0.03633739799261093,0.12570780515670776
3.0,0.22927482426166534,-0.026768740266561508,-0.2629214823246002,0.02634498104453087,0.03248293697834015,0.001585574122145772
3.05,-0.4401627480983734,0.12272749096155167,-0.3256269693374634,-0.009374932385981083,0.009701544418931007,-0.003398116445168853
3.1,-0.5201245546340942,0.17580904066562653,-0.04694685339927673,-0.029158079996705055,-0.038797635585069656,0.016995901241898537
3.15,-0.5053850412368774,0.03519163280725479,-0.009645090438425541,-0.02181863784790039,-0.08096988499164581,0.023003090173006058
3.2,-0.47562551498413086,0.03315458819270134,0.2972998023033142,0.004633861593902111,-0.11241846531629562,0.05701663717627525
3.25,-0.1463828980922699,0.09411817789077759,0.3229873478412628,0.07873107492923737,-0.10561980307102203,0.1875898540019989
3.3,0.26486673951148987,0.12731169164180756,0.07118239998817444,0.15956902503967285,-0.09788211435079575,0.17436714470386505
3.35,0.45303845405578613,0.12844175100326538,-0.11286741495132446,0.18246448040008545,-0.0977114662528038,0.09781983494758606
3.4,0.5682284832000732,0.20302098989486694,-0.3009667694568634,0.16863088309764862,-0.08106347918510437,0.09943367540836334
3.45,0.546795129776001,0.3207645118236542,-0.291096568107605,0.14518514275550842,-0.058556780219078064,0.08722840994596481
3.5,0.2765529751777649,0.19405555725097656,-0.04132160544395447,0.1207120418548584,-0.024843940511345863,0.042110372334718704
3.55,-0.09231384843587875,0.057183295488357544,0.01661018840968609,0.11516772210597992,-0.003261019242927432,0.04275841265916824
3.6,-0.3560950756072998,0.04676635190844536,-0.11951637268066406,0.10901731252670288,-0.013267214410007,0.06000557914376259
3.65,-0.4482477903366089,0.04924686998128891,-0.24483267962932587,0.08124884963035583,-0.04669473320245743,0.09174565225839615
3.7,-0.45268723368644714,0.06109245866537094,-0.2840038537979126,0.05103420093655586,-0.0740114077925682,0.11923744529485703
3.75,-0.2727543115615845,0.1073656678199768,-0.24814967811107635,0.03390871360898018,-0.08708033710718155,0.14162173867225647
3.8,0.07592222094535828,0.2112293392419815,-0.31682005524635315,0.022726431488990784,-0.0967029258608818,0.11436153948307037
3.85,0.3625430166721344,0.3556728661060333,-0.21081966161727905,-0.00027620047330856323,-0.07806413620710373,0.051164451986551285
3.9,0.4121686816215515,0.38076305389404297,-0.09974019974470139,-0.024401362985372543,-0.024937428534030914,0.025917470455169678
3.95,0.1258123368024826,0.20661452412605286,0.06868241727352142,-0.027821160852909088,0.021287336945533752,0.01575104519724846
4.0,-0.27336585521698,0.0817147046327591,0.05876731500029564,-0.023917151615023613,0.023687273263931274,0.0020366820972412825
4.05,-0.5373398065567017,-0.09000484645366669,0.033567287027835846,-0.013411487452685833,0.005444170441478491,-0.011207843199372292
4.1,-0.6066722273826599,-0.0372704453766346,0.09864791482686996,-0.009023339487612247,0.002297118306159973,0.042358819395303726
4.15,-0.4735848307609558,0.06429873406887054,0.09807050973176956,-0.012824555858969688,-0.004823905881494284,0.13106127083301544
4.2,-0.27879589796066284,0.09556109458208084,-0.13484011590480804,-0.012788616120815277,-0.06033984571695328,0.11567231267690659
4.25,0.04347579926252365,0.13984204828739166,-0.3888300955295563,-0.01835320144891739,-0.11125757545232773,0.019478822126984596
4.3,0.36814194917678833,0.29627129435539246,-0.511687159538269,-0.04676475375890732,-0.0960339829325676,-0.025234321132302284
4.35,0.5163707733154297,0.3497962951660156,-0.3689093589782715,-0.08151108026504517,-0.02680308371782303,-0.01563793048262596
4.4,0.3299974203109741,0.2545185089111328,-0.17853282392024994,-0.10702276229858398,0.01974039524793625,-0.03432622179389
4.45,-0.056018903851509094,0.15937428176403046,-0.14974573254585266,-0.1206437349319458,0.04060882702469826,-0.09462251514196396
4.5,-0.22495746612548828,0.09991365671157837,-0.043818823993206024,-0.12496640533208847,0.04547999054193497,-0.11373208463191986
4.55,-0.2765156328678131,0.1028338298201561,0.20444928109645844,-0.11586009711027145,0.06000637263059616,-0.08885107189416885
4.6,-0.42231425642967224,0.033779244869947433,0.5344052910804749,-0.09224151074886322,0.07386942952871323,-0.0607098713517189
4.65,-0.6253127455711365,-0.02547633834183216,0.3468462824821472,-0.04015282541513443,0.056244295090436935,-0.023523278534412384
4.7,-0.501338005065918,-0.018549833446741104,0.06526435911655426,0.00952919851988554,0.01585855334997177,-0.023059604689478874
4.75,-0.2466028332710266,0.12352282553911209,-0.14842799305915833,0.0210912823677063,-0.015443525277078152,-0.02223397232592106
4.8,-0.008124694228172302,0.1626301109790802,-0.2690744698047638,-0.0007105957483872771,-0.021052464842796326,0.00010598805238259956
4.85,0.014169815927743912,0.1863756626844406,-0.12445291876792908,-0.021598830819129944,-0.009171557612717152,0.02216240018606186
4.9,-0.19857142865657806,0.17487534880638123,0.07767851650714874,-0.014525314792990685,0.020173223689198494,0.04964251443743706
4.95,-0.5450835824012756,0.0643531009554863,0.13849669694900513,0.0029555484652519226,0.030247816815972328,0.07331837713718414
5.0,-0.5643749833106995,0.07354271411895752,0.13060374557971954,0.014521818608045578,0.00872438121587038,0.09872177988290787
5.05,-0.49350404739379883,0.07021914422512054,-0.010254326276481152,0.0257536843419075,-0.030242210254073143,0.10454411804676056
5.1,-0.3312298059463501,0.20465001463890076,-0.19981130957603455,0.025260739028453827,-0.07571565359830856,0.10985599458217621
5.15,-0.038214363157749176,0.1957130879163742,-0.17871205508708954,0.0320998840034008,-0.0917934700846672,0.09748785197734833
5.2,0.279896080493927,0.26379966735839844,0.03993627056479454,0.022430013865232468,-0.07885793596506119,0.08278993517160416
5.25,0.3359881043434143,0.33353522419929504,0.14031821489334106,0.0054707955569028854,-0.05340038985013962,0.04712870717048645
5.3,0.21082846820354462,0.2844572365283966,-0.005830982234328985,-0.0003753434866666794,-0.017292270436882973,0.008182261139154434
5.35,-0.1716398000717163,0.1489735245704651,0.019762186333537102,-0.005952012725174427,0.009871991351246834,-0.005330721382051706
5.4,-0.4221324920654297,0.1437274068593979,0.00046665556146763265,-0.0025210147723555565,0.012257011607289314,-0.0020069919992238283
5.45,-0.4389077126979828,0.13159379363059998,-0.3966656029224396,0.005674116313457489,-0.004030517768114805,-0.01970045082271099
5.5,-0.32402750849723816,0.15614232420921326,-0.11501310020685196,-0.009208295494318008,-0.009034743532538414,-0.0056890747509896755
5.55,-0.22727583348751068,0.1277809888124466,0.18169301748275757,-0.018155816942453384,-0.011140800081193447,0.02731623500585556
5.6,-0.20523115992546082,0.11245639622211456,0.18814921379089355,-0.002890852279961109,-0.0020567812025547028,0.02236749231815338
5.65,-0.45264288783073425,0.08982572704553604,-0.07834910601377487,0.01986195147037506,-0.012028693221509457,0.013520469889044762
5.7,-0.31991660594940186,0.1840716302394867,-0.1260356307029724,0.029278142377734184,-0.014991884119808674,0.008866813033819199
5.75,-0.1827000379562378,0.06501774489879608,-0.052342671900987625,0.018193820491433144,-0.010870863683521748,0.0049345167353749275
5.8,-0.16112340986728668,0.17384155094623566,-0.08484166115522385,-0.0040015364065766335,-0.0016374968690797687,-0.009295061230659485
5.85,-0.14680573344230652,0.15818984806537628,0.010535953566432,-0.016156435012817383,-0.001638671848922968,-0.0009620600030757487
5.9,0.004443417303264141,0.15505126118659973,0.08109427243471146,-0.01658940315246582,-0.0022614593617618084,-0.027300704270601273
5.95,-0.001124984584748745,0.15264132618904114,0.044006042182445526,-0.016406631097197533,0.0037769596092402935,-0.06726257503032684
6.0,-0.1255570501089096,0.12518030405044556,0.09881744533777237,-0.014417178928852081,0.018087275326251984,-0.07443325966596603
6.05,-0.4058031737804413,0.21447670459747314,0.05574050173163414,-0.011775095947086811,0.026023278012871742,-0.06531234830617905
6.1,-0.6770101189613342,0.060249462723731995,0.03857474401593208,0.002227349206805229,0.025868579745292664,-0.03635970130562782
6.15,-0.6007387042045593,0.016540637239813805,0.011664080433547497,0.007243496365845203,0.009598564356565475,0.005777689162641764
6.2,-0.340433269739151,0.11111363768577576,0.06208314001560211,0.004842536058276892,-0.012325244024395943,0.022357281297445297
6.25,-0.18910841643810272,0.17791946232318878,0.06169487163424492,0.0060193175449967384,-0.017417488619685173,0.016279498115181923
6.3,-0.16010239720344543,0.12818819284439087,0.054131586104631424,0.010531538166105747,-0.009694961830973625,0.009790142998099327
6.35,-0.1876668632030487,0.13369661569595337,0.021712755784392357,0.011978213675320148,-0.0030443640425801277,0.011339628137648106
6.4,-0.15854884684085846,0.1705380231142044,-0.02121312916278839,0.009429479949176311,-0.001618963317014277,0.010006553493440151
6.45,-0.14608782529830933,0.12824636697769165,0.07373329252004623,0.00829397700726986,-0.004889056086540222,-0.006741104647517204
6.5,-0.2254740595817566,0.09789187461137772,0.09631195664405823,0.002587544731795788,-0.00015395770606119186,-0.01975577138364315
6.55,-0.3122508227825165,0.08645923435688019,0.015590702183544636,-0.00016707717441022396,0.004709585104137659,-0.011952771805226803
6.6,-0.32913121581077576,0.11975105851888657,-0.10100128501653671,-0.0031174214091151953,0.003776165656745434,-0.0006050853407941759
6.65,-0.2146843522787094,0.13271528482437134,-0.040305182337760925,-0.009775174781680107,-0.00215360545553267,0.003324457909911871
6.7,-0.14791932702064514,0.17713458836078644,0.12089535593986511,-0.0179451834410429,-0.0014989847550168633,0.004172408953309059
6.75,-0.20673973858356476,0.13412101566791534,0.08656302094459534,-0.011167102493345737,0.006335018668323755,-0.005926572717726231
6.8,-0.28218361735343933,0.06157500296831131,0.06321074813604355,-0.006250493228435516,0.004859372973442078,-0.017779124900698662
6.85,-0.3603835999965668,0.07998761534690857,0.07135848701000214,-0.006843144074082375,0.004834500141441822,-0.018499959260225296
6.9,-0.3648475706577301,0.13042935729026794,0.07256104797124863,-0.004237540997564793,0.0041466630063951015,-0.013736654072999954
6.95,-0.36208727955818176,0.1429358422756195,0.029495328664779663,-0.0027732672169804573,0.0024237772449851036,-0.00811596866697073
7.0,-0.26302218437194824,0.13704879581928253,0.07169762998819351,-0.006529773119837046,0.00031282121199183166,0.0006537758745253086
7.05,-0.20835357904434204,0.18540677428245544,0.04504075646400452,-0.006309437565505505,-0.0010732111986726522,0.0009764641290530562
7.1,-0.2893800735473633,0.16155634820461273,0.05957631766796112,-0.008224128745496273,0.00178352405782789,-0.004427645821124315
7.15,-0.33909714221954346,0.09359654039144516,0.026960985735058784,-0.00685460027307272,0.006334317848086357,0.0001572512264829129
7.2,-0.24368342757225037,0.11279113590717316,0.034535963088274,-0.0004589231393765658,0.0014265339123085141,-0.00350894033908844
7.25,-0.18978174030780792,0.13436132669448853,0.06584633886814117,-0.0024461084976792336,-0.0014503637794405222,-0.008621430024504662
7.3,-0.27100300788879395,0.1261816769838333,0.07055196911096573,-0.002102192724123597,0.0025462128687649965,-0.010905029252171516
7.35,-0.3890300393104553,0.08900746703147888,0.002556503750383854,-0.0010459130862727761,0.007542810402810574,-0.006352046504616737
7.4,-0.32565245032310486,0.1961136907339096,0.03436758741736412,-0.0012443936429917812,0.0012635166058316827,0.00016527407569810748
7.45,-0.21830587089061737,0.2051468789577484,0.08661172538995743,-0.006255299784243107,-0.0019128930289298296,-0.0030706303659826517
7.5,-0.2858577370643616,0.13063916563987732,0.14349481463432312,-0.010186868719756603,0.004835302475839853,-0.0004381370381452143
7.55,-0.3514194190502167,0.1248379722237587,0.06391608715057373,-0.00830116681754589,0.005800692830234766,-4.416041701915674e-05
7.6,-0.2699289619922638,0.10656077414751053,0.009731575846672058,-0.004023643210530281,-0.0025424459017813206,-0.01088922843337059
7.65,-0.18071642518043518,0.13525110483169556,0.03420473635196686,-0.005307496525347233,-0.003710906719788909,-0.008204279467463493
7.7,-0.25624820590019226,0.10145861655473709,0.05648844689130783,-0.005911316256970167,0.0026425218675285578,-0.0033827226143330336
7.75,-0.33466091752052307,0.11335763335227966,0.04089612886309624,-0.0019982513040304184,0.0024248447734862566,-0.004904380068182945
7.8,-0.2886478900909424,0.12421711534261703,0.020445384085178375,-0.005806563887745142,-0.005288868211209774,-0.013481308706104755
7.85,-0.1581721156835556,0.16878803074359894,0.012045495212078094,-0.01532687433063984,-0.01040478516370058,-0.02181871235370636
7.9,-0.2059265673160553,0.14404399693012238,0.06358078867197037,-0.013675518333911896,-0.008796320296823978,-0.028273537755012512
7.95,-0.26532238721847534,0.1328497678041458,0.08270060271024704,-0.008629819378256798,-0.0007378941518254578,-0.0178067646920681
8.0,-0.23546338081359863,0.20032986998558044,0.07082481682300568,0.0015803505666553974,-0.00342933158390224,-0.020982816815376282
8.05,-0.16814996302127838,0.15943439304828644,0.012207535095512867,0.004269124008715153,-0.0020134360529482365,-0.03065076284110546
8.1,-0.16942773759365082,0.16463764011859894,0.13147425651550293,-0.005951916798949242,0.004845520481467247,-0.040684834122657776
8.15,-0.20104768872261047,0.17026910185813904,0.19252818822860718,0.0011477498337626457,0.005627196282148361,-0.039626024663448334
8.2,-0.19504471123218536,0.09123808890581131,0.20975030958652496,0.01910962536931038,0.011824417859315872,-0.043547622859478
8.25,-0.24075409770011902,0.09587009251117706,0.30486899614334106,0.04322730004787445,0.005918932147324085,-0.06254101544618607
8.3,-0.3238047659397125,0.09872826933860779,0.24206329882144928,0.07801906019449234,0.007443178445100784,-0.08759582787752151
8.35,-0.37630242109298706,0.0975399911403656,0.08630238473415375,0.1042957454919815,0.009468412958085537,-0.09164971113204956
8.4,-0.4970308542251587,0.12296497821807861,0.07929686456918716,0.11623412370681763,0.011356551200151443,-0.0727817490696907
8.45,-0.5825468897819519,0.03312598541378975,0.011426834389567375,0.11018149554729462,0.012346485629677773,-0.020078562200069427
8.5,-0.34620416164398193,0.03379637748003006,-0.011488797143101692,0.09556794166564941,0.0006304749986156821,0.028545325621962547
8.55,-0.46688005328178406,0.12100706994533539,-0.1271481066942215,0.07377579808235168,-0.021508708596229553,0.05057875066995621
8.6,-0.46538057923316956,0.10669336467981339,-0.20406870543956757,0.047887444496154785,-0.040202878415584564,0.06436420977115631
8.65,-0.319158136844635,0.16926583647727966,-0.19108664989471436,0.015245206654071808,-0.035115718841552734,0.0728527158498764
8.7,-0.12158283591270447,0.22182567417621613,-0.014953081496059895,-0.011120492592453957,-0.013329478912055492,0.0714135468006134
8.75,-0.049174580723047256,0.20744329690933228,0.13636495172977448,-0.014930542558431625,0.004080710932612419,0.05965109542012215
8.8,-0.03951070085167885,0.19260984659194946,0.081577830016613,-0.007896442897617817,0.016017870977520943,0.033731650561094284
8.85,-0.13821659982204437,0.18195445835590363,0.06919263303279877,-0.015733040869235992,0.013924683444201946,0.0016584990080446005
8.9,-0.35595986247062683,0.04906375706195831,0.050787553191185,-0.03046458587050438,0.009514756500720978,-0.017864223569631577
8.95,-0.4388597011566162,0.1734410524368286,0.11062899976968765,-0.0324365608394146,0.009133931249380112,-0.012719634920358658
9.0,-0.3470264971256256,0.1628972291946411,0.2243446707725525,-0.022878095507621765,0.0030702222138643265,0.0013445512158796191
9.05,-0.22557726502418518,0.12139042466878891,0.24639439582824707,-0.005483377259224653,-0.0077287545427680016,-0.0016271850327029824
9.1,-0.22453413903713226,0.11136634647846222,0.10617076605558395,0.006751148495823145,-0.0016843542689457536,0.001068337936885655
9.15,-0.24538643658161163,0.1653634011745453,0.08972209692001343,0.013374054804444313,0.0011970859486609697,-0.005461635533720255
9.2,-0.25350815057754517,0.13400180637836456,-0.025372488424181938,0.006619171239435673,-0.002210186328738928,-0.0167265385389328
9.25,-0.09474770724773407,0.13306717574596405,-0.04104681685566902,-0.00884394533932209,-0.006235763896256685,-0.00886615552008152
9.3,-0.09862329065799713,0.06429103016853333,-0.013728432357311249,-0.014572094194591045,0.004217032343149185,-0.017521468922495842
9.35,-0.18476276099681854,0.18916423618793488,0.08566019684076309,-0.018211646005511284,0.01094181090593338,-0.021964455023407936
9.4,-0.21130385994911194,0.04827027767896652,0.10033436864614487,-0.018283715471625328,0.0059651946648955345,-0.02944285050034523
9.45,-0.23940011858940125,0.12431152164936066,0.07799984514713287,-0.01703711412847042,0.006250493694096804,-0.027282590046525
9.5,-0.15827149152755737,-0.08968828618526459,0.21779942512512207,-0.017185935750603676,0.005458899307996035,-0.01777244359254837
9.55,-0.3530408442020416,0.11036214977502823,0.0842507854104042,-0.006620350759476423,0.016965515911579132,-0.01363897230476141
9.6,0.054206155240535736,0.03286362439393997,0.23880703747272491,-0.0025954574812203646,-0.0008926631417125463,-0.012202652171254158
9.65,0.1194661557674408,0.7543880343437195,-0.12426161020994186,-0.009302488528192043,0.004523265175521374,-0.009286387823522091
9.7,-0.052851781249046326,0.14828398823738098,-0.0805426836013794,-0.004868587478995323,0.002993174595758319,0.02710019424557686
9.75,-0.29842913150787354,0.06363493204116821,-0.14034132659435272,-0.0016189746093004942,0.011497936211526394,0.011777225881814957
9.8,-0.059285733848810196,0.21254639327526093,-0.14722390472888947,-0.007972702383995056,0.01921682432293892,0.04452762007713318
9.85,0.07757660746574402,0.011033054441213608,0.1811051368713379,-0.0273746345192194,0.004334774799644947,0.007881307043135166
9.9,-0.10424137115478516,0.29060086607933044,0.3189305365085602,-0.036598172038793564,0.02635032869875431,0.01762090064585209
9.95,-0.3053324818611145,0.6967270374298096,0.32313624024391174,-0.060301773250103,0.009233217686414719,-0.021303920075297356
10.0,-0.23249387741088867,0.6222020387649536,-0.9280699491500854,-0.08051938563585281,0.01974809542298317,-0.05820133909583092
10.05,0.527390718460083,0.1741771101951599,-0.3888031542301178,-0.0956367701292038,0.01684551127254963,-0.023722713813185692
10.1,0.18686094880104065,0.25347331166267395,-0.059680379927158356,-0.09038560092449188,0.02860216237604618,-0.05125753581523895
10.15,-0.44059932231903076,0.05647953227162361,-0.31981971859931946,-0.07935143262147903,0.011203045025467873,-0.038001008331775665
10.2,-0.3182753622531891,0.0572558231651783,0.21012870967388153,-0.08412162959575653,-0.005247281864285469,-0.045707959681749344
10.25,-0.32995766401290894,0.2255660444498062,0.3600892722606659,-0.08460154384374619,-0.0032462046947330236,-0.0443057045340538
10.3,-0.2870848774909973,0.15946398675441742,0.2882460653781891,-0.06745394319295883,-0.001622715499252081,-0.039614446461200714
10.35,-0.06645842641592026,0.44725432991981506,0.5323882102966309,-0.0458303838968277,0.012330531142652035,-0.015759658068418503
10.4,-0.5705987811088562,-0.04987421631813049,-0.018198596313595772,-0.013704618439078331,0.013514901511371136,-0.01665915921330452
10.45,-0.24042072892189026,-0.2714853584766388,-0.1492280811071396,0.005713367369025946,0.00014694163110107183,0.02277078852057457
10.5,-0.07391978055238724,0.21583278477191925,0.5044060945510864,0.008292578160762787,-0.002707758219912648,0.07874416559934616
10.55,-0.39248126745224,0.15680992603302002,0.29293709993362427,0.02429262362420559,0.006048068404197693,0.08068473637104034
10.6,-0.05866802856326103,0.026405351236462593,0.03928958252072334,0.05054512247443199,0.0009292372851632535,0.054934196174144745
10.65,0.070903480052948,0.2567930817604065,0.20865122973918915,0.04375632479786873,0.00018164818175137043,0.02601148933172226
10.7,-0.2443724423646927,0.2881375253200531,-0.18158364295959473,0.01752842590212822,-0.004347706213593483,0.0069882748648524284
10.75,-0.13885396718978882,0.1309843510389328,-0.3454761803150177,0.00456157186999917,-0.016938861459493637,0.0015773752238601446
10.8,0.08427584916353226,0.29380422830581665,0.20449748635292053,0.007854176685214043,-0.019820190966129303,-0.007867002859711647
10.85,-0.034146133810281754,0.18727213144302368,0.24584268033504486,0.00820887554436922,-0.021739544346928596,-0.040264010429382324
10.9,-0.37408682703971863,0.06278235465288162,-0.37815359234809875,0.02183569222688675,-0.02578193135559559,-0.06224176660180092
10.95,0.10803192108869553,0.12591077387332916,0.03659597411751747,0.03624285012483597,-0.008221708238124847,-0.02988780103623867
11.0,-0.4267805516719818,0.1040564700961113,0.4762851893901825,0.017387840896844864,0.030089296400547028,0.04105516895651817
11.05,-1.3099400997161865,-0.10132482647895813,-0.024242926388978958,0.0016238857060670853,0.029848013073205948,0.09516040235757828
11.1,-0.5270607471466064,-0.03608981892466545,-0.20362573862075806,0.03481680154800415,-0.014281101524829865,0.0981464684009552
11.15,0.12830539047718048,0.1595335304737091,0.3289882242679596,0.05296975001692772,-0.046445854008197784,0.07498352974653244
11.2,0.19052442908287048,0.27924731373786926,0.3241572976112366,0.03974628075957298,-0.04466024041175842,0.052394818514585495
11.25,-0.08548538386821747,0.20373539626598358,-0.417658269405365,0.023364128544926643,-0.038449279963970184,0.02081707864999771
11.3,0.22891995310783386,0.23360444605350494,-0.04161074012517929,0.00021621829364448786,-0.008573384955525398,0.008630452677607536
11.35,0.224845752120018,0.12417508661746979,0.6961356401443481,-0.018566899001598358,0.03596118465065956,0.013585836626589298
11.4,-0.4909779131412506,0.17349544167518616,0.3732721507549286,0.0031802658922970295,0.035823918879032135,-0.014456651173532009
11.45,-1.0567880868911743,-0.0996616780757904,-0.42798805236816406,0.019916174933314323,0.029702896252274513,-0.03204674646258354
11.5,-0.5601784586906433,0.04519663378596306,-0.21067409217357635,0.030405201017856598,0.007165339309722185,0.024710122495889664
11.55,0.31032297015190125,0.2700986862182617,0.2274867743253708,0.009161780588328838,0.005974909756332636,0.038151342421770096
11.6,-0.3485676944255829,0.3180353045463562,0.42219623923301697,-0.026005428284406662,-0.0056037637405097485,0.08097948879003525
11.65,-0.48559466004371643,-0.17505449056625366,0.701278030872345,-0.00906200148165226,-0.01878652349114418,0.15447133779525757
11.7,-0.9939084053039551,-0.2301090955734253,0.2765466868877411,0.05253918096423149,-0.021701248362660408,0.23559826612472534
11.75,-0.6175844073295593,-0.03150453045964241,0.00977635569870472,0.11222448945045471,-0.058045074343681335,0.3153028190135956
11.8,-0.1175352931022644,-0.31341657042503357,-0.25430452823638916,0.14461299777030945,-0.09518584609031677,0.24531710147857666
11.85,0.05084540694952011,0.0665435791015625,-0.07478713244199753,0.13519221544265747,-0.13886788487434387,0.1824914664030075
11.9,0.6141198873519897,0.7757273316383362,0.1531696319580078,0.06224137544631958,-0.14015614986419678,0.1681641936302185
11.95,0.7412100434303284,0.8119660019874573,0.283841997385025,0.018868081271648407,-0.03299607336521149,0.10011478513479233
12.0,0.8316298127174377,0.5290155410766602,0.34985899925231934,-0.0028982777148485184,0.06088197976350784,0.0019455295987427235
12.05,0.5779892802238464,-0.08066285401582718,-0.15687787532806396,-0.027828160673379898,0.11313755810260773,-0.10219961404800415
12.1,-0.3850882649421692,-0.0732841044664383,-0.13279545307159424,-0.07552385330200195,0.06739018112421036,-0.18181979656219482
12.15,-0.7697096467018127,0.24430295825004578,0.3464035391807556,-0.1034361720085144,-0.003137440187856555,-0.18576711416244507
12.2,-0.9695270657539368,0.25757908821105957,0.06888870894908905,-0.06717991828918457,-0.020069504156708717,-0.21285958588123322
12.25,-0.7021344900131226,0.1298905909061432,-0.19917309284210205,-0.03789110481739044,-0.027607496827840805,-0.16546957194805145
12.3,0.057614766061306,0.008604037575423717,-0.1053343415260315,-0.022567404434084892,-0.02720109187066555,-0.09582813829183578
12.35,-0.3970654606819153,-0.051501207053661346,0.23356948792934418,-0.002884829882532358,-0.010329081676900387,-0.022531816735863686
12.4,-0.613059401512146,0.18044011294841766,0.15539385378360748,0.007212954107671976,-0.013880232349038124,0.03720683231949806
12.45,-0.7195358276367188,0.3351862132549286,-0.1321578025817871,0.03172171488404274,-0.017986135557293892,0.07308180630207062
12.5,-0.40391305088996887,0.1284533590078354,0.06874408572912216,0.057563744485378265,-0.03762152045965195,0.10179705172777176
12.55,0.609531581401825,-0.02332889474928379,-0.04888014867901802,0.04348381608724594,-0.0553370863199234,0.07022881507873535
12.6,0.45229560136795044,-0.04381474852561951,0.00985938310623169,0.003760795807465911,-0.06822464615106583,0.03596215695142746
12.65,0.4229526221752167,0.3853779137134552,0.054713696241378784,-0.014411087147891521,-0.08503194898366928,0.013874799944460392
12.7,0.6012796759605408,0.575526237487793,-0.11854220181703568,-0.03873327001929283,-0.03920722380280495,-0.09458427131175995
12.75,0.35709327459335327,0.3947449028491974,0.12268559634685516,-0.06311091780662537,0.017711559310555458,-0.17418645322322845
12.8,0.10182254016399384,0.004222856368869543,0.08850639313459396,-0.07722155004739761,0.07961662113666534,-0.19470003247261047
12.85,-0.8669400215148926,-0.4176873564720154,0.12822818756103516,-0.0642143189907074,0.09076642990112305,-0.1475335657596588
12.9,-1.6906163692474365,-0.28068041801452637,0.24725201725959778,-0.037474196404218674,0.044633395969867706,-0.06566380709409714
12.95,-1.120081901550293,0.05492231622338295,0.02192547358572483,0.005474626086652279,-0.025007858872413635,0.0018211040878668427
13.0,-0.2919694781303406,0.21612368524074554,0.06839445978403091,0.03399175778031349,-0.044539518654346466,0.020581863820552826
13.05,0.7733924984931946,0.2667979300022125,-0.05083787813782692,0.025782354176044464,-0.03058713488280773,0.054908834397792816
13.1,0.47270336747169495,-0.04287823662161827,0.2048638015985489,-0.0012067630887031555,0.00036311594885773957,0.036551617085933685
13.15,-0.4129854142665863,0.10923873633146286,0.4118123948574066,-0.018838392570614815,0.007329472806304693,0.02979539893567562
13.2,-0.7387763857841492,0.21110935509204865,0.36307409405708313,0.007430029101669788,0.013414932414889336,0.008739079348742962
13.25,-1.1995608806610107,0.24300602078437805,0.08901037275791168,0.06619840115308762,0.02390693686902523,-0.05505921319127083
13.3,-0.6651430726051331,-0.10251321643590927,-0.005566600244492292,0.09930246323347092,-0.03468476980924606,0.044333525002002716
13.35,-0.2884485721588135,-0.37487414479255676,-0.02325037121772766,0.07383488118648529,-0.07547607272863388,0.1307065486907959
13.4,-0.22275321185588837,-0.09482666850090027,0.2750979959964752,0.04957754164934158,-0.08546128123998642,0.1876564770936966
13.45,0.0678376629948616,0.4018794000148773,0.13588254153728485,0.045636605471372604,-0.08694986999034882,0.17580527067184448
13.5,0.28752121329307556,0.4568644165992737,-0.32082876563072205,0.03683765232563019,-0.06212714686989784,0.11200893670320511
13.55,0.6326322555541992,0.3981427848339081,-0.03068355843424797,-0.013409601524472237,-0.04618513956665993,0.08717920631170273
13.6,0.6459826231002808,0.15699000656604767,0.5362331867218018,-0.05131637677550316,0.0006881272420287132,0.02858346700668335
13.65,-0.20676760375499725,0.14384660124778748,0.6498273611068726,-0.03555721417069435,0.04479542374610901,-0.015467353165149689
13.7,-1.0027174949645996,0.14278718829154968,0.16046324372291565,-0.027999160811305046,0.038013387471437454,-0.02643154002726078
13.75,-1.309561014175415,-0.022619981318712234,-0.10956475883722305,-0.0011264188215136528,0.015594212338328362,-0.030803753063082695
13.8,-0.3648754060268402,-0.04164023697376251,-0.20178335905075073,0.03860985115170479,-0.034018274396657944,0.022100195288658142
13.85,0.11901022493839264,-0.027901681140065193,-0.07733339816331863,0.04737026244401932,-0.058535151183605194,0.07363039255142212
13.9,-0.13932740688323975,0.2170782834291458,0.1720072627067566,0.029490750283002853,-0.05053834989666939,0.08269622176885605
13.95,-0.21821972727775574,0.29928216338157654,-0.25920602679252625,0.04561309516429901,-0.03255300223827362,0.054308488965034485
14.0,-0.4326401352882385,-0.03316589817404747,-0.945783793926239,0.08894074708223343,-0.028252141550183296,0.012549555860459805
14.05,-0.17261570692062378,-0.1252613514661789,-1.3034781217575073,0.12581713497638702,-0.0665903314948082,0.030082646757364273
14.1,0.39303669333457947,-0.1369124948978424,-1.5059064626693726,0.11889158189296722,-0.10236822068691254,0.0557512603700161
14.15,-0.010518908500671387,0.020720457658171654,-0.8639968037605286,0.03768640756607056,-0.10000544041395187,0.061807647347450256
14.2,-0.6302270293235779,0.4718916416168213,0.08701977133750916,-0.06735549122095108,-0.06871876120567322,0.07403005659580231
14.25,-0.8652547597885132,1.0067189931869507,0.45987632870674133,-0.12211228907108307,-0.06280554831027985,0.11741431802511215
14.3,-0.8677284717559814,0.47786644101142883,0.21604950726032257,-0.08128204941749573,-0.08252337574958801,0.13096581399440765
14.35,-0.41166165471076965,-0.08570856600999832,0.09644278883934021,0.03022099658846855,-0.0907820388674736,0.11180856823921204
14.4,0.17205458879470825,-0.21561916172504425,-0.055282216519117355,0.09954662621021271,-0.10616307705640793,0.08729285001754761
14.45,-0.14701618254184723,-0.08662889897823334,0.2665421962738037,0.047429654747247696,-0.10881533473730087,0.040459588170051575
14.5,-0.5201400518417358,0.20351138710975647,0.4819692373275757,-0.02069222554564476,-0.11020367592573166,0.004420263692736626
14.55,-0.481227844953537,0.24655166268348694,-0.016603931784629822,-0.008338844403624535,-0.08429919928312302,-0.051991790533065796
14.6,-0.5861622095108032,-0.029789859429001808,-0.8122971057891846,0.012204909697175026,-0.06662462651729584,-0.08425404876470566
14.65,0.24247689545154572,0.33730414509773254,-0.7099260687828064,-0.03405589610338211,-0.07132668048143387,-0.08424146473407745
14.7,0.9001331329345703,0.43140310049057007,0.09654337167739868,-0.09687169641256332,-0.08315589278936386,-0.06332922726869583
14.75,0.3423386216163635,-0.053610846400260925,0.6835432648658752,-0.0658959299325943,-0.08431509882211685,-0.06940963864326477
14.8,-0.3826354444026947,-0.19017787277698517,0.578220784664154,-0.008025403134524822,-0.1135069951415062,-0.060315586626529694
14.85,-0.5847037434577942,0.33792611956596375,0.2559995651245117,-0.021006302908062935,-0.13509397208690643,-0.0509912446141243
14.9,0.23574978113174438,0.5092459321022034,0.2512443959712982,-0.040587130934000015,-0.10972248762845993,-0.08258427679538727
14.95,0.61318439245224,0.2513827979564667,0.19643943011760712,-0.010794850066304207,-0.061301570385694504,-0.15520881116390228
15.0,-0.2206517904996872,-0.2709321975708008,0.44957369565963745,0.029730241745710373,-0.018933627754449844,-0.24363937973976135
15.05,-1.0815021991729736,-0.1091049313545227,0.32675644755363464,0.02644505351781845,0.00827278383076191,-0.28154829144477844
15.1,-1.4222629070281982,0.2650168836116791,0.21062181890010834,-0.051737986505031586,-0.023403657600283623,-0.2220676988363266
15.15,-1.1365649700164795,0.05010150745511055,0.4474138915538788,-0.08192269504070282,-0.04873725399374962,-0.14176355302333832
15.2,0.18518586456775665,-0.22636516392230988,0.290399968624115,-0.03383249044418335,-0.10505690425634384,-0.07047564536333084
15.25,0.2978612184524536,0.3910742402076721,0.5639196634292603,0.004248239099979401,-0.16689978539943695,-0.09528042376041412
15.3,-0.05957966297864914,0.701342761516571,0.3218938708305359,-0.005471395328640938,-0.17973706126213074,-0.12750808894634247
15.35,-0.443852037191391,0.29757511615753174,-0.2629336416721344,-0.010971112176775932,-0.12930366396903992,-0.1744282990694046
15.4,-0.7827850580215454,0.3233063220977783,0.19524472951889038,-0.03918393328785896,-0.09286297112703323,-0.178777813911438
15.45,-0.28895407915115356,-0.031537942588329315,0.6807888150215149,-0.04365317150950432,-0.05584454536437988,-0.15720582008361816
15.5,-0.7891819477081299,-0.17542921006679535,0.9681138396263123,-0.01235278882086277,-0.04920942708849907,-0.0858713760972023
15.55,-0.9388142228126526,0.034130293875932693,0.7124699354171753,0.02713957615196705,-0.08544342964887619,0.04567472264170647
15.6,-0.3787912130355835,0.08674725890159607,-0.02806214988231659,0.04961169883608818,-0.09307754039764404,0.17298798263072968
15.65,0.32928380370140076,0.14930149912834167,-0.00206320290453732,0.030729304999113083,-0.10373865067958832,0.2187148481607437
15.7,1.2160885334014893,0.15978701412677765,0.24716882407665253,0.03360368683934212,-0.11268901824951172,0.10639593750238419
15.75,1.1716026067733765,0.3991631269454956,-0.002254727529361844,0.05237623304128647,-0.06884236633777618,-0.0744500458240509
15.8,0.6593780517578125,0.784727156162262,-0.8146058320999146,0.033142149448394775,-0.0019229707540944219,-0.18517372012138367
15.85,-0.17153853178024292,0.6083623170852661,-1.065737247467041,-0.014719896018505096,0.04604804888367653,-0.2140456587076187
15.9,-0.9445629119873047,0.027524137869477272,-0.7642195820808411,-0.018272949382662773,0.06081019341945648,-0.18974335491657257
15.95,-0.7618778944015503,-0.4375467300415039,-0.46495822072029114,0.01828772947192192,0.04773533344268799,-0.16748932003974915
16.0,-0.25831401348114014,-0.6263066530227661,-0.14664298295974731,0.014197219163179398,-0.03420087695121765,-0.1220952719449997
16.05,-0.6522167921066284,-0.5624513626098633,0.5169285535812378,-0.009363656863570213,-0.12266135960817337,-0.05599324777722359
16.1,-0.4051024615764618,0.004558653570711613,0.4951121509075165,0.014946874231100082,-0.16238386929035187,-0.024079330265522003
16.15,-0.15972447395324707,1.143108606338501,0.03598567843437195,0.03189798444509506,-0.17914177477359772,-0.05146640166640282
16.2,-0.2689048647880554,1.3833202123641968,-0.39442551136016846,-0.004285627976059914,-0.1563238650560379,-0.09292574226856232
16.25,-0.16218101978302002,0.15297894179821014,-0.36655759811401367,0.00482734851539135,-0.10321705788373947,-0.1294955313205719
16.3,-0.45592164993286133,-1.2309848070144653,-0.1824033409357071,0.10078364610671997,-0.07960858196020126,-0.07481470704078674
16.35,-1.1537766456604004,-1.276236653327942,-0.09464766830205917,0.13214117288589478,-0.1395464688539505,0.025294002145528793
16.4,-1.1781303882598877,-0.34466448426246643,-0.3697579503059387,0.05675742030143738,-0.220353364944458,0.09990634024143219
16.45,-0.5382674336433411,1.5402617454528809,-0.5472472310066223,-0.10762029141187668,-0.2692832052707672,0.2128843516111374
16.5,0.9892804026603699,1.7718194723129272,0.1850803643465042,-0.20936575531959534,-0.2942199409008026,0.30157503485679626
16.55,1.6545244455337524,0.001416916260495782,1.2087829113006592,-0.06714820861816406,-0.2391136735677719,0.23249973356723785
16.6,1.0592056512832642,-0.7745049595832825,1.262610673904419,0.13507287204265594,-0.19817276298999786,0.11609411984682083
16.65,0.4427238702774048,-0.15236958861351013,0.5557702779769897,0.16921687126159668,-0.1420922428369522,0.03149423748254776
16.7,0.1567215770483017,0.7848807573318481,-0.15861476957798004,0.04082765057682991,-0.07994995266199112,0.025762291625142097
16.75,-0.04672897234559059,1.0710604190826416,-0.001909651211462915,-0.12113359570503235,0.002919850405305624,0.0477299802005291
16.8,0.07448471337556839,0.318854421377182,0.5003738403320312,-0.1401759386062622,0.07965055853128433,0.07248525321483612
16.85,-0.18234996497631073,-0.5005026459693909,0.8365586400032043,-0.01659534126520157,0.05111744999885559,0.09045739471912384
16.9,-0.8300085067749023,-0.8550682067871094,0.22797730565071106,0.13908232748508453,0.011758432723581791,0.057904187589883804
16.95,-1.2305997610092163,-0.12899859249591827,-0.7575023174285889,0.14613112807273865,-0.057247377932071686,0.010679191909730434
17.0,-0.5849331021308899,0.6050187945365906,-0.8398839235305786,0.07179708033800125,-0.14479905366897583,0.018742956221103668
17.05,1.1006004810333252,0.41787800192832947,-0.8418745398521423,0.1233951523900032,-0.17323893308639526,0.0005580268334597349
17.1,1.424831748008728,-0.020615819841623306,0.34661978483200073,0.1325710266828537,-0.11192435026168823,-0.09198137372732162
17.15,-0.1779976189136505,-0.1253480613231659,0.7817561030387878,0.0800369530916214,-0.034370314329862595,-0.16741089522838593
17.2,-1.3189127445220947,0.13602188229560852,0.09563391655683517,0.014650031924247742,0.05485953763127327,-0.21977899968624115
17.25,-1.7266700267791748,0.4370054006576538,-1.0951498746871948,-0.04837784916162491,0.01565375365316868,-0.1832188218832016
17.3,-0.684646487236023,0.6300060749053955,-1.2561320066452026,-0.08404813706874847,-0.1255006492137909,-0.051669057458639145
17.35,0.8548628687858582,0.05585465952754021,-0.10507628321647644,-0.054703958332538605,-0.21130076050758362,0.068388931453228
17.4,0.9791110754013062,-0.5145857334136963,1.446548581123352,-0.028903208673000336,-0.24233104288578033,0.12345404922962189
17.45,0.3159993588924408,-0.8179237246513367,1.7966779470443726,0.046770595014095306,-0.1873680055141449,0.11542440205812454
17.5,0.2032732367515564,0.17459110915660858,0.9822980761528015,0.07921627163887024,-0.11052256077528,0.11914068460464478
17.55,0.7281213998794556,1.81991708278656,0.5455332398414612,-0.0015000663697719574,-0.027596959844231606,0.14586755633354187
17.6,1.5374746322631836,1.2609225511550903,1.1677460670471191,0.007955936715006828,0.10203497111797333,0.0571259967982769
17.65,0.8437823057174683,-0.3995506465435028,0.5378671288490295,0.13873803615570068,0.17379607260227203,-0.0736522227525711
17.7,0.3582104444503784,-0.7156956195831299,-0.4442446231842041,0.14682678878307343,0.18298925459384918,-0.11432205140590668
17.75,0.010735377669334412,-0.34898483753204346,-0.7915334701538086,-0.004598863422870636,0.2574108839035034,-0.1811314821243286
17.8,-0.93768709897995,0.5444996953010559,0.05547512322664261,-0.17149285972118378,0.36358118057250977,-0.27590280771255493
17.85,-1.5486551523208618,1.206978440284729,0.7836208343505859,-0.18558672070503235,0.37392908334732056,-0.32701653242111206
17.9,-1.5695654153823853,-0.08616609871387482,0.8282108306884766,0.023954562842845917,0.2847680151462555,-0.32128018140792847
17.95,-1.8239893913269043,-1.0915449857711792,0.17386461794376373,0.2404593974351883,0.20564515888690948,-0.3760010600090027
18.0,-2.138867139816284,-0.7699630856513977,-0.6930794715881348,0.1723545491695404,0.08014462143182755,-0.16749686002731323
18.05,-1.7513171434402466,0.250720351934433,-1.1333973407745361,-0.04745514690876007,0.005728962365537882,0.10086929053068161
18.1,-0.36407798528671265,0.5785600543022156,-0.5169826745986938,-0.22014836966991425,-0.10082298517227173,0.2781878709793091
18.15,0.9232822060585022,0.08084286749362946,0.9643476009368896,-0.11372287571430206,-0.1608530580997467,0.23440615832805634
18.2,1.3026632070541382,-0.42443397641181946,1.5855181217193604,0.007575955241918564,-0.1615072637796402,0.15272937715053558
18.25,0.8867076635360718,0.29096218943595886,1.3898073434829712,0.00519244559109211,-0.060502488166093826,0.1689874678850174
18.3,1.0376659631729126,1.129923939704895,1.2739932537078857,-0.11418037116527557,0.09551262855529785,0.17654336988925934
18.35,1.04161536693573,-0.01360909454524517,0.6044103503227234,-0.020273707807064056,0.23444262146949768,0.00956602580845356
18.4,0.279848575592041,-1.109010934829712,0.310114324092865,0.10581495612859726,0.23587632179260254,-0.09976062178611755
18.45,-1.1933588981628418,-0.1663253903388977,0.4951334595680237,0.07168440520763397,0.24277447164058685,-0.09149923920631409
18.5,-1.9595428705215454,1.2495886087417603,0.45371213555336,-0.04111176356673241,0.2563614249229431,-0.006568204611539841
18.55,-1.8798695802688599,0.6779370307922363,-0.2832292318344116,-0.03150879964232445,0.2354157567024231,0.06857029348611832
18.6,-0.6947160363197327,-0.7665901780128479,-0.5840365886688232,0.08526971936225891,0.14654800295829773,0.1624545007944107
18.65,1.0909771919250488,-0.6229613423347473,-0.1508331149816513,0.08304040133953094,0.07012680917978287,0.27839896082878113
18.7,1.3543932437896729,0.1874769628047943,1.0836069583892822,-0.09617384523153305,0.14185838401317596,0.26500052213668823
18.75,0.23271708190441132,1.2127735614776611,1.8371421098709106,-0.2024253010749817,0.3117091953754425,0.025134963914752007
18.8,-1.007415771484375,1.023068904876709,1.8416184186935425,-0.13392554223537445,0.36460715532302856,-0.1353980004787445
18.85,-1.6166073083877563,-0.47956544160842896,0.2870868444442749,0.12607358396053314,0.33512550592422485,-0.2178182750940323
18.9,-1.3173792362213135,-1.5825282335281372,-0.8673869967460632,0.20569880306720734,0.24225568771362305,-0.15482044219970703
18.95,-0.6918015480041504,-0.8180304765701294,-0.8925909996032715,0.05676206946372986,0.11540903896093369,0.005613674409687519
19.0,-0.1105368435382843,1.1158554553985596,0.26259708404541016,-0.16831035912036896,0.001805565319955349,0.17318885028362274
19.05,0.9717603921890259,1.7657712697982788,0.5185480117797852,-0.08807502686977386,-0.00013723877782467753,0.11158864200115204
19.1,0.8015124797821045,0.30049604177474976,0.384368896484375,0.1308942437171936,0.06583745777606964,-0.050526779145002365
19.15,-0.09611601382493973,-1.2183773517608643,0.4044831693172455,0.1598915010690689,0.08581811189651489,0.008880890905857086
19.2,0.28887856006622314,-1.0888283252716064,-0.1514757126569748,0.05236959829926491,0.09412437677383423,0.09973497688770294
19.25,0.37841928005218506,0.727091908454895,-0.31987813115119934,-0.11436071991920471,0.1274542212486267,0.08724023401737213
19.3,0.28662943840026855,1.8653159141540527,0.8880519866943359,-0.21659450232982635,0.13976284861564636,0.028912056237459183
19.35,0.13473108410835266,1.201631784439087,0.6440398097038269,-0.01986359804868698,0.18376629054546356,-0.1683397889137268
19.4,-0.5910491943359375,-0.2879170775413513,0.06702728569507599,0.12440992146730423,0.22018712759017944,-0.16280215978622437
19.45,-0.8309752941131592,-1.3779642581939697,-0.25747793912887573,0.11705450713634491,0.2309027463197708,-0.059069570153951645
19.5,-0.6038499474525452,-0.8970786929130554,-0.4540090560913086,0.003893309272825718,0.16407279670238495,0.06147047504782677
19.55,-0.006729224696755409,0.4841042757034302,-0.13537900149822235,-0.11970631778240204,0.07353740185499191,0.13328225910663605
19.6,1.243215560913086,1.0416765213012695,0.09102810174226761,-0.08639594912528992,0.05415539816021919,0.09456592798233032
19.65,1.0128674507141113,0.9908152222633362,-0.20264729857444763,0.03060673177242279,0.1212102398276329,-0.011103854514658451
19.7,0.5964155197143555,0.689146101474762,-0.054530005902051926,0.04149094596505165,0.18412379920482635,0.006195006426423788
19.75,0.2572004795074463,-0.33845439553260803,-0.08395413309335709,0.03972728177905083,0.26715385913848877,-0.043791331350803375
19.8,-0.7186260223388672,-1.3205978870391846,0.03558306768536568,0.043919578194618225,0.2811102569103241,-0.06550058722496033
19.85,-1.0160797834396362,-0.6708955764770508,0.17672884464263916,0.009521327912807465,0.21486777067184448,0.024639658629894257
19.9,-0.2993418276309967,0.21382056176662445,0.06491342186927795,-0.028471097350120544,0.1780819445848465,0.04912769794464111
19.95,0.6060843467712402,0.8557043671607971,0.022600840777158737,-0.0654648169875145,0.16822251677513123,0.09565018117427826
20.0,1.4612730741500854,1.0900392532348633,0.23364178836345673,-0.05722944810986519,0.1645015925168991,0.11570103466510773
20.05,1.7062932252883911,-0.010759641416370869,0.3465649485588074,0.025060009211301804,0.19407372176647186,0.02775229513645172
20.1,0.8255077600479126,-0.8505271077156067,0.4880160391330719,0.10791796445846558,0.22242476046085358,-0.055044446140527725
20.15,0.020764462649822235,-0.14005376398563385,0.630183756351471,0.07158783078193665,0.22728489339351654,-0.059172820299863815
20.2,-0.4319607615470886,0.8455851078033447,0.29434242844581604,-0.04362955689430237,0.266842782497406,-0.09322982281446457
20.25,-0.5111904144287109,1.0948289632797241,0.2655307352542877,-0.10998937487602234,0.3037760555744171,-0.08458927273750305
20.3,0.40311378240585327,0.5249519944190979,-0.290479838848114,-0.04064265638589859,0.2907845973968506,-0.09629573673009872
20.35,0.36433884501457214,0.11580464243888855,0.12894679605960846,0.01501481607556343,0.23632119596004486,-0.12102340161800385
20.4,0.1937093734741211,0.06345653533935547,0.5172768235206604,0.01737367920577526,0.21172939240932465,-0.06777646392583847
20.45,-0.22607260942459106,-0.39356711506843567,0.20648431777954102,3.974582068622112e-05,0.2525559961795807,-0.013572226278483868
20.5,-0.7530091404914856,-0.182394877076149,0.2971513569355011,-0.020756997168064117,0.27826663851737976,0.040414780378341675
20.55,-0.26349204778671265,0.4521629214286804,0.6257336735725403,-0.029959194362163544,0.20529615879058838,0.11660770326852798
20.6,0.4859585165977478,0.4955006241798401,0.7186474204063416,0.009322828613221645,0.16208265721797943,0.04459463432431221
20.65,0.5707469582557678,0.4500713646411896,0.38955387473106384,0.07445227354764938,0.14441025257110596,0.018333327025175095
20.7,0.7090001106262207,0.4229221045970917,0.21176621317863464,0.08476325869560242,0.13154713809490204,0.10414108633995056
20.75,0.6644085645675659,-0.22751443088054657,0.22043117880821228,0.06361791491508484,0.19540974497795105,0.08380728960037231
20.8,-0.23397541046142578,-0.659591794013977,0.5833872556686401,0.047226689755916595,0.2310793101787567,0.055028777569532394
20.85,-0.955449104309082,-0.1839960664510727,0.39059942960739136,0.023806842043995857,0.21175825595855713,0.09110863506793976
20.9,-0.6470248699188232,0.5955049991607666,-0.05989944562315941,0.0050409045070409775,0.15094462037086487,0.1702887862920761
20.95,0.29027625918388367,1.0893232822418213,-0.09453175961971283,0.04232539236545563,0.11264872550964355,0.19571320712566376
21.0,1.2810633182525635,0.4399832785129547,0.3048255741596222,0.10825370997190475,0.08786182850599289,0.22596001625061035
21.05,0.9989926218986511,-0.7963460087776184,0.733656644821167,0.16738298535346985,0.10625673085451126,0.16049501299858093
21.1,0.1103464737534523,-1.54425847530365,0.8016186356544495,0.17218811810016632,0.1479819267988205,0.1423357129096985
21.15,-0.5385593175888062,-0.7282362580299377,0.297845721244812,0.12428605556488037,0.12633240222930908,0.20782999694347382
21.2,-0.2529146671295166,1.2272255420684814,-0.25190767645835876,0.0659845620393753,0.023784516379237175,0.2979220449924469
21.25,1.351977825164795,2.1622440814971924,-0.644109845161438,0.044107962399721146,-0.046686846762895584,0.26291623711586
21.3,1.824718952178955,0.9451740980148315,-0.4719407260417938,0.11126671731472015,0.0337875634431839,0.03743346035480499
21.35,1.0905839204788208,-0.837546706199646,0.11941780149936676,0.15465617179870605,0.11209474503993988,-0.06510946899652481
21.4,-0.08345139771699905,-1.298754096031189,0.426872581243515,0.11697811633348465,0.16429725289344788,-0.038369808346033096
21.45,-1.0513182878494263,0.1885073035955429,0.031620342284440994,-0.01571996882557869,0.17898432910442352,0.043575942516326904
21.5,-0.23817716538906097,1.2864269018173218,-0.3565693795681,-0.13431736826896667,0.17939311265945435,0.14496666193008423
21.55,1.2118229866027832,0.500390887260437,-0.5260146856307983,-0.052027903497219086,0.1795637160539627,0.014753291383385658
21.6,0.7875140309333801,-0.014028700068593025,-0.2626485526561737,0.0506172850728035,0.1600961685180664,-0.12428206950426102
21.65,0.41450345516204834,0.49845606088638306,0.38749241828918457,0.02162436954677105,0.16029785573482513,-0.07343943417072296
21.7,-0.1583312451839447,0.35182109475135803,0.5487058758735657,-0.10593349486589432,0.25462380051612854,-0.05222056061029434
21.75,-0.6316238045692444,-0.09289921820163727,0.46739116311073303,-0.15972548723220825,0.304123193025589,-0.03157344460487366
21.8,0.0859374850988388,-0.5755740404129028,0.19429989159107208,-0.07793842256069183,0.23135292530059814,0.01147555187344551
21.85,-0.05620967596769333,-0.828286349773407,-0.11964394152164459,0.0032019373029470444,0.14558659493923187,-0.09433335810899734
21.9,0.09744381159543991,0.9333374500274658,0.15905968844890594,-0.057176925241947174,0.06178189814090729,-0.1057969331741333
21.95,0.48575764894485474,2.076913356781006,0.3466172516345978,-0.16552722454071045,0.05557332560420036,-0.025500761345028877
22.0,0.3195635974407196,0.26090240478515625,0.23670348525047302,-0.12099102139472961,0.1668900102376938,-0.15719656646251678
22.05,-0.19838428497314453,-1.71273934841156,0.04954647272825241,-0.031622156500816345,0.21427981555461884,-0.21870578825473785
22.1,-0.8255907893180847,-1.7950605154037476,0.3382493555545807,-0.00892130471765995,0.18001239001750946,-0.13915957510471344
22.15,-1.4856475591659546,0.4014657735824585,0.5569211840629578,-0.03586742281913757,0.07842224836349487,-0.019481847062706947
22.2,-0.46211040019989014,2.072953701019287,0.18859420716762543,-0.12049146741628647,-0.010841929353773594,0.09141232073307037
22.25,0.8380088806152344,1.1319199800491333,-0.007227411959320307,-0.14714990556240082,0.04282544553279877,-0.07384485006332397
22.3,0.888634204864502,-0.6138289570808411,0.11861468106508255,-0.06763987243175507,0.11117977648973465,-0.1665804237127304
22.35,-0.15304797887802124,-1.043916940689087,0.4004823565483093,0.00784285832196474,0.1655171513557434,-0.03730784356594086
22.4,-1.3359633684158325,-0.3473222851753235,0.6427925229072571,0.034506261348724365,0.12263964116573334,0.08392103761434555
22.45,-1.3739087581634521,0.4182189404964447,0.256350040435791,0.024699656292796135,0.009300438687205315,0.12057729810476303
22.5,0.2673960030078888,0.5419874787330627,-0.13598540425300598,0.0305390153080225,-0.08932031691074371,0.10783659666776657
22.55,1.6089452505111694,0.06153174862265587,-0.10835399478673935,0.07512865215539932,-0.07995467633008957,0.05732708424329758
22.6,1.4567121267318726,-0.06036784499883652,0.19789879024028778,0.1026141494512558,0.013185209594666958,0.055153343826532364
22.65,0.3739950656890869,0.6645556688308716,0.2540161907672882,0.0462401881814003,0.08689035475254059,0.07119910418987274
22.7,-0.4061276912689209,0.801316499710083,0.09233652055263519,-0.04635733366012573,0.09810960292816162,0.01642763428390026
22.75,0.19096261262893677,-0.03879836946725845,0.1216987743973732,-0.05243930593132973,0.08120723068714142,-0.1067306399345398
22.8,0.5840744376182556,-0.7787507176399231,0.2536313533782959,-0.007324846461415291,0.0712745189666748,-0.1441033035516739
22.85,0.30451130867004395,-0.21399125456809998,0.2765692472457886,0.002907966263592243,0.09065692871809006,-0.044029224663972855
22.9,-0.2794737219810486,0.3990441858768463,-0.07578910887241364,-0.03979751467704773,0.09361044317483902,0.03271356225013733
22.95,-0.08745546638965607,1.1237452030181885,-0.05145120620727539,-0.09646391123533249,0.07877551764249802,0.023991093039512634
23.0,0.8902552127838135,0.5528678894042969,0.4385168254375458,-0.11188004910945892,0.07095952332019806,-0.033404212445020676
23.05,0.6114014387130737,-0.45099276304244995,0.9090026617050171,-0.03742532432079315,0.06968288123607635,-0.11372482776641846
23.1,-0.30400311946868896,-0.5835495591163635,0.7370553612709045,0.04234709218144417,0.041858822107315063,-0.07838587462902069
23.15,-0.9302151799201965,-0.41678038239479065,0.20716331899166107,0.08264438062906265,-0.007358262315392494,0.02947108820080757
23.2,-0.23952722549438477,0.27764806151390076,-0.31537893414497375,0.05535726994276047,-0.056849267333745956,0.09589013457298279
23.25,1.3409310579299927,1.2799302339553833,-0.002409408101812005,-0.01270652562379837,-0.08727364987134933,0.13950058817863464
23.3,2.071369171142578,0.7366493344306946,0.7588761448860168,-0.0328509621322155,-0.052028004080057144,0.0841004028916359
23.35,0.9044433236122131,-0.33344101905822754,0.6374334096908569,0.03368886932730675,0.006596988998353481,-0.02360188402235508
23.4,-0.2785550355911255,-0.5327673554420471,0.3457423448562622,0.07227769494056702,0.02747492305934429,-0.004250077996402979
23.45,0.0788809061050415,-0.2294674515724182,0.2553808391094208,0.015232901088893414,0.015696605667471886,0.03370031341910362
23.5,0.7138760089874268,-0.0758887529373169,0.4517216682434082,-0.0389261394739151,-0.020425429567694664,0.018088221549987793
23.55,1.1300504207611084,0.3659943640232086,0.2833269238471985,-0.053150881081819534,-0.051336321979761124,-0.02450200542807579
23.6,1.0679993629455566,0.7816638946533203,0.07325553148984909,-0.03577534481883049,-0.036210037767887115,0.0053882896900177
23.65,0.767752468585968,0.3726443946361542,0.22612804174423218,-0.005521534476429224,-0.0021938038989901543,0.03357934579253197
23.7,0.960457444190979,-0.13168354332447052,0.0972372367978096,0.019494440406560898,0.01580054871737957,-0.021779876202344894
23.75,1.033372402191162,-0.21749232709407806,0.21111485362052917,0.013099264353513718,0.012797608971595764,-0.04026342183351517
23.8,0.5616815090179443,-0.06442555785179138,0.6090317964553833,-0.011280950158834457,0.018810439854860306,-0.028164470568299294
23.85,0.39793848991394043,0.3493242561817169,0.2094912827014923,-0.019973453134298325,0.011043902486562729,0.0015626869862899184
23.9,0.16960850358009338,0.1542673110961914,0.09584744274616241,-0.02533743530511856,0.011017348617315292,0.015065189450979233
23.95,0.3010522127151489,-0.1298714429140091,0.042377665638923645,-0.017906470224261284,0.009842246770858765,0.0242445208132267
24.0,0.885568380355835,-0.09776421636343002,-0.6003782749176025,-0.011093799956142902,-0.0028003938496112823,0.04118283465504646
24.05,0.9988046288490295,0.20417770743370056,-0.31603291630744934,-0.04862789064645767,-0.012323151342570782,0.05178305134177208
24.1,1.2682956457138062,0.8951111435890198,0.6484737396240234,-0.08818934857845306,-0.03416866436600685,0.0984937772154808
24.15,1.1675862073898315,0.4788951575756073,1.1656301021575928,-0.07954531162977219,-0.0029961923137307167,0.02185276709496975
24.2,0.09759124368429184,-0.2911053001880646,0.9946066737174988,0.0024589598178863525,0.029323197901248932,-0.09445969015359879
24.25,-0.48077407479286194,-0.3611640930175781,0.23762279748916626,0.05087118223309517,0.017564846202731133,-0.09456145018339157
24.3,-0.00827937200665474,-0.16442304849624634,-0.3303745687007904,0.01646634377539158,-0.01135372743010521,-0.015123844146728516
24.35,0.5579740405082703,0.10070602595806122,0.06945270299911499,-0.020697258412837982,-0.038766976445913315,0.04631578177213669
24.4,1.0274616479873657,0.2669409513473511,-0.0006507306825369596,-0.02580116130411625,-0.04888660088181496,0.03363172337412834
24.45,0.6305595636367798,0.08371152728796005,-0.261035680770874,-0.030067183077335358,-0.012753135524690151,-0.007070183753967285
24.5,0.2059912234544754,-0.15897855162620544,-0.2962665259838104,-0.04032140597701073,0.03283742070198059,-0.012352637946605682
24.55,0.5260329842567444,-0.054757244884967804,-0.568701446056366,-0.06018536910414696,0.052089232951402664,-0.012032941915094852
24.6,0.5375282168388367,0.49060919880867004,-0.06567449122667313,-0.08884886652231216,0.03436628356575966,-0.005006355699151754
24.65,0.7382416725158691,0.708747923374176,0.5231348872184753,-0.09139195084571838,0.008484303951263428,0.007043082732707262
24.7,0.42339956760406494,0.025830216705799103,0.43066585063934326,-0.0345282144844532,0.018145354464650154,-0.041387591511011124
24.75,-0.13289330899715424,-0.35951048135757446,0.2840161621570587,0.030898485332727432,0.018733859062194824,-0.01666363701224327
24.8,0.2928081154823303,-0.1633215993642807,-0.04383545368909836,0.033216267824172974,0.016713077202439308,0.038000836968421936
24.85,0.6947697997093201,-0.016572123393416405,0.030647289007902145,-0.012365405447781086,0.018032057210803032,0.054896190762519836
24.9,0.844460129737854,0.21460236608982086,0.06610085815191269,-0.026730220764875412,0.011822679080069065,0.028489386662840843
24.95,0.44833725690841675,0.17573542892932892,-0.25418588519096375,-0.02484431490302086,0.021186772733926773,-0.04244137555360794
25.0,-0.20591360330581665,0.6439869403839111,-0.07305106520652771,-0.04267805814743042,0.04464522376656532,-0.04567166790366173
25.05,0.20939108729362488,0.867358386516571,0.2368156909942627,-0.06254899501800537,0.062430426478385925,0.0018271273002028465
25.1,0.38498982787132263,-0.02217583917081356,0.5881990194320679,-0.04791809618473053,0.07143842428922653,-0.034902919083833694
25.15,0.05649498850107193,-0.4178476929664612,0.7421987652778625,-0.015312667936086655,0.04954947531223297,-0.04699662700295448
25.2,-0.33519068360328674,-0.26177501678466797,0.2161281853914261,-0.0026342221535742283,0.03193138912320137,-0.026249248534440994
25.25,-0.27051568031311035,0.06433683633804321,-0.08903731405735016,-0.018381912261247635,0.019350320100784302,0.008870245888829231
25.3,0.7459628582000732,0.3590373396873474,-0.35972094535827637,-0.04254095256328583,0.013593488372862339,0.030409054830670357
25.35,1.1039079427719116,0.3099449574947357,-0.1106957495212555,-0.07019536197185516,0.03658106550574303,-0.013246014714241028
25.4,0.39529111981391907,0.3618307411670685,0.25756165385246277,-0.08279023319482803,0.07745830714702606,-0.04521086812019348
25.45,-0.5489798188209534,0.3793489634990692,0.348720520734787,-0.06413491815328598,0.10798592120409012,-0.05148330330848694
25.5,-1.273499608039856,0.23226577043533325,0.5696637034416199,-0.015070106834173203,0.06699729710817337,-0.0067099928855896
25.55,-0.3976133167743683,-0.12213987857103348,0.262999564409256,0.02909400500357151,-0.004516963846981525,0.03983777016401291
25.6,0.8945295810699463,-0.2946874797344208,0.01704537123441696,0.047101132571697235,-0.04714116081595421,0.07599705457687378
25.65,1.1652612686157227,-0.13836215436458588,0.30559059977531433,0.03498825430870056,-0.022931469604372978,0.09306178241968155
25.7,0.5377182960510254,0.14685434103012085,-0.04168343171477318,0.022460434585809708,0.025690944865345955,0.05262475833296776
25.75,-0.13822722434997559,0.11797718703746796,-0.3020661473274231,0.021405017003417015,0.034937817603349686,-0.007454882841557264
25.8,-0.17626038193702698,0.3825312852859497,-0.37684139609336853,0.0028667552396655083,0.022891994565725327,-0.04252199828624725
25.85,0.5283636450767517,0.598109245300293,-0.4584733247756958,-0.03495447710156441,0.040721483528614044,-0.027923578396439552
25.9,0.2049258053302765,-0.07534126937389374,0.14070463180541992,-0.06189462170004845,0.09070827811956406,-0.05174547806382179
25.95,-0.624019205570221,-0.35835549235343933,0.5290706753730774,-0.05586139112710953,0.11488652974367142,-0.05319192633032799
26.0,-1.2439521551132202,-0.0024068444035947323,0.337856262922287,-0.04049527645111084,0.09485931694507599,-0.011009740643203259
26.05,-1.096177339553833,0.26993393898010254,-0.01594383642077446,-0.030434876680374146,0.04763755574822426,0.07575870305299759
26.1,0.43569138646125793,0.2497100681066513,-0.08270937204360962,-0.003281325101852417,-0.007349788211286068,0.1635848730802536
26.15,1.4635255336761475,-0.14504936337471008,0.37751898169517517,0.04369585961103439,-0.028229769319295883,0.14546161890029907
26.2,1.1451067924499512,0.19224247336387634,0.359650582075119,0.07771549373865128,-0.0017179966671392322,0.054628126323223114
26.25,0.38827767968177795,0.5569611191749573,-0.14154906570911407,0.05637504532933235,0.0305178202688694,-0.01440502516925335
26.3,-0.35961586236953735,0.18853674829006195,-0.12497448176145554,-0.017124943435192108,0.06020697206258774,-0.08809756487607956
26.35,-0.4586363434791565,0.06254586577415466,-0.0773799866437912,-0.07110772281885147,0.07828621566295624,-0.09189744293689728
26.4,-0.4549272656440735,-0.1270264983177185,0.15703165531158447,-0.0963139683008194,0.08768339455127716,-0.03890269994735718
26.45,-0.6550711393356323,0.0024758796207606792,0.6942740678787231,-0.08382080495357513,0.0801994800567627,0.018174996599555016
26.5,-0.507541298866272,0.14487279951572418,0.5218924880027771,-0.02107859030365944,0.03672075271606445,0.06925228238105774
26.55,-0.07844981551170349,0.03158572316169739,0.2621627151966095,0.052895501255989075,-0.026835042983293533,0.09003861993551254
26.6,0.6769858002662659,-0.007045859005302191,0.18854206800460815,0.08815586566925049,-0.06023551896214485,0.0940207690000534
26.65,1.085402488708496,0.023840727284550667,0.19236092269420624,0.07304856926202774,-0.029948262497782707,0.07725448906421661
26.7,0.8502329587936401,0.20564261078834534,0.48923441767692566,0.036715857684612274,0.02052372135221958,0.04850493744015694
26.75,0.4398793578147888,0.5520935654640198,0.3751719295978546,-0.010603735223412514,0.04684774950146675,-0.03256497159600258
26.8,-0.20650120079517365,0.4184228181838989,0.15418152511119843,-0.05729358270764351,0.05632682144641876,-0.1307477205991745
26.85,-0.5889416337013245,0.13614381849765778,0.1538676619529724,-0.07859757542610168,0.06360531598329544,-0.13149197399616241
26.9,-0.3895547389984131,-0.06006902828812599,0.0452301912009716,-0.08189485967159271,0.07714660465717316,-0.05539356917142868
26.95,-0.2825373113155365,-0.2827777862548828,0.48283281922340393,-0.06982895731925964,0.06621813774108887,0.013369189575314522
27.0,-0.008768036961555481,0.05042365565896034,0.5942448377609253,-0.03369913250207901,0.021263999864459038,0.04910030961036682
27.05,0.2581635117530823,0.3059282600879669,0.13090552389621735,0.01886214315891266,-0.02279004082083702,0.03363841399550438
27.1,0.4677675664424896,0.2350149005651474,0.10798295587301254,0.051074087619781494,-0.03547327220439911,0.027616411447525024
27.15,0.9615541100502014,0.13972841203212738,0.00035881513031199574,0.06491084396839142,-0.015047217719256878,0.052512288093566895
27.2,0.7594413161277771,-0.06261458992958069,-0.0019186995923519135,0.05871424451470375,0.007038653362542391,0.034720323979854584
27.25,0.32108286023139954,0.09827514737844467,-0.06557705998420715,0.047971539199352264,0.00398647878319025,0.01497381366789341
27.3,0.3077758550643921,0.39376071095466614,-0.19828848540782928,0.011225873604416847,-0.007124224677681923,0.009684419259428978
27.35,0.27052950859069824,0.2944068908691406,-0.028089532628655434,-0.034009721130132675,0.004721985664218664,-0.01666911132633686
27.4,0.39035412669181824,0.05556005984544754,0.05675707384943962,-0.062025077641010284,0.0427054800093174,-0.05244865268468857
27.45,0.11449781805276871,-0.16089825332164764,0.3395881950855255,-0.0587024986743927,0.06466241925954819,-0.048487525433301926
27.5,-0.17178018391132355,-0.06519600749015808,0.43279752135276794,-0.03856739401817322,0.0410258024930954,-0.031176624819636345
27.55,-0.062002476304769516,0.15131382644176483,0.13593228161334991,-0.022512448951601982,-0.0014014471089467406,-0.012351170182228088
27.6,0.19133076071739197,0.2114591747522354,0.013943263329565525,0.004290975164622068,-0.02964136190712452,0.02105029858648777
27.65,0.7631379961967468,0.15381135046482086,-0.08430574834346771,0.026071345433592796,-0.027878709137439728,0.04599737748503685
27.7,1.0093096494674683,-0.015621367841959,-0.05641596391797066,0.02143709734082222,-0.0023865788243710995,0.04829027131199837
27.75,0.7047017812728882,-0.026946188881993294,0.19196106493473053,0.011810116469860077,0.01132554654031992,0.047556184232234955
27.8,0.4933410882949829,0.24395941197872162,0.1338268369436264,0.005106423515826464,0.005258822813630104,0.022607704624533653
27.85,0.39460456371307373,0.3621692955493927,-0.03710257261991501,0.019162150099873543,-0.013871574774384499,0.015821577981114388
27.9,0.8265074491500854,0.16915978491306305,-0.08240588009357452,0.028777480125427246,-0.02093230001628399,0.031217310577630997
27.95,1.6772679090499878,0.06895703822374344,-0.22897101938724518,0.034041255712509155,-0.006801249459385872,0.03365587815642357
28.0,1.5402777194976807,-0.026822365820407867,-0.023263519629836082,0.027060575783252716,0.030995696783065796,0.012284692376852036
28.05,1.1034129858016968,0.040376488119363785,0.1850193291902542,-0.02371016889810562,0.0661100372672081,-0.02456444874405861
28.1,0.8368083238601685,0.3509359061717987,0.4808414876461029,-0.08423802256584167,0.08828865736722946,-0.061812836676836014
28.15,0.48978477716445923,0.4880552887916565,0.8014984130859375,-0.08412016183137894,0.11289583891630173,-0.09737972915172577
28.2,0.2624848484992981,0.23975946009159088,0.1563788652420044,-0.0085133733227849,0.14152082800865173,-0.09589465707540512
28.25,0.5845075249671936,-0.196542888879776,-0.21459317207336426,0.05552924424409866,0.14969100058078766,-0.0136676374822855
28.3,0.7199020385742188,-0.1914493292570114,0.2955469489097595,0.054430752992630005,0.15338386595249176,0.03828103467822075
28.35,0.6431361436843872,0.12482351809740067,0.7233268022537231,0.055778827518224716,0.16472460329532623,0.040897220373153687
28.4,0.20956982672214508,0.37623700499534607,0.8699532747268677,0.03741520270705223,0.13878285884857178,-0.0037814865354448557
28.45,-0.23041276633739471,0.29695427417755127,0.575323224067688,0.021640492603182793,0.07413323223590851,-0.02339915558695793
28.5,0.19537633657455444,-0.07789140939712524,-0.2379814237356186,0.06817945837974548,0.02118808403611183,0.02768608182668686
28.55,0.4378052055835724,-0.2496730238199234,-0.0816745012998581,0.11690111458301544,-0.005345230922102928,0.0833597183227539
28.6,-0.05458223819732666,-0.12087153643369675,0.6715532541275024,0.14563433825969696,-0.03683855012059212,0.11334342509508133
28.65,-0.36850106716156006,0.08779823035001755,0.7059876918792725,0.18233124911785126,-0.08426617085933685,0.1412224918603897
28.7,-0.3502647280693054,0.1084204763174057,0.48557743430137634,0.20402207970619202,-0.1473776400089264,0.1416928768157959
28.75,0.03868715092539787,-0.03816511109471321,-0.08795088529586792,0.2137705385684967,-0.19494099915027618,0.12610037624835968
28.8,0.6696941256523132,-0.1696884036064148,-0.5598477721214294,0.24108687043190002,-0.1964457929134369,0.1373692750930786
28.85,2.425767183303833,0.7963559031486511,-1.476171851158142,0.2602504789829254,-0.13339775800704956,0.24588146805763245
28.9,1.157473087310791,0.9208774566650391,-0.43583929538726807,0.25347113609313965,-0.04701896384358406,0.25863346457481384
28.95,-0.8004279732704163,0.27564260363578796,0.16565033793449402,0.1887914091348648,0.035874128341674805,0.07689366489648819
29.0,-0.20615658164024353,0.049450889229774475,-0.8942304849624634,0.19853156805038452,-0.0034567569382488728,0.1435878723859787
29.05,1.230828046798706,0.1763007938861847,-0.856206476688385,0.1906871199607849,-0.008737501688301563,0.21021026372909546
29.1,1.38590669631958,0.09483221918344498,0.4526134431362152,0.20229509472846985,0.03298923745751381,0.17057552933692932
29.15,0.36048051714897156,0.24827006459236145,0.8050127029418945,0.21717596054077148,0.02371518686413765,0.050331275910139084
29.2,-0.6139717698097229,-0.11944761127233505,0.47207435965538025,0.1537192165851593,0.055318232625722885,-0.12216567993164062
29.25,0.4192899167537689,-0.6453287601470947,-0.10748279094696045,0.06019987910985947,0.13450020551681519,-0.058025456964969635
29.3,0.8755651712417603,-1.641486644744873,-0.27612563967704773,-0.0933183804154396,0.11267391592264175,0.016768762841820717
29.35,-0.9058941006660461,-2.1407716274261475,0.4848259687423706,-0.05162016302347183,-0.05890197679400444,-0.08350925147533417
29.4,-2.0196995735168457,-1.2594431638717651,1.7980295419692993,0.4331827461719513,-0.49355846643447876,-0.10098621249198914
29.45,-2.0295472145080566,0.1210893914103508,0.6628987193107605,0.8702278733253479,-0.8629529476165771,0.26326772570610046
29.5,-0.49049830436706543,-0.3061094284057617,-1.0559011697769165,0.9168192148208618,-1.1498481035232544,0.3893195688724518
29.55,3.395535469055176,1.335240125656128,-1.5531909465789795,1.028109073638916,-1.159657597541809,0.42985960841178894
29.6,4.3003106117248535,3.054532051086426,0.2769569754600525,0.9912147521972656,-0.819644033908844,0.4412284791469574
29.65,2.4294495582580566,1.5840702056884766,0.6608862280845642,0.7203746438026428,-0.3681907057762146,0.3662503957748413
29.7,0.34851694107055664,0.29128551483154297,-0.07412313669919968,0.46828222274780273,-0.1043485775589943,0.24806241691112518
29.75,-0.5578791499137878,0.18533624708652496,-0.3836210072040558,0.41612401604652405,-0.08331302553415298,0.2556569576263428
29.8,0.1412074714899063,0.20309925079345703,-0.43725860118865967,0.38868579268455505,-0.15071532130241394,0.24593386054039001
29.85,1.302826166152954,0.41801533102989197,-0.08142253756523132,0.30819329619407654,-0.17185254395008087,0.12716856598854065
29.9,1.1845366954803467,0.6568460464477539,0.39374005794525146,0.25264880061149597,-0.10288576036691666,0.048279646784067154
29.95,0.2284514605998993,0.3336487412452698,0.41475701332092285,0.2319626659154892,-0.016179244965314865,0.07663439214229584
30.0,-0.8081253170967102,-0.00409589521586895,-0.12235963344573975,0.21030600368976593,0.03986508771777153,0.12380964308977127
30.05,-1.1379629373550415,-0.05614359676837921,-0.5447419285774231,0.24296820163726807,0.006805001758038998,0.17450103163719177
30.1,-0.36319348216056824,0.02450471557676792,-0.3922085762023926,0.303114652633667,-0.14197582006454468,0.19211328029632568
30.15,0.6088166832923889,0.29298681020736694,-0.009965948760509491,0.31278643012046814,-0.27904149889945984,0.1460074633359909
30.2,1.116146206855774,0.75592041015625,0.2599380314350128,0.29227325320243835,-0.3011621832847595,0.11083435267210007
30.25,0.7677577137947083,0.6564827561378479,0.2718685269355774,0.21502014994621277,-0.1884211003780365,0.026187986135482788
30.3,-0.09919337928295135,0.24218755960464478,-0.34709787368774414,0.14139527082443237,-0.05431501194834709,-0.09045005589723587
30.35,0.2039613425731659,0.6570302248001099,-0.6337219476699829,0.26865121722221375,-0.10692040622234344,-0.011704658158123493
30.4,0.9626087546348572,1.073309063911438,-0.07151402533054352,0.4021981656551361,-0.15018334984779358,0.11021826416254044
30.45,0.49232956767082214,0.5057583451271057,-0.018439186736941338,0.3122662305831909,-0.011585085652768612,0.07250915467739105
30.5,-0.21007786691188812,-0.30907347798347473,-0.40502893924713135,0.18174712359905243,0.041600193828344345,0.023719746619462967
30.55,-0.14073209464550018,-0.2520018219947815,-0.3709069490432739,0.16717752814292908,-0.037966977804899216,0.07630548626184464
30.6,0.3613552153110504,0.5596075654029846,-0.1727157086133957,0.14522279798984528,-0.023157045245170593,0.10922757536172867
30.65,0.6528792381286621,0.7837572693824768,0.10249831527471542,0.05491165071725845,0.11588765680789948,0.0775553360581398
30.7,0.04476242512464523,0.27890878915786743,0.20837265253067017,-0.03638540208339691,0.279356986284256,0.007166478782892227
30.75,-0.05042688548564911,0.10116104781627655,0.40563052892684937,-0.001670313999056816,0.2484104335308075,0.04982145503163338
30.8,-0.08351971209049225,-0.13137434422969818,0.8293601870536804,0.03778713196516037,0.2407599687576294,0.1061774417757988
30.85,-0.9972805380821228,-0.6037510633468628,1.2979828119277954,0.021686475723981857,0.30395570397377014,0.1406674087047577
30.9,-1.4613338708877563,-1.2545682191848755,1.095911979675293,-0.02566981129348278,0.24817128479480743,0.12926332652568817
30.95,-1.124511480331421,-0.9835271835327148,1.2453173398971558,0.01423539500683546,0.005849999375641346,0.10757297277450562
31.0,-0.28305983543395996,0.3925573527812958,1.838230013847351,0.1420026570558548,-0.2536155879497528,0.12855102121829987
31.05,0.5106343030929565,0.7032777070999146,1.4111756086349487,0.07736097276210785,-0.16080529987812042,0.07546059042215347
31.1,0.6106526851654053,0.027762338519096375,0.6862016320228577,-0.1520356684923172,0.05256856232881546,-0.008753594011068344
31.15,0.1212814524769783,-0.7094842791557312,0.27399319410324097,-0.3787190914154053,0.25288787484169006,-0.10497429221868515
31.2,-0.7923296093940735,-0.8810406923294067,0.2527523934841156,-0.5550146102905273,0.26936808228492737,-0.1742360144853592
31.25,-1.235670566558838,-0.3394363820552826,0.987644374370575,-0.45053645968437195,-0.05294731631875038,-0.12475115805864334
31.3,-0.1957152932882309,0.10839281231164932,1.0151559114456177,-0.32703936100006104,-0.3697536587715149,-0.2068958282470703
31.35,1.1673775911331177,1.33881676197052,-0.06064142286777496,-0.3742932975292206,-0.5110408663749695,-0.40056830644607544
31.4,2.295738458633423,1.771418571472168,-1.0960657596588135,-0.643564760684967,-0.351415753364563,-0.6278939247131348
31.45,1.994891881942749,0.6840026378631592,-1.900413155555725,-0.8568605184555054,0.03988051787018776,-0.7845405340194702
31.5,0.28477662801742554,0.05288686975836754,-1.4720849990844727,-0.629149854183197,0.331754207611084,-0.6763303875923157
31.55,-0.6420682668685913,0.917891800403595,-0.7361067533493042,-0.34771788120269775,0.39379385113716125,-0.39750903844833374
31.6,-0.9719192981719971,-0.007227728608995676,0.025534583255648613,-0.38089340925216675,0.39090096950531006,-0.37439706921577454
31.65,-1.6149003505706787,-0.6249015927314758,0.29233938455581665,-0.27220845222473145,0.32097363471984863,-0.2576525807380676
31.7,-2.4579176902770996,-0.787306547164917,0.3584768772125244,0.09086635708808899,0.14523324370384216,0.08213693648576736
31.75,-2.1956098079681396,-1.2749614715576172,0.23887373507022858,0.381242036819458,-0.12883052229881287,0.3207550048828125
31.8,-0.7992420792579651,-0.7745867371559143,0.12276920676231384,0.592544436454773,-0.4574814736843109,0.4743982255458832
31.85,0.36747607588768005,0.5380163788795471,0.009932263754308224,0.7305488586425781,-0.6143954992294312,0.6141296625137329
31.9,1.0079478025436401,1.343216061592102,-0.3162459135055542,0.6698096990585327,-0.4928832948207855,0.5997413396835327
31.95,0.9734209775924683,1.279347538948059,-0.6470908522605896,0.4960755407810211,-0.2375211864709854,0.5037640333175659
32.0,0.6853591799736023,0.7913704514503479,0.012319572269916534,0.37775886058807373,0.004254953470081091,0.5826260447502136
32.05,-0.8034802079200745,0.04616466909646988,0.0912402793765068,0.3261580467224121,0.21353523433208466,0.61297607421875
32.1,-2.200737953186035,-0.9482801556587219,0.42058494687080383,0.370071142911911,0.25784653425216675,0.4835781157016754
32.15,-2.8221309185028076,-1.4107884168624878,0.44546037912368774,0.46544891595840454,-0.20863161981105804,0.4604339301586151
32.2,-1.0383191108703613,-0.08686049282550812,0.13452346622943878,0.7226826548576355,-1.0270051956176758,0.7383480668067932
32.25,2.0232717990875244,1.600052833557129,0.840938150882721,0.8205136060714722,-1.343969702720642,0.7474156618118286
32.3,2.474832534790039,1.4471282958984375,0.6804298162460327,0.45378273725509644,-0.9752455353736877,0.43315389752388
32.35,1.8581843376159668,0.4407975971698761,-0.0986453965306282,0.08651304990053177,-0.6174793839454651,0.297543466091156
32.4,1.3590004444122314,-0.17612677812576294,-0.33853569626808167,-0.05918067693710327,-0.38425198197364807,0.24718762934207916
32.45,0.6638983488082886,-0.5573379993438721,-0.3729819357395172,-0.09899072349071503,-0.19990167021751404,0.10765356570482254
32.5,0.5274937748908997,-0.6893751621246338,0.11963343620300293,-0.0321417972445488,-0.15121997892856598,-0.037938375025987625
32.55,0.41008704900741577,-0.1454821527004242,0.3570418655872345,0.06675422936677933,-0.14990459382534027,-0.06695708632469177
32.6,0.09978143870830536,0.4290562570095062,0.27717798948287964,0.06118999049067497,-0.0942128524184227,-0.0363507941365242
32.65,-0.09323000907897949,0.5787936449050903,0.18491648137569427,-0.0299861840903759,0.030166910961270332,-0.07708670943975449
32.7,-0.19869552552700043,0.47795504331588745,0.4165413975715637,-0.15734925866127014,0.16761747002601624,-0.17400744557380676
32.75,-0.4631047248840332,0.23219792544841766,0.477409303188324,-0.2605445384979248,0.2891678810119629,-0.2597913444042206
32.8,-0.6256624460220337,0.17584531009197235,0.2585708498954773,-0.26856693625450134,0.3346918225288391,-0.27275729179382324
32.85,-0.56988126039505,0.3909303545951843,-0.0539415217936039,-0.2556370496749878,0.2811196744441986,-0.23370443284511566
32.9,-0.21674856543540955,0.149386465549469,-0.3435072600841522,-0.29669564962387085,0.19862844049930573,-0.24691826105117798
32.95,0.17279621958732605,-0.15630826354026794,-0.3894929587841034,-0.3204438090324402,0.11519700288772583,-0.26320773363113403
33.0,0.17260298132896423,-0.30961140990257263,-0.24633373320102692,-0.2847672700881958,0.11217303574085236,-0.2800801694393158
33.05,0.036513056606054306,-0.2434750199317932,0.17322005331516266,-0.224636510014534,0.13535821437835693,-0.29097551107406616
33.1,-0.15815891325473785,0.23677071928977966,0.20197437703609467,-0.1862979680299759,0.1278560608625412,-0.31198227405548096
33.15,0.0786789059638977,1.085211992263794,-0.00721108028665185,-0.23603811860084534,0.06367997080087662,-0.27601999044418335
33.2,0.47288453578948975,0.9262468218803406,-0.15760649740695953,-0.4124003052711487,0.08723946660757065,-0.3204249441623688
33.25,0.5623614192008972,0.17743200063705444,-0.25866490602493286,-0.5236312747001648,0.18344244360923767,-0.449699342250824
33.3,0.7732166051864624,-0.05836407095193863,-0.20080851018428802,-0.5119043588638306,0.15918031334877014,-0.4708966016769409
33.35,0.9571532011032104,-0.19293424487113953,0.005637194029986858,-0.506310224533081,0.08124152570962906,-0.46448078751564026
33.4,0.6890480518341064,-0.17109791934490204,-0.01619492471218109,-0.5199072360992432,0.08101840317249298,-0.5003240704536438
33.45,0.0007678717374801636,0.27378469705581665,-0.2439001351594925,-0.5163588523864746,0.183478444814682,-0.6364654302597046
33.5,-0.4273358881473541,0.6798527240753174,-0.6601560115814209,-0.5553768873214722,0.2889625132083893,-0.720134437084198
33.55,-0.5900269150733948,0.42198672890663147,-0.9191938042640686,-0.594670832157135,0.3456893563270569,-0.6411683559417725
33.6,-0.7673101425170898,-0.20842640101909637,-0.5935766696929932,-0.618956446647644,0.34143489599227905,-0.6031903028488159
33.65,-0.46555399894714355,-0.22524355351924896,-0.19972480833530426,-0.5778571963310242,0.2997170686721802,-0.4947752356529236
33.7,0.12066671252250671,0.37873560190200806,0.10447003692388535,-0.508156418800354,0.30985668301582336,-0.34234708547592163
33.75,0.14147508144378662,0.6715194582939148,0.178646057844162,-0.5094103217124939,0.4187457263469696,-0.3013108968734741
33.8,-0.14828522503376007,0.0688047856092453,0.017252067103981972,-0.544979989528656,0.5277658104896545,-0.32506611943244934
33.85,-0.5174689888954163,-0.44246962666511536,0.28972750902175903,-0.5235134363174438,0.550114095211029,-0.3424019515514374
33.9,-0.9018136858940125,-0.4599599242210388,0.7565815448760986,-0.47190552949905396,0.48783865571022034,-0.34113457798957825
33.95,-1.0584397315979004,-0.1768062710762024,0.8924354314804077,-0.4145870804786682,0.34617117047309875,-0.2878858149051666
34.0,-2.011591911315918,-0.974272608757019,0.3224559724330902,-0.2710813581943512,0.1269751340150833,-0.2738928496837616
34.05,-1.5993422269821167,-0.6889876127243042,0.09632997959852219,-0.10135382413864136,-0.004198453854769468,-0.1437455266714096
34.1,-0.5141270756721497,0.0019494041334837675,0.09189596027135849,-0.07448079437017441,0.039152342826128006,-0.023703835904598236
34.15,-0.7976291179656982,-0.15092553198337555,-0.23942196369171143,-0.03649340569972992,0.08202756941318512,-0.06772375851869583
34.2,-1.109545111656189,-0.4437512457370758,0.3472840189933777,0.21634520590305328,-0.1234797015786171,-0.0023886633571237326
34.25,-0.455010324716568,-0.023887546733021736,0.3629250228404999,0.4402267336845398,-0.3776232898235321,0.24330811202526093
34.3,0.4533426761627197,0.5457868576049805,-0.4239497184753418,0.3978009819984436,-0.36267784237861633,0.34799501299858093
34.35,0.9682199954986572,0.5652169585227966,-0.7583415508270264,0.28717613220214844,-0.23243556916713715,0.2801971733570099
34.4,1.089152455329895,0.38744819164276123,-0.3086026906967163,0.22265276312828064,-0.12772305309772491,0.2171347439289093
34.45,0.5036501288414001,0.1785382777452469,0.1438690423965454,0.15758034586906433,-0.03562289476394653,0.1741962730884552
34.5,-0.030777152627706528,0.18432146310806274,0.22220247983932495,0.11799739301204681,0.005079125519841909,0.10900652408599854
34.55,-0.15119117498397827,0.16979320347309113,0.001818432123400271,0.09838550537824631,-0.024515332654118538,0.03764810785651207
34.6,-0.23639321327209473,0.13601404428482056,-0.41152772307395935,0.06426089257001877,-0.06209772080183029,-0.01832582987844944
34.65,-0.1033267080783844,0.013068209402263165,-0.282919704914093,0.08216891437768936,-0.1083059087395668,-0.035147543996572495
34.7,0.10479358583688736,0.007050496991723776,-0.024242138490080833,0.12462370097637177,-0.15948732197284698,-0.0031005744822323322
34.75,0.3456920385360718,0.18727587163448334,-0.028067447245121002,0.1220901608467102,-0.16992920637130737,0.02804352343082428
34.8,0.2963252067565918,0.2676372528076172,-0.2733084559440613,0.08791811019182205,-0.12272796034812927,0.027231009677052498
34.85,0.18004414439201355,0.2613077163696289,-0.3844275176525116,0.04704606905579567,-0.06993944942951202,0.023819316178560257
34.9,0.3068852722644806,0.2824220657348633,-0.10886149108409882,0.025519397109746933,-0.037759482860565186,0.01792607083916664
34.95,0.24265733361244202,0.06602189689874649,0.18209601938724518,0.0304847564548254,-0.018656687811017036,-0.0024552037939429283
35.0,0.0760662704706192,0.010243412107229233,0.1830550581216812,0.03580617532134056,-0.01451152190566063,0.003459253581240773
35.05,0.13204431533813477,0.09486007690429688,-0.03722488880157471,0.039529409259557724,-0.02199663408100605,0.02364579774439335
35.1,0.23342576622962952,0.25679779052734375,-0.17126381397247314,0.053443655371665955,-0.033648692071437836,0.027375834062695503
35.15,0.31118643283843994,0.432646781206131,-0.13987557590007782,0.0520767979323864,-0.019660422578454018,0.02105594053864479
35.2,0.15337194502353668,0.11604977399110794,0.13382315635681152,0.041068293154239655,0.0090566361322999,0.027247048914432526
35.25,-0.5588144659996033,-0.42965981364250183,0.27015140652656555,0.0618877112865448,0.007849653251469135,0.028203293681144714
35.3,-0.4362175464630127,-0.2517681121826172,-0.04783077538013458,0.15380439162254333,-0.08450386673212051,0.12696030735969543
35.35,0.29567521810531616,0.3175192177295685,-0.3022068738937378,0.2044648379087448,-0.1603255569934845,0.19742393493652344
35.4,0.5847009420394897,0.29872220754623413,-0.13999567925930023,0.1576640009880066,-0.13132095336914062,0.12388000637292862
35.45,0.8232596516609192,0.1598767191171646,0.00017632423259783536,0.1334422528743744,-0.09880673140287399,0.06720630079507828
35.5,0.8481646776199341,0.24670305848121643,-0.04903246462345123,0.12688997387886047,-0.06953776627779007,0.06341870874166489
35.55,0.5758102536201477,0.38750267028808594,-0.0947168841958046,0.06226567551493645,0.0012332357000559568,0.015282261185348034
35.6,0.28508520126342773,0.2962617874145508,-0.19862809777259827,-0.015827666968107224,0.05292324721813202,-0.02803509123623371
35.65,0.10950099676847458,0.25525763630867004,-0.2931971549987793,-0.037886664271354675,0.06818968802690506,-0.044650521129369736
35.7,0.33445778489112854,0.35361579060554504,-0.1266273558139801,-0.0443427711725235,0.06828958541154861,-0.07405070960521698
35.75,0.45041781663894653,0.060713715851306915,0.26991593837738037,-0.06658397614955902,0.07530459761619568,-0.09014835208654404
35.8,0.3879055380821228,0.07186885923147202,0.32162535190582275,-0.05897698551416397,0.09174991399049759,-0.07941126078367233
35.85,0.2904432415962219,0.31963732838630676,0.039233870804309845,-0.042162876576185226,0.11394307017326355,-0.05737392604351044
35.9,-0.06228429451584816,0.12959006428718567,-0.12571312487125397,-0.043599940836429596,0.15013176202774048,-0.05287261679768562
35.95,-0.16107767820358276,0.003804234554991126,-0.03974362462759018,-0.01767648383975029,0.16287459433078766,-0.02980327233672142
36.0,-0.20795419812202454,-0.09845159202814102,0.27741727232933044,0.04657835513353348,0.12610113620758057,0.016403671354055405
36.05,-0.38006654381752014,-0.35399913787841797,0.5805997848510742,0.12888434529304504,0.05119742453098297,0.07962829619646072
36.1,-0.44982588291168213,-0.4493294060230255,0.5543123483657837,0.21361730992794037,-0.03818632289767265,0.14598241448402405
36.15,-0.6727234721183777,-0.2595042586326599,0.29963770508766174,0.29757159948349,-0.12676379084587097,0.19745925068855286
36.2,-0.5387266278266907,0.11194336414337158,-0.06747633963823318,0.3721523582935333,-0.2229779064655304,0.27091217041015625
36.25,0.03411199524998665,0.24676136672496796,-0.29597246646881104,0.3739170730113983,-0.27169069647789,0.2827968895435333
36.3,0.37513676285743713,0.04521840810775757,-0.1041707918047905,0.3265817165374756,-0.2621575593948364,0.22165139019489288
36.35,0.5414764881134033,0.034454263746738434,0.11114919185638428,0.30317339301109314,-0.2556072473526001,0.18999597430229187
36.4,0.509845495223999,0.292598694562912,0.036396779119968414,0.268585205078125,-0.2386082410812378,0.14821390807628632
36.45,0.29203659296035767,0.4850836396217346,-0.17928868532180786,0.23786085844039917,-0.1916445940732956,0.12490812689065933
36.5,0.31524938344955444,0.48407846689224243,-0.307524710893631,0.21179738640785217,-0.14877557754516602,0.12617042660713196
36.55,0.39037445187568665,0.29261302947998047,-0.0947255864739418,0.1606634259223938,-0.11306711286306381,0.09215835481882095
36.6,0.31102752685546875,0.11680886894464493,0.1099802777171135,0.1263095587491989,-0.08933110535144806,0.07355815917253494
36.65,0.2301487773656845,0.28798583149909973,-0.09871223568916321,0.11812944710254669,-0.07691008597612381,0.08007558435201645
36.7,0.22188222408294678,0.530098021030426,-0.3344825506210327,0.09087380766868591,-0.060106296092271805,0.07413944602012634
36.75,0.2956099212169647,0.5052357316017151,-0.18563994765281677,0.03440449759364128,-0.026539219543337822,0.050802748650312424
36.8,0.32467666268348694,0.24317075312137604,0.13976116478443146,-0.004957916215062141,0.009964846074581146,0.035817794501781464
36.85,0.2798421084880829,-0.01915840245783329,0.3759101331233978,-0.010503310710191727,0.020282136276364326,0.031263139098882675
36.9,0.24046197533607483,0.045332878828048706,0.04683768376708031,-0.014357684180140495,0.016655996441841125,0.008134809322655201
36.95,0.21588128805160522,0.3815498650074005,-0.4184788167476654,-0.03848868981003761,0.023122720420360565,-0.022878706455230713
37.0,0.20141196250915527,0.7107125520706177,-0.694146454334259,-0.08325745165348053,0.04902087524533272,-0.06899169832468033
37.05,0.14143767952919006,0.5699577927589417,-0.8562537431716919,-0.1573897898197174,0.08576177805662155,-0.13610771298408508
37.1,0.080922931432724,0.1461191028356552,-0.8024532794952393,-0.24366462230682373,0.10603561997413635,-0.16674037277698517
37.15,-0.019460588693618774,0.09885883331298828,-0.6126294136047363,-0.32862114906311035,0.11095459014177322,-0.1721103936433792
37.2,-0.06002717465162277,0.2354937195777893,-0.11010634154081345,-0.39055389165878296,0.09708195179700851,-0.16447509825229645
37.25,0.26604270935058594,0.3767414689064026,0.5455309748649597,-0.41006311774253845,0.08671680837869644,-0.14734713733196259
37.3,0.6140457391738892,0.4157991409301758,0.6987073421478271,-0.413311630487442,0.10852492600679398,-0.17091523110866547
37.35,0.4500545859336853,0.13898751139640808,0.48735925555229187,-0.3991871774196625,0.14156535267829895,-0.18797804415225983
37.4,0.21752247214317322,-0.21005351841449738,0.253205806016922,-0.3807992935180664,0.14541824162006378,-0.198740154504776
37.45,0.3098233938217163,-0.20998677611351013,0.3162401020526886,-0.37093430757522583,0.1371573507785797,-0.22951850295066833
37.5,0.3897823989391327,0.27762603759765625,0.28442227840423584,-0.35061153769493103,0.15116724371910095,-0.24880048632621765
37.55,0.44225627183914185,0.5700369477272034,-0.2309228628873825,-0.33642253279685974,0.1797303408384323,-0.23296892642974854
37.6,0.2703610062599182,0.11310287564992905,-0.5888962149620056,-0.3774816393852234,0.23430167138576508,-0.24692176282405853
37.65,0.09613940119743347,-0.10290055721998215,-0.24965669214725494,-0.3751676380634308,0.25925642251968384,-0.24858444929122925
37.7,-0.06527744233608246,0.01798347197473049,0.5347355604171753,-0.33479511737823486,0.23435933887958527,-0.2236066311597824
37.75,-0.7669335007667542,-0.37135496735572815,0.9367687106132507,-0.23115460574626923,0.1257760226726532,-0.25059279799461365
37.8,-0.9091194272041321,-0.4559125304222107,0.8437747359275818,-0.08193592727184296,0.0013553467579185963,-0.180463969707489
37.85,-0.7940543293952942,-0.11669814586639404,0.3425990343093872,-0.02536626160144806,-0.014299536123871803,-0.030894136056303978
37.9,-0.3076631426811218,0.1193590983748436,-0.06574909389019012,-0.025127308443188667,0.004972434602677822,0.06596148759126663
37.95,0.10560671985149384,0.1734314113855362,-0.2577710747718811,0.02316712960600853,-0.07115623354911804,0.12603449821472168
38.0,0.303323894739151,0.17751692235469818,-0.2578340470790863,0.04233439639210701,-0.11610661447048187,0.15918388962745667
38.05,0.6259271502494812,0.22476381063461304,-0.3287826478481293,0.010881011374294758,-0.07746440172195435,0.09947139024734497
38.1,0.9468884468078613,0.3061884641647339,-0.26407328248023987,-0.020373426377773285,-0.04558601230382919,0.025973621755838394
38.15,0.995843768119812,0.3372153341770172,-0.08203001320362091,-0.08770232647657394,0.016755985096096992,-0.05639060586690903
38.2,0.6055660843849182,0.23766131699085236,0.21890060603618622,-0.16800427436828613,0.10416711866855621,-0.1361674666404724
38.25,0.06538887321949005,-0.04271506518125534,0.8498696088790894,-0.20327222347259521,0.14233988523483276,-0.16107258200645447
38.3,0.023769423365592957,0.08017260581254959,1.2368652820587158,-0.15517657995224,0.09181421995162964,-0.083335280418396
38.35,0.5372798442840576,0.325041800737381,1.2855627536773682,-0.08453622460365295,0.03046913631260395,-0.03514355421066284
38.4,0.9317657947540283,0.34513184428215027,0.9312613606452942,-0.04564562439918518,0.03728785738348961,-0.07513056695461273
38.45,0.30229464173316956,-0.1502457559108734,-0.2689099609851837,-0.06588907539844513,0.11898168921470642,-0.1591455489397049
38.5,-0.20807696878910065,0.42837151885032654,-0.8233186602592468,-0.09130117297172546,0.17478047311306,-0.2103354036808014
38.55,0.11490672081708908,0.5771428346633911,0.6099171042442322,-0.030994141474366188,0.07617050409317017,-0.1228705570101738
38.6,-0.040858522057533264,0.1484423279762268,0.726186215877533,0.02363206446170807,0.043415315449237823,-0.02806941233575344
38.65,-0.1396544873714447,0.41931161284446716,-0.4193083345890045,0.12819057703018188,0.009772165678441525,0.04574570804834366
38.7,0.19618752598762512,0.3885660469532013,-0.4897524416446686,0.20988532900810242,-0.08983060717582703,0.17585496604442596
38.75,0.20297080278396606,-0.19607838988304138,-0.05252198129892349,0.15041899681091309,-0.09118621796369553,0.18791921436786652
38.8,0.4069497585296631,0.06183714419603348,0.13796523213386536,0.15927395224571228,-0.11266576498746872,0.22816158831119537
38.85,0.8011999726295471,0.6590548157691956,0.39727210998535156,0.13944891095161438,-0.1349661648273468,0.23528160154819489
38.9,1.0502920150756836,0.7494955062866211,0.26045021414756775,0.062057167291641235,-0.08358144760131836,0.10484322905540466
38.95,1.1300795078277588,0.37739646434783936,-0.13417948782444,0.0015231752768158913,-0.0076617104932665825,-0.07344483584165573
39.0,0.8654507994651794,0.1403740495443344,-0.22876408696174622,-0.06820517033338547,0.07639655470848083,-0.1991507112979889
39.05,0.295502632856369,0.21829698979854584,-0.25388070940971375,-0.13111110031604767,0.1571420431137085,-0.22596143186092377
39.1,-0.47317415475845337,-0.04002278670668602,-0.2484174370765686,-0.16128946840763092,0.19475992023944855,-0.21018807590007782
39.15,-1.070776104927063,-0.3145236074924469,-0.2604407072067261,-0.12802813947200775,0.1558089703321457,-0.114536814391613
39.2,-0.7644654512405396,-0.2295645922422409,-0.029047872871160507,-0.07914994657039642,0.07834748923778534,-0.008257106877863407
39.25,-0.021138451993465424,0.15745359659194946,0.4216041564941406,-0.02633943036198616,0.013710676692426205,-0.009420779533684254
39.3,0.5366958975791931,0.4202919006347656,0.1824605017900467,0.015943683683872223,-0.01942966878414154,-0.04471389949321747
39.35,0.5213538408279419,0.16455549001693726,-0.3311172127723694,-0.021068841218948364,0.01660090871155262,-0.08981971442699432
39.4,0.03514670580625534,0.1007852628827095,-0.21848106384277344,-0.04844839125871658,0.062006253749132156,-0.08692722022533417
39.45,-0.3610323965549469,0.32622066140174866,-0.15976616740226746,-0.029770053923130035,0.0703345537185669,-0.028603602200746536
39.5,-0.25046008825302124,0.18307408690452576,-0.07504747807979584,0.02119164913892746,0.031117599457502365,0.05080065131187439
39.55,0.11456791311502457,-0.1834288239479065,0.21720173954963684,0.07749393582344055,-0.040911756455898285,0.11397945135831833
39.6,0.40726906061172485,-0.14122113585472107,0.22416439652442932,0.1235390454530716,-0.09481149166822433,0.12802942097187042
39.65,0.5008192658424377,0.10625642538070679,0.08621889352798462,0.15255756676197052,-0.11252763122320175,0.11374861747026443
39.7,0.5643063187599182,0.30850881338119507,-0.25010228157043457,0.11155349761247635,-0.08530186861753464,0.06320510059595108
39.75,0.6106395125389099,0.46282482147216797,-0.24859647452831268,0.038985077291727066,-0.03685120865702629,-0.011563051491975784
39.8,0.5478216409683228,0.4978943169116974,-0.08078345656394958,0.01419004425406456,-0.010235045105218887,-0.06500893086194992
39.85,0.31134575605392456,0.4292955696582794,-0.27753281593322754,0.006276523694396019,-0.013906867243349552,-0.08720207959413528
39.9,0.13415896892547607,0.13762283325195312,-0.2011413425207138,-0.010813349857926369,-0.03996330127120018,-0.05580724775791168
39.95,0.04240507632493973,-0.2376280426979065,0.2522832453250885,-0.05091158673167229,-0.03636396303772926,-0.04869692027568817
40.0,0.10245838016271591,-0.21805863082408905,0.42932841181755066,-0.07957538962364197,0.0019851690158247948,-0.06063386797904968
40.05,0.005744121968746185,0.09459022432565689,0.3883249759674072,-0.07961416244506836,0.03437765687704086,-0.10799708217382431
40.1,-0.3499951660633087,0.09843835234642029,0.11358653008937836,-0.08123020827770233,0.02908121794462204,-0.17829900979995728
40.15,-0.5221805572509766,0.21484102308750153,-0.15763072669506073,-0.05011856555938721,-0.02406388148665428,-0.16762712597846985
40.2,-0.1542614996433258,0.5636826753616333,-0.06291013211011887,0.046779729425907135,-0.11401665210723877,-0.04402617737650871
40.25,0.445931077003479,-0.011979188770055771,-0.13476736843585968,0.0966968908905983,-0.16172796487808228,0.047831080853939056
40.3,0.7232822179794312,-0.8495200276374817,-0.07857213169336319,0.08020397275686264,-0.13505089282989502,0.05178713798522949
40.35,0.5286840796470642,-0.23319734632968903,0.34778058528900146,0.0938597172498703,-0.09002707153558731,0.034234385937452316
40.4,-0.18969298899173737,0.9031251072883606,0.3268980383872986,0.09576639533042908,-0.0683005303144455,0.02668556571006775
40.45,-0.8328589797019958,0.4438364505767822,-0.5520297288894653,0.06421008706092834,-0.08631251752376556,0.03804291784763336
40.5,-0.6053774952888489,-0.40900516510009766,-0.7329927086830139,0.06633911281824112,-0.16917264461517334,0.06949523091316223
40.55,0.0465388223528862,-0.25236043334007263,-0.2490755170583725,0.13238942623138428,-0.24712137877941132,0.12827424705028534
40.6,0.6172823905944824,0.49030208587646484,0.005011452361941338,0.19676904380321503,-0.27318236231803894,0.1777699738740921
40.65,0.7210382223129272,0.47693920135498047,0.43274882435798645,0.16310352087020874,-0.2584633529186249,0.14582811295986176
40.7,0.7270091772079468,0.0646141991019249,0.44472503662109375,0.11369668692350388,-0.23433563113212585,0.06837432086467743
40.75,0.5151351094245911,0.10854523628950119,0.012605485506355762,0.09040115028619766,-0.20328742265701294,-0.02099938690662384
40.8,-0.12710165977478027,0.3523293435573578,-0.49260497093200684,0.03535489737987518,-0.14659641683101654,-0.09803950786590576
40.85,-0.4809844195842743,0.43860071897506714,-0.8199425935745239,-0.02739391103386879,-0.1204318180680275,-0.12469843775033951
40.9,-0.3467523157596588,0.26957905292510986,-0.38066309690475464,-0.0430569089949131,-0.1664551943540573,-0.10095220059156418
40.95,0.2506798505783081,0.14376163482666016,0.19219055771827698,-0.01678178831934929,-0.22644051909446716,-0.042312197387218475
41.0,0.7072306275367737,-0.1357986032962799,0.31075432896614075,-0.02094811387360096,-0.20381931960582733,-0.005816984456032515
41.05,0.20172184705734253,-0.5281144380569458,0.14781968295574188,-0.06070421263575554,-0.10379524528980255,-0.03139030560851097
41.1,-0.6643547415733337,-0.20627397298812866,-0.2211024910211563,-0.05267498269677162,-0.049221739172935486,-0.05600610375404358
41.15,-0.6301229000091553,0.45827028155326843,-0.38696885108947754,0.024460965767502785,-0.12651094794273376,-0.009137112647294998
41.2,0.1908332258462906,0.444830983877182,-0.21633407473564148,0.11640927195549011,-0.2672129273414612,0.05882163718342781
41.25,0.9712726473808289,0.15881524980068207,-0.06570473313331604,0.17540787160396576,-0.3473152816295624,0.09120497107505798
41.3,0.9793865084648132,-0.22213101387023926,-0.16960643231868744,0.18027547001838684,-0.30843815207481384,0.08560528606176376
41.35,0.3633965253829956,-0.25688567757606506,-0.4607030749320984,0.12931683659553528,-0.20427864789962769,0.017166996374726295
41.4,-0.09319087862968445,0.18343737721443176,-0.6996418833732605,0.06241464614868164,-0.13552168011665344,-0.038610611110925674
41.45,-0.4103853106498718,0.27118027210235596,-0.6579967737197876,-0.010297384113073349,-0.10668332129716873,-0.04872116446495056
41.5,-0.5972558259963989,0.36320894956588745,-0.46609610319137573,-0.06050809100270271,-0.1121651902794838,-0.04001583904027939
41.55,-0.4780869483947754,0.6171781420707703,-0.27154138684272766,-0.042674534022808075,-0.17323249578475952,0.014299144968390465
41.6,-0.09979142993688583,0.34960854053497314,-0.01580476388335228,-0.0007751155644655228,-0.2315557301044464,0.06394554674625397
41.65,0.36966821551322937,-0.08404263854026794,0.026441261172294617,0.023572588339447975,-0.22331945598125458,0.05802037566900253
41.7,0.43431809544563293,-0.6253330707550049,-0.01052825152873993,0.0152458306401968,-0.1803918182849884,0.05626126006245613
41.75,0.012543421238660812,-0.7977401614189148,0.13836301863193512,-0.006983835715800524,-0.14743633568286896,0.018612833693623543
41.8,-0.07318185269832611,0.2042761594057083,0.31038734316825867,0.011376138776540756,-0.18454547226428986,0.01827097497880459
41.85,0.2762073278427124,1.2368948459625244,0.2581632435321808,0.043587446212768555,-0.24424780905246735,0.04006550833582878
41.9,0.676633894443512,0.8849231004714966,-0.06641515344381332,0.022700995206832886,-0.22666406631469727,-0.001243100967258215
41.95,0.6477780342102051,-0.4136955440044403,-0.42071276903152466,-0.005556413438171148,-0.15163566172122955,-0.05696696415543556
42.0,-0.192007377743721,-0.8928368091583252,-0.5003982782363892,0.0027602724730968475,-0.1037009060382843,-0.09641996026039124
42.05,-0.6054041385650635,0.12664711475372314,-0.3137044906616211,0.00450005941092968,-0.14704592525959015,-0.08048391342163086
42.1,0.2120370864868164,1.109426736831665,0.03176816925406456,-0.028986819088459015,-0.23534706234931946,-0.004774158820509911
42.15,1.0542978048324585,0.5521916747093201,0.42007020115852356,-0.09120524674654007,-0.2395177036523819,0.017161067575216293
42.2,0.8377997279167175,-0.6669848561286926,0.59062260389328,-0.10668575763702393,-0.13431301712989807,-0.04602651298046112
42.25,-0.3655279874801636,-1.1328192949295044,0.3185412585735321,-0.0537964329123497,-0.01890694536268711,-0.1192033588886261
42.3,-1.3880040645599365,-0.202931210398674,-0.21947619318962097,0.028775185346603394,-0.030246568843722343,-0.1090790256857872
42.35,-1.0664690732955933,0.7625745534896851,-0.556483268737793,0.08820690959692001,-0.21072830259799957,0.011960722506046295
42.4,0.333057701587677,0.595492422580719,-0.41255101561546326,0.08326765894889832,-0.3741336166858673,0.11503874510526657
42.45,1.078539490699768,0.0068481601774692535,0.30811750888824463,0.07883478701114655,-0.3697923719882965,0.12820467352867126
42.5,0.9800633192062378,0.180870920419693,0.89939945936203,0.08917360007762909,-0.25633561611175537,0.10202856361865997
42.55,0.494426429271698,0.4518137574195862,0.4151660203933716,0.047020867466926575,-0.09868037700653076,0.025438813492655754
42.6,-0.16464079916477203,-0.1030893474817276,-0.505663275718689,-0.014530855230987072,0.009808487258851528,-0.07344505935907364
42.65,-0.453575074672699,-0.19228076934814453,-0.9268215298652649,-0.009954100474715233,-0.008548222482204437,-0.08837466686964035
42.7,-0.25975269079208374,0.47174087166786194,-0.5866047143936157,0.0461825467646122,-0.1222006306052208,0.005992299411445856
42.75,0.48212572932243347,0.5879393219947815,-0.012259392999112606,0.06220456212759018,-0.2211616486310959,0.11657969653606415
42.8,1.0654113292694092,-0.10565110296010971,0.17002953588962555,0.05196204036474228,-0.22847458720207214,0.17288723587989807
42.85,0.9454755187034607,-0.3617127239704132,-0.008234445936977863,0.064773790538311,-0.15344566106796265,0.136896014213562
42.9,0.5061670541763306,-0.00627526780590415,-0.023343482986092567,0.057234130799770355,-0.06886070221662521,0.06007084250450134
42.95,0.09219519793987274,0.3567591607570648,0.18103472888469696,0.010505507700145245,-0.03347889333963394,-0.010361146181821823
43.0,0.24015717208385468,0.8233691453933716,0.27515295147895813,-0.020028816536068916,-0.06120381876826286,-0.036289431154727936
43.05,0.45211905241012573,0.7300816774368286,0.10503987967967987,-0.021592693403363228,-0.07401762902736664,-0.04857984930276871
43.1,0.37752124667167664,-0.16824732720851898,-0.010308332741260529,-0.029780477285385132,-0.03143169358372688,-0.055601973086595535
43.15,0.07845459878444672,-0.9252111911773682,0.10130379348993301,-0.03582879155874252,0.031237544491887093,-0.060520198196172714
43.2,-0.5603556632995605,-0.688876211643219,0.12938082218170166,-0.023115187883377075,0.07249917834997177,-0.06045882776379585
43.25,-0.8504764437675476,0.1991397887468338,0.08071129024028778,-0.008511215448379517,0.04247653856873512,-0.024044031277298927
43.3,-0.4569566547870636,0.49770376086235046,-0.12256073206663132,0.007552482653409243,-0.028536945581436157,0.0324699729681015
43.35,0.054872363805770874,-0.006679559126496315,-0.3527809977531433,0.056509457528591156,-0.09094558656215668,0.10440617799758911
43.4,0.34299468994140625,-0.5568401217460632,-0.4466005563735962,0.13686874508857727,-0.14551661908626556,0.18305371701717377
43.45,0.5405696630477905,-0.6333373188972473,-0.1307009607553482,0.20557132363319397,-0.2127787321805954,0.2556264400482178
43.5,0.6785303354263306,-0.13301195204257965,0.23763015866279602,0.21463711559772491,-0.23431172966957092,0.23497043550014496
43.55,0.8562886714935303,0.8433075547218323,0.2168155014514923,0.14194393157958984,-0.17407476902008057,0.16133108735084534
43.6,0.9747445583343506,1.27217698097229,-0.07028990238904953,0.05212801694869995,-0.09595143049955368,0.11927816271781921
43.65,0.8289031386375427,0.7680730819702148,-0.28436365723609924,0.02362222969532013,-0.024608250707387924,0.07276411354541779
43.7,0.5916900038719177,-0.10917294770479202,0.012569229118525982,0.0466105192899704,0.004256861750036478,0.0861019566655159
43.75,0.3160403072834015,-0.8216497898101807,0.33671095967292786,0.05399055778980255,0.006464992184191942,0.130924791097641
43.8,-0.061820998787879944,-0.46890363097190857,0.2234661728143692,0.04527491331100464,0.01266667153686285,0.12386542558670044
43.85,-0.08381672203540802,0.6161872148513794,-0.007196416612714529,0.06289951503276825,-0.017545226961374283,0.10172483325004578
43.9,0.6445397734642029,1.1033412218093872,-0.15461260080337524,0.08898010849952698,-0.07455676048994064,0.06124434620141983
43.95,1.2528691291809082,0.18383103609085083,-0.21985869109630585,0.08623258769512177,-0.07178112864494324,-0.006160100921988487
44.0,0.9347929954528809,-0.9377359747886658,-0.160492941737175,0.04870610684156418,0.012124824337661266,-0.07420505583286285
44.05,0.15415287017822266,-0.20979125797748566,-0.17793048918247223,0.006945187225937843,0.08825896680355072,-0.10221628099679947
44.1,-0.20491263270378113,1.1442310810089111,-0.32059547305107117,-0.025377698242664337,0.07042558491230011,-0.07271119952201843
44.15,0.4679899215698242,0.8899146318435669,-0.37304720282554626,-0.04146968945860863,-0.0008333181031048298,-0.07708405703306198
44.2,1.1069740056991577,-0.2765848636627197,0.024255359545350075,-0.03832283243536949,-0.014449055306613445,-0.14660121500492096
44.25,0.7560217976570129,-0.36710092425346375,0.530756413936615,-0.05045224353671074,0.05470554158091545,-0.18487973511219025
44.3,0.07796260714530945,0.3797198235988617,0.3226635754108429,-0.0908660888671875,0.1805485337972641,-0.21951794624328613
44.35,-0.5913063287734985,0.556954562664032,-0.6020855903625488,-0.1473637819290161,0.2623211741447449,-0.2662034332752228
44.4,-0.31123030185699463,0.3728562593460083,-0.9797126650810242,-0.14807629585266113,0.15973927080631256,-0.1995004117488861
44.45,0.5635042190551758,0.15252962708473206,-0.4982123076915741,-0.10844270884990692,0.03603613004088402,-0.14376415312290192
44.5,0.7177645564079285,-0.15173831582069397,0.2763086259365082,-0.13487248122692108,0.07623250782489777,-0.16831153631210327
44.55,0.1190510019659996,0.013590809889137745,0.4119323194026947,-0.19186356663703918,0.2265705019235611,-0.23961538076400757
44.6,-0.6915296316146851,0.5120670795440674,-0.2781561315059662,-0.2200404852628708,0.316464900970459,-0.26964613795280457
44.65,-0.68467116355896,0.40594977140426636,-0.8840209245681763,-0.1839529275894165,0.2236841320991516,-0.19288410246372223
44.7,-0.09043681621551514,-0.15603165328502655,-0.7152376174926758,-0.10440283268690109,0.043035466223955154,-0.11281942576169968
44.75,0.4880805015563965,-0.2238875776529312,0.2874406576156616,-0.04282727837562561,-0.06350594758987427,-0.029006818309426308
44.8,0.5929492712020874,0.08462996035814285,0.7178879380226135,-0.03187350183725357,-0.007988840341567993,-0.019677015021443367
44.85,-0.0505070835351944,0.1171455830335617,0.14641469717025757,-0.03848566114902496,0.10218725353479385,-0.07372118532657623
44.9,-0.4872380495071411,-0.0006760900723747909,-0.5342676639556885,0.0014912663027644157,0.09693587571382523,-0.07463795691728592
44.95,-0.017041422426700592,-0.11811451613903046,-0.5248525142669678,0.05943550541996956,-0.0149514339864254,-0.025787347927689552
45.0,0.5099895596504211,-0.17348016798496246,0.0925690084695816,0.09152794629335403,-0.08672342449426651,0.019900111481547356
45.05,0.6855617761611938,0.09537211805582047,0.33958086371421814,0.07534739375114441,-0.05093708261847496,0.017476310953497887
45.1,0.374519944190979,0.4232235252857208,-0.010725519619882107,0.017350463196635246,0.01839226856827736,-0.020528605207800865
45.15,-0.2024560570716858,0.6558248400688171,-0.4597368538379669,-0.016258083283901215,0.037065017968416214,-0.03144427016377449
45.2,-0.1535150557756424,0.4706050157546997,-0.6074175238609314,-0.006930714473128319,0.0018546589417383075,-0.0065992120653390884
45.25,0.08418445289134979,-0.24639615416526794,-0.30251264572143555,0.0307146105915308,-0.04101460054516792,0.04602896422147751
45.3,0.07807755470275879,-0.6723281741142273,0.13448984920978546,0.09335121512413025,-0.07979708909988403,0.1052505224943161
45.35,0.16023850440979004,-0.3461352586746216,0.034540191292762756,0.13124290108680725,-0.0905291885137558,0.11608651280403137
45.4,0.10940206795930862,0.3566437363624573,-0.49097296595573425,0.11724446713924408,-0.08270048350095749,0.10133510828018188
45.45,0.1901591569185257,0.7282801866531372,-0.8029286861419678,0.0789780542254448,-0.09495595842599869,0.07937870174646378
45.5,0.6593917012214661,0.7040625214576721,-0.5862141847610474,0.04243180528283119,-0.10854172706604004,0.058510683476924896
45.55,0.8110138773918152,0.4368390440940857,0.04144296422600746,-0.005456280894577503,-0.0756743848323822,0.020037196576595306
45.6,0.6224974393844604,0.04876414313912392,0.28108933568000793,-0.052297599613666534,0.002331889932975173,-0.03800978511571884
45.65,0.23108592629432678,-0.21250829100608826,-0.2729441523551941,-0.07849623262882233,0.07004691660404205,-0.08281134068965912
45.7,-0.18285873532295227,-0.06829740107059479,-0.8469677567481995,-0.09196959435939789,0.09427941590547562,-0.1209041178226471
45.75,-0.09878697246313095,0.45406636595726013,-1.071401834487915,-0.09124043583869934,0.08697828650474548,-0.14895640313625336
45.8,0.22527369856834412,0.5817537903785706,-1.0670976638793945,-0.08118933439254761,0.07539413869380951,-0.1615356057882309
45.85,0.35965514183044434,0.10671607404947281,-1.1069037914276123,-0.06674788892269135,0.12216776609420776,-0.23737597465515137
45.9,-0.08223702013492584,-0.41669762134552,-0.9733293652534485,-0.023868974298238754,0.2073844075202942,-0.3675609230995178
45.95,-0.23171697556972504,0.3256464898586273,-1.3214976787567139,0.02047031559050083,0.05296719819307327,-0.14985936880111694
46.0,0.11207360029220581,0.9030429720878601,-1.3258187770843506,-0.0322331041097641,-0.11903482675552368,0.0718163326382637
46.05,0.4849745035171509,0.49744513630867004,-0.4395316243171692,-0.08950646221637726,-0.11154060810804367,0.1091231256723404
46.1,0.610704779624939,0.12666410207748413,0.28743284940719604,-0.09728585183620453,-0.12002870440483093,0.18325349688529968
46.15,0.5898622870445251,-0.04578694701194763,0.6710823178291321,-0.0633656457066536,-0.118781179189682,0.18895754218101501
46.2,0.4562394618988037,-0.04219728708267212,0.8070215582847595,0.007033197209239006,-0.09463971853256226,0.1849633902311325
46.25,0.2944543659687042,0.16606906056404114,0.9209513664245605,0.051861390471458435,-0.04770909249782562,0.16179244220256805
46.3,0.1947428286075592,0.43984901905059814,0.6314428448677063,0.08360372483730316,0.008389364928007126,0.13117781281471252
46.35,0.12385222315788269,0.16651156544685364,0.2665964663028717,0.08834277838468552,0.018860314041376114,0.09169088304042816
46.4,0.47868019342422485,-0.11927329003810883,0.18162871897220612,0.06647917628288269,-0.023967988789081573,-0.0027959742583334446
46.45,0.5663661956787109,0.2443961650133133,-0.04318507760763168,0.024231836199760437,-0.060034483671188354,-0.07335084676742554
46.5,0.2598070204257965,0.4993143677711487,-0.26174744963645935,-0.04630006477236748,-0.04028221592307091,-0.09706530719995499
46.55,0.5049683451652527,0.21722407639026642,-0.025819232687354088,-0.07748739421367645,-0.023328913375735283,-0.08592897653579712
46.6,0.6813284754753113,-0.05535995215177536,0.5857215523719788,-0.04337466508150101,-0.031059540808200836,-0.05041881278157234
46.65,0.4612200856208801,-0.04168897867202759,0.8298836350440979,-0.003992393612861633,0.008692137897014618,-0.06430742144584656
46.7,0.3339011073112488,0.22725200653076172,0.07199910283088684,0.006852295249700546,0.0879530981183052,-0.12050999701023102
46.75,0.008272737264633179,0.31009867787361145,-1.0418195724487305,0.005940668284893036,0.14401370286941528,-0.17447930574417114
46.8,-0.40503546595573425,0.1734199970960617,-1.763339638710022,0.008762899786233902,0.16329781711101532,-0.21892336010932922
46.85,-0.3342992663383484,0.08554936200380325,-1.9349827766418457,0.0009167343378067017,0.14779557287693024,-0.21606169641017914
46.9,-0.007748275995254517,-0.022151052951812744,-1.4886592626571655,-0.022510308772325516,0.10193171352148056,-0.12878170609474182
46.95,-0.03724787384271622,-0.14626602828502655,-0.6796851754188538,-0.044994253665208817,0.04890304058790207,-0.02171376161277294
47.0,-0.1877412348985672,-0.08831214159727097,-0.10370020568370819,-0.05173373594880104,4.1581166442483664e-05,0.04269400238990784
47.05,0.12199492007493973,0.1397562175989151,0.139563649892807,-0.04268734157085419,-0.05839390307664871,0.09183283150196075
47.1,0.43024975061416626,0.3954620659351349,0.06745191663503647,-0.02106628566980362,-0.0816408023238182,0.10732222348451614
47.15,0.4834345877170563,0.6394397020339966,0.04660297557711601,0.001476207748055458,-0.04818470776081085,0.10680090636014938
