Time [s],Acc_x [m/s^2],Acc_y [m/s^2],Acc_z [m/s^2],Gyro_x [1/s],Gyro_y [1/s],Gyro_z [1/s]
0.0,-1.8449589014053345,2.304400682449341,0.25267505645751953,0.37033194303512573,0.26080942153930664,2.911874294281006
0.05,-3.565667152404785,1.9100468158721924,0.5531378984451294,0.36659836769104004,0.2607419490814209,2.9123523235321045
0.1,-6.870481491088867,0.6588085889816284,2.0848031044006348,0.32951104640960693,-0.46626612544059753,2.3314034938812256
0.15,-8.66527271270752,-0.11984188109636307,3.141174793243408,0.12119995802640915,-0.8337204456329346,1.673923134803772
0.2,-5.703857898712158,-1.9193860292434692,3.898465156555176,0.04426252096891403,0.40828633308410645,1.3688534498214722
0.25,-2.966810464859009,-0.1562281847000122,1.044796347618103,-0.42016521096229553,0.2956690192222595,0.8988137245178223
0.3,-7.043368339538574,-0.22961640357971191,2.230102062225342,-0.38073110580444336,-0.9185553789138794,-0.3709062337875366
0.35,-7.483640193939209,-0.9477266073226929,2.837024211883545,-0.39036357402801514,-0.46489444375038147,-0.9423263669013977
0.4,-5.793882846832275,-0.8181699514389038,2.699429512023926,-0.42580223083496094,0.39115914702415466,-1.217344880104065
0.45,-4.341554164886475,-0.5274727940559387,2.3527464866638184,-0.45647865533828735,0.32785794138908386,-1.5818054676055908
0.5,-4.109725475311279,-0.5306313633918762,2.796954870223999,-0.46263134479522705,0.24228829145431519,-1.6338496208190918
0.55,-2.922255277633667,-0.8227065801620483,2.651421070098877,-0.2950201630592346,0.7475906014442444,-1.3510483503341675
0.6,-1.8893624544143677,-1.4823087453842163,2.469850778579712,-0.030088037252426147,1.0258736610412598,-0.9167014360427856
0.65,-1.5709962844848633,-1.8282432556152344,2.3288965225219727,0.14036332070827484,0.8186148405075073,-0.4452724754810333
0.7,-1.608097791671753,-2.9035983085632324,2.6107394695281982,0.04277447238564491,0.28817734122276306,-0.07226856797933578
0.75,-3.2775588035583496,0.005751477554440498,1.432587742805481,-0.2571530044078827,-0.4082522690296173,0.11451280117034912
0.8,-3.597466230392456,-0.38507768511772156,1.6492599248886108,-0.6076896786689758,-1.393329381942749,-0.18253061175346375
0.85,-3.9566760063171387,-0.9291738271713257,2.547846794128418,-0.3768768012523651,-1.3236560821533203,-0.34321001172065735
0.9,-3.627723455429077,-1.1124109029769897,3.020305633544922,0.23435963690280914,-0.3610951602458954,-0.0023517832159996033
0.95,-2.6920621395111084,-1.4353365898132324,3.328479528427124,0.7535250186920166,0.42381975054740906,0.35840317606925964
1.0,-3.2917778491973877,-2.2989702224731445,3.839130401611328,0.240661159157753,-0.07034618407487869,0.2578158676624298
1.05,-1.0024542808532715,-1.5247968435287476,1.3640450239181519,-0.7130467891693115,-0.8683228492736816,0.18012739717960358
1.1,-5.431460380554199,0.28621742129325867,3.0924198627471924,-0.10448840260505676,-0.8060811161994934,0.4503522515296936
1.15,-4.822898864746094,-0.2872708737850189,3.2269296646118164,0.3687574863433838,0.17576050758361816,0.542131245136261
1.2,-4.434609889984131,-0.6297000050544739,2.7331154346466064,0.20499955117702484,0.18161901831626892,0.23007872700691223
1.25,-4.688281059265137,-0.9176058173179626,3.179872751235962,-0.07239358872175217,-0.18526580929756165,-0.17838162183761597
1.3,-3.0398619174957275,-0.9944413304328918,2.136491298675537,-0.04136897623538971,0.011683641001582146,-0.3024451732635498
1.35,-3.4995789527893066,-0.639301598072052,2.904967784881592,0.04235558211803436,0.0876690074801445,-0.37426623702049255
1.4,-3.4301540851593018,-0.9989780783653259,3.264500617980957,0.08420348167419434,0.3134523630142212,-0.24109923839569092
1.45,-3.067230463027954,-1.254839301109314,2.567111015319824,-0.027588609606027603,0.2507736086845398,-0.17603528499603271
1.5,-5.663578987121582,0.12717123329639435,3.2893118858337402,-0.10109180957078934,0.06904257088899612,-0.1769566386938095
1.55,-4.7534966468811035,0.12446670979261398,2.19899320602417,-0.01771046221256256,0.28278690576553345,-0.3998902142047882
1.6,-3.8649137020111084,0.1804083287715912,1.704453945159912,0.018036307767033577,0.19246222078800201,-0.667047917842865
1.65,-4.556109428405762,0.37769585847854614,2.4869096279144287,0.309187114238739,0.20819656550884247,-0.7690975666046143
1.7,-3.3289716243743896,-0.5396388173103333,2.5433177947998047,0.6740399599075317,0.5780956745147705,-0.8120524883270264
1.75,-2.7355329990386963,-1.2988542318344116,2.525615930557251,0.7683839797973633,0.6159763336181641,-0.6977946162223816
1.8,-1.3023860454559326,-2.752501964569092,1.6041505336761475,0.5560275912284851,0.37726646661758423,-0.584130585193634
1.85,-2.1771981716156006,-3.515340566635132,2.4505362510681152,0.49664151668548584,-0.045664526522159576,-0.1863071769475937
1.9,-2.355093479156494,-3.9878499507904053,3.4169187545776367,0.3248755633831024,-0.24225538969039917,0.2811768651008606
1.95,-2.4949002265930176,-0.52118980884552,0.7452709078788757,-0.37958794832229614,-0.5344300270080566,0.39101442694664
2.0,-7.518455982208252,1.8116759061813354,3.6736671924591064,-0.41892677545547485,-1.0907633304595947,0.21157115697860718
2.05,-8.082886695861816,-0.17709115147590637,5.415286540985107,0.5038250684738159,0.3984650671482086,0.4006047546863556
2.1,-2.9314754009246826,-1.2362836599349976,2.1495182514190674,0.6865655779838562,1.5539398193359375,0.35594403743743896
2.15,1.472746729850769,-3.3228726387023926,-0.6945982575416565,0.05899224430322647,0.7829266786575317,0.02322608046233654
2.2,-0.2749776244163513,-2.7066218852996826,0.08074968308210373,-1.2837942838668823,-1.2018382549285889,0.18840907514095306
2.25,-4.254912376403809,-0.8219046592712402,3.780715227127075,-0.4083825349807739,-1.008521318435669,0.7135162949562073
2.3,-4.707607269287109,-0.9255308508872986,3.2041561603546143,0.858276903629303,0.5962730646133423,1.4550063610076904
2.35,-2.5555336475372314,-1.9622024297714233,1.7993451356887817,0.820022702217102,1.3488380908966064,1.9251232147216797
2.4,-3.735051393508911,-0.24921055138111115,1.7933745384216309,-0.22061645984649658,0.1646905094385147,1.5841747522354126
2.45,-5.709515571594238,0.12653523683547974,2.1130404472351074,-0.5636595487594604,-0.8244847655296326,0.9287385940551758
2.5,-5.705541133880615,-0.3529713749885559,3.008582353591919,-0.2214110940694809,-0.17704585194587708,0.7260006666183472
2.55,-4.909612655639648,-0.6789638996124268,1.9954169988632202,-0.08811014890670776,0.2879598140716553,0.6490477323532104
2.6,-2.852274179458618,-0.4016105532646179,1.2356221675872803,-0.2655555307865143,-0.0214837733656168,0.5705350637435913
2.65,-3.4845902919769287,-0.5891191363334656,1.0211169719696045,-0.12662458419799805,-0.4919523596763611,0.6623924970626831
2.7,-4.382922649383545,-1.379072666168213,3.6364054679870605,0.15883876383304596,-0.23851320147514343,0.7724407315254211
2.75,-4.106457233428955,-1.3735908269882202,2.6906306743621826,0.087069571018219,0.14365164935588837,0.8431355953216553
2.8,-4.787482261657715,-0.9838298559188843,2.6880223751068115,-0.2598991096019745,-0.26175981760025024,0.5496715903282166
2.85,-5.627380847930908,-0.4310648739337921,2.1917409896850586,-0.45474687218666077,-0.49422889947891235,0.07998397201299667
2.9,-5.415957450866699,-0.32108238339424133,2.5848870277404785,-0.4355255663394928,-0.13661544024944305,-0.16868777573108673
2.95,-4.466187953948975,-0.02396124042570591,1.829353928565979,-0.34072864055633545,0.16831129789352417,-0.3605036437511444
3.0,-4.541396617889404,-0.19853608310222626,1.3571722507476807,-0.23492835462093353,-0.30657562613487244,-0.7423100471496582
3.05,-4.159575462341309,0.13807949423789978,1.7525887489318848,-0.13844388723373413,-0.6643113493919373,-1.0241135358810425
3.1,-3.724250555038452,-0.569207489490509,2.430202007293701,0.15772360563278198,-0.1513446420431137,-0.945665717124939
3.15,-3.688704013824463,-0.7923940420150757,2.505899429321289,0.21227939426898956,0.15424850583076477,-0.8044702410697937
3.2,-4.000935077667236,-0.37874728441238403,2.5377652645111084,0.06638599187135696,0.052424490451812744,-0.9200109243392944
3.25,-4.521871089935303,-0.06358838081359863,2.507026433944702,0.0282592736184597,0.05647273734211922,-1.125298261642456
3.3,-3.4458556175231934,-0.29531219601631165,2.5790750980377197,0.00658541452139616,0.22851231694221497,-1.3389211893081665
3.35,-3.032677173614502,-0.4398539960384369,3.0640785694122314,0.07706449180841446,0.5122135877609253,-1.190542221069336
3.4,-1.2796549797058105,-1.6183761358261108,1.9133336544036865,0.11422637850046158,0.6096524000167847,-0.9892986416816711
3.45,-1.209064245223999,-1.8364976644515991,1.2422032356262207,-0.12641793489456177,0.01961025968194008,-0.6955432295799255
3.5,-2.4952683448791504,-1.5059247016906738,3.0352988243103027,0.14522232115268707,0.023950843140482903,-0.3596082031726837
3.55,-2.370600938796997,-1.9324707984924316,2.859177350997925,0.28885748982429504,0.3079291880130768,0.026844309642910957
3.6,-1.8112472295761108,-1.4738085269927979,1.7419339418411255,0.02097281813621521,0.1739773452281952,0.21831659972667694
3.65,-2.404306173324585,-0.5925981998443604,2.005093812942505,0.02000277303159237,-0.12868095934391022,0.3088415563106537
3.7,-3.231419324874878,-0.49545323848724365,3.1147031784057617,0.45824000239372253,0.1594829112291336,0.4255330264568329
3.75,-3.7786426544189453,-2.050555944442749,4.482632160186768,0.4844297170639038,0.34069961309432983,0.4280546307563782
3.8,-0.030422594398260117,-3.0328853130340576,2.7762389183044434,-0.2657444477081299,0.1834966093301773,0.6499181389808655
3.85,-1.3445415496826172,0.6882763504981995,-0.03409004211425781,-0.5777982473373413,-0.55817711353302,0.7302758097648621
3.9,-3.3306896686553955,0.7631025314331055,1.3492993116378784,-0.10754384100437164,-1.0577600002288818,0.9503971338272095
3.95,-4.7152485847473145,0.034287095069885254,3.9774296283721924,0.8404580354690552,0.0027354126796126366,1.6107207536697388
4.0,-3.1394174098968506,-1.6660429239273071,3.578733205795288,1.3689074516296387,1.3014036417007446,2.514910936355591
4.05,-1.8259469270706177,-0.8974965810775757,2.342111587524414,0.9937325716018677,0.7085314989089966,2.587109327316284
4.1,-4.078532695770264,0.45415952801704407,2.7675278186798096,0.3863978683948517,-0.9416893124580383,2.2141969203948975
4.15,-6.328377723693848,0.36939507722854614,2.1403799057006836,0.28243181109428406,-1.6680878400802612,1.4067496061325073
4.2,-5.965290546417236,0.6476468443870544,1.462593674659729,0.39563658833503723,-1.0313987731933594,0.9057784080505371
4.25,-4.691343307495117,-0.4449741840362549,1.8058819770812988,0.671420156955719,-0.5511825680732727,0.2808496952056885
4.3,-4.060093402862549,-1.6538653373718262,2.442312717437744,0.7631468176841736,-0.2831181287765503,-0.011136897839605808
4.35,-3.69398832321167,-2.0592074394226074,2.4560272693634033,0.5396971702575684,-0.17864133417606354,0.05719326063990593
4.4,-4.815253734588623,-1.4939826726913452,1.9575040340423584,0.22471584379673004,-0.30972906947135925,-0.0712738186120987
4.45,-6.439526081085205,-0.4651919901371002,0.9780577421188354,0.08918727189302444,-0.3214663863182068,-0.5733767151832581
4.5,-6.97515344619751,0.4694937765598297,1.6660875082015991,0.2831389307975769,0.09892535209655762,-1.1997593641281128
4.55,-5.56827449798584,1.7299138307571411,1.7229889631271362,0.2429456263780594,0.8555640578269958,-1.678200125694275
4.6,-4.181726455688477,1.7798711061477661,1.7267197370529175,0.1447126269340515,0.9734172821044922,-2.3499488830566406
4.65,-3.1829936504364014,1.3438252210617065,2.1372971534729004,0.009623508900403976,0.8154402375221252,-2.754102945327759
4.7,-2.71744441986084,0.49528107047080994,2.2083535194396973,0.013871891424059868,0.897773027420044,-2.6287522315979004
4.75,-1.9847790002822876,0.08371807634830475,2.5150740146636963,0.19159506261348724,1.1902103424072266,-2.2895584106445312
4.8,-1.1272143125534058,-0.438008576631546,2.1938538551330566,0.425138920545578,1.2898218631744385,-2.0754613876342773
4.85,-0.8741415143013,-0.9422076344490051,1.6874802112579346,0.3397884964942932,1.115889072418213,-1.760994791984558
4.9,-1.2687791585922241,-0.8795931339263916,1.6009933948516846,0.004062684252858162,0.8393076658248901,-1.476306438446045
4.95,-1.3967957496643066,-0.9582799077033997,1.7153215408325195,0.07754786312580109,0.8503174781799316,-1.1661615371704102
5.0,-1.484819769859314,-1.6807092428207397,1.944018006324768,0.5770469307899475,0.9477655291557312,-0.8559958934783936
5.05,-1.5319139957427979,-3.090306282043457,1.1736531257629395,0.8395823836326599,0.8871002793312073,-0.5475994944572449
5.1,-1.121978998184204,-4.085301399230957,0.6605952382087708,0.4959672689437866,0.6417350769042969,-0.17639583349227905
5.15,-0.9707733392715454,-5.2881879806518555,0.5541393160820007,0.10239825397729874,0.26330405473709106,0.36023205518722534
5.2,-0.04714130237698555,-5.23723840713501,-0.23620834946632385,-0.08954542875289917,-0.024927154183387756,1.1240358352661133
5.25,0.85576331615448,-1.6547319889068604,-0.06779927760362625,-0.6015321016311646,-0.5874360203742981,1.5983662605285645
5.3,-0.6587414145469666,-0.2348645180463791,2.7598350048065186,-0.8888402581214905,-1.1440778970718384,1.8740386962890625
5.35,-2.6882638931274414,1.8251466751098633,2.855921506881714,-0.7921527028083801,-1.0671323537826538,2.254080295562744
5.4,-3.358193874359131,2.2647600173950195,2.207658290863037,-0.6360258460044861,-0.6909884214401245,2.102088451385498
5.45,-3.9574410915374756,2.2563304901123047,2.263368844985962,-0.3728267252445221,-0.45018693804740906,1.7211493253707886
5.5,-3.6007561683654785,1.6589651107788086,2.5956315994262695,-0.18536151945590973,-0.05461016669869423,1.2819849252700806
5.55,-4.129141807556152,1.3009260892868042,2.1004045009613037,-0.17944347858428955,0.0981840118765831,0.9399195313453674
5.6,-4.312607765197754,2.109628677368164,2.156810760498047,-0.1627114862203598,0.047426387667655945,0.41054636240005493
5.65,-5.018252849578857,2.598099708557129,2.2628655433654785,-0.16506202518939972,0.008862507529556751,-0.29004940390586853
5.7,-4.905328750610352,3.083634614944458,2.602616310119629,-0.02826741151511669,0.1928786337375641,-1.0707210302352905
5.75,-4.051807880401611,3.4163248538970947,2.471017360687256,0.07584667205810547,0.39013850688934326,-1.8586808443069458
5.8,-2.6024081707000732,3.3289005756378174,3.1116137504577637,0.2700631320476532,0.5652254819869995,-2.4614717960357666
5.85,-0.5224624276161194,2.0527706146240234,3.83034610748291,0.7607399821281433,1.0861080884933472,-2.710637092590332
5.9,1.4766794443130493,-2.192077159881592,2.584446430206299,1.3618614673614502,1.4699288606643677,-2.4934163093566895
5.95,1.2186074256896973,-6.121862411499023,-0.15296155214309692,1.326704502105713,1.126778483390808,-1.9900444746017456
6.0,0.4562845528125763,-7.662425994873047,-1.8756835460662842,0.7418836355209351,0.30384042859077454,-1.1765481233596802
6.05,-0.1874898076057434,-6.602059364318848,-0.8491307497024536,0.15298879146575928,-0.6100164651870728,-0.27172553539276123
6.1,-0.2801600396633148,-3.2916793823242188,0.9611210823059082,-0.31958380341529846,-1.2143263816833496,0.785008430480957
6.15,-1.0106244087219238,-0.6174175143241882,1.3471319675445557,-0.7462133765220642,-1.5011202096939087,1.470792531967163
6.2,-2.1524858474731445,1.49486243724823,2.908200263977051,-0.7348130345344543,-1.472752571105957,1.5610953569412231
6.25,-2.5077524185180664,1.3578556776046753,3.093522310256958,-0.510623037815094,-1.244235634803772,1.4161568880081177
6.3,-2.2543182373046875,0.6874130964279175,1.9770407676696777,-0.25006112456321716,-0.779800295829773,1.4641921520233154
6.35,-2.714569091796875,0.8147229552268982,2.1887948513031006,-0.05461752414703369,-0.6566130518913269,1.4631016254425049
6.4,-2.4417946338653564,0.764470100402832,1.210842490196228,-0.04247698932886124,-0.5590272545814514,1.290981411933899
6.45,-3.352850914001465,0.9746875762939453,1.5745930671691895,-0.11072647571563721,-0.8574062585830688,0.9829866290092468
6.5,-3.5476818084716797,1.0272026062011719,1.5759600400924683,-0.06446047127246857,-0.7959911823272705,0.6141083836555481
6.55,-2.903663396835327,0.8819046020507812,1.5500885248184204,0.07496709376573563,-0.5004936456680298,0.5066784620285034
6.6,-2.3025097846984863,0.9728851318359375,1.06485116481781,0.16493068635463715,-0.21889063715934753,0.3253200948238373
6.65,-2.7339277267456055,1.7680236101150513,1.2387020587921143,0.07070408016443253,-0.29884758591651917,-0.08301609009504318
6.7,-3.170191526412964,1.956177830696106,1.1515980958938599,0.10506754368543625,-0.32309970259666443,-0.6646415591239929
6.75,-2.71079158782959,1.8169394731521606,1.2682888507843018,0.3394860625267029,-0.12960967421531677,-1.1102088689804077
6.8,-3.033780097961426,1.786360740661621,1.969482660293579,0.5729733109474182,0.05628218129277229,-1.452818751335144
6.85,-2.9196555614471436,1.44487464427948,2.4375717639923096,0.8916165828704834,0.3759540617465973,-1.564705491065979
6.9,-2.0000808238983154,0.7486523389816284,2.170058250427246,1.1565334796905518,0.6363229751586914,-1.472745418548584
6.95,-1.3102104663848877,-0.38313984870910645,1.9727379083633423,1.3834770917892456,0.7595661282539368,-1.3232064247131348
7.0,-0.6653047204017639,-1.471121072769165,1.2752574682235718,1.3984588384628296,0.6759505867958069,-1.2486579418182373
7.05,-0.1922978162765503,-2.6800105571746826,0.5382226705551147,1.2230591773986816,0.5315350890159607,-1.0297561883926392
7.1,-0.5789870023727417,-4.458110332489014,-0.5382395386695862,0.8781824111938477,0.2675590515136719,-0.6283242702484131
7.15,-0.6073229312896729,-5.477947235107422,-1.5993598699569702,0.08206482231616974,-0.07692300528287888,-0.3281409442424774
7.2,0.9263466596603394,-4.749188423156738,-1.438791275024414,-0.9623970985412598,-0.42709484696388245,-0.10313055664300919
7.25,2.0684664249420166,-2.1921236515045166,-0.24185723066329956,-1.6375943422317505,-1.0712569952011108,0.12597471475601196
7.3,1.1450529098510742,0.2944439947605133,1.4307924509048462,-1.356593132019043,-1.7170040607452393,0.845833420753479
7.35,-0.8185708522796631,0.8938111066818237,2.672085762023926,-0.5387285351753235,-1.5660979747772217,2.152287244796753
7.4,-1.4912912845611572,0.5822485685348511,2.2888593673706055,0.060638148337602615,-0.6984129548072815,3.7446975708007812
7.45,-2.22127103805542,-0.021502671763300896,1.9217658042907715,-0.15162783861160278,-0.0431559793651104,4.7346906661987305
7.5,-0.22317177057266235,-1.1403611898422241,2.432610273361206,-0.8351849317550659,0.30062946677207947,4.817274570465088
7.55,0.5513465404510498,2.5741331577301025,0.818175733089447,-1.8052175045013428,-0.5430530905723572,4.178468704223633
7.6,-3.4422473907470703,4.549522876739502,-0.5489306449890137,-1.8376682996749878,-1.799513578414917,2.7901604175567627
7.65,-6.290629863739014,2.548072099685669,-0.3702966868877411,-0.867706298828125,-1.5901505947113037,1.2652268409729004
7.7,-3.9501020908355713,0.6357021331787109,0.5927280783653259,-0.0632002055644989,0.07561898976564407,0.5098410248756409
7.75,-1.3498693704605103,-0.771587610244751,1.5534366369247437,0.1646956354379654,0.7873700261116028,-0.048398636281490326
7.8,-0.6033930778503418,-1.2139666080474854,1.981504201889038,0.11341667920351028,0.39511045813560486,-0.45396220684051514
7.85,-0.8010358810424805,-0.895318329334259,2.125828981399536,0.008172756060957909,-0.3154456913471222,-0.6154043078422546
7.9,-1.241379737854004,-0.5447742938995361,2.261934757232666,-0.21821328997612,-0.9475632309913635,-0.590945303440094
7.95,-2.1033997535705566,0.046380799263715744,2.2052175998687744,-0.47171851992607117,-1.2938839197158813,-0.4290370047092438
8.0,-2.804522752761841,0.5202388167381287,1.202221155166626,-0.5627007484436035,-1.2847737073898315,-0.3187997043132782
8.05,-3.3433470726013184,0.897476315498352,0.16438153386116028,-0.5558835864067078,-1.157446265220642,-0.19964665174484253
8.1,-3.5739850997924805,0.6320295929908752,-0.3221866190433502,-0.4311896860599518,-0.716293454170227,-0.011614961549639702
8.15,-3.1311442852020264,0.07391071319580078,0.012900362722575665,-0.23598513007164001,-0.02250480279326439,0.14303967356681824
8.2,-2.677978277206421,0.12758252024650574,0.4691643714904785,0.014258838258683681,0.21078728139400482,-0.016729962080717087
8.25,-2.246206760406494,0.297420471906662,0.722987174987793,0.29298728704452515,0.03596346080303192,-0.3562924563884735
8.3,-2.15592360496521,-0.1764441579580307,0.9010189175605774,0.47141072154045105,-0.05815328657627106,-0.5827814936637878
8.35,-1.6287672519683838,-0.3448936343193054,1.5261491537094116,0.3507865071296692,-0.007825907319784164,-0.5478255152702332
8.4,-1.695103645324707,-0.29002875089645386,1.5215604305267334,0.06412655860185623,-0.08553408831357956,-0.4021761119365692
8.45,-1.914310097694397,0.13371272385120392,0.6831058859825134,-0.19431380927562714,-0.2433394491672516,-0.46936964988708496
8.5,-2.343132257461548,0.5063019394874573,-0.1913929134607315,-0.18557173013687134,-0.44377556443214417,-0.7335444688796997
8.55,-2.162161350250244,0.5587807297706604,-0.11086637526750565,0.07840652018785477,-0.09378916770219803,-0.7544026374816895
8.6,-0.8908324837684631,0.35245800018310547,0.3251124620437622,0.29026931524276733,0.532229483127594,-0.6041213870048523
8.65,-0.183566153049469,0.24943062663078308,0.7319246530532837,0.29720455408096313,0.589702844619751,-0.5157646536827087
8.7,-0.28496983647346497,-0.18555554747581482,0.8440215587615967,0.20239102840423584,0.18117967247962952,-0.4905935227870941
8.75,-0.22897426784038544,-0.3499976098537445,0.779664158821106,0.1124848797917366,0.09414539486169815,-0.31229516863822937
8.8,0.05499491095542908,-0.366365522146225,0.7443846464157104,0.01621215045452118,0.2610745429992676,-0.04211859777569771
8.85,0.06679711490869522,-0.025774024426937103,0.20007286965847015,-0.1327553689479828,0.04715808108448982,0.07519466429948807
8.9,-0.9743202924728394,0.14854906499385834,0.3389502465724945,-0.14588600397109985,-0.31285980343818665,0.0708797499537468
8.95,-1.0669589042663574,0.08182903379201889,0.4507397413253784,-0.05695411562919617,-0.07007157057523727,0.17331308126449585
9.0,-0.47598814964294434,-0.05848794803023338,0.5133491158485413,-0.04980901628732681,0.18377511203289032,0.22527340054512024
9.05,-0.22807875275611877,0.03885933384299278,0.4269207715988159,-0.14030896127223969,0.0053085568360984325,0.17474082112312317
9.1,-0.5282095670700073,0.12970447540283203,0.17694257199764252,-0.17539788782596588,-0.20429491996765137,0.13551734387874603
9.15,-0.7777888774871826,0.20871545374393463,0.17869558930397034,-0.14379309117794037,-0.17139647901058197,0.16876967251300812
9.2,-0.7251312732696533,0.15738201141357422,0.1753421425819397,-0.07821589708328247,-0.059970516711473465,0.1908186972141266
9.25,-0.8639293313026428,0.013726192526519299,0.48021864891052246,-0.05308808758854866,-0.048964474350214005,0.13391698896884918
9.3,-1.312705636024475,0.09896180033683777,0.49774715304374695,-0.12589888274669647,-0.09618263691663742,0.009625042788684368
9.35,-2.0929224491119385,0.14693260192871094,0.20169778168201447,-0.22068260610103607,-0.09562600404024124,-0.1807667464017868
9.4,-2.2841317653656006,0.2546529769897461,0.2907232940196991,-0.20613229274749756,0.1025000661611557,-0.37784290313720703
9.45,-2.465867280960083,1.0220718383789062,0.9799259305000305,-0.08399677276611328,0.3865189254283905,-0.5184950232505798
9.5,-0.7149561643600464,2.882814884185791,-1.7593746185302734,-0.23457017540931702,0.1974502056837082,-0.7852521538734436
9.55,1.3576127290725708,3.5995922088623047,-5.6119561195373535,-0.5136727690696716,-1.5390108823776245,-1.551112413406372
9.6,-0.7624964118003845,2.9081473350524902,-2.2834255695343018,0.20354366302490234,-2.5591907501220703,-1.8482205867767334
9.65,-2.333324432373047,0.9145364165306091,2.2275338172912598,1.5163971185684204,-0.7032936811447144,-0.9344168305397034
9.7,-3.024113893508911,-1.4359688758850098,3.919654130935669,1.6695479154586792,0.8851755857467651,-0.3345198929309845
9.75,-2.123213291168213,-1.592358112335205,2.8386948108673096,1.0567845106124878,1.4013065099716187,-0.3611800968647003
9.8,-1.3782106637954712,-0.5971148014068604,1.8594075441360474,0.4306738078594208,1.288889765739441,-0.593295156955719
9.85,-1.4882394075393677,0.6542271971702576,1.1750448942184448,-0.04855552315711975,1.084358811378479,-0.7609502077102661
9.9,-1.4140368700027466,1.482905387878418,0.8277959227561951,-0.022294122725725174,1.1294846534729004,-0.7886831760406494
9.95,-0.7789011001586914,1.4811420440673828,0.8970957398414612,0.3709329664707184,1.2755374908447266,-0.8857707977294922
10.0,-0.1609431952238083,1.1466132402420044,0.5457146763801575,0.43342772126197815,1.200492024421692,-1.1044409275054932
10.05,-0.033176273107528687,1.1243726015090942,0.23535554111003876,0.17646731436252594,0.9293137788772583,-1.2996245622634888
10.1,0.5546184778213501,1.1520243883132935,0.6003067493438721,0.28747162222862244,0.8221449851989746,-1.4992296695709229
10.15,1.5262608528137207,-0.05691531300544739,0.2718941867351532,0.6878848075866699,0.8260231018066406,-1.5702035427093506
10.2,1.6308263540267944,-1.6692068576812744,-0.4172865152359009,0.7874047160148621,0.6111125946044922,-1.3495680093765259
10.25,1.0857996940612793,-1.9201428890228271,-0.1734582930803299,0.6398508548736572,0.2731195092201233,-0.9867089986801147
10.3,0.8283816576004028,-1.5720760822296143,0.36190810799598694,0.4578275978565216,0.08854572474956512,-0.7229219079017639
10.35,1.0314850807189941,-2.1975533962249756,-0.8093246817588806,0.12071703374385834,0.1417689323425293,-0.5848836302757263
10.4,1.1725727319717407,-2.4530930519104004,-2.2086992263793945,-0.4082614779472351,0.08191190659999847,-0.3819105327129364
10.45,0.4613778293132782,-0.3168152868747711,-1.32844877243042,-0.5160360336303711,-0.2921462953090668,-0.041368406265974045
10.5,-0.7034963369369507,1.541459321975708,0.48248955607414246,0.0779556930065155,-0.46925607323646545,0.29788947105407715
10.55,-1.0192654132843018,0.8587218523025513,0.18300476670265198,0.2631358802318573,-0.21668657660484314,0.3870575726032257
10.6,-1.2058154344558716,0.8440238237380981,-0.038400039076805115,-0.37418821454048157,-0.15708602964878082,0.15989430248737335
10.65,-1.0914851427078247,1.3268271684646606,0.4373062551021576,-0.7294367551803589,-0.1368480622768402,-0.23763756453990936
10.7,0.7178301215171814,-0.3818655014038086,-0.7610648274421692,-0.16874076426029205,0.2852599024772644,-0.3257478177547455
10.75,0.9901183247566223,-1.6213810443878174,-0.24227319657802582,0.9031773805618286,0.4884510636329651,0.04087033495306969
10.8,-0.5591670274734497,-0.5463764071464539,1.4390579462051392,1.1959741115570068,0.3338407278060913,0.4915865957736969
10.85,-1.25430166721344,0.498959481716156,1.22188401222229,-0.10468775779008865,0.17993229627609253,0.5808842778205872
10.9,0.2003595381975174,-0.4601087272167206,-0.8742187023162842,-1.4604607820510864,0.23381121456623077,0.2643718719482422
10.95,0.9286118745803833,-1.2966070175170898,-0.9182174801826477,-0.9368209838867188,0.2841126024723053,0.16989392042160034
11.0,-0.07575277984142303,-1.1014091968536377,0.7044346332550049,0.3861407935619354,0.4499875009059906,0.6355371475219727
11.05,-0.44004276394844055,-0.4573823809623718,1.2391905784606934,0.6960237622261047,0.5396252870559692,1.0009371042251587
11.1,-0.034114956855773926,-0.11793430149555206,0.7009605765342712,-0.022656956687569618,0.40843847393989563,1.105105996131897
11.15,-0.08972728252410889,0.1666640192270279,1.2739721536636353,-0.4613876938819885,0.4380893111228943,1.1211662292480469
11.2,0.05001256242394447,-0.08524433523416519,1.6615010499954224,-0.12019792199134827,0.8278538584709167,1.0429478883743286
11.25,0.13862362504005432,-0.06343182176351547,0.8329955339431763,-0.014929203316569328,1.0078794956207275,1.1591317653656006
11.3,-1.308435082435608,1.874873399734497,0.37597617506980896,-0.41455531120300293,0.5810896158218384,1.3208401203155518
11.35,-2.712319850921631,3.2792725563049316,1.1900620460510254,-0.5295443534851074,0.23808251321315765,0.9857600927352905
11.4,-1.8122713565826416,2.5881834030151367,1.5356383323669434,-0.20398961007595062,0.6274347901344299,0.17271889746189117
11.45,0.08516819030046463,0.7785503268241882,-0.653404951095581,-0.13377085328102112,0.9323379993438721,-0.4356704652309418
11.5,0.39244207739830017,-0.35537803173065186,-1.7639274597167969,-0.14373888075351715,0.5718024969100952,-0.5037603378295898
11.55,0.257567822933197,-1.1356631517410278,0.0608309768140316,0.3419977128505707,0.24005229771137238,-0.448578417301178
11.6,0.38625866174697876,-0.6810829639434814,2.326138496398926,0.689848780632019,0.09579702466726303,-0.17467902600765228
11.65,-0.817813515663147,0.6311882734298706,1.9485995769500732,0.07077769935131073,-0.18949954211711884,0.1705002337694168
11.7,-1.7507482767105103,2.654008150100708,-0.7995296120643616,-1.0780705213546753,-0.5372207760810852,0.1022728979587555
11.75,-0.546256422996521,2.0875284671783447,0.16039249300956726,-0.6512078642845154,-0.25217223167419434,-0.4693266749382019
11.8,1.36862313747406,-2.1864333152770996,1.6465775966644287,1.2643952369689941,0.819915235042572,-0.8951903581619263
11.85,1.2405834197998047,-4.020301818847656,-0.8057072162628174,1.3829647302627563,0.6864398121833801,-0.2725607454776764
11.9,-0.296823114156723,-0.9801397919654846,-0.5419088006019592,-0.7701780796051025,-1.0030347108840942,0.8064295053482056
11.95,-2.829103946685791,3.771430253982544,2.5258288383483887,-1.6282058954238892,-1.6388407945632935,0.9710868000984192
12.0,-2.5497264862060547,3.337592363357544,1.3228193521499634,-0.5036377310752869,-0.6121114492416382,0.124385304749012
12.05,-0.9972642660140991,0.6022597551345825,-0.7940883040428162,-0.052835457026958466,-0.3312574028968811,-0.44864317774772644
12.1,-1.234514832496643,0.8450366854667664,-0.4387437105178833,-0.8478952050209045,-1.1325421333312988,-0.44129425287246704
12.15,-2.3212051391601562,2.783738374710083,0.268437922000885,-1.436614751815796,-1.6730812788009644,-0.653813362121582
12.2,-1.490720272064209,2.888012170791626,0.36059409379959106,-0.8158385753631592,-1.2312068939208984,-1.244879961013794
12.25,-0.6425489187240601,2.0789902210235596,1.1394189596176147,0.5193148255348206,-0.599095344543457,-1.6477656364440918
12.3,0.5063027143478394,-0.05187422037124634,0.6115201115608215,1.2190918922424316,-0.16600486636161804,-1.7442692518234253
12.35,0.194929838180542,-0.6764404773712158,2.075727939605713,1.284628987312317,-0.34282296895980835,-1.588086485862732
12.4,0.7300019264221191,-3.303870439529419,1.745917797088623,1.583145260810852,-0.2692587673664093,-1.3170931339263916
12.45,1.444588541984558,-5.851041793823242,-0.9481504559516907,1.3219959735870361,-0.1440795660018921,-0.8044239282608032
12.5,0.5645595192909241,-4.742985248565674,-1.0525271892547607,0.6520118713378906,-0.3537890613079071,-0.07774203270673752
12.55,-0.7101491093635559,1.3386173248291016,1.5403965711593628,0.15102329850196838,-0.6565350890159607,0.44503921270370483
12.6,-1.3235920667648315,4.526674747467041,2.0878102779388428,-0.3684735894203186,-0.33870118856430054,0.15389886498451233
12.65,-0.972839891910553,2.5293848514556885,0.9565104842185974,-0.869890034198761,0.10239511728286743,-0.5148294568061829
12.7,1.0059410333633423,-3.9476163387298584,-1.7993948459625244,-0.26839789748191833,0.2041127234697342,-0.5117577910423279
12.75,0.7408098578453064,-3.3668527603149414,-0.5531840324401855,0.28743070363998413,-0.12262459099292755,-0.12058567255735397
12.8,0.32538947463035583,-3.4546027183532715,-0.05956326797604561,0.47837892174720764,-0.1780126690864563,0.4543883204460144
12.85,0.44477105140686035,-2.9127085208892822,-0.6264631152153015,-0.6143569350242615,-0.07836512476205826,0.9890737533569336
12.9,-0.4870811104774475,0.3100995719432831,0.7284154295921326,-1.9685122966766357,-0.43891799449920654,1.2253495454788208
12.95,-0.04894895479083061,1.335153579711914,1.8342931270599365,-0.7857698202133179,-0.36229193210601807,1.3796882629394531
13.0,0.5768873691558838,0.5252494215965271,1.3508275747299194,0.6298955678939819,0.2888214886188507,1.4721486568450928
13.05,0.30481770634651184,1.2130995988845825,0.49440792202949524,0.27733051776885986,0.5946858525276184,1.3429793119430542
13.1,-1.5363214015960693,3.1531167030334473,1.1118667125701904,-0.24990901350975037,0.36396950483322144,1.3934767246246338
13.15,-3.0220799446105957,4.620937824249268,0.7126632332801819,-0.8322411179542542,-0.09056467562913895,0.6787704825401306
13.2,-2.0032434463500977,4.049981594085693,-1.5578659772872925,-1.1505606174468994,-0.5457314848899841,-0.16918198764324188
13.25,-1.0077053308486938,3.161365032196045,-0.5080490112304688,-0.5360180735588074,-0.4665645360946655,-0.7412452101707458
13.3,-0.47604966163635254,1.5729647874832153,1.3764485120773315,0.7223361134529114,-0.08769652247428894,-1.1013157367706299
13.35,-0.15667368471622467,-0.07962915301322937,2.2222766876220703,1.872205138206482,0.3311852216720581,-1.0664100646972656
13.4,0.15749365091323853,-1.6246312856674194,1.6906629800796509,2.018392324447632,0.3631903827190399,-0.9004371166229248
13.45,0.6241171360015869,-2.805009126663208,0.47259512543678284,1.1044889688491821,0.17247866094112396,-0.7174391746520996
13.5,1.1506168842315674,-3.6002252101898193,-1.5412169694900513,-0.07318171113729477,-0.22276808321475983,-0.4638773500919342
13.55,-0.48118939995765686,0.2067221850156784,1.0859827995300293,-0.6623864769935608,-0.7646998763084412,-0.09035038203001022
13.6,-1.4634181261062622,2.8886871337890625,2.541978120803833,-0.06304746121168137,-0.5727184414863586,0.006891260854899883
13.65,-0.9058733582496643,1.3510457277297974,0.6057397723197937,0.5157052874565125,0.00892819743603468,-0.1794452965259552
13.7,0.255031555891037,-0.9819823503494263,0.03384582698345184,0.3884231448173523,0.07918664067983627,-0.3031941056251526
13.75,0.9584737420082092,-2.2671797275543213,-0.23666153848171234,0.2538672089576721,-0.10415828227996826,-0.1942053735256195
13.8,0.550648033618927,-1.7437450885772705,0.5992887020111084,0.07114239782094955,-0.2910586893558502,-0.043946314603090286
13.85,0.31448686122894287,-3.22969388961792,0.530331015586853,-0.27835580706596375,-0.3292016386985779,0.10116919875144958
13.9,2.1596133708953857,-3.856518268585205,0.12948645651340485,-0.8449898362159729,-0.49094972014427185,0.5999743342399597
13.95,2.174947738647461,-1.276053547859192,0.6510369777679443,-1.2493735551834106,-1.1436553001403809,1.1227989196777344
14.0,0.5619142055511475,1.5532923936843872,1.8813947439193726,-0.9091094136238098,-1.2749179601669312,1.538743257522583
14.05,-1.875531554222107,2.0916013717651367,2.223172426223755,-0.1407220959663391,-0.5324796438217163,1.795867681503296
14.1,-2.7116262912750244,0.6379678249359131,3.0226306915283203,0.8576176762580872,0.7389830946922302,2.0149505138397217
14.15,-1.8993699550628662,1.390955924987793,1.3402788639068604,0.8878777027130127,1.5364525318145752,1.9623135328292847
14.2,-1.8217418193817139,1.1225329637527466,0.41991347074508667,0.08389750868082047,1.1649127006530762,1.2745071649551392
14.25,-1.4439759254455566,1.6136926412582397,-0.7593422532081604,-0.6519432067871094,0.6305110454559326,0.7572526335716248
14.3,-1.108137845993042,0.7868873476982117,-0.5829853415489197,-0.40410661697387695,0.40901240706443787,0.4335126578807831
14.35,1.6263823509216309,-1.3722219467163086,-1.287298321723938,0.07478944957256317,0.5517588257789612,0.5698519349098206
14.4,2.226635694503784,-1.9765774011611938,-1.650334119796753,-0.13003642857074738,0.06617400795221329,1.0048513412475586
14.45,1.3449345827102661,-0.7631931304931641,-1.3216866254806519,-0.41020625829696655,-0.7027561664581299,1.465040683746338
14.5,-0.7755889892578125,0.3035193383693695,-0.6645867824554443,-0.30051594972610474,-1.0590853691101074,1.936638355255127
14.55,-1.721100926399231,-0.006156029179692268,0.6470277905464172,0.42148062586784363,-0.22764380276203156,2.5731306076049805
14.6,-0.6489489674568176,-1.1784765720367432,1.1788923740386963,0.7470194697380066,0.7903350591659546,3.0987651348114014
14.65,-0.8470277190208435,-0.16081257164478302,1.9965604543685913,0.24343177676200867,0.6783018708229065,3.365173816680908
14.7,-2.1614015102386475,-0.39553749561309814,0.710933268070221,-0.2698833644390106,-0.7768142223358154,2.642627000808716
14.75,-3.276252508163452,0.05184638500213623,1.3594268560409546,-0.49152374267578125,-1.7483768463134766,1.5697479248046875
14.8,-2.087320566177368,-0.04564187303185463,-0.3615395128726959,-0.6164065599441528,-2.0576767921447754,0.7895455360412598
14.85,-4.10161018371582,0.014888753183186054,0.0654425099492073,-0.5303163528442383,-1.6035020351409912,0.4052254259586334
14.9,-2.9763004779815674,0.11386196315288544,0.94605553150177,-0.7733537554740906,0.07863093912601471,-0.047130782157182693
14.95,-1.977514386177063,0.5773314833641052,1.2261264324188232,-0.953563392162323,0.5615459084510803,-0.6208403706550598
15.0,-1.5315340757369995,1.747427225112915,0.049036599695682526,-0.9569219946861267,0.020510466769337654,-1.0890403985977173
15.05,-0.8803588151931763,2.0742828845977783,-0.573241114616394,-0.7701122760772705,-0.45798197388648987,-1.3898382186889648
15.1,-0.1500127911567688,2.0927631855010986,-0.3895467519760132,-0.635217547416687,-0.4975457787513733,-1.4339983463287354
15.15,0.6302365660667419,1.7663910388946533,-0.30534905195236206,-0.43673333525657654,-0.0150798000395298,-1.3192731142044067
15.2,1.0146620273590088,1.0787583589553833,-0.5827245116233826,-0.17251577973365784,0.38619622588157654,-1.144680142402649
15.25,2.478872776031494,-0.1599130630493164,-0.08781756460666656,0.07312777638435364,0.3201002776622772,-0.9444301724433899
15.3,3.0600738525390625,0.29253485798835754,-0.07810109853744507,0.10987180471420288,-0.0035529874730855227,-0.2884491980075836
15.35,0.3810213804244995,0.4427862763404846,0.03499177470803261,0.14964625239372253,-0.4902132749557495,0.061538830399513245
15.4,-1.9464198350906372,0.0984000712633133,0.6294986605644226,0.04944644123315811,-0.6438666582107544,-0.14408151805400848
15.45,-2.540090799331665,0.21964073181152344,0.3653658330440521,-0.01899532414972782,-0.35948389768600464,-0.5809599161148071
15.5,-2.44415283203125,0.515121579170227,-0.6345430612564087,0.12200409173965454,0.18406394124031067,-1.0499093532562256
15.55,-1.6871360540390015,0.5978899002075195,0.3204934895038605,0.3539010286331177,0.49124327301979065,-1.4829437732696533
15.6,-0.32261961698532104,-0.5228205919265747,0.8927860260009766,0.4606201946735382,0.8065683841705322,-1.6060538291931152
15.65,1.4619213342666626,-1.7163909673690796,0.9452158808708191,0.37059739232063293,0.9124242067337036,-1.3219178915023804
15.7,2.546083927154541,-2.7718732357025146,0.6103939414024353,0.18848218023777008,0.7277236580848694,-0.6364399194717407
15.75,2.4905221462249756,-2.5589377880096436,0.11889419704675674,-0.10709413886070251,0.16473160684108734,0.28991514444351196
15.8,1.4869027137756348,-1.5516217947006226,0.7387212514877319,-0.441789448261261,-0.6627015471458435,1.048071265220642
15.85,-0.184722438454628,-0.06514271348714828,0.8242070078849792,-0.8720482587814331,-1.3118455410003662,1.5909212827682495
15.9,-3.4675381183624268,0.1661539524793625,-0.40352746844291687,-0.8979365825653076,-1.609211802482605,1.5722229480743408
15.95,-3.0629420280456543,1.0930339097976685,0.2653677761554718,-0.5252178907394409,-0.3792741894721985,0.9729074835777283
16.0,0.8448242545127869,0.9277840852737427,-0.03196191042661667,-0.13216695189476013,1.1137065887451172,0.3284744322299957
16.05,1.428135871887207,1.0587674379348755,-0.2956828474998474,-0.20502781867980957,0.7279589772224426,0.3492720127105713
16.1,-0.9316303730010986,1.5439255237579346,-0.055144455283880234,-0.30972734093666077,-0.25939860939979553,0.37152937054634094
16.15,-1.649824619293213,1.6541732549667358,-0.8400452733039856,-0.17646990716457367,-0.2515020966529846,0.11652002483606339
16.2,-1.811703085899353,1.504050612449646,-1.3156332969665527,0.35712242126464844,0.18897263705730438,-0.39005178213119507
16.25,-0.8619760870933533,0.5947333574295044,-0.44353243708610535,0.4849058985710144,-0.22478698194026947,-0.8969148993492126
16.3,0.20152075588703156,0.21477992832660675,-0.5553117394447327,0.4349973499774933,-0.7646036744117737,-0.9640263319015503
16.35,-0.6673056483268738,0.264739990234375,0.44725725054740906,0.4884037375450134,-1.119493007659912,-1.147981882095337
16.4,0.8399745225906372,-0.7169924974441528,1.0015525817871094,0.486000120639801,-0.6834428310394287,-1.4262580871582031
16.45,0.9227589964866638,-1.4568501710891724,0.5901198983192444,0.512769877910614,-0.17018882930278778,-1.2649803161621094
16.5,0.9202820658683777,-1.6521217823028564,0.08128173649311066,0.5097222328186035,0.12037575989961624,-0.7142842411994934
16.55,-1.0364810228347778,-1.3015282154083252,1.5075353384017944,0.532164990901947,0.07142108678817749,-0.09587682038545609
16.6,-1.0862668752670288,-1.176672101020813,0.4459080398082733,0.3529016375541687,0.3774605989456177,0.20402827858924866
16.65,-1.3917746543884277,-0.8332026600837708,1.8759586811065674,0.1130295917391777,0.20146061480045319,0.09903507679700851
16.7,-0.5861808061599731,-0.6201791763305664,-0.5181615948677063,-0.8650820851325989,-0.28717535734176636,0.05500197038054466
16.75,0.6668736338615417,-1.5622788667678833,-0.7512212991714478,-1.260595440864563,-0.7366145849227905,0.05325434356927872
16.8,0.974402129650116,0.631698727607727,-0.6287567019462585,-1.171212077140808,-0.7824009656906128,0.6049625873565674
16.85,-1.2123301029205322,2.011807680130005,-0.17696483433246613,-0.17178548872470856,0.23119446635246277,0.8001708984375
16.9,-0.016839561983942986,0.9837639331817627,-1.5657554864883423,0.32801976799964905,0.9767661690711975,0.4005526304244995
16.95,-1.8261241912841797,2.5224363803863525,-0.9543718695640564,-0.10634362697601318,-0.036257170140743256,0.20496024191379547
17.0,-1.3998266458511353,2.19832444190979,-0.9279087781906128,0.12600746750831604,-0.17041514813899994,-0.19496193528175354
17.05,-0.4204925000667572,1.0541125535964966,-0.6073768138885498,0.6420137882232666,0.17830131947994232,-0.5299469232559204
17.1,1.2633854150772095,-0.2968282997608185,-0.02002515085041523,0.5195293426513672,0.06930933892726898,-0.5350500345230103
17.15,0.24712318181991577,-0.44798481464385986,0.7802398204803467,0.3094949722290039,-0.3989175260066986,-0.42572468519210815
17.2,0.9557592272758484,-1.0300095081329346,0.6958534121513367,0.39883989095687866,-0.0869252011179924,-0.4756733775138855
17.25,0.4939059615135193,-1.4407474994659424,0.9203823804855347,0.5474357008934021,0.4679172933101654,-0.48880255222320557
17.3,0.05267757922410965,-1.3546420335769653,0.28257620334625244,0.5658671259880066,1.0516647100448608,-0.2569003403186798
17.35,-0.0779845267534256,-2.2388367652893066,1.424573302268982,0.4546680152416229,0.7198213338851929,0.23680967092514038
17.4,-0.20775088667869568,-1.3904515504837036,0.49230054020881653,-0.07078778743743896,0.0987648069858551,0.4955339729785919
17.45,-0.40954017639160156,-1.057303547859192,-0.3085234761238098,-0.6563181281089783,-0.8572850823402405,0.7026454210281372
17.5,-0.8607887029647827,-0.23334309458732605,-0.6988937258720398,-0.7924308180809021,-1.2121505737304688,0.7650575041770935
17.55,-0.9538228511810303,0.27733224630355835,1.0642637014389038,-0.28136613965034485,-0.7399541735649109,0.2537974715232849
17.6,1.6985816955566406,-0.04632001742720604,0.596328616142273,0.14943525195121765,0.39315423369407654,0.21514686942100525
17.65,1.400763750076294,0.6554804444313049,0.3409571945667267,0.4129948616027832,0.530079185962677,0.30074694752693176
17.7,0.10980644077062607,1.4471007585525513,0.16587525606155396,0.203924760222435,0.32992616295814514,0.3413234055042267
17.75,0.8215644955635071,1.0497933626174927,0.1785927414894104,0.2226306051015854,0.27107036113739014,0.23053894937038422
17.8,-0.49389830231666565,1.9913733005523682,-0.2915000319480896,0.34965428709983826,0.1793503314256668,0.18524490296840668
17.85,-0.9954598546028137,1.9013111591339111,-0.6319144368171692,0.4157298505306244,0.04382435977458954,-0.1332055628299713
17.9,-0.9855989217758179,1.6041643619537354,-0.33008918166160583,0.4287898540496826,-0.28172340989112854,-0.4580608010292053
17.95,0.05155157297849655,0.6080942749977112,-0.024199748411774635,0.2890373170375824,-0.5835290551185608,-0.7787231802940369
18.0,1.0407593250274658,0.5777464509010315,-0.07337232679128647,0.3181819021701813,-0.6296067237854004,-0.8710761666297913
18.05,0.5111042261123657,0.7132358551025391,0.4730953276157379,0.5633093118667603,-0.6343932151794434,-1.0395182371139526
18.1,0.8524060249328613,0.4998769760131836,0.8391447067260742,0.8796473741531372,-0.27458643913269043,-1.053233027458191
18.15,0.8129146099090576,-0.3593713939189911,2.024667739868164,1.0550984144210815,0.01597592607140541,-1.001378059387207
18.2,1.6990474462509155,-1.339290976524353,2.2005627155303955,1.1114847660064697,0.4333929419517517,-0.5437799692153931
18.25,1.8159494400024414,-1.7872718572616577,1.5743738412857056,0.74141526222229,0.3181183636188507,-0.0012676012702286243
18.3,0.7834793329238892,-1.1199133396148682,1.6764781475067139,0.43446511030197144,0.15081267058849335,0.45288607478141785
18.35,0.33247092366218567,-0.5156719088554382,1.581460952758789,0.2761631906032562,0.070806123316288,0.699952244758606
18.4,-0.4305005669593811,-0.3642559349536896,-0.15164536237716675,-0.8614152073860168,-0.6294928789138794,0.6911376714706421
18.45,-2.648071050643921,-2.2056050300598145,1.9128490686416626,-0.8339840769767761,-0.6869370937347412,0.36837825179100037
18.5,0.8166313171386719,-2.0316691398620605,2.670583486557007,-0.24598033726215363,0.7087056040763855,0.901746928691864
18.55,1.8797738552093506,-0.9390450716018677,0.10883039236068726,-0.1428561955690384,1.0676214694976807,1.3071235418319702
18.6,1.7939330339431763,0.1389876753091812,-1.3580501079559326,-0.7599011659622192,0.5245970487594604,1.143928050994873
18.65,-0.22620393335819244,1.9634315967559814,-0.16350652277469635,-1.026111125946045,-0.44464126229286194,0.950039267539978
18.7,-0.8886760473251343,2.68223237991333,-2.8236265182495117,-0.8571569919586182,-0.3290266990661621,0.874527633190155
18.75,-1.0425766706466675,2.1640982627868652,-2.3584792613983154,-0.4658670127391815,-0.49597716331481934,0.6703159213066101
18.8,-2.0880236625671387,2.49686861038208,-1.4526453018188477,0.07668114453554153,-0.5697368383407593,0.3101390600204468
18.85,-1.044511079788208,1.6919931173324585,-1.1187329292297363,0.4160293638706207,-0.3995624780654907,-0.06547579169273376
18.9,-1.627449870109558,1.7819063663482666,-0.3846157491207123,0.5727241039276123,-0.6109331250190735,-0.5210879445075989
18.95,-0.48967844247817993,0.751937985420227,-0.24090860784053802,0.7013033032417297,-0.44140300154685974,-0.9888678789138794
19.0,-0.957075834274292,0.5713253617286682,0.25679439306259155,0.8020094633102417,-0.2932189404964447,-1.1813682317733765
19.05,-0.4273497462272644,-0.5813285112380981,0.6553046703338623,0.9934268593788147,0.26386675238609314,-1.048696517944336
19.1,0.24757829308509827,-1.6966203451156616,1.044904112815857,1.0702435970306396,0.6915477514266968,-0.5936177372932434
19.15,0.7486492395401001,-2.598153829574585,1.1806135177612305,0.8173824548721313,0.6517513394355774,-0.074884794652462
19.2,0.3080723285675049,-1.849732756614685,0.943792998790741,0.3216184377670288,0.28511762619018555,0.4384879469871521
19.25,-0.42251062393188477,-1.4705259799957275,0.8375176191329956,-0.3570166230201721,-0.400287926197052,0.5880455374717712
19.3,-1.3049157857894897,-0.9682151675224304,0.6911571621894836,-0.8338824510574341,-0.5189298391342163,0.7962414026260376
19.35,-0.24125953018665314,-0.6731615662574768,0.010038831271231174,-1.1770330667495728,-0.29315176606178284,0.8081614375114441
19.4,0.27226051688194275,-1.2939530611038208,0.12668025493621826,-0.8577842116355896,0.5912078022956848,1.0277007818222046
19.45,1.0325508117675781,0.08487703651189804,-0.14027799665927887,-0.6842117309570312,1.1889958381652832,0.9845489859580994
19.5,-0.304945170879364,1.9601024389266968,-0.9566758871078491,-0.6793591380119324,1.0096771717071533,0.6718002557754517
19.55,-1.1848986148834229,2.74403977394104,-0.5421406030654907,-0.3992345333099365,0.6643983721733093,0.11873018741607666
19.6,1.436486840248108,0.7138949632644653,-0.9648560285568237,0.02632847987115383,1.1239453554153442,-0.12489619106054306
19.65,1.1531893014907837,1.3152353763580322,-1.232926368713379,0.13018858432769775,0.6362156271934509,-0.03971889987587929
19.7,-0.9470720887184143,1.6295474767684937,-1.0762348175048828,0.073924720287323,-0.40785863995552063,-0.2454630732536316
19.75,-2.363678455352783,1.54097580909729,-0.12896676361560822,0.022834807634353638,-0.8372825980186462,-0.8047071695327759
19.8,-1.255110740661621,1.2800370454788208,-0.24611754715442657,0.32160842418670654,-0.1324155479669571,-1.2817994356155396
19.85,-0.7333537936210632,0.5464382767677307,0.13101528584957123,0.5618855953216553,0.17340444028377533,-1.669459581375122
19.9,-0.8472708463668823,-0.44578659534454346,0.7659000158309937,0.5372605919837952,0.2365751415491104,-1.7576320171356201
19.95,-0.23440837860107422,-1.341243028640747,0.7851365804672241,0.5529079437255859,0.5693941116333008,-1.4544168710708618
20.0,0.46244215965270996,-2.422762632369995,0.37324172258377075,0.5559961199760437,0.7596657872200012,-0.8324444890022278
20.05,0.4863622486591339,-3.0102458000183105,0.20825043320655823,0.3241179585456848,0.5287884473800659,-0.15764376521110535
20.1,0.234516441822052,-1.483021855354309,-0.37090179324150085,-0.27641043066978455,-0.05160084366798401,0.4209270179271698
20.15,-1.254226565361023,0.06556124985218048,0.5537845492362976,-0.8954432606697083,-0.914584755897522,0.6310070157051086
20.2,-1.6276158094406128,-0.19537265598773956,0.5353606343269348,-0.7803753614425659,-0.5468180775642395,0.6642624735832214
20.25,-0.7169824242591858,0.24635599553585052,0.421268492937088,-0.3896333873271942,0.34044110774993896,0.6789791584014893
20.3,0.3211740553379059,0.42543795704841614,0.3734990656375885,-0.0834726095199585,0.8874657154083252,0.6542596817016602
20.35,0.5196889638900757,0.943856418132782,-0.8648632168769836,-0.30082786083221436,0.68696129322052,0.5221794247627258
20.4,0.27521583437919617,0.7779905200004578,-0.9732319116592407,-0.488740473985672,-0.05977319926023483,0.3574087619781494
20.45,-0.4931223690509796,1.6953060626983643,0.01876823790371418,-0.3638838529586792,-0.35695675015449524,0.20957016944885254
20.5,-0.6676970720291138,1.531489610671997,0.15140241384506226,-0.1939813196659088,-0.27018773555755615,-0.09615855664014816
20.55,-0.6415974497795105,1.1300650835037231,0.16216495633125305,-0.23398417234420776,-0.432860404253006,-0.48933207988739014
20.6,-1.111482858657837,1.312069058418274,0.2923559844493866,-0.10020900517702103,-0.442585289478302,-0.8277398943901062
20.65,-0.3468571901321411,0.8650570511817932,0.6650797128677368,0.2832082211971283,-0.054080214351415634,-1.128223180770874
20.7,0.427116334438324,-0.14793498814105988,0.6474443674087524,0.667593777179718,0.34832435846328735,-1.1373440027236938
20.75,1.1100943088531494,-0.7467242479324341,0.7850197553634644,0.887054979801178,0.4654758870601654,-0.8276995420455933
20.8,1.0543264150619507,-1.7475961446762085,1.2936819791793823,0.982159435749054,0.3727186322212219,-0.4024460017681122
20.85,1.6228140592575073,-2.767416477203369,1.6175838708877563,0.755944550037384,0.2598682641983032,0.20862771570682526
20.9,1.6493709087371826,-0.536909282207489,1.1192954778671265,0.10946322232484818,-0.21738596260547638,0.8286008238792419
20.95,0.8191981911659241,-0.4646073281764984,0.39229583740234375,-0.7652589082717896,-1.1364529132843018,1.0569758415222168
21.0,-1.087524652481079,1.5599178075790405,-1.382476806640625,-1.3119099140167236,-1.6869794130325317,1.3440585136413574
21.05,-2.9743027687072754,1.6131280660629272,-0.9560757875442505,-0.4961088001728058,-0.8238693475723267,1.1420037746429443
21.1,-0.7379665374755859,-0.1760178655385971,1.0059963464736938,0.6779209971427917,0.7557075619697571,0.780410647392273
21.15,1.968505859375,-0.9535208344459534,-0.5339661836624146,0.5137026309967041,0.8395735621452332,0.6500848531723022
21.2,-0.4293535649776459,1.0955936908721924,-1.2668750286102295,-0.15591059625148773,-0.3664942681789398,0.5132691264152527
21.25,-2.4005320072174072,1.754497766494751,-0.6045864224433899,-0.18069352209568024,-0.845335066318512,0.018617743626236916
21.3,-1.6992251873016357,1.0915615558624268,-0.8040639758110046,0.3135431706905365,-0.38364937901496887,-0.4667119085788727
21.35,-1.3001424074172974,0.7957813739776611,-1.2824736833572388,0.5005407333374023,-0.368746280670166,-0.8958795070648193
21.4,-2.093874454498291,1.4564411640167236,-1.0055941343307495,0.3644150495529175,-0.8241221904754639,-1.4625396728515625
21.45,-1.4959660768508911,1.9841426610946655,-1.161288857460022,0.3922902047634125,-0.6895313858985901,-1.8349759578704834
21.5,-0.9075244665145874,1.42519211769104,-1.1681404113769531,0.553827166557312,-0.3700917065143585,-1.8918724060058594
21.55,-0.7855979800224304,0.48697003722190857,-0.5087621212005615,0.7544064521789551,-0.18652334809303284,-1.8809618949890137
21.6,-0.725691020488739,-0.5710116028785706,0.28125983476638794,0.9373165369033813,0.03012077324092388,-1.7574126720428467
21.65,-0.39708608388900757,-0.8576967120170593,0.37198954820632935,0.959418773651123,0.32001373171806335,-1.4640146493911743
21.7,0.07288504391908646,-1.036246418952942,0.07303410023450851,0.8063277006149292,0.5560692548751831,-1.0891298055648804
21.75,0.5027934908866882,-0.729617178440094,-0.27120909094810486,0.47714921832084656,0.5563522577285767,-0.7955614328384399
21.8,0.29946357011795044,-0.8115130066871643,-0.3769776523113251,0.2362050563097,0.44032442569732666,-0.6478798389434814
21.85,-0.26028263568878174,-0.2810717225074768,0.3426298499107361,0.40642720460891724,0.44148582220077515,-0.4278436303138733
21.9,-0.4383707046508789,-0.3715544641017914,0.7828685641288757,0.6807152032852173,0.5163760185241699,-0.30734390020370483
21.95,-0.22270141541957855,-0.3793402910232544,0.5507492423057556,0.6502434015274048,0.6534431576728821,-0.23747307062149048
22.0,0.0909261479973793,0.08917617052793503,0.18165473639965057,0.21685168147087097,0.6356315016746521,-0.2896086871623993
22.05,-0.2593619227409363,1.0584079027175903,0.6438709497451782,-0.3752734959125519,0.4830222427845001,-0.4718553125858307
22.1,-0.13007384538650513,0.5959453582763672,0.7253007292747498,-0.3762010335922241,0.5076887607574463,-0.6403548717498779
22.15,0.28498488664627075,0.03238580375909805,0.28723326325416565,-0.09199845045804977,0.5288951396942139,-0.5993092060089111
22.2,0.8282316327095032,-0.9971877336502075,-0.25995954871177673,-0.019734548404812813,0.44924360513687134,-0.5522573590278625
22.25,1.0229086875915527,-1.3355475664138794,-0.15613816678524017,-0.34593600034713745,0.2213442027568817,-0.4142303168773651
22.3,0.9796707034111023,-1.7566883563995361,-0.035941630601882935,-0.5379096269607544,0.016192948445677757,-0.22559112310409546
22.35,0.6386649012565613,-1.6241428852081299,0.23002241551876068,-0.556361973285675,-0.12430253624916077,0.05965443328022957
22.4,0.2847188115119934,0.243527352809906,1.0594154596328735,-0.40741077065467834,-0.17609389126300812,0.32107579708099365
22.45,0.048589859157800674,1.4783811569213867,0.9658921957015991,-0.275073766708374,-0.050096314400434494,0.2782309055328369
22.5,-0.047767411917448044,1.4271020889282227,0.7288729548454285,-0.23299740254878998,0.12501929700374603,0.10785679519176483
22.55,0.11625856161117554,0.6753024458885193,1.3209311962127686,-0.05334961786866188,0.22638003528118134,-0.04803317412734032
22.6,0.5806276798248291,-2.121103048324585,0.43403860926628113,0.04907281696796417,0.36045029759407043,-0.07535181939601898
22.65,1.2721248865127563,-3.7815868854522705,-1.3575299978256226,-0.4922277331352234,0.21137240529060364,0.24727945029735565
22.7,1.343817114830017,-0.41100212931632996,-0.8966267704963684,-0.9942517876625061,-0.3744160532951355,0.6495578289031982
22.75,-0.24952368438243866,2.173548698425293,1.9648144245147705,-0.25669822096824646,-0.5712067484855652,0.7257357239723206
22.8,-1.093182921409607,1.637537956237793,2.5031826496124268,1.1143430471420288,0.3897054195404053,0.7968149781227112
22.85,-0.3434143662452698,0.37038132548332214,0.7046415209770203,1.2957688570022583,0.9242360591888428,0.8227253556251526
22.9,-0.5027409195899963,0.6848049759864807,-0.16460955142974854,0.054121460765600204,0.49878743290901184,0.6357355117797852
22.95,-1.050004005432129,1.922222375869751,0.05206119641661644,-0.9066057205200195,-0.039380792528390884,0.3972557783126831
23.0,-0.9796972274780273,3.1821818351745605,-0.4212150573730469,-0.5907524228096008,-0.042103637009859085,-0.0025210706517100334
23.05,-0.5021453499794006,1.5775177478790283,0.20623187720775604,0.14596085250377655,0.16892991960048676,-0.4877553880214691
23.1,0.049528542906045914,0.27521422505378723,0.16020333766937256,0.5970582365989685,0.366016149520874,-0.7018870711326599
23.15,0.17278747260570526,-0.02431013062596321,0.16703617572784424,0.48088669776916504,0.30081018805503845,-0.7474555373191833
23.2,0.22767914831638336,-0.4271402955055237,-0.07219690829515457,0.3046512305736542,0.2630568742752075,-0.7464694380760193
23.25,0.29019638895988464,-0.718754768371582,-0.401632696390152,0.23721079528331757,0.22324435412883759,-0.6410582065582275
23.3,0.4398108720779419,-1.514424443244934,-0.660728931427002,0.4396531283855438,0.16377733647823334,-0.4632706046104431
23.35,0.34646689891815186,-2.418205499649048,-0.8427155017852783,0.6258812546730042,0.01814216934144497,-0.11662828922271729
23.4,0.32889655232429504,-1.975832223892212,-0.39195483922958374,0.3207470774650574,-0.14501117169857025,0.29790547490119934
23.45,0.15533094108104706,-0.8730136156082153,0.21778661012649536,0.16902975738048553,-0.2582285702228546,0.6823618412017822
23.5,0.26066070795059204,-0.5545740723609924,-0.052408307790756226,0.23902957141399384,-0.23354385793209076,0.8983072638511658
23.55,-0.03297579288482666,0.28505802154541016,0.30660903453826904,0.01945400983095169,-0.3096540868282318,1.0046554803848267
23.6,-0.5228070616722107,1.057084083557129,0.9408292770385742,-0.3728750944137573,-0.3947699964046478,0.9827870726585388
23.65,-0.7152762413024902,0.9899663925170898,1.0198780298233032,-0.8946903944015503,-0.4824684262275696,0.7786608934402466
23.7,-0.3441517949104309,0.25980472564697266,0.26172399520874023,-1.1658433675765991,-0.4479913115501404,0.6158729195594788
23.75,-0.09295042604207993,0.021090466529130936,0.47858548164367676,-0.6683546900749207,-0.14443248510360718,0.6480619311332703
23.8,-0.6214668154716492,0.49629780650138855,1.0874520540237427,0.06280317157506943,0.33260783553123474,0.693921685218811
23.85,-0.9300657510757446,0.9665966629981995,0.44943705201148987,0.1841062754392624,0.5166738629341125,0.5723986029624939
23.9,-0.8400367498397827,1.4392720460891724,0.08438755571842194,-0.1143297553062439,0.4216046631336212,0.36397889256477356
23.95,-0.5556955933570862,1.0021411180496216,-0.450019896030426,-0.11724477261304855,0.4040760397911072,0.12438689172267914
24.0,-0.0008407942950725555,0.3027735650539398,-0.687117338180542,0.21533289551734924,0.48613905906677246,-0.0494619756937027
24.05,0.35150831937789917,-0.4883565604686737,-1.0368274450302124,0.47467419505119324,0.4091233015060425,-0.03565157949924469
24.1,0.17138546705245972,-0.4665069580078125,-0.7730335593223572,0.5198901891708374,0.11542436480522156,0.1750151365995407
24.15,-0.04452066496014595,-0.1740083545446396,-0.3689996302127838,0.6445646286010742,-0.0680631771683693,0.37208715081214905
24.2,-0.11973922699689865,-0.05985165759921074,0.018914107233285904,0.8775359392166138,-0.08728241175413132,0.5538270473480225
24.25,-0.08846119046211243,-0.07358651608228683,0.4787634313106537,0.9846832156181335,-0.09579183161258698,0.7225525379180908
24.3,-0.21758760511875153,0.06440256536006927,0.27970772981643677,0.8109581470489502,-0.19841109216213226,0.8270620107650757
24.35,-0.7506575584411621,0.7360086441040039,0.40592122077941895,0.5644027590751648,-0.4322164058685303,0.7972959876060486
24.4,-0.9394638538360596,1.0512953996658325,0.4521440267562866,0.42481759190559387,-0.507159411907196,0.649815022945404
24.45,-0.9850722551345825,1.1589423418045044,0.5602931380271912,0.4227921664714813,-0.45629939436912537,0.43463408946990967
24.5,-0.9423569440841675,0.8780451416969299,0.6180522441864014,0.5298591256141663,-0.3723725974559784,0.2342292070388794
24.55,-0.4823339879512787,0.48842334747314453,0.7430449724197388,0.501578152179718,-0.3270624577999115,0.06610799580812454
24.6,-0.4752178490161896,0.221766397356987,1.1352676153182983,0.2778187394142151,-0.3736521303653717,-0.11889459192752838
24.65,-0.44359782338142395,0.04232681915163994,1.2508498430252075,0.008459297008812428,-0.2922980785369873,-0.2974837124347687
24.7,-0.32066822052001953,-0.07794106006622314,1.2272840738296509,-0.22225381433963776,-0.09711628407239914,-0.43269094824790955
24.75,-0.02500074915587902,-0.21603786945343018,1.0347074270248413,-0.3534199595451355,0.1410650908946991,-0.4816046357154846
24.8,0.2584114074707031,-0.37214764952659607,0.8269401788711548,-0.38828614354133606,0.35211804509162903,-0.4343937635421753
24.85,0.5312389135360718,-0.49522221088409424,0.5365789532661438,-0.4597710967063904,0.3902161717414856,-0.28809183835983276
24.9,0.5839147567749023,-0.4768591523170471,0.13775230944156647,-0.681591808795929,0.17210952937602997,-0.08471089601516724
24.95,0.5056354999542236,-0.15318013727664948,0.01960858516395092,-0.8036960959434509,-0.05080233886837959,0.12676450610160828
25.0,0.3795490860939026,0.22968299686908722,-0.46637097001075745,-0.721703827381134,-0.24013574421405792,0.3314932584762573
25.05,0.2701249122619629,0.7300730347633362,-0.1781194657087326,-0.5995224118232727,-0.3405453860759735,0.4236062169075012
25.1,-0.23087288439273834,0.854896605014801,0.5019208788871765,-0.4241955280303955,-0.20340405404567719,0.3815806210041046
25.15,-1.1823813915252686,1.2716819047927856,0.5340144634246826,-0.280089795589447,-0.12005966901779175,0.22288987040519714
25.2,-2.0921096801757812,1.7913762331008911,0.9640597701072693,-0.28274625539779663,-0.2081664651632309,-0.21097232401371002
25.25,-1.8657764196395874,1.7181578874588013,1.1679247617721558,-0.300184428691864,-0.1242317482829094,-0.6241645216941833
25.3,-1.0588372945785522,1.0705366134643555,0.9594632387161255,-0.15145456790924072,0.12902212142944336,-0.8824748396873474
25.35,0.20675592124462128,-0.06523804366588593,0.40476614236831665,0.03395751491189003,0.4103572368621826,-0.9875998497009277
25.4,0.6774120926856995,-0.5709791779518127,0.12606798112392426,0.03717997297644615,0.47942107915878296,-0.9067093729972839
25.45,0.5335036516189575,-0.7404680848121643,0.03022303804755211,-0.00691496767103672,0.4155997633934021,-0.7022594809532166
25.5,0.4339999854564667,-0.9466334581375122,-0.23649674654006958,-0.000360855832695961,0.31103384494781494,-0.4418732225894928
25.55,0.5951945185661316,-1.0534648895263672,-0.9950656890869141,-0.09219517558813095,0.0564844124019146,-0.1364143043756485
25.6,0.3785661458969116,-0.40431785583496094,-0.7511526942253113,-0.16741947829723358,-0.34461694955825806,0.08276259899139404
25.65,-0.49966779351234436,0.6643801331520081,0.21374882757663727,-0.05874748155474663,-0.49800825119018555,0.11895917356014252
25.7,-1.1611284017562866,0.9400816559791565,0.888666570186615,0.13843290507793427,-0.23570986092090607,-0.004804256372153759
25.75,-0.9803556799888611,0.765292227268219,0.8156149387359619,0.2565217912197113,0.14499488472938538,-0.17047610878944397
25.8,0.4048274755477905,-0.10305024683475494,-0.029943428933620453,0.26951754093170166,0.3263096809387207,-0.2479526698589325
25.85,1.189465045928955,-1.2757806777954102,-0.9103785157203674,0.22213253378868103,0.061942122876644135,-0.08668415248394012
25.9,0.7547044157981873,-1.2856130599975586,-1.0038267374038696,-0.03773773834109306,-0.5277219414710999,0.2528960704803467
25.95,0.09474420547485352,-0.11543279886245728,0.47356128692626953,-0.3399823009967804,-0.9939939379692078,0.5173413753509521
26.0,-0.8877339959144592,0.47462937235832214,1.0627297163009644,-0.512049674987793,-0.9515640139579773,0.5822334289550781
26.05,-1.8125132322311401,1.6077452898025513,0.9214510917663574,-0.533659040927887,-0.539431095123291,0.394325852394104
26.1,-1.9786945581436157,2.55614972114563,0.7239956855773926,-0.33388635516166687,-0.14159899950027466,-0.025645090267062187
26.15,-1.3696435689926147,2.0431149005889893,-0.1253814995288849,-0.209229975938797,-0.004554540850222111,-0.4995742738246918
26.2,-0.9543570280075073,1.7812778949737549,-0.30686521530151367,-0.06911136209964752,-0.08471053093671799,-0.8274872303009033
26.25,-0.39265233278274536,1.247824788093567,-0.05401547998189926,0.18621592223644257,-0.08064497262239456,-1.036291241645813
26.3,-0.08864002674818039,0.32082268595695496,0.5232826471328735,0.41422903537750244,0.04756306856870651,-1.1541987657546997
26.35,0.36501505970954895,-0.9814655184745789,0.7222156524658203,0.578096866607666,0.2853660583496094,-1.1115384101867676
26.4,0.8343247771263123,-2.0115315914154053,0.06856600195169449,0.5926699638366699,0.4285410940647125,-0.8355196118354797
26.45,0.8258808255195618,-2.442960023880005,-0.4603118598461151,0.5643577575683594,0.338397741317749,-0.43350234627723694
26.5,0.8645170331001282,-3.24367618560791,-0.2982267141342163,0.5070875883102417,0.13621534407138824,0.03482213243842125
26.55,1.4797195196151733,-2.762061357498169,-0.5109391212463379,0.3909991383552551,-0.06679996848106384,0.6200419068336487
26.6,1.270453929901123,-0.3998575210571289,-0.7803041934967041,0.005415642634034157,-0.4557167589664459,1.135986566543579
26.65,-0.7947097420692444,1.7442028522491455,0.45580723881721497,-0.5719845294952393,-0.8712527751922607,1.251442313194275
26.7,-2.862645387649536,3.2042324542999268,1.6592533588409424,-0.5948724746704102,-0.7306865453720093,0.9338719844818115
26.75,-2.5142176151275635,3.296985149383545,1.1290645599365234,-0.15099525451660156,-0.0661553293466568,0.34418582916259766
26.8,-1.1679598093032837,2.1678192615509033,0.09511926770210266,-0.04683036357164383,0.23522940278053284,-0.30537667870521545
26.85,-1.1203551292419434,1.8188965320587158,0.3154523968696594,-0.22438400983810425,0.09798603504896164,-0.7405756115913391
26.9,-1.0262629985809326,1.4463653564453125,0.7863357663154602,-0.056917138397693634,0.2014787793159485,-0.9273016452789307
26.95,-0.2969691753387451,0.3949127495288849,0.48469310998916626,0.29672545194625854,0.45882394909858704,-0.986443817615509
27.0,0.3502770960330963,-0.04405209794640541,-0.3336208462715149,0.2533060312271118,0.489700585603714,-1.020271897315979
27.05,0.4193592071533203,-0.6449251174926758,-0.6663548350334167,-0.14217519760131836,0.2584995627403259,-1.0744606256484985
27.1,0.20448854565620422,-1.7418110370635986,-0.02845311537384987,-0.19083692133426666,0.1467638462781906,-0.9568321704864502
27.15,0.6580799221992493,-3.3519492149353027,-0.2188594937324524,0.33712613582611084,0.21247506141662598,-0.5253252387046814
27.2,1.0556966066360474,-4.552137851715088,-0.5433614253997803,0.6246459484100342,0.2047921121120453,0.05002814158797264
27.25,1.1589038372039795,-3.0052847862243652,-0.37363696098327637,-0.05043712630867958,-0.016884267330169678,0.639209508895874
27.3,0.6653622388839722,-0.8491117358207703,0.40320733189582825,-0.9307496547698975,-0.28324851393699646,0.9704074263572693
27.35,-0.3480825424194336,1.3008356094360352,1.1448036432266235,-0.9933203458786011,-0.2675880193710327,1.1743979454040527
27.4,-1.0460885763168335,2.3074676990509033,1.26069176197052,-0.3242986798286438,0.18150508403778076,1.1560970544815063
27.45,-0.9070696830749512,1.8328992128372192,0.7144352197647095,0.010566042736172676,0.6293596029281616,0.8648567199707031
27.5,-0.43369656801223755,0.7765761613845825,0.2628060579299927,-0.39399680495262146,0.567721426486969,0.5462621450424194
27.55,-0.39796096086502075,0.28162288665771484,0.4479643702507019,-0.7560688853263855,0.2588437795639038,0.446333646774292
27.6,-0.32150471210479736,0.8212615847587585,-0.4357908368110657,-0.6104507446289062,0.20944030582904816,0.40297627449035645
27.65,-0.44722631573677063,1.377162218093872,-1.0169061422348022,-0.3257824182510376,0.07353000342845917,0.30832090973854065
27.7,-0.9531245231628418,1.1418277025222778,0.5523765683174133,0.10080353915691376,-0.07199997454881668,0.14471696317195892
27.75,-0.32740089297294617,-0.09068690240383148,1.0942723751068115,0.5952522158622742,0.27242258191108704,0.03175225481390953
27.8,-0.029467765241861343,-0.16277316212654114,0.16475257277488708,0.4750494956970215,0.3526062071323395,0.06799887120723724
27.85,-0.6268376111984253,0.8640013933181763,0.1830074042081833,-0.12445279210805893,-0.0981033518910408,0.04124796390533447
27.9,-1.1318775415420532,1.370417594909668,0.6672979593276978,-0.29933780431747437,-0.2660893201828003,-0.14514799416065216
27.95,-0.9547342658042908,0.7471857070922852,0.9060965180397034,0.13541686534881592,0.11829294264316559,-0.37654533982276917
28.0,-0.15887890756130219,0.04016111046075821,0.2721923291683197,0.4481176435947418,0.4726548492908478,-0.5020144581794739
28.05,0.3117103576660156,-0.5465403199195862,-0.32557258009910583,0.044092901051044464,0.2061769813299179,-0.4966706931591034
28.1,0.3196907937526703,-0.7007942795753479,-0.009729866869747639,-0.5649724006652832,-0.26544448733329773,-0.4092775583267212
28.15,0.34790435433387756,-0.8328105211257935,0.009096662513911724,-0.6671393513679504,-0.34087058901786804,-0.21132336556911469
28.2,0.48575079441070557,-1.1540652513504028,0.006755949929356575,-0.4028216004371643,-0.2837665379047394,-0.01415244024246931
28.25,0.8044930696487427,-1.700042963027954,-0.2346065193414688,-0.25140058994293213,-0.27941614389419556,0.21383947134017944
28.3,0.3294932544231415,-0.49481114745140076,0.5007668137550354,-0.2087411880493164,-0.39279767870903015,0.4878228008747101
28.35,-0.592376172542572,0.8697758316993713,0.9387311339378357,-0.07867690920829773,-0.2291637510061264,0.5682467818260193
28.4,-0.7466984987258911,1.228415608406067,0.6139354109764099,0.030774859711527824,0.062459547072649,0.37488657236099243
28.45,-0.564566969871521,0.9492093324661255,0.08674486726522446,0.005755807273089886,0.13473200798034668,0.14448216557502747
28.5,-0.41427120566368103,0.5729475617408752,-0.2306538224220276,-0.03320189192891121,0.0485452376306057,-0.009441745467483997
28.55,-0.31424328684806824,0.1467905044555664,0.24239061772823334,0.0971912071108818,-0.019372811540961266,-0.08760606497526169
28.6,0.1777113825082779,-0.9110814929008484,0.5102643370628357,0.30584272742271423,0.07126964628696442,-0.022026101127266884
28.65,0.6576249003410339,-1.4344408512115479,0.8124210834503174,0.24627144634723663,0.1352241188287735,0.2184571772813797
28.7,0.35300183296203613,-0.8861562609672546,0.7745929956436157,-0.02426178753376007,0.0770619735121727,0.5036408305168152
28.75,0.03337534889578819,-0.11367039382457733,0.3377709984779358,-0.17088888585567474,0.08459440618753433,0.6684457063674927
28.8,-0.449947714805603,0.762823224067688,0.07682009041309357,-0.09955133497714996,0.132806196808815,0.6970784068107605
28.85,-0.43399500846862793,0.6890459656715393,-0.2669219672679901,0.07905980199575424,0.2559950649738312,0.6070752739906311
28.9,-0.5718958377838135,0.9522067308425903,-0.2442375123500824,0.12988899648189545,0.19709230959415436,0.5075395107269287
28.95,-0.6404412984848022,1.0016385316848755,0.07514651119709015,0.13558943569660187,0.09083457291126251,0.37206894159317017
29.0,-0.7862312197685242,0.7673312425613403,0.31595656275749207,0.1243462935090065,0.03802879899740219,0.20956850051879883
29.05,-0.4320518672466278,0.5220842957496643,0.21023689210414886,0.07459843903779984,0.015836477279663086,0.09922050684690475
29.1,-0.5368766784667969,0.33075323700904846,1.1603018045425415,-0.008595849387347698,-0.024683360010385513,-0.012463223189115524
29.15,-0.16100136935710907,0.13945096731185913,0.8859941959381104,-0.12301652878522873,0.15959256887435913,-0.043857552111148834
29.2,-0.24270199239253998,0.06336506456136703,-0.8347041010856628,-0.43839284777641296,-0.07945195585489273,-0.012693571858108044
29.25,-0.8396722078323364,0.5133925676345825,-0.3930376470088959,-0.5108150839805603,-0.4970778822898865,0.017371542751789093
29.3,-0.7584980726242065,0.3398847281932831,0.8000681400299072,0.047447845339775085,-0.13464243710041046,-0.06444775313138962
29.35,-0.10110671073198318,-0.777256190776825,0.867932140827179,0.4423219859600067,0.39304015040397644,-0.11817193031311035
29.4,0.5861671566963196,-0.9228689074516296,0.5777472257614136,0.16770540177822113,0.3874610364437103,-0.032368436455726624
29.45,0.31647810339927673,-0.5436144471168518,0.08362351357936859,-0.4556223154067993,-0.0969538763165474,0.12097509205341339
29.5,0.40872228145599365,-0.5453758835792542,-0.2573796212673187,-0.845127522945404,-0.500648558139801,0.30594778060913086
29.55,0.3516332805156708,-0.4494238793849945,0.29294466972351074,-0.5271371006965637,-0.36750897765159607,0.46189555525779724
29.6,0.46562501788139343,-0.40918076038360596,0.5975518822669983,-0.011621621437370777,0.08948418498039246,0.6046191453933716
29.65,0.6912522912025452,-0.27274903655052185,0.7438337206840515,0.10422942042350769,0.31438693404197693,0.7207331657409668
29.7,0.07991164922714233,0.7120036482810974,1.0188612937927246,-0.1756344437599182,0.1487237811088562,0.815204381942749
29.75,-0.5613813400268555,1.1741714477539062,0.689002275466919,-0.33640655875205994,0.1442314088344574,0.7903431057929993
29.8,-0.9181571006774902,1.379181981086731,0.2930156886577606,-0.30271217226982117,0.294118195772171,0.6432288289070129
29.85,-0.7237550616264343,1.3164950609207153,0.11533661186695099,-0.1620108187198639,0.38951489329338074,0.3401917517185211
29.9,-0.7829148173332214,0.9786092042922974,-0.21775729954242706,-0.09087064862251282,0.24928399920463562,0.08297625929117203
29.95,-0.6436335444450378,0.9094811677932739,-0.08761171251535416,0.02234858088195324,0.04861478507518768,-0.15922991931438446
30.0,-0.2269744873046875,0.3460559844970703,0.17420104146003723,0.16723665595054626,0.0112761240452528,-0.3415290415287018
30.05,0.2821478247642517,-0.4789830148220062,0.1884240061044693,0.22641851007938385,-0.01618061028420925,-0.36261433362960815
30.1,0.3410460650920868,-0.9728480577468872,0.007774908561259508,0.2570616602897644,-0.16781114041805267,-0.23526649177074432
30.15,0.4357323944568634,-0.7288866639137268,-0.005171111319214106,0.35202038288116455,-0.3059101998806,-0.07752364873886108
30.2,0.1563112884759903,-0.6289321184158325,0.37002333998680115,0.43714261054992676,-0.39366480708122253,0.06861914694309235
30.25,-0.035986751317977905,-0.7480145692825317,0.9517257809638977,0.37166208028793335,-0.39248403906822205,0.23505359888076782
30.3,-0.13244013488292694,-0.3720523416996002,1.1930137872695923,0.13786539435386658,-0.5122550129890442,0.3710361123085022
30.35,-0.6118939518928528,-0.01728920452296734,0.4481506943702698,-0.15509694814682007,-0.5265647172927856,0.3857022523880005
30.4,-1.5248796939849854,0.8624440431594849,-0.1729326993227005,-0.1533752977848053,-0.6281755566596985,0.2540751099586487
30.45,-1.604957103729248,0.7103453278541565,0.16630759835243225,0.19831177592277527,-0.2665964365005493,0.045251812785863876
30.5,-0.26307207345962524,-0.648086667060852,0.6482976675033569,0.3883408308029175,0.1973232477903366,-0.02312915213406086
30.55,1.0391590595245361,-0.7744036316871643,-0.534976601600647,0.20973125100135803,0.19789502024650574,0.07432807981967926
30.6,0.2313264012336731,-0.1245841532945633,-0.6611048579216003,-0.1010618731379509,-0.44846242666244507,0.1367780715227127
30.65,-0.9444659352302551,0.24860765039920807,0.17268802225589752,-0.17845025658607483,-0.5585978031158447,0.10961632430553436
30.7,-0.6006537675857544,0.23031148314476013,-0.6212579011917114,0.019008120521903038,0.02219816856086254,0.07882725447416306
30.75,0.3715624511241913,-0.25032705068588257,-1.1053282022476196,0.126142218708992,0.22114036977291107,0.07673777639865875
30.8,0.29610171914100647,-0.3970946967601776,-0.8756986856460571,0.016202794387936592,-0.1205163300037384,0.1999208778142929
30.85,-0.026721753180027008,-0.3504762649536133,-0.2739808261394501,0.045840781182050705,-0.1909424364566803,0.3882114589214325
30.9,0.37247225642204285,-0.4924297332763672,-0.6896811127662659,0.30016911029815674,0.19601403176784515,0.6085749864578247
30.95,-0.08033674955368042,0.3258056938648224,-0.150459885597229,0.4755256474018097,0.15041711926460266,0.8375794887542725
31.0,-1.2385482788085938,0.4072771370410919,0.2991560697555542,0.32760322093963623,-0.06665486097335815,0.9556465744972229
31.05,-1.032016634941101,0.4486704468727112,0.049335114657878876,0.08510854840278625,-0.29479455947875977,0.8552086353302002
31.1,-1.4101343154907227,0.947982907295227,0.11187935620546341,0.08474757522344589,-0.2660279870033264,0.6557250618934631
31.15,-2.020946741104126,1.2365446090698242,0.6774296760559082,0.11730919778347015,0.0023637060075998306,0.31687235832214355
31.2,-1.7466740608215332,1.324708104133606,-0.36182329058647156,0.03535369783639908,0.19686974585056305,-0.10033444315195084
31.25,-1.909952998161316,1.3846341371536255,0.015106403268873692,0.01611562818288803,0.044085390865802765,-0.5290003418922424
31.3,-1.6714011430740356,1.3677102327346802,0.04154619947075844,0.10912349075078964,0.14294683933258057,-0.9524335265159607
31.35,-0.800615131855011,0.9233399629592896,-0.3030802607536316,0.13472217321395874,0.07705697417259216,-1.2365376949310303
31.4,-0.4115257263183594,0.7913657426834106,0.06207531318068504,0.18653598427772522,-0.03787064924836159,-1.3505995273590088
31.45,0.08172405511140823,0.3050575256347656,0.18394529819488525,0.2421959638595581,-0.02288496308028698,-1.3718302249908447
31.5,0.5824951529502869,-0.03339770436286926,0.3143180310726166,0.24829721450805664,-0.03698263317346573,-1.2671616077423096
31.55,0.8847773671150208,-0.3291321396827698,0.30364131927490234,0.2169424593448639,-0.036538541316986084,-1.056211233139038
31.6,0.8272354006767273,-0.5837612748146057,0.07766231149435043,0.1603441834449768,-0.039688192307949066,-0.7889320254325867
31.65,1.2041921615600586,-1.122172474861145,-0.05359354987740517,0.021206431090831757,-0.1520852893590927,-0.5237152576446533
31.7,0.8794061541557312,-1.5371105670928955,0.30959951877593994,-0.07058433443307877,-0.23247523605823517,-0.25609976053237915
31.75,1.0244752168655396,-1.2450133562088013,-0.18292410671710968,-0.18886402249336243,-0.2516677677631378,0.15926145017147064
31.8,-0.986600935459137,0.46152210235595703,0.49544376134872437,-0.012522635981440544,-0.24618756771087646,0.2974149286746979
31.85,-1.5170247554779053,0.6625156402587891,0.6370123028755188,0.07522042095661163,0.07267611473798752,0.18702580034732819
31.9,-0.983137309551239,0.5702677369117737,0.22327843308448792,0.1224028691649437,0.26837092638015747,-0.018581176176667213
31.95,-0.2868306636810303,0.26025301218032837,-0.28809913992881775,0.07741910964250565,0.30536141991615295,-0.15870176255702972
32.0,0.8587275743484497,-0.7077246308326721,0.24120095372200012,0.04442933201789856,0.2560810148715973,-0.23262891173362732
32.05,1.244461178779602,-0.6608724594116211,-0.7744914889335632,0.060540784150362015,0.2138826698064804,-0.050873689353466034
32.1,0.5095434784889221,0.059166908264160156,0.10212203860282898,0.22191981971263885,-0.01521571446210146,0.11402540653944016
32.15,0.5119962692260742,-0.32901862263679504,-0.04617840051651001,0.29617664217948914,-0.05469284951686859,0.25774434208869934
32.2,0.011553633958101273,0.047928813844919205,0.060445189476013184,0.0284288190305233,-0.3901001513004303,0.33629143238067627
32.25,0.6475014090538025,0.1573944389820099,-0.13852843642234802,0.12625595927238464,-0.3622085750102997,0.542951226234436
32.3,0.9503226280212402,0.42831042408943176,0.23196172714233398,0.3022794723510742,-0.3151514530181885,0.7692404389381409
32.35,-0.2784046232700348,0.18554969131946564,0.7302687764167786,0.2910740077495575,-0.22823381423950195,1.0836374759674072
32.4,0.038976721465587616,-0.4656716585159302,0.7524454593658447,0.107108935713768,-0.008128015324473381,1.3041760921478271
32.45,0.5606353282928467,0.3232755661010742,0.3112080693244934,-0.0048902761191129684,0.06387637555599213,1.5612322092056274
32.5,0.7542579770088196,0.4614344537258148,-0.4394303858280182,-0.2530667781829834,-0.022494763135910034,1.6380860805511475
32.55,-0.7381342053413391,1.2264673709869385,-1.3261075019836426,-0.48653826117515564,-0.5939996838569641,1.5765224695205688
32.6,-2.5168466567993164,1.3265268802642822,-1.4932729005813599,-0.1697457879781723,-0.5754649043083191,1.4866691827774048
32.65,-2.5455009937286377,0.669251561164856,-0.8917204737663269,0.42170852422714233,0.09364157170057297,1.1956782341003418
32.7,-1.721337914466858,-0.06813433766365051,0.2566301226615906,0.6894509196281433,0.6124796271324158,0.8439652323722839
32.75,-0.7396926283836365,-0.2839880585670471,0.43200215697288513,0.5527520775794983,0.6512089967727661,0.572711706161499
32.8,-1.305530071258545,-0.3083191514015198,0.22383329272270203,0.40160077810287476,0.30217647552490234,0.23779462277889252
32.85,-1.68477463722229,0.11167621612548828,0.17988671362400055,0.26645761728286743,0.19165976345539093,-0.14202812314033508
32.9,-1.2094974517822266,-0.18011100590229034,0.586276650428772,0.22417275607585907,0.4481542408466339,-0.29451802372932434
32.95,0.2562510371208191,-0.18322469294071198,-0.00574041111394763,0.21581801772117615,0.6780298352241516,-0.14075639843940735
33.0,0.11862513422966003,0.40018948912620544,-0.310194730758667,0.03156200796365738,0.311400443315506,-0.1907915323972702
33.05,-0.3236112594604492,0.022162465378642082,-0.30435803532600403,0.0356546975672245,0.029515685513615608,-0.23461435735225677
33.1,-0.5238366723060608,0.2577114403247833,0.09032157808542252,0.15247195959091187,0.10575342923402786,-0.20118048787117004
33.15,-0.4357520341873169,-0.3070374131202698,0.4864220917224884,0.24704042077064514,0.22124354541301727,-0.108915314078331
33.2,0.21120481193065643,-0.31940755248069763,0.7779865264892578,0.26929694414138794,0.3478412330150604,0.013581600971519947
33.25,0.45119357109069824,-0.5167571306228638,0.5719125866889954,0.042627204209566116,0.03035375103354454,-0.04663320258259773
33.3,-0.5315171480178833,0.08525940030813217,0.5036071538925171,-0.09121819585561752,-0.3801311254501343,-0.11436630040407181
33.35,-1.8848960399627686,-0.02222641557455063,0.8603588938713074,-0.16957788169384003,-0.29308897256851196,-0.26164567470550537
33.4,-1.1386618614196777,-0.551377534866333,1.8279166221618652,-0.22603610157966614,0.43833163380622864,-0.2057797610759735
33.45,0.33664798736572266,-0.5720692873001099,0.9581499099731445,-0.494123637676239,0.6732929348945618,-0.04462821036577225
33.5,-0.055196937173604965,0.41986092925071716,-0.18705007433891296,-0.7497132420539856,0.13974212110042572,-0.11854808777570724
33.55,-1.5216013193130493,0.6880093812942505,-0.6378502249717712,-0.5597931146621704,-0.19293956458568573,-0.3048514425754547
33.6,-0.023373877629637718,0.6554012894630432,-0.29514142870903015,-0.09172879904508591,0.6900955438613892,-0.25450024008750916
33.65,1.0188127756118774,-0.09684477746486664,1.0237218141555786,0.21240223944187164,1.4941672086715698,0.006046362221240997
33.7,0.7612169981002808,-0.27937325835227966,0.5316427946090698,0.013211787678301334,1.1483384370803833,0.012422092258930206
33.75,-0.25129491090774536,0.06791875511407852,0.3330952227115631,-0.25171083211898804,0.3853243589401245,-0.10235678404569626
33.8,-0.6665986776351929,0.5787228941917419,1.1916254758834839,-0.12882669270038605,0.5773375630378723,-0.21414466202259064
33.85,0.005383556708693504,0.533513069152832,0.7467814683914185,-0.24663585424423218,0.6064270734786987,-0.5728111863136292
33.9,-0.8070566058158875,1.38179612159729,-1.0426437854766846,-0.813741147518158,-0.7422263026237488,-1.2083675861358643
33.95,-1.8151589632034302,1.6827747821807861,0.45507580041885376,-1.4444353580474854,-2.178114652633667,-2.0374114513397217
34.0,-2.139099597930908,2.3664677143096924,1.0806620121002197,-1.1979939937591553,-1.6935360431671143,-2.2662131786346436
34.05,-0.41894328594207764,1.7942583560943604,0.6299974322319031,-0.7245433926582336,-0.4559045135974884,-2.4544084072113037
34.1,0.9812083840370178,0.9635125398635864,0.16707682609558105,-0.18701568245887756,0.26651322841644287,-2.3568456172943115
34.15,1.4874029159545898,-0.30476000905036926,0.1178908571600914,0.17127735912799835,0.6221529245376587,-2.095193862915039
34.2,0.9985029101371765,-0.567086398601532,1.406576156616211,0.6422226428985596,0.8958162069320679,-1.7133620977401733
34.25,1.4757347106933594,-1.264700174331665,1.1733332872390747,0.9231677055358887,1.1420537233352661,-1.3959368467330933
34.3,1.3566633462905884,-1.1823054552078247,-0.5483992695808411,0.4571777880191803,0.9545400142669678,-1.090006947517395
34.35,0.6234449148178101,-0.7489871382713318,-1.5105040073394775,-0.5753040909767151,0.4331366717815399,-0.7141014933586121
34.4,0.2350723296403885,0.3941459655761719,0.7116520404815674,-0.3693300485610962,0.2611539661884308,-0.5713892579078674
34.45,0.2758893370628357,-0.6836557984352112,0.17597879469394684,0.6346545219421387,0.6503974199295044,-0.6102063059806824
34.5,0.6225779056549072,-1.1748172044754028,-0.21736213564872742,0.7696008086204529,0.6761140823364258,-0.4027167856693268
34.55,0.5836562514305115,-0.8161077499389648,-1.502591609954834,-0.05116574838757515,0.3534603416919708,-0.1348181813955307
34.6,-0.026429910212755203,1.0051146745681763,-0.09648837894201279,-0.9264876842498779,-0.08918263763189316,-0.010256350040435791
34.65,-0.17311646044254303,1.288819432258606,-0.29421478509902954,-0.8052231669425964,0.016211319714784622,-0.042272262275218964
34.7,-0.16521388292312622,0.41618549823760986,-0.6612274050712585,-0.5623553991317749,-0.1444786936044693,-0.2652226984500885
34.75,0.5797796845436096,0.07374099642038345,-0.30501362681388855,-0.33500275015830994,-0.16311903297901154,-0.374098539352417
34.8,0.48996502161026,-1.1271153688430786,0.258469820022583,-0.21109138429164886,-0.20831510424613953,-0.45019301772117615
34.85,0.6582667231559753,-1.5229904651641846,-0.12250994890928268,-0.2170725166797638,-0.16894122958183289,-0.19932357966899872
34.9,0.4903905987739563,-1.0972949266433716,0.12837442755699158,-0.334713339805603,-0.20391015708446503,0.09532514214515686
34.95,-0.001578514464199543,-0.20843598246574402,-0.6089726090431213,-0.4701528549194336,-0.2676593065261841,0.29137367010116577
35.0,-0.4788341522216797,-0.07766632735729218,0.40900373458862305,-0.42568153142929077,-0.4388088881969452,0.3164318799972534
35.05,0.001556352712213993,-2.4326603412628174,0.5223628878593445,-0.20191232860088348,-0.265740305185318,0.4217345714569092
35.1,1.156315803527832,-1.6070291996002197,-0.06156478822231293,0.11131086945533752,-0.18122737109661102,0.612115740776062
35.15,0.7983245253562927,-0.4012651741504669,-0.3945936858654022,-0.21344120800495148,-0.3179176449775696,0.7168068885803223
35.2,0.3638401925563812,0.2575226128101349,0.010613646358251572,-0.24507461488246918,-0.3930601179599762,0.874119758605957
35.25,0.18853799998760223,0.9155064821243286,-0.07096313685178757,0.09065140038728714,-0.23198804259300232,1.02764892578125
35.3,0.5954359173774719,-0.018787363544106483,-0.2440444678068161,0.9070958495140076,0.11799867451190948,1.0078736543655396
35.35,0.7104694843292236,0.06147490441799164,-1.0887141227722168,1.214958906173706,0.30066123604774475,1.342073917388916
35.4,-0.6880601644515991,1.8021422624588013,1.009644865989685,1.6603357791900635,0.3601680397987366,1.5527939796447754
35.45,-1.0971193313598633,0.18570402264595032,2.4360482692718506,2.3623368740081787,1.1413438320159912,1.5307390689849854
35.5,0.2895202040672302,-1.5755239725112915,3.3717691898345947,2.4564590454101562,1.9639631509780884,1.8788752555847168
35.55,2.1555395126342773,-1.036763310432434,0.2392200529575348,1.7404617071151733,2.1223392486572266,2.2721807956695557
35.6,1.2762303352355957,0.6589194536209106,-0.6784460544586182,0.35525310039520264,0.7244821786880493,2.509873867034912
35.65,-1.6614586114883423,3.4133832454681396,-2.246258020401001,-0.5667521953582764,-1.2319376468658447,2.2805967330932617
35.7,-4.74855375289917,2.489232063293457,1.8701846599578857,-0.2979154586791992,-2.0218305587768555,1.560096025466919
35.75,-4.345326900482178,1.8403702974319458,1.7982594966888428,0.3656788468360901,-0.13174684345722198,0.5874385237693787
35.8,-2.0410101413726807,0.5823391079902649,2.4861347675323486,0.41208603978157043,0.7486656904220581,-0.2935499846935272
35.85,0.024458326399326324,-0.2398310750722885,0.7630943655967712,-0.028787894174456596,0.47352147102355957,-0.6505127549171448
35.9,1.4719150066375732,0.26884451508522034,1.2818975448608398,-1.106512427330017,-1.2755677700042725,-1.051487922668457
35.95,-5.516287326812744,2.6131837368011475,-4.293835163116455,-3.0979435443878174,-5.03048038482666,-1.6412193775177002
36.0,-2.8655917644500732,4.864227771759033,-2.5265352725982666,-2.7334794998168945,-4.031893730163574,-2.3034324645996094
36.05,-0.5540607571601868,2.9947633743286133,1.7195584774017334,-0.026354845613241196,-1.2411006689071655,-2.8200857639312744
36.1,1.1576355695724487,0.34321191906929016,2.5849146842956543,0.9732011556625366,0.2337893694639206,-2.855400323867798
36.15,1.6957837343215942,-1.2457125186920166,0.8837221264839172,0.3564741611480713,0.5003237128257751,-2.4191505908966064
36.2,1.356645107269287,-0.4703322947025299,0.896699070930481,0.3057063817977905,0.6172646284103394,-1.9625554084777832
36.25,1.2650619745254517,-1.0899231433868408,0.7769129872322083,1.1525444984436035,0.9639449119567871,-1.5002130270004272
36.3,1.4514936208724976,-2.536597967147827,0.07136459648609161,1.5832651853561401,1.1254574060440063,-1.1237446069717407
36.35,0.5345627069473267,-2.650888681411743,-0.5234577655792236,1.1470986604690552,0.7676247954368591,-0.6623777747154236
36.4,-0.1605566293001175,-2.0294177532196045,-0.8734819889068604,0.5328958630561829,0.41374388337135315,-0.2043592929840088
36.45,-0.5533966422080994,-0.4678773880004883,-0.5823433995246887,0.025403030216693878,0.040131326764822006,0.15265250205993652
36.5,-0.508949875831604,0.5857554078102112,-0.06338882446289062,-0.2968173921108246,-0.12954339385032654,0.241414412856102
36.55,-0.3760448694229126,1.0575190782546997,0.48049309849739075,-0.06582047790288925,-0.023085447028279305,0.06241722032427788
36.6,-0.27625352144241333,0.5241671204566956,-0.09676271677017212,0.29958581924438477,0.12087970227003098,-0.05717219039797783
36.65,-0.07264922559261322,0.7284547090530396,-0.8330763578414917,0.1860651820898056,0.12858141958713531,-0.035606369376182556
36.7,-0.5382950305938721,1.5282299518585205,-0.06571389734745026,-0.4286179840564728,-0.06354893743991852,-0.0965939611196518
36.75,-0.6434178352355957,1.4776860475540161,0.01758342795073986,-0.5208442211151123,-0.06928109377622604,-0.33755525946617126
36.8,-0.23037348687648773,0.5865699052810669,-0.5068215131759644,-0.2302396297454834,-0.05822731927037239,-0.5338688492774963
36.85,0.03272407129406929,-0.37117859721183777,-0.8159500956535339,-0.2460818588733673,-0.12762029469013214,-0.6231826543807983
36.9,0.030774958431720734,-0.874697744846344,-0.3374992609024048,-0.2930600941181183,-0.19264553487300873,-0.5785877108573914
36.95,0.11461378633975983,-1.2434169054031372,-0.30064108967781067,-0.3202497959136963,-0.24075663089752197,-0.37675514817237854
37.0,0.0646400973200798,-1.6187107563018799,-0.10057488083839417,-0.33557766675949097,-0.234914168715477,-0.16547682881355286
37.05,0.2283853441476822,-1.984607458114624,-0.35101988911628723,-0.28840646147727966,-0.18216261267662048,0.10888255387544632
37.1,-0.003592947032302618,-0.9914323091506958,-0.10186173021793365,-0.3306063711643219,-0.2184087187051773,0.42692315578460693
37.15,-0.2032468020915985,0.12734223902225494,0.07696527987718582,-0.3993053436279297,-0.25685203075408936,0.593211829662323
37.2,-0.17981024086475372,0.05144883319735527,-0.045231495052576065,-0.16831639409065247,-0.2489173710346222,0.6399522423744202
37.25,0.007946855388581753,-0.47005757689476013,0.2575300335884094,-0.031171273440122604,-0.2013920545578003,0.661239743232727
37.3,0.22994989156723022,-0.4102536737918854,0.9101285338401794,0.020844290032982826,-0.06862904131412506,0.7286719679832458
37.35,0.027125444263219833,0.1342315375804901,0.4539162218570709,0.003393118269741535,0.04045750945806503,0.7869099378585815
37.4,-0.0006808674661442637,0.3462047874927521,-0.007506742607802153,-0.030912747606635094,0.06006002426147461,0.7687978744506836
37.45,-0.4475538730621338,1.2830897569656372,0.33771514892578125,-0.03699285537004471,-0.03771481662988663,0.7054443359375
37.5,-0.5507561564445496,0.8687028884887695,1.215018630027771,0.2262876331806183,0.041308820247650146,0.5332335829734802
37.55,-0.023247182369232178,-0.9147865772247314,1.0448650121688843,0.3405623137950897,0.23391297459602356,0.46530622243881226
37.6,0.701433539390564,-1.5354750156402588,0.19308055937290192,-0.10762164741754532,0.18618036806583405,0.6651667952537537
37.65,0.3985597491264343,0.23362068831920624,-0.12497555464506149,-0.8701784014701843,-0.30497315526008606,0.8599534034729004
37.7,-0.6166782379150391,1.3279820680618286,0.0873757153749466,-0.9614729285240173,-0.5491974353790283,0.8710750341415405
37.75,-0.7108823657035828,1.2659856081008911,0.5078949332237244,-0.23149754106998444,-0.14885668456554413,0.7991235852241516
37.8,-0.11459316313266754,0.27389049530029297,0.24133490025997162,0.5572444200515747,0.48257768154144287,0.7142990827560425
37.85,0.68683260679245,-0.25604158639907837,0.22151370346546173,0.8222523927688599,0.7383639216423035,0.7520622611045837
37.9,0.646925687789917,0.013377146795392036,0.508321225643158,0.6483912467956543,0.6163208484649658,0.909591794013977
37.95,0.4869994521141052,0.1590375155210495,0.9352027177810669,0.47927749156951904,0.6236088275909424,0.9827443361282349
38.0,0.6955007314682007,0.6208906173706055,0.8387206196784973,0.3977021872997284,0.7056123614311218,1.0212091207504272
38.05,0.4657464027404785,0.7609187364578247,0.3070690929889679,0.30277523398399353,0.753035306930542,1.0137871503829956
38.1,-0.3217396140098572,1.1449795961380005,0.09956277161836624,0.12952254712581635,0.5100215673446655,0.9338709115982056
38.15,-1.095806360244751,1.4600545167922974,0.5339211225509644,0.036998193711042404,0.20375485718250275,0.6436027884483337
38.2,-1.3809826374053955,1.5125981569290161,0.8560836911201477,0.04136485606431961,0.050686173141002655,0.20657549798488617
38.25,-1.2450109720230103,1.5101767778396606,1.2593119144439697,0.018186895176768303,-0.040780797600746155,-0.29708176851272583
38.3,-1.322096347808838,1.428086280822754,1.2428617477416992,-0.07710643112659454,-0.1400384157896042,-0.7466450333595276
38.35,-1.5535019636154175,1.8807212114334106,1.6647812128067017,-0.18352064490318298,-0.3086128532886505,-1.1568286418914795
38.4,-1.1223866939544678,2.0825395584106445,1.6017943620681763,-0.19061163067817688,-0.3178923428058624,-1.5750787258148193
38.45,-0.24021853506565094,2.2256290912628174,1.1544060707092285,-0.2041192650794983,-0.37761402130126953,-1.9489407539367676
38.5,0.3928399980068207,1.8093539476394653,1.145055890083313,-0.23941491544246674,-0.4247968792915344,-2.159498929977417
38.55,0.8573100566864014,1.0813302993774414,1.2868889570236206,-0.1523817479610443,-0.26478180289268494,-2.158352851867676
38.6,1.3770374059677124,-0.13386638462543488,0.6371763944625854,0.24021753668785095,0.019716208800673485,-2.0338857173919678
38.65,1.3734833002090454,-1.5589497089385986,-0.19306786358356476,0.6723752617835999,0.107077956199646,-1.8143696784973145
38.7,0.6886442303657532,-2.308316230773926,-1.8961241245269775,0.601180374622345,-0.2150016576051712,-1.4738309383392334
38.75,-0.19994857907295227,-1.8892589807510376,-1.8422751426696777,0.3142276704311371,-0.6299009919166565,-1.0447847843170166
38.8,-0.9434590339660645,-1.1534548997879028,0.6153557300567627,-0.11209404468536377,-0.8440778255462646,-0.6972019076347351
38.85,-0.47783762216567993,-0.4293118119239807,0.1490970104932785,0.5435653924942017,-0.5635715126991272,-0.6040300130844116
38.9,-0.521580159664154,-1.5548020601272583,-1.2912455797195435,1.0471307039260864,-0.34873706102371216,-0.41669419407844543
38.95,-0.3837530016899109,-1.8576027154922485,-1.438164234161377,0.6645627021789551,-0.28132718801498413,-0.09731660038232803
39.0,-0.4291309118270874,-1.6431399583816528,-1.167724847793579,0.15433967113494873,-0.315304696559906,0.18493212759494781
39.05,-0.6131374835968018,-0.8789721131324768,-0.7135887742042542,0.10776495188474655,-0.3716219663619995,0.4552151560783386
39.1,-0.6072430610656738,-0.5189523696899414,-0.5436254143714905,0.18404272198677063,-0.4222675561904907,0.717239260673523
39.15,-0.97381591796875,-0.22285176813602448,-0.17780105769634247,-0.04440038651227951,-0.4577420949935913,0.808343231678009
39.2,-1.1527446508407593,0.7630520462989807,0.34502482414245605,-0.34796595573425293,-0.49108919501304626,0.8402953743934631
39.25,-1.3080099821090698,1.227799415588379,0.9929823279380798,-0.4019263982772827,-0.49973559379577637,0.7297303676605225
39.3,-1.0141576528549194,0.7999448776245117,1.0524317026138306,-0.2842308282852173,-0.3233594000339508,0.5259324312210083
39.35,-0.2648235261440277,-0.2684994339942932,0.42189255356788635,-0.15649911761283875,-0.023142118006944656,0.34370920062065125
39.4,0.19464509189128876,-0.7202349305152893,0.0025910427793860435,-0.18831124901771545,0.03590886667370796,0.3483826816082001
39.45,0.0630091056227684,-0.5576478242874146,0.726889967918396,-0.395330011844635,-0.05377650260925293,0.3911738097667694
39.5,0.10145973414182663,-0.8939868807792664,0.7907149791717529,-0.5855259895324707,0.07635607570409775,0.46411433815956116
39.55,0.17992644011974335,0.4863787591457367,-0.42230722308158875,-0.9344196915626526,0.05018264055252075,0.5824636816978455
39.6,-0.9591559767723083,1.7451679706573486,-0.5932466983795166,-1.100172519683838,-0.38350310921669006,0.4895634949207306
39.65,-1.0253397226333618,1.0152082443237305,0.7598019242286682,-0.3636385500431061,-0.3189261853694916,0.36825716495513916
39.7,0.7480448484420776,-0.4000559449195862,-0.062442414462566376,0.7059707045555115,0.37437835335731506,0.48414307832717896
39.75,2.1971213817596436,-1.0902166366577148,-1.8577547073364258,0.7132304310798645,0.5049722194671631,0.6762613654136658
39.8,0.4772079586982727,-0.8381549119949341,0.05783102661371231,-0.044167108833789825,-0.24090248346328735,0.830394446849823
39.85,-0.5112432837486267,0.28174299001693726,1.0380748510360718,-0.107213594019413,-0.2801274061203003,0.9949756860733032
39.9,-0.4376949369907379,0.09823320060968399,0.43581581115722656,0.13327020406723022,0.06278969347476959,1.2663768529891968
39.95,-0.5447908043861389,-0.21408089995384216,0.6429024934768677,0.13493569195270538,0.1607954055070877,1.37700355052948
40.0,-1.121881127357483,0.23841188848018646,0.47849240899086,-0.29650792479515076,-0.14474886655807495,1.224323034286499
40.05,-1.2836823463439941,0.6111202239990234,0.7245728373527527,-0.7343418598175049,-0.4335154891014099,0.8888384103775024
40.1,-1.2276602983474731,0.40401938557624817,0.452886700630188,-0.7181253433227539,-0.2609387934207916,0.6097590327262878
40.15,-1.0414613485336304,-0.03451826050877571,0.16572344303131104,-0.6224883794784546,0.032725509256124496,0.42984288930892944
40.2,-1.2254246473312378,0.39699655771255493,-0.07824909687042236,-0.6495120525360107,0.136154904961586,0.32073745131492615
40.25,-1.5573428869247437,1.0965501070022583,-0.5422864556312561,-0.7680913805961609,0.0456891804933548,0.21790634095668793
40.3,-1.8380627632141113,1.428885579109192,-0.5456284284591675,-0.8372302651405334,-0.10816428065299988,0.08740925043821335
40.35,-1.9227200746536255,1.83772873878479,-0.04894302785396576,-0.670084536075592,-0.052610985934734344,-0.19538578391075134
40.4,-0.8843494653701782,1.4453078508377075,-0.31680694222450256,-0.47679394483566284,0.15309859812259674,-0.5192415714263916
40.45,0.3957456052303314,0.33017832040786743,-0.26844215393066406,-0.36943888664245605,0.16672299802303314,-0.733803927898407
40.5,0.6542565226554871,0.05511760339140892,0.12686073780059814,-0.2626810669898987,0.1064891442656517,-0.7473381757736206
40.55,0.8950939774513245,-0.33722978830337524,0.19982905685901642,-0.17939424514770508,0.19245238602161407,-0.5252109169960022
40.6,0.6672272086143494,-0.6759101152420044,0.4532598853111267,-0.12300127744674683,0.25417739152908325,-0.22777049243450165
40.65,0.599793553352356,-1.1589701175689697,0.8409438133239746,-0.18106940388679504,0.2508810758590698,0.08339817821979523
40.7,0.8644289374351501,-0.976207971572876,1.3993960618972778,-0.301734983921051,0.18773894011974335,0.3688191771507263
40.75,0.3956581950187683,0.019599825143814087,1.0334516763687134,-0.47242116928100586,0.132802814245224,0.5138781070709229
40.8,-0.7743315100669861,0.6023054718971252,-0.08527041226625443,-0.7551319599151611,-0.14969220757484436,0.4882451295852661
40.85,-1.2329020500183105,0.8693181872367859,-0.41401389241218567,-0.7135248780250549,-0.33938226103782654,0.351696252822876
40.9,-1.0618102550506592,0.24434193968772888,-0.6201809048652649,-0.26749345660209656,-0.15572170913219452,0.12774690985679626
40.95,-0.22418734431266785,-0.20785050094127655,0.1703440099954605,0.20759189128875732,0.05025376379489899,-0.13976334035396576
41.0,0.22132158279418945,-0.09894858300685883,1.010312557220459,0.2882123291492462,0.11674288660287857,-0.27873125672340393
41.05,0.24945314228534698,-0.2126666158437729,0.823832094669342,0.010040802881121635,0.08702738583087921,-0.29772040247917175
41.1,0.20183932781219482,-0.1790619194507599,0.1609443724155426,-0.27463555335998535,-0.07717040181159973,-0.24634461104869843
41.15,-0.15526722371578217,-0.05582715570926666,0.0633465126156807,-0.2885054349899292,-0.10822632163763046,-0.10863610357046127
41.2,-0.20667485892772675,0.0025720163248479366,0.48376429080963135,0.012531205080449581,0.11765361577272415,-0.05063384398818016
41.25,0.8696627020835876,-0.4510985314846039,0.46003055572509766,0.20614458620548248,0.37793970108032227,-0.04380825161933899
41.3,1.768000602722168,-1.1587001085281372,0.19146640598773956,-0.005415161140263081,0.27331528067588806,0.20281673967838287
41.35,1.730730414390564,-0.7605029940605164,0.5100545883178711,-0.17938601970672607,0.0734817236661911,0.6135005354881287
41.4,0.7856652736663818,0.31422993540763855,0.6782985329627991,-0.14660261571407318,0.2960043251514435,0.850945770740509
41.45,-0.13023124635219574,0.5352411270141602,0.4372624158859253,-0.016492880880832672,0.7433559894561768,0.8204423189163208
41.5,-0.6348392963409424,0.9065276980400085,-0.42798444628715515,0.06872478872537613,0.9316902756690979,0.7281569242477417
41.55,-0.9879724979400635,1.0960886478424072,-1.2254693508148193,0.14858372509479523,0.7317913770675659,0.6536699533462524
41.6,-1.4401580095291138,0.9918586611747742,-0.7312424778938293,0.32353195548057556,0.3459825813770294,0.5748746991157532
41.65,-1.756561279296875,0.5408010482788086,0.462539404630661,0.25262269377708435,-0.2329564243555069,0.44992196559906006
41.7,-1.9965444803237915,0.3887348473072052,0.16791291534900665,-0.06567566841840744,-0.6476953625679016,0.17132209241390228
41.75,-2.9763028621673584,1.0602046251296997,0.28773877024650574,-0.2876819372177124,-1.0037164688110352,-0.2924611270427704
41.8,-2.5506162643432617,0.8900985717773438,1.043581485748291,-0.279125452041626,-0.8531053066253662,-0.8634570240974426
41.85,-0.6352317333221436,-0.05089869350194931,1.4873051643371582,-0.037736617028713226,-0.042130134999752045,-1.2988808155059814
41.9,1.0331462621688843,-1.496105432510376,0.8668549656867981,0.12763622403144836,0.5838090181350708,-1.3690733909606934
41.95,1.7132704257965088,-2.7096445560455322,0.6950716376304626,0.06475803256034851,0.6218748688697815,-1.0238711833953857
42.0,1.817474126815796,-3.2763288021087646,1.5029003620147705,-0.17665328085422516,0.3523734509944916,-0.412434846162796
42.05,1.5306110382080078,-1.9883654117584229,0.4065501391887665,-0.453711599111557,0.14066627621650696,0.15370948612689972
42.1,1.1264424324035645,-0.7183027863502502,-0.24754439294338226,-0.7416579127311707,-0.2635921835899353,0.5285415649414062
42.15,1.1500016450881958,-0.19382482767105103,0.29973453283309937,-0.8740793466567993,-0.5608961582183838,0.8182090520858765
42.2,0.9545905590057373,0.2621784508228302,0.06842990219593048,-0.6934527158737183,-0.4560830295085907,0.9981606006622314
42.25,0.2113514244556427,0.47481638193130493,0.1286306530237198,-0.5320171117782593,-0.33638322353363037,1.133766531944275
42.3,-0.465009480714798,0.6887970566749573,0.039124537259340286,-0.4368959367275238,-0.28762727975845337,1.1105701923370361
42.35,-0.5050647854804993,1.1601468324661255,-0.03602367639541626,-0.30576658248901367,-0.154353067278862,0.9520764946937561
42.4,-0.3385502099990845,1.6263258457183838,-0.2861253023147583,-0.18685157597064972,0.022605398669838905,0.7522512078285217
42.45,-0.7965565323829651,1.962036371231079,-0.669451117515564,-0.07386564463376999,0.07607651501893997,0.5369935035705566
42.5,-1.9447498321533203,2.4277994632720947,-0.7754409909248352,0.08044277876615524,0.010416838340461254,0.27177944779396057
42.55,-1.4482747316360474,2.0392820835113525,-0.45169076323509216,0.3469190299510956,0.07000607252120972,-0.16447778046131134
42.6,-0.5767392516136169,1.658540964126587,0.03061804175376892,0.544739842414856,0.1471029818058014,-0.4913591742515564
42.65,-0.4688587486743927,1.3167058229446411,0.0670718103647232,0.5781017541885376,0.04925326630473137,-0.7392451763153076
42.7,-0.21754583716392517,0.7422991394996643,-0.13162711262702942,0.5524951815605164,-0.09480950981378555,-0.9635395407676697
42.75,0.02106422558426857,0.6614008545875549,-0.08919977396726608,0.6617497801780701,-0.06948623061180115,-1.1310229301452637
42.8,0.4612649083137512,0.40104490518569946,0.14748838543891907,0.9706010818481445,0.16364501416683197,-1.2573504447937012
42.85,1.255639910697937,-0.2490721344947815,0.33756911754608154,1.242370843887329,0.28949159383773804,-1.1573200225830078
42.9,1.5785351991653442,-0.6994773149490356,0.5794305801391602,1.2716573476791382,0.1431104838848114,-0.8151862621307373
42.95,1.4542523622512817,-1.171647310256958,1.0624048709869385,1.1291273832321167,-0.06178706884384155,-0.42832452058792114
43.0,1.2930861711502075,-1.7896322011947632,1.9961111545562744,0.8988816738128662,-0.19400781393051147,-0.07156269252300262
43.05,1.2772436141967773,-2.16801118850708,1.7394317388534546,0.383881539106369,-0.3131925165653229,0.23246444761753082
43.1,0.7764144539833069,-1.6240227222442627,0.6296296715736389,-0.3299958407878876,-0.7805521488189697,0.5260900259017944
43.15,-0.31402355432510376,-1.1778746843338013,0.44623297452926636,-0.7116673588752747,-1.2843551635742188,0.7427322864532471
43.2,-1.2436182498931885,-0.697846531867981,0.4679724872112274,-0.5685123205184937,-1.0851539373397827,0.9463006854057312
43.25,-2.09877610206604,-0.47823628783226013,0.18805372714996338,-0.09233158826828003,-0.346272349357605,0.9903280735015869
43.3,-2.237900972366333,-0.8596783876419067,-0.012726123444736004,0.18963471055030823,0.31806719303131104,0.864608108997345
43.35,-1.8705512285232544,-1.004095196723938,0.06540311127901077,0.12527132034301758,0.5341388583183289,0.7412680983543396
43.4,-1.2977224588394165,-0.6827030181884766,-0.40089839696884155,-0.06421269476413727,0.6464737057685852,0.743147075176239
43.45,-0.46600160002708435,-0.5271673202514648,-0.6836963891983032,-0.1309698075056076,0.7549075484275818,0.8193764090538025
43.5,0.45959076285362244,-0.13588809967041016,-0.10108289867639542,-0.13122045993804932,0.747601330280304,0.8079731464385986
43.55,0.399399071931839,0.5656386613845825,-0.9568418264389038,-0.3209989070892334,0.4400472342967987,0.774933934211731
43.6,-0.8524912595748901,1.5379135608673096,-0.6726043224334717,-0.4022964537143707,0.1041809692978859,0.6989544034004211
43.65,-1.4145848751068115,1.5716345310211182,-0.39217618107795715,-0.28370630741119385,0.3167150914669037,0.6056448221206665
43.7,-1.2903069257736206,1.6432193517684937,-0.7212228178977966,-0.22358964383602142,0.6719834208488464,0.5059126615524292
43.75,-1.0734912157058716,2.289255380630493,-0.8084792494773865,-0.14324674010276794,0.7484560608863831,0.2913610637187958
43.8,-1.231040120124817,2.4632790088653564,-1.1294400691986084,-0.06824300438165665,0.46284887194633484,-0.05813949555158615
43.85,-2.420991897583008,2.779019594192505,-1.149984359741211,-0.06952160596847534,-0.1282220333814621,-0.48584845662117004
43.9,-2.398857831954956,2.9936792850494385,-0.6763426065444946,0.04718482494354248,-0.36738336086273193,-1.051249384880066
43.95,-0.7889046669006348,2.4967033863067627,-0.03493092209100723,0.2567863464355469,-0.26199811697006226,-1.5736154317855835
44.0,0.5762860774993896,1.8348228931427002,0.48881328105926514,0.3769102394580841,-0.1462262123823166,-1.8711321353912354
44.05,1.0577609539031982,1.0186586380004883,0.7212070226669312,0.37795397639274597,-0.1749158650636673,-2.0219945907592773
44.1,1.2567991018295288,0.09915631264448166,0.9382320046424866,0.33436912298202515,-0.17093704640865326,-2.0403048992156982
44.15,1.526202917098999,-0.6620151400566101,1.0296903848648071,0.3481556475162506,0.019817287102341652,-1.914031982421875
44.2,1.9383999109268188,-1.3616602420806885,0.9572195410728455,0.4547238349914551,0.2506216764450073,-1.6335939168930054
44.25,1.70888352394104,-2.550950765609741,1.012491226196289,0.4219798743724823,0.25192928314208984,-1.1930326223373413
44.3,1.7517610788345337,-3.701793670654297,1.311020016670227,0.13274629414081573,0.08306990563869476,-0.6218944191932678
44.35,2.4456284046173096,-3.857508659362793,0.6290852427482605,-0.40250518918037415,-0.17758460342884064,0.016510210931301117
44.4,1.9949599504470825,-2.127368688583374,0.44895297288894653,-1.12044358253479,-0.6360054016113281,0.6353029012680054
44.45,0.04267504811286926,0.7327432632446289,0.9436161518096924,-1.1686854362487793,-0.8391713500022888,0.9504832625389099
44.5,-1.898629903793335,2.414170265197754,1.6440314054489136,-0.39230838418006897,-0.2625057101249695,0.8651857376098633
44.55,-1.6365821361541748,2.3267879486083984,1.5249700546264648,0.4159473478794098,0.7313960790634155,0.3446728587150574
44.6,-1.4108247756958008,1.7505675554275513,0.9606431126594543,0.6523234248161316,1.1777225732803345,-0.1662062257528305
44.65,-1.033977746963501,1.2047090530395508,1.5354588031768799,0.6248379349708557,1.0915888547897339,-0.6350824236869812
44.7,-0.08298483490943909,0.6158799529075623,1.6292848587036133,0.6429960131645203,1.0354970693588257,-0.9496810436248779
44.75,0.61897873878479,-0.26540476083755493,0.3062420189380646,0.5898491144180298,0.8823543190956116,-1.024941325187683
44.8,0.6518687605857849,-0.4545803368091583,-0.2793121337890625,0.3026207387447357,0.3665621876716614,-0.9024783372879028
44.85,0.372614324092865,-0.1554899364709854,-0.03320439159870148,-0.057716935873031616,-0.21906453371047974,-0.7604874968528748
44.9,0.3506494164466858,-0.04151445999741554,0.6770579218864441,-0.08336269855499268,-0.4520530700683594,-0.7380281686782837
44.95,0.5803400278091431,-1.1554099321365356,0.4321272671222687,0.01214908342808485,-0.3860552906990051,-0.7179731726646423
45.0,0.5010364651679993,-0.8729630708694458,-0.0003271808964200318,-0.13214342296123505,-0.44955381751060486,-0.5905113220214844
45.05,0.12424477934837341,0.11964322626590729,0.02201712317764759,-0.2222101092338562,-0.6429776549339294,-0.578032374382019
45.1,-0.6115423440933228,1.204102635383606,0.13164258003234863,-0.13964371383190155,-0.7068516612052917,-0.5435846447944641
45.15,-1.2097094058990479,1.395976185798645,-0.11741963773965836,0.055122457444667816,-0.5978410840034485,-0.5133746862411499
45.2,-0.8944051861763,1.0850402116775513,-0.25666746497154236,0.2555106282234192,-0.4436870217323303,-0.7343895435333252
45.25,-0.32295894622802734,0.6123267412185669,-0.5615041255950928,0.4748769998550415,-0.2934931218624115,-0.9431096911430359
45.3,-0.2926067113876343,0.13545235991477966,-0.8450302481651306,0.3967498242855072,-0.2366059422492981,-0.937868058681488
45.35,-0.5718761682510376,0.40647900104522705,-0.6832486391067505,0.24685031175613403,-0.2406623363494873,-0.9254457950592041
45.4,-0.7817887663841248,0.3869248628616333,-0.5596979260444641,0.26491594314575195,-0.23608063161373138,-0.8683033585548401
45.45,-0.704909086227417,-0.6225090622901917,-0.2817087769508362,0.38182711601257324,-0.17370986938476562,-0.8591179847717285
45.5,-0.7283115983009338,-2.302069902420044,-0.12764494121074677,0.5370900630950928,-0.08868033438920975,-0.6810243725776672
45.55,-0.8074851036071777,-3.067431926727295,-0.6275736093521118,0.3932725191116333,0.018924938514828682,-0.33516696095466614
45.6,-0.7386735081672668,-1.7751818895339966,-0.8522434830665588,-0.14551855623722076,0.021461665630340576,-0.026172367855906487
45.65,-0.5438591241836548,0.13117125630378723,-0.20796146988868713,-0.5990110039710999,0.01489693857729435,0.03351277485489845
45.7,-0.5554165840148926,-0.20603086054325104,-0.14696133136749268,-0.2671510875225067,0.026311980560421944,0.09967685490846634
45.75,-0.5034926533699036,-1.1062108278274536,0.1526435762643814,0.3618437945842743,-0.01967235468327999,0.38476091623306274
45.8,0.6900134682655334,-1.5127335786819458,-1.0549321174621582,0.4508303999900818,0.1430099755525589,0.6492571830749512
45.85,0.6323062181472778,-0.7295103073120117,-0.6145914196968079,-0.24457988142967224,0.0401146337389946,0.7771021723747253
45.9,0.12429427355527878,0.8499575257301331,0.897576630115509,-0.47636017203330994,-0.17097845673561096,0.822343647480011
45.95,0.01686343364417553,0.9166327118873596,0.3698102533817291,-0.2338198870420456,-0.10215875506401062,0.85805743932724
46.0,-0.17934881150722504,0.8486796617507935,0.3077152669429779,-0.008283114992082119,-0.050542496144771576,0.8293752074241638
46.05,-0.7156495451927185,0.5452088713645935,1.2389403581619263,-0.24919027090072632,-0.1315549612045288,0.5958396792411804
46.1,-0.14480701088905334,0.16741450130939484,1.9692684412002563,-0.3537358045578003,0.11434032768011093,0.4391043484210968
46.15,-0.21411658823490143,1.9829990863800049,0.36076024174690247,-0.46205922961235046,0.3057801425457001,0.475868821144104
46.2,-0.4695330262184143,2.0657989978790283,0.16692186892032623,-0.444392591714859,0.1498374342918396,0.1849493384361267
46.25,-0.46304434537887573,0.45030680298805237,1.648767352104187,0.10631078481674194,0.15070995688438416,-0.11061231046915054
46.3,1.0999183654785156,0.5381109118461609,-1.1555554866790771,0.5505008101463318,0.481625497341156,-0.2565850615501404
46.35,0.6630154252052307,0.07402137666940689,-0.281967431306839,0.05676891282200813,0.14440171420574188,-0.366004079580307
46.4,0.07140707224607468,0.3059987723827362,0.7345596551895142,-0.16188645362854004,0.0715905949473381,-0.3469083309173584
46.45,0.40744921565055847,-0.5743151307106018,0.10662773996591568,0.33633238077163696,0.30649298429489136,-0.33061328530311584
46.5,0.6367539763450623,-1.2594672441482544,-0.26101213693618774,0.6491520404815674,0.33799460530281067,-0.13430890440940857
46.55,0.30896705389022827,-0.9980651140213013,-0.02821938693523407,0.37376323342323303,0.17049288749694824,0.12416355311870575
46.6,-0.009145868010818958,-0.16130928695201874,0.3689963221549988,0.04210558533668518,0.044282007962465286,0.3437195420265198
46.65,-0.027146633714437485,0.6841602921485901,0.05598602071404457,0.06573381274938583,0.04364004358649254,0.40325018763542175
46.7,-0.34375622868537903,0.945196270942688,0.10431595891714096,0.197682723402977,0.06434797495603561,0.33221569657325745
46.75,-0.5412506461143494,1.2202483415603638,0.340556800365448,0.2861090898513794,0.11187456548213959,0.21681591868400574
46.8,-0.5703034996986389,1.4321662187576294,0.5339096784591675,0.3592277467250824,0.1530168205499649,0.047204919159412384
46.85,-0.3942628800868988,0.786382794380188,0.2826959192752838,0.18955771625041962,0.13570600748062134,-0.17840144038200378
46.9,-0.5220855474472046,-0.09204395860433578,0.7838866710662842,-0.12296044826507568,0.06990977376699448,-0.29869282245635986
46.95,-0.3601955473423004,0.22795961797237396,0.525367259979248,-0.0490349642932415,0.20816189050674438,-0.28640949726104736
47.0,-0.21572773158550262,0.18843653798103333,-0.02814887836575508,-0.0645688846707344,0.1710522323846817,-0.26300084590911865
47.05,-0.17207463085651398,0.7736636996269226,-0.7821530103683472,-0.5237325429916382,-0.1786017119884491,-0.1898380070924759
47.1,-0.41003626585006714,1.0118725299835205,-0.7525643110275269,-0.7645447850227356,-0.6286265254020691,-0.20171882212162018
47.15,-0.30251696705818176,1.2542487382888794,-0.319536030292511,-0.3622089624404907,-0.7314163446426392,-0.2835181951522827
47.2,-0.49277469515800476,1.2572146654129028,-0.0926145389676094,-0.10914101451635361,-0.8302594423294067,-0.4001002907752991
47.25,-0.3709041178226471,0.967866063117981,0.2785227596759796,-0.418878972530365,-0.8850230574607849,-0.5168676376342773
47.3,-0.38059407472610474,0.6574277877807617,0.45408496260643005,-0.40429210662841797,-0.7294487953186035,-0.7061477303504944
47.35,-0.3484817147254944,-0.23278146982192993,0.3159298300743103,-0.18806126713752747,-0.40759530663490295,-0.8469282984733582
47.4,-0.48444226384162903,-1.375555157661438,0.39186039566993713,0.26758426427841187,-0.2624817192554474,-0.6558400988578796
47.45,-0.3363317847251892,-1.3183032274246216,0.010111338458955288,0.9017505645751953,-0.22841960191726685,-0.3248555064201355
47.5,-0.21777193248271942,-0.1432075947523117,0.2789444923400879,1.000897765159607,-0.15008999407291412,-0.234658345580101
47.55,-0.7013373374938965,0.32155126333236694,1.1468888521194458,0.8656134605407715,0.05099339783191681,-0.22288233041763306
47.6,-0.508247971534729,-0.16371728479862213,-0.0786777213215828,0.66778963804245,0.3104472756385803,-0.26158803701400757
47.65,-0.2551480829715729,0.3411436975002289,-0.6622811555862427,-0.09240806102752686,0.3659331798553467,-0.4228943884372711
47.7,-0.3091108202934265,1.0980063676834106,0.649993360042572,-0.43606963753700256,0.2743067741394043,-0.576400101184845
47.75,0.07812003046274185,0.9608030915260315,0.7266371846199036,0.12015336006879807,0.31337693333625793,-0.5530080795288086
47.8,0.20010048151016235,-0.04950614273548126,-0.5652986168861389,0.26584628224372864,0.25458288192749023,-0.583064615726471
47.85,0.5496575832366943,0.2528676986694336,0.44921645522117615,0.047395944595336914,0.04375627636909485,-0.6122802495956421
47.9,1.0334947109222412,-0.07466985285282135,0.09303226321935654,0.14883798360824585,0.04382059723138809,-0.6893452405929565
47.95,0.8509522676467896,-0.9538413286209106,-0.16159303486347198,0.28327038884162903,-0.006481413263827562,-0.6256338357925415
48.0,0.12207946926355362,-2.324185609817505,0.055181052535772324,0.2154165804386139,0.049115270376205444,-0.42055800557136536
48.05,-0.09639456123113632,-2.832720994949341,-0.5224277973175049,0.06468842178583145,0.15798762440681458,-0.11994714289903641
48.1,0.07116860151290894,-1.6860105991363525,-0.05606624856591225,-0.41599568724632263,0.21255940198898315,0.1803693175315857
48.15,1.1476768255233765,0.18368999660015106,0.9776711463928223,-0.6767382025718689,0.1295279562473297,0.4936397969722748
48.2,0.8587798476219177,1.77662193775177,1.1631215810775757,-0.3287706673145294,-0.0497722327709198,0.581649899482727
48.25,0.42230355739593506,1.9737006425857544,1.462755560874939,0.5270417332649231,-0.17922458052635193,0.48854130506515503
48.3,0.4032255709171295,1.1451025009155273,1.2178257703781128,1.0191248655319214,-0.14778108894824982,0.27100732922554016
48.35,0.3022124171257019,0.6380547881126404,1.2691150903701782,0.7262166738510132,0.0014314118307083845,0.10917463898658752
48.4,0.25285738706588745,1.5501757860183716,1.6473790407180786,0.24534398317337036,0.16050319373607635,0.035381924360990524
48.45,0.28632429242134094,1.8808250427246094,2.093200206756592,0.0977754145860672,0.3694699704647064,-0.21862730383872986
