Time [s],Acc_x [m/s^2],Acc_y [m/s^2],Acc_z [m/s^2],Gyro_x [1/s],Gyro_y [1/s],Gyro_z [1/s]
0.0,0.006626885384321213,0.1081390529870987,-0.025129152461886406,-0.07481362670660019,-0.09915582835674286,-0.019667839631438255
0.025,0.009676788002252579,0.10934067517518997,-0.035456445068120956,-0.07488744705915451,-0.09916968643665314,-0.019603895023465157
0.05,0.009669659659266472,0.11086369305849075,-0.04694044217467308,-0.07690330594778061,-0.09952165931463242,-0.017881864681839943
0.075,-0.004208601079881191,0.09871102124452591,-0.05891167372465134,-0.08372229337692261,-0.10122187435626984,-0.012250339612364769
0.1,-0.020801272243261337,0.06186485290527344,-0.055463217198848724,-0.08667559921741486,-0.10654859244823456,-0.008641735650599003
0.125,-0.01267324760556221,0.028872491791844368,-0.019964946433901787,-0.07893086969852448,-0.11853894591331482,-0.008365729823708534
0.15,-0.0016512228175997734,0.030401233583688736,-0.0064033749513328075,-0.061487119644880295,-0.12906624376773834,-0.011215505190193653
0.175,0.0055264816619455814,0.0620269849896431,-0.0035162530839443207,-0.04068924859166145,-0.13333381712436676,-0.008467206731438637
0.2,0.0211938489228487,0.0758218839764595,0.00597384525462985,-0.03372364491224289,-0.12993507087230682,-0.0022178352810442448
0.225,0.03281443566083908,0.08649254590272903,-0.01025189459323883,-0.031589262187480927,-0.11936834454536438,-0.0027340722735971212
0.25,0.029514020308852196,0.10038281232118607,-0.05215718597173691,-0.02724742703139782,-0.10847843438386917,-0.0012082936009392142
0.275,0.025927096605300903,0.09578514844179153,-0.07153239846229553,-0.02675938419997692,-0.10457609593868256,0.006417731288820505
0.3,0.04705525562167168,0.07608985900878906,-0.05748375132679939,-0.029605038464069366,-0.09789574891328812,0.0035318806767463684
0.325,0.10570430755615234,0.06140899658203125,-0.04189612716436386,-0.02755519561469555,-0.08263660967350006,-0.0010198698146268725
0.35,0.18762552738189697,0.0464477501809597,-0.017572203651070595,-0.02253430336713791,-0.054363638162612915,-0.0011852432508021593
0.375,0.2396993637084961,0.008255002088844776,0.011694704182446003,-0.01100079994648695,-0.011248758062720299,0.004156611859798431
0.4,0.22513581812381744,-0.043274886906147,0.013425525277853012,0.007128068245947361,0.03321876749396324,0.009353535249829292
0.425,0.15739133954048157,-0.04351712018251419,-0.0001143790505011566,0.026423202827572823,0.06911510974168777,0.0070913247764110565
0.45,0.056635357439517975,-0.025559432804584503,-0.0251387357711792,0.03965921327471733,0.09097687900066376,-0.004658826161175966
0.475,-0.031359992921352386,-0.02445412240922451,-0.02016313374042511,0.057626884430646896,0.09335688501596451,-0.016191132366657257
0.5,-0.04261752590537071,0.013204576447606087,-0.005222309846431017,0.08398311585187912,0.0784546509385109,-0.022786449640989304
0.525,-0.018506702035665512,0.06264686584472656,-0.04993118345737457,0.10212323814630508,0.05939063802361488,-0.030001072213053703
0.55,0.002119744196534157,0.12328052520751953,-0.11719813942909241,0.10808181762695312,0.047580521553754807,-0.03949020057916641
0.575,0.004205275326967239,0.16220664978027344,-0.1400064378976822,0.10264748334884644,0.0444273017346859,-0.04453429952263832
0.6,-0.029684491455554962,0.13527870178222656,-0.08926940709352493,0.09019429981708527,0.04739920794963837,-0.04951799660921097
0.625,-0.08782515674829483,0.09385205805301666,-0.007463214453309774,0.08714990317821503,0.04137744754552841,-0.055546749383211136
0.65,-0.15087206661701202,0.056347865611314774,0.06143226474523544,0.08485973626375198,0.01597442477941513,-0.06261998414993286
0.675,-0.2221500724554062,0.029352204874157906,0.06581886112689972,0.08524351567029953,-0.030278753489255905,-0.07089485228061676
0.7,-0.26622870564460754,0.06473447382450104,0.01361791044473648,0.09782474488019943,-0.09086691588163376,-0.07713431864976883
0.725,-0.25029703974723816,0.13985063135623932,-0.03104826807975769,0.10877148807048798,-0.1514500081539154,-0.08232902735471725
0.75,-0.21246303617954254,0.18972685933113098,-0.05352184176445007,0.10408779233694077,-0.19753572344779968,-0.08180967718362808
0.775,-0.17719772458076477,0.2063293755054474,-0.0856483057141304,0.08782917261123657,-0.2282138168811798,-0.0690399631857872
0.8,-0.08532363176345825,0.19794465601444244,-0.1341787576675415,0.06917187571525574,-0.25055184960365295,-0.051998745650053024
0.825,0.006871199235320091,0.18084144592285156,-0.1321561187505722,0.053508460521698,-0.25208812952041626,-0.04678811505436897
0.85,-0.01628502644598484,0.18514156341552734,-0.10964282602071762,0.03847241774201393,-0.23246827721595764,-0.04864509403705597
0.875,-0.1295006424188614,0.22333432734012604,-0.11216232180595398,0.023026440292596817,-0.22323182225227356,-0.04040064290165901
0.9,-0.255330890417099,0.2211771309375763,-0.1042250245809555,0.007418762426823378,-0.2391647845506668,-0.031130606308579445
0.925,-0.39579930901527405,0.1730833202600479,-0.07577887177467346,-0.008401090279221535,-0.26837998628616333,-0.025864863768219948
0.95,-0.5509328842163086,0.15321923792362213,-0.05126526206731796,-0.01994169130921364,-0.32325854897499084,-0.01431309524923563
0.975,-0.5951579809188843,0.1695728451013565,-0.06271173059940338,-0.02748125046491623,-0.42383626103401184,0.0024011319037526846
1.0,-0.45333635807037354,0.20046713948249817,-0.10088465362787247,-0.03236676752567291,-0.5387177467346191,0.005093075335025787
1.025,-0.20493148267269135,0.2321949154138565,-0.14338147640228271,-0.03798772394657135,-0.6137487888336182,-0.007961037568747997
1.05,0.05211937800049782,0.21341419219970703,-0.19870702922344208,-0.055712077766656876,-0.6305586695671082,-0.01643754541873932
1.075,0.22160592675209045,0.17792414128780365,-0.20816588401794434,-0.07518283277750015,-0.6030517220497131,-0.01364399865269661
1.1,0.2933374047279358,0.14557455480098724,-0.15586788952350616,-0.09683971852064133,-0.5450255274772644,0.003558375174179673
1.125,0.2918485403060913,0.0894765704870224,-0.12203779071569443,-0.10951883345842361,-0.4710695743560791,0.030092479661107063
1.15,0.24789680540561676,0.0878429263830185,-0.13687314093112946,-0.09440182149410248,-0.404226690530777,0.057707879692316055
1.175,0.21507304906845093,0.24671268463134766,-0.1535329818725586,-0.07293462753295898,-0.34841784834861755,0.0749879702925682
1.2,0.20567502081394196,0.4547300636768341,-0.171943798661232,-0.10077918320894241,-0.2972955107688904,0.09741196781396866
1.225,0.1659417450428009,0.6282501220703125,-0.24510064721107483,-0.1711469143629074,-0.25018227100372314,0.11584031581878662
1.25,0.13689905405044556,0.7220392227172852,-0.3198140263557434,-0.25810718536376953,-0.22513513267040253,0.11914560198783875
1.275,0.15821726620197296,0.5088987350463867,-0.3363509178161621,-0.41263312101364136,-0.21230484545230865,0.10769916325807571
1.3,0.2017831951379776,0.19995784759521484,-0.24448749423027039,-0.5007600784301758,-0.18582145869731903,0.08534898608922958
1.325,0.25593045353889465,-0.03827573359012604,-0.04223152622580528,-0.4913714826107025,-0.14952225983142853,0.07591289281845093
1.35,0.266753226518631,-0.3571329414844513,0.16202059388160706,-0.450837105512619,-0.09910173714160919,0.07242424786090851
1.375,0.23091158270835876,-0.560460090637207,0.30591773986816406,-0.3451293706893921,-0.04873444139957428,0.07165811955928802
1.4,0.1774812638759613,-0.5232706069946289,0.3398495018482208,-0.19829101860523224,-0.001639546942897141,0.07792041450738907
1.425,0.11668980121612549,-0.41706088185310364,0.27193373441696167,-0.08303286880254745,0.036575797945261,0.08278269320726395
1.45,0.05656769871711731,-0.2754688262939453,0.1579524576663971,0.007305325008928776,0.05787366256117821,0.08575459569692612
1.475,0.0491335391998291,-0.1255931854248047,0.08110962808132172,0.06726827472448349,0.05759371817111969,0.08123297244310379
1.5,0.1315876841545105,-0.011395451612770557,0.051662836223840714,0.09284412860870361,0.04922602325677872,0.0717066079378128
1.525,0.22665467858314514,0.10587884485721588,0.013131910935044289,0.09278341382741928,0.05418037995696068,0.057789530605077744
1.55,0.2317935973405838,0.2241077572107315,-0.0790618360042572,0.08573902398347855,0.07765417546033859,0.04194613918662071
1.575,0.16926023364067078,0.3018817901611328,-0.18344014883041382,0.08153320103883743,0.11060483753681183,0.038853466510772705
1.6,0.10346685349941254,0.32628536224365234,-0.2367980182170868,0.04840001463890076,0.13435478508472443,0.041675034910440445
1.625,0.08670583367347717,0.32415103912353516,-0.20330975949764252,0.00900205597281456,0.1441928595304489,0.04041707143187523
1.65,0.11914233863353729,0.2727642059326172,-0.15831337869167328,-0.02790905348956585,0.15252487361431122,0.03451920300722122
1.675,0.1570126861333847,0.17661190032958984,-0.13852131366729736,-0.05570590868592262,0.17122383415699005,0.026835137978196144
1.7,0.1600991040468216,0.12287425994873047,-0.1308518648147583,-0.0680747926235199,0.20030543208122253,0.015547974035143852
1.725,0.15924029052257538,0.1032266616821289,-0.12990793585777283,-0.07762693613767624,0.22856612503528595,0.00669831084087491
1.75,0.1690026819705963,0.08563993871212006,-0.13370458781719208,-0.08015351742506027,0.2548061013221741,0.006140314508229494
1.775,0.16761696338653564,0.07909868657588959,-0.13633303344249725,-0.07343419641256332,0.2880404591560364,0.006401015445590019
1.8,0.11231894791126251,0.08506868779659271,-0.15076415240764618,-0.06361256539821625,0.32788652181625366,0.007329991087317467
1.825,-0.013922955840826035,0.12892436981201172,-0.18320785462856293,-0.05203690007328987,0.3594968318939209,0.009835629723966122
1.85,-0.14101581275463104,0.1978769451379776,-0.2028830349445343,-0.045203499495983124,0.36369773745536804,0.016215868294239044
1.875,-0.17908307909965515,0.25670623779296875,-0.22292791306972504,-0.05267351493239403,0.33692070841789246,0.021212197840213776
1.9,-0.1510128229856491,0.2916536331176758,-0.22754739224910736,-0.06901940703392029,0.30094656348228455,0.016622448340058327
1.925,-0.1135941743850708,0.27980613708496094,-0.20810464024543762,-0.09642091393470764,0.27378880977630615,0.004741641692817211
1.95,-0.07473783195018768,0.22547723352909088,-0.17256322503089905,-0.13186044991016388,0.2554447054862976,-0.013209983706474304
1.975,-0.05454114452004433,0.1521778106689453,-0.12781117856502533,-0.1610657125711441,0.23977383971214294,-0.02854602225124836
2.0,-0.02110840193927288,0.058600425720214844,-0.05901525169610977,-0.1755014955997467,0.2296665906906128,-0.03511536866426468
2.025,0.010875514708459377,-0.03729629889130592,0.016341719776391983,-0.16962674260139465,0.23480194807052612,-0.03580775111913681
2.05,-0.010766933672130108,-0.11524678021669388,0.06364145129919052,-0.1447896808385849,0.25616955757141113,-0.031235691159963608
2.075,-0.06484011560678482,-0.15011024475097656,0.09564714133739471,-0.10631901025772095,0.2741011381149292,-0.017288533970713615
2.1,-0.07497530430555344,-0.13526153564453125,0.12540951371192932,-0.06132608652114868,0.27275002002716064,-0.0014449023874476552
2.125,-0.010999217629432678,-0.09464836120605469,0.13697576522827148,-0.0212631206959486,0.268359899520874,0.0057275318540632725
2.15,0.062186915427446365,-0.061749450862407684,0.14587612450122833,0.010082426480948925,0.2783825099468231,0.005359321366995573
2.175,0.10434918850660324,-0.06339453905820847,0.1558677852153778,0.038827747106552124,0.29596608877182007,0.00868998933583498
2.2,0.1795455515384674,-0.09876346588134766,0.1557207852602005,0.07092489302158356,0.31280985474586487,0.011169490404427052
2.225,0.3656854033470154,-0.15779781341552734,0.15500405430793762,0.1082550659775734,0.33224090933799744,-0.00022781590814702213
2.25,0.6046167016029358,-0.21866515278816223,0.1333356499671936,0.14939221739768982,0.3925558626651764,-0.02764812670648098
2.275,0.6982649564743042,-0.2253914326429367,0.05729254335165024,0.19788812100887299,0.51710444688797,-0.05423439294099808
2.3,0.5765169858932495,-0.10055449604988098,-0.053872983902692795,0.2548224627971649,0.660028874874115,-0.06316998600959778
2.325,0.3440527319908142,0.09348677098751068,-0.11700338870286942,0.29566484689712524,0.7633105516433716,-0.06664715707302094
2.35,0.028053883463144302,0.21565820276737213,-0.11111166328191757,0.2923768162727356,0.8183580636978149,-0.07895799726247787
2.375,-0.3359108567237854,0.2846050560474396,-0.08581569790840149,0.2646229863166809,0.8041768670082092,-0.09356308728456497
2.4,-0.6332232356071472,0.31047824025154114,-0.04365571588277817,0.2309386134147644,0.71104496717453,-0.09381439536809921
2.425,-0.7674880623817444,0.30829817056655884,0.006347618531435728,0.19955438375473022,0.5638505220413208,-0.0870329737663269
2.45,-0.7223864197731018,0.25988680124282837,0.05019747465848923,0.1672287881374359,0.4098902642726898,-0.07714661210775375
2.475,-0.5502446889877319,0.16144375503063202,0.09554488211870193,0.14074468612670898,0.27633893489837646,-0.06239764019846916
2.5,-0.3239237368106842,0.053693801164627075,0.1243034079670906,0.13036838173866272,0.17154288291931152,-0.05424196645617485
2.525,-0.14151158928871155,-0.046340931206941605,0.10491756349802017,0.13833019137382507,0.10785210877656937,-0.05718022957444191
2.55,-0.0607629120349884,-0.06993865966796875,0.03844471275806427,0.16600900888442993,0.08417127281427383,-0.06685886532068253
2.575,-0.047822605818510056,0.050016406923532486,-0.040895797312259674,0.19534797966480255,0.0811862051486969,-0.07736814022064209
2.6,-0.053172118961811066,0.2204580456018448,-0.1121007427573204,0.19953829050064087,0.08466938138008118,-0.07804445177316666
2.625,-0.05101320892572403,0.3092031478881836,-0.1844729632139206,0.1759166717529297,0.08920425921678543,-0.06745295226573944
2.65,-0.05341358855366707,0.3252229690551758,-0.2309240847826004,0.1405961960554123,0.10099758952856064,-0.05253550782799721
2.675,-0.05961243063211441,0.31180572509765625,-0.20646710693836212,0.10875125974416733,0.11773926019668579,-0.03380608931183815
2.7,-0.045744623988866806,0.2581472396850586,-0.13710454106330872,0.08189146965742111,0.13029493391513824,-0.020744210109114647
2.725,-0.02736048772931099,0.16885758936405182,-0.062318045645952225,0.06191699206829071,0.1369769424200058,-0.02119198627769947
2.75,-0.008204617537558079,0.0355377271771431,0.041424330323934555,0.053154490888118744,0.13702835142612457,-0.025562094524502754
2.775,0.03364505246281624,-0.1529521942138672,0.15990103781223297,0.06568591296672821,0.1297122687101364,-0.03478342294692993
2.8,0.08647620677947998,-0.3595895767211914,0.22762511670589447,0.10481163114309311,0.117298424243927,-0.0551925003528595
2.825,0.11145783215761185,-0.39292529225349426,0.1930246502161026,0.18191231787204742,0.10831206291913986,-0.09283805638551712
2.85,0.0469864159822464,-0.07924365997314453,0.045513518154621124,0.28053444623947144,0.12046316266059875,-0.141164168715477
2.875,-0.1453903615474701,0.4744320213794708,-0.1818712055683136,0.3232433497905731,0.14268997311592102,-0.14793986082077026
2.9,-0.39275678992271423,1.1171799898147583,-0.4243137538433075,0.2563466727733612,0.14049704372882843,-0.08356843143701553
2.925,-0.5428019165992737,1.5301944017410278,-0.6178389191627502,0.06329318135976791,0.0968361645936966,0.01963908225297928
2.95,-0.5309569835662842,1.4533567428588867,-0.6661962866783142,-0.2009076625108719,0.028462762013077736,0.09815548360347748
2.975,-0.4505806863307953,1.1238776445388794,-0.556304395198822,-0.42947906255722046,-0.036621369421482086,0.13483580946922302
3.0,-0.3559766411781311,0.7125406265258789,-0.3741407096385956,-0.6034738421440125,-0.09202840179204941,0.16693420708179474
3.025,-0.22272033989429474,0.2204132229089737,-0.18908652663230896,-0.7116559147834778,-0.14162223041057587,0.1929299384355545
3.05,-0.057991400361061096,-0.19715312123298645,4.418451862875372e-05,-0.7242768406867981,-0.18156930804252625,0.18647544085979462
3.075,0.07112560421228409,-0.3703775405883789,0.16768720746040344,-0.6648385524749756,-0.19864678382873535,0.15198828279972076
3.1,0.14206470549106598,-0.3623390197753906,0.26762855052948,-0.5852335095405579,-0.19835162162780762,0.1206052228808403
3.125,0.1677100658416748,-0.36266517639160156,0.3044593334197998,-0.5147587060928345,-0.1897185891866684,0.0985674262046814
3.15,0.1484294980764389,-0.36716651916503906,0.31639930605888367,-0.43266454339027405,-0.17195916175842285,0.07732518017292023
3.175,0.11441206932067871,-0.3592185974121094,0.31028950214385986,-0.337771475315094,-0.1525924801826477,0.060354314744472504
3.2,0.11086353659629822,-0.4009762108325958,0.333176851272583,-0.24003958702087402,-0.13298290967941284,0.049642741680145264
3.225,0.1314774602651596,-0.4705229103565216,0.38616055250167847,-0.12922897934913635,-0.11400502920150757,0.03298363834619522
3.25,0.14600539207458496,-0.5266094207763672,0.4128224551677704,-0.00014462578110396862,-0.09874806553125381,0.014967561699450016
3.275,0.13608267903327942,-0.5519475936889648,0.42913150787353516,0.13816429674625397,-0.08679651468992233,-0.008890715427696705
3.3,0.15764933824539185,-0.6483001708984375,0.49257561564445496,0.2718311548233032,-0.0824078917503357,-0.04369516298174858
3.325,0.2280641496181488,-0.9549198746681213,0.5594357848167419,0.4124235510826111,-0.09074417501688004,-0.09118335694074631
3.35,0.2782282829284668,-1.3594361543655396,0.5130499601364136,0.5891445279121399,-0.10130616277456284,-0.16233886778354645
3.375,0.2584972083568573,-1.3740664720535278,0.3456692695617676,0.8326308131217957,-0.1080768033862114,-0.2783597409725189
3.4,0.14910651743412018,-0.5682306885719299,0.14002619683742523,1.1073415279388428,-0.11111532151699066,-0.4224473834037781
3.425,0.038102515041828156,0.77534019947052,-0.1469603329896927,1.2236225605010986,-0.12653741240501404,-0.4873006343841553
3.45,0.008220955729484558,2.064763307571411,-0.541561484336853,1.0499390363693237,-0.12852662801742554,-0.4119189977645874
3.475,-0.011965468525886536,2.6239378452301025,-0.9167197346687317,0.6093555092811584,-0.07091894000768661,-0.23723015189170837
3.5,-0.04573561251163483,2.246060371398926,-1.094102144241333,0.11427506059408188,0.018672747537493706,-0.04873783886432648
3.525,0.015303254127502441,1.4925127029418945,-0.9913508296012878,-0.22466319799423218,0.08833558857440948,0.0831415131688118
3.55,0.18358859419822693,0.9318247437477112,-0.7129679918289185,-0.4056563973426819,0.1420728713274002,0.15515927970409393
3.575,0.3011085093021393,0.5790634155273438,-0.40257593989372253,-0.5132032036781311,0.2148861289024353,0.203693687915802
3.6,0.21760188043117523,0.1511402130126953,-0.10403580963611603,-0.5983944535255432,0.30763179063796997,0.23408950865268707
3.625,0.004234343767166138,-0.23890210688114166,0.13631638884544373,-0.6191339492797852,0.36856016516685486,0.21778814494609833
3.65,-0.11873310804367065,-0.3998270332813263,0.2700398564338684,-0.5611755847930908,0.36253151297569275,0.1777835339307785
3.675,-0.12188290059566498,-0.3320426940917969,0.26774361729621887,-0.4634126126766205,0.3269636929035187,0.14022859930992126
3.7,-0.08311612904071808,-0.05782412365078926,0.13848251104354858,-0.36093562841415405,0.30628302693367004,0.11983421444892883
3.725,-0.05552356317639351,0.12408734858036041,-0.012525270693004131,-0.3201248347759247,0.307692289352417,0.1400606632232666
3.75,-0.04110945016145706,0.09293460845947266,-0.09745712578296661,-0.31421515345573425,0.3190080523490906,0.1713433712720871
3.775,0.033556703478097916,0.019605619832873344,-0.15967753529548645,-0.307712584733963,0.32340797781944275,0.17658929526805878
3.8,0.19335687160491943,-0.0013075183378532529,-0.22812972962856293,-0.29391682147979736,0.3349798619747162,0.15615923702716827
3.825,0.29080331325531006,-0.016358405351638794,-0.18675833940505981,-0.273794025182724,0.38383349776268005,0.1264268010854721
3.85,0.2326231300830841,-0.05649186670780182,-0.030019763857126236,-0.2430865615606308,0.43506231904029846,0.10224852710962296
3.875,0.13325846195220947,-0.16043759882450104,0.08388753235340118,-0.21708132326602936,0.4401748776435852,0.06921394914388657
3.9,0.1037394106388092,-0.2568674385547638,0.1340402066707611,-0.17673449218273163,0.4142462909221649,0.001787547953426838
3.925,0.1783338189125061,-0.2535124123096466,0.1412055790424347,-0.11137856543064117,0.3808702528476715,-0.07835487276315689
3.95,0.2798665463924408,-0.15480804443359375,0.11395867168903351,-0.05261505767703056,0.36821454763412476,-0.14464643597602844
3.975,0.2711593806743622,-0.16103363037109375,0.12301234155893326,-0.0327717661857605,0.3907664120197296,-0.18052443861961365
4.0,0.16361603140830994,-0.3147735595703125,0.20833666622638702,-0.014425929635763168,0.41445890069007874,-0.2120160162448883
4.025,0.08070282638072968,-0.4824390709400177,0.32117903232574463,0.03881232440471649,0.41468361020088196,-0.26317498087882996
4.05,0.06440427899360657,-0.5798578262329102,0.4062190055847168,0.12932322919368744,0.399650514125824,-0.32258617877960205
4.075,0.06659404188394547,-0.5947399139404297,0.4683314859867096,0.2470930963754654,0.3800242841243744,-0.3879735767841339
4.1,0.009454488754272461,-0.5762157440185547,0.5019187927246094,0.37495025992393494,0.3508802354335785,-0.44687971472740173
4.125,-0.14410865306854248,-0.5361118316650391,0.49124449491500854,0.48742347955703735,0.3082055151462555,-0.4939260482788086
4.15,-0.3598461449146271,-0.41942787170410156,0.4233790934085846,0.5725803971290588,0.25896793603897095,-0.535516619682312
4.175,-0.5767634510993958,-0.16175934672355652,0.31910988688468933,0.6461610198020935,0.1977616250514984,-0.5555704832077026
4.2,-0.7403343915939331,0.17832762002944946,0.2255927175283432,0.7079057693481445,0.11318209767341614,-0.53262859582901
4.225,-0.8010952472686768,0.4327784478664398,0.16309916973114014,0.7191059589385986,0.007155731786042452,-0.4827382564544678
4.25,-0.7579753994941711,0.6740666031837463,0.07643833011388779,0.6826973557472229,-0.11242832988500595,-0.4420715272426605
4.275,-0.702479362487793,1.0191670656204224,-0.10746567696332932,0.6032550930976868,-0.21595339477062225,-0.3877074420452118
4.3,-0.7000426650047302,1.3644400835037231,-0.31638410687446594,0.4652900993824005,-0.2787713408470154,-0.27531698346138
4.325,-0.695175290107727,1.590684175491333,-0.47299522161483765,0.28222137689590454,-0.3335212469100952,-0.12217488139867783
4.35,-0.6283261179924011,1.5635130405426025,-0.5529601573944092,0.05792633071541786,-0.3858008086681366,0.029184240847826004
4.375,-0.5420888662338257,1.1950980424880981,-0.5223371982574463,-0.17493833601474762,-0.41749435663223267,0.15563234686851501
4.4,-0.5000191330909729,0.6879472732543945,-0.37287673354148865,-0.3325521945953369,-0.4372658431529999,0.23202277719974518
4.425,-0.4889785349369049,0.3141022026538849,-0.17082737386226654,-0.39247745275497437,-0.46313387155532837,0.26850947737693787
4.45,-0.47760701179504395,0.07185937464237213,0.007486038841307163,-0.40134286880493164,-0.5046535134315491,0.2908811569213867
4.475,-0.49092337489128113,-0.18094156682491302,0.15486790239810944,-0.39253756403923035,-0.5624426603317261,0.3016018271446228
4.5,-0.6005872488021851,-0.3670053482055664,0.2518526017665863,-0.34785231947898865,-0.6341158747673035,0.2885371744632721
4.525,-0.743532657623291,-0.28455445170402527,0.2671763598918915,-0.2439694106578827,-0.7434962391853333,0.2576344609260559
4.55,-0.7266322374343872,-0.01733013428747654,0.1920202672481537,-0.14078298211097717,-0.8899204730987549,0.2459462583065033
4.575,-0.4807420074939728,0.10926535725593567,0.04302923008799553,-0.11484164744615555,-1.0144909620285034,0.2674417495727539
4.6,-0.15754622220993042,-0.024263393133878708,-0.09281035512685776,-0.12664610147476196,-1.0634093284606934,0.29340097308158875
4.625,0.051135703921318054,-0.12291053682565689,-0.17566047608852386,-0.09585070610046387,-1.0469169616699219,0.31577780842781067
4.65,0.13686105608940125,0.0211009681224823,-0.24521499872207642,-0.05633566528558731,-1.008762240409851,0.3512915074825287
4.675,0.14525260031223297,0.1912679523229599,-0.3001236319541931,-0.0557323656976223,-0.9654755592346191,0.38011878728866577
4.7,0.1490083783864975,0.1536855399608612,-0.3120575249195099,-0.0780392587184906,-0.9384418725967407,0.3805445432662964
4.725,0.19170580804347992,-0.0024671920109540224,-0.2755357325077057,-0.09264277666807175,-0.928730845451355,0.35610854625701904
4.75,0.2238398790359497,-0.08213905245065689,-0.21174918115139008,-0.08559071272611618,-0.9146121740341187,0.3209756016731262
4.775,0.2865486145019531,-0.05014899745583534,-0.15736123919487,-0.06252644211053848,-0.9056740403175354,0.2944304347038269
4.8,0.43552669882774353,-0.03427126631140709,-0.10432261973619461,-0.05061711370944977,-0.8995811939239502,0.26655837893486023
4.825,0.5915791988372803,-0.10257914662361145,-0.022860264405608177,-0.06015625596046448,-0.8634861707687378,0.22562918066978455
4.85,0.663278341293335,-0.085268035531044,0.03067192994058132,-0.05663863942027092,-0.7914759516716003,0.18085603415966034
4.875,0.6239393949508667,0.07594871520996094,0.029629917815327644,-0.03305232524871826,-0.7044915556907654,0.1444668024778366
4.9,0.5061175227165222,0.1409921646118164,0.021667661145329475,-0.03128500655293465,-0.6191716194152832,0.12776164710521698
4.925,0.4086570739746094,0.06923961639404297,0.026758652180433273,-0.03792919963598251,-0.5463851690292358,0.12263288348913193
4.95,0.38965997099876404,-0.01015568245202303,0.03751025348901749,-0.02923789992928505,-0.4852498173713684,0.1218930184841156
4.975,0.39289960265159607,-0.06423092633485794,0.05482855811715126,-0.012505029328167439,-0.42582497000694275,0.12337511777877808
5.0,0.3940940797328949,-0.07548905164003372,0.06632864475250244,0.009907782077789307,-0.37093013525009155,0.12303034216165543
5.025,0.41968026757240295,-0.05028534680604935,0.07459837943315506,0.037755176424980164,-0.32523465156555176,0.11547254770994186
5.05,0.4574364721775055,-0.028301239013671875,0.1136055439710617,0.06599032878875732,-0.2815855145454407,0.09682993590831757
5.075,0.48856377601623535,-0.05143260583281517,0.16571944952011108,0.08789348602294922,-0.23126357793807983,0.066025510430336
5.1,0.5455981492996216,-0.0925130844116211,0.18250064551830292,0.10453938692808151,-0.16852135956287384,0.02980996109545231
5.125,0.5923374891281128,-0.08280563354492188,0.1720551997423172,0.12661448121070862,-0.08833510428667068,-0.00508730998262763
5.15,0.5606188178062439,-0.07021903991699219,0.16118384897708893,0.1546803116798401,0.0020797376055270433,-0.037368737161159515
5.175,0.46381375193595886,-0.10458851605653763,0.15320928394794464,0.19315199553966522,0.08774121850728989,-0.06390471756458282
5.2,0.31157681345939636,-0.13532352447509766,0.16127349436283112,0.2478683441877365,0.16188684105873108,-0.08678992092609406
5.225,0.1170649304986,-0.07647132128477097,0.15177932381629944,0.30917760729789734,0.21738852560520172,-0.10520670562982559
5.25,-0.09416842460632324,0.08420660346746445,0.0849774181842804,0.34565049409866333,0.24077951908111572,-0.10603167116641998
5.275,-0.2649211585521698,0.19609549641609192,0.012397599406540394,0.32989194989204407,0.2249898463487625,-0.09158095717430115
5.3,-0.35836896300315857,0.156190887093544,-0.03243545815348625,0.2859156131744385,0.17673179507255554,-0.07862838357686996
5.325,-0.3939787447452545,0.06835842877626419,-0.0613824687898159,0.26012498140335083,0.10891172289848328,-0.07204872369766235
5.35,-0.39866676926612854,0.040189746767282486,-0.07927894592285156,0.2639172077178955,0.034442488104104996,-0.06655281037092209
5.375,-0.4256020188331604,0.05788517743349075,-0.07644204795360565,0.28093448281288147,-0.038462284952402115,-0.060232218354940414
5.4,-0.6929498910903931,0.17582036554813385,-0.0869695171713829,0.29925137758255005,-0.11029329895973206,-0.05767245218157768
5.425,-1.3345519304275513,0.42197805643081665,-0.18387143313884735,0.29438403248786926,-0.22963494062423706,-0.06053079292178154
5.45,-1.8345869779586792,0.5877028107643127,-0.33326855301856995,0.2317093014717102,-0.5348623394966125,-0.10568878799676895
5.475,-1.6587363481521606,0.517794668674469,-0.40622276067733765,0.13631674647331238,-0.9941582083702087,-0.27864933013916016
5.5,-1.090069055557251,0.3560009002685547,-0.3640879690647125,0.08015269041061401,-1.3644962310791016,-0.48661506175994873
5.525,-0.5405155420303345,0.2824249267578125,-0.28120535612106323,0.07291088998317719,-1.5676876306533813,-0.558932363986969
5.55,0.05513864755630493,0.23058797419071198,-0.15103177726268768,0.0588790699839592,-1.666491150856018,-0.5326060652732849
5.575,0.6740327477455139,0.08940410614013672,0.056485291570425034,0.030455220490694046,-1.6340198516845703,-0.4840269386768341
5.6,1.0521970987319946,-0.05820370092988014,0.2085803747177124,0.03198961913585663,-1.4405162334442139,-0.4122926592826843
5.625,1.1473881006240845,-0.07348346710205078,0.23095183074474335,0.06607531756162643,-1.16291081905365,-0.3072226047515869
5.65,1.0483310222625732,0.09547807276248932,0.19053812325000763,0.09513472765684128,-0.8760624527931213,-0.17802008986473083
5.675,0.8493363857269287,0.2819109261035919,0.16577468812465668,0.07457943260669708,-0.6203488707542419,-0.06417862325906754
5.7,0.672346293926239,0.2650289833545685,0.19013181328773499,0.015879295766353607,-0.41493719816207886,-0.005686808377504349
5.725,0.5250436067581177,0.07300951331853867,0.23296046257019043,-0.0208920706063509,-0.2498447597026825,0.012689128518104553
5.75,0.3364570736885071,-0.11696814745664597,0.26989659667015076,-0.015789810568094254,-0.12073076516389847,0.02714584581553936
5.775,0.13412131369113922,-0.1565236896276474,0.3119388520717621,0.01769169606268406,-0.04446397349238396,0.046202078461647034
5.8,-0.04625864326953888,-0.09634015709161758,0.32871150970458984,0.061165738850831985,-0.017615456134080887,0.044279325753450394
5.825,-0.17968061566352844,-0.19235515594482422,0.280947208404541,0.08884650468826294,-0.04266028106212616,0.0057483273558318615
5.85,-0.17111943662166595,-0.3303852081298828,0.24063338339328766,0.16147780418395996,-0.11165796965360641,-0.023156829178333282
5.875,0.06826750934123993,-0.37842753529548645,0.3102678656578064,0.2630250155925751,-0.16241292655467987,-0.028020981699228287
5.9,0.5794020295143127,-0.5692691802978516,0.5441628098487854,0.3328723609447479,-0.14534296095371246,-0.01805501990020275
5.925,1.2754133939743042,-0.9340839982032776,0.9054043292999268,0.443553626537323,-0.012995610944926739,0.03316165506839752
5.95,1.8866562843322754,-1.3591728210449219,1.1911187171936035,0.6224405169487,0.28430259227752686,0.11938074231147766
5.975,2.1101160049438477,-1.7696038484573364,1.139056921005249,0.8442394137382507,0.7228827476501465,0.22181135416030884
6.0,1.6627209186553955,-1.9961392879486084,0.5826014280319214,1.091921091079712,1.1983087062835693,0.33380815386772156
6.025,0.42111295461654663,-1.4944573640823364,-0.3271191716194153,1.3815803527832031,1.5667253732681274,0.4661193788051605
6.05,-0.9675164818763733,0.06649676710367203,-0.9423006772994995,1.639216423034668,1.6124523878097534,0.6227791905403137
6.075,-1.5949965715408325,1.8531934022903442,-0.9859481453895569,1.6289678812026978,1.3218640089035034,0.6780232191085815
6.1,-1.560403823852539,2.6521198749542236,-0.9264199733734131,1.253868579864502,0.9925116896629333,0.5656450986862183
6.125,-1.309203028678894,2.2947142124176025,-0.9967505931854248,0.7604902386665344,0.7130812406539917,0.4080286920070648
6.15,-0.8748595118522644,1.5933982133865356,-0.938511312007904,0.44137027859687805,0.42979422211647034,0.2663291096687317
6.175,-0.4011676013469696,1.1053085327148438,-0.647689163684845,0.2988751530647278,0.23066753149032593,0.12259385734796524
6.2,-0.09900496900081635,0.7401905059814453,-0.3230614960193634,0.20592717826366425,0.14722231030464172,-0.007821210660040379
6.225,0.10655698925256729,0.38417917490005493,-0.0893966481089592,0.13879112899303436,0.11766473203897476,-0.09706506133079529
6.25,0.3043861985206604,0.11818410456180573,0.07192178815603256,0.11511999368667603,0.11782899498939514,-0.13070201873779297
6.275,0.48464617133140564,0.016285909339785576,0.18399205803871155,0.12515883147716522,0.1537964940071106,-0.11419093608856201
6.3,0.5891226530075073,-0.027414308860898018,0.24538737535476685,0.1337253600358963,0.2302701771259308,-0.07324539870023727
6.325,0.5572129487991333,-0.12432193756103516,0.24213208258152008,0.14046670496463776,0.3308078944683075,-0.029476074501872063
6.35,0.4377990663051605,-0.19843102991580963,0.22595739364624023,0.16933129727840424,0.41404032707214355,0.0060350364074110985
6.375,0.3196141719818115,-0.10968970507383347,0.2664574682712555,0.2164824903011322,0.4579424560070038,0.028829792514443398
6.4,0.2540452480316162,0.15530113875865936,0.3186572194099426,0.23972685635089874,0.4809770882129669,0.036394793540239334
6.425,0.23134461045265198,0.3674841523170471,0.2701241075992584,0.18131430447101593,0.5012156963348389,0.035401273518800735
6.45,0.2389218658208847,0.2657785713672638,0.11414182186126709,0.06747515499591827,0.5107952952384949,0.04514177143573761
6.475,0.3232077956199646,0.10628129541873932,0.030870599672198296,0.04899710789322853,0.5091782212257385,0.062499504536390305
6.5,0.5236702561378479,0.15508271753787994,0.06331951916217804,0.11442434787750244,0.5094916820526123,0.06407886743545532
6.525,0.7644243240356445,0.1270742416381836,0.06235862523317337,0.10912957042455673,0.5304749011993408,0.053038839250802994
6.55,0.9554213881492615,0.027970297262072563,-0.007166740018874407,0.08546565473079681,0.5931993722915649,0.014189516194164753
6.575,1.0046683549880981,0.08613012731075287,-0.0299810953438282,0.11273588240146637,0.6987389326095581,-0.05870145559310913
6.6,0.8969188332557678,0.1387500762939453,0.012287141755223274,0.11144742369651794,0.7880104780197144,-0.12101293355226517
6.625,0.6798117756843567,0.027399059385061264,0.05974029377102852,0.07178911566734314,0.8476742506027222,-0.1691272109746933
6.65,0.33980274200439453,-0.12684345245361328,0.13731341063976288,0.049343042075634,0.9088592529296875,-0.22708776593208313
6.675,-0.05050382390618324,-0.17785166203975677,0.2653423249721527,0.05350293219089508,0.9328539967536926,-0.2797381579875946
6.7,-0.35781267285346985,-0.16221043467521667,0.3735339343547821,0.05492241680622101,0.882286787033081,-0.3051888048648834
6.725,-0.5422053337097168,-0.17241759598255157,0.38034364581108093,0.036410074681043625,0.7809651494026184,-0.29831454157829285
6.75,-0.7080328464508057,-0.18849943578243256,0.30428236722946167,0.025651464238762856,0.6768873333930969,-0.2683615982532501
6.775,-0.8765469193458557,-0.1405925452709198,0.25854066014289856,0.04157278686761856,0.5665549039840698,-0.23868373036384583
6.8,-0.9079265594482422,0.009120997041463852,0.3122839629650116,0.05821838974952698,0.42479076981544495,-0.23302383720874786
6.825,-0.7867032289505005,0.21964940428733826,0.4156644642353058,0.04560207948088646,0.280903697013855,-0.25917357206344604
6.85,-0.6768088340759277,0.36507901549339294,0.48008623719215393,0.0015791021287441254,0.17845046520233154,-0.29858189821243286
6.875,-0.7029704451560974,0.4053393602371216,0.46931153535842896,-0.02283328026533127,0.11417249590158463,-0.3213599622249603
6.9,-0.8365897536277771,0.33816155791282654,0.39163729548454285,-0.001112818717956543,0.05543777346611023,-0.317447304725647
6.925,-0.9912469387054443,0.15227611362934113,0.36544468998908997,0.04407818615436554,-0.012976701371371746,-0.2893044650554657
6.95,-1.0843151807785034,-0.092494897544384,0.47362220287323,0.06406475603580475,-0.10555460304021835,-0.23357504606246948
6.975,-1.0460854768753052,-0.3132724165916443,0.6194731593132019,0.03438257798552513,-0.22845090925693512,-0.17192593216896057
7.0,-0.8764904737472534,-0.36737245321273804,0.7193037271499634,0.007790492847561836,-0.3470643162727356,-0.1493142545223236
7.025,-0.6738963723182678,-0.1904391497373581,0.7463303804397583,0.015640130266547203,-0.40884193778038025,-0.190359428524971
7.05,-0.5248856544494629,0.1541806310415268,0.7316204905509949,0.06663326919078827,-0.4025450646877289,-0.26549941301345825
7.075,-0.4379892945289612,0.510898768901825,0.6989133954048157,0.12082306295633316,-0.36337190866470337,-0.30392926931381226
7.1,-0.41135138273239136,0.7058717012405396,0.6489583849906921,0.13700737059116364,-0.3126334547996521,-0.2751833200454712
7.125,-0.45014238357543945,0.6303607225418091,0.5890733003616333,0.11285872757434845,-0.2542930245399475,-0.1943369060754776
7.15,-0.5101295709609985,0.3512669801712036,0.5495755672454834,0.06972023844718933,-0.2040950506925583,-0.08653455972671509
7.175,-0.5380157232284546,0.028799140825867653,0.5901752710342407,0.03989802673459053,-0.1754521280527115,0.020556656643748283
7.2,-0.5527293682098389,-0.24372762441635132,0.6804463267326355,0.023241076618433,-0.16542628407478333,0.1094699278473854
7.225,-0.5306077599525452,-0.3714894652366638,0.7411912083625793,0.02457127720117569,-0.17041438817977905,0.1668197065591812
7.25,-0.4427981972694397,-0.3372268080711365,0.7562189102172852,0.033477723598480225,-0.17115488648414612,0.17804141342639923
7.275,-0.4028533101081848,-0.19581882655620575,0.786611795425415,0.048642199486494064,-0.1414041817188263,0.14297419786453247
7.3,-0.49846988916397095,-0.012612232007086277,0.8723786473274231,0.06192013621330261,-0.0951060876250267,0.09400218725204468
7.325,-0.686149001121521,0.1672011911869049,0.9872982501983643,0.051746852695941925,-0.056792862713336945,0.06468255817890167
7.35,-0.873643159866333,0.3039981722831726,1.101104974746704,0.01362556777894497,-0.03703537955880165,0.06699717044830322
7.375,-0.9610915780067444,0.350694864988327,1.2295734882354736,-0.03909974545240402,-0.04424010217189789,0.10311755537986755
7.4,-0.8988969326019287,0.343431681394577,1.3886287212371826,-0.08048112690448761,-0.06900239735841751,0.1635342240333557
7.425,-0.7540595531463623,0.32225823402404785,1.5397857427597046,-0.09463457763195038,-0.07903004437685013,0.23606139421463013
7.45,-0.6319333910942078,0.2148592323064804,1.5914151668548584,-0.10247237235307693,-0.06002194806933403,0.31192317605018616
7.475,-0.5556597709655762,0.11436387151479721,1.5091150999069214,-0.09617341309785843,-0.02373162843286991,0.37867340445518494
7.5,-0.5180966258049011,0.12540262937545776,1.2921123504638672,-0.06294190138578415,0.0034983977675437927,0.4292554557323456
7.525,-0.5349089503288269,0.12532629072666168,0.9130730628967285,-0.007953114807605743,0.020322997123003006,0.4584541916847229
7.55,-0.6061891913414001,0.060467787086963654,0.3886980414390564,0.030346088111400604,0.03554769605398178,0.46868404746055603
7.575,-0.605501651763916,0.04375552013516426,-0.22811929881572723,0.06758716702461243,0.012489307671785355,0.46993616223335266
7.6,-0.2807675004005432,0.37608620524406433,-0.8294427394866943,0.19510039687156677,-0.08121338486671448,0.4603404998779297
7.625,0.3891887068748474,1.1300983428955078,-1.2651315927505493,0.36874517798423767,-0.19832147657871246,0.4508502185344696
7.65,1.076806664466858,1.7177362442016602,-1.5374842882156372,0.4111669063568115,-0.23777534067630768,0.4266677796840668
7.675,1.5705727338790894,1.745499610900879,-1.7638335227966309,0.34045177698135376,-0.20718027651309967,0.3808530867099762
7.7,1.8664891719818115,1.2294777631759644,-2.0327517986297607,0.22926123440265656,-0.14751414954662323,0.32672423124313354
7.725,1.9977829456329346,0.4160554111003876,-2.321138381958008,0.1157756820321083,-0.05474497377872467,0.255157470703125
7.75,2.100614547729492,-0.17077386379241943,-2.5111212730407715,0.04931032657623291,0.056090082973241806,0.16489993035793304
7.775,2.3034517765045166,-0.19722594320774078,-2.505465507507324,0.022180408239364624,0.1827848106622696,0.0967811867594719
7.8,2.448889970779419,0.20409460365772247,-2.2875332832336426,0.012385314330458641,0.3621949851512909,0.09163139760494232
7.825,2.299530267715454,0.6030480861663818,-2.0571155548095703,-0.009384145960211754,0.5926868915557861,0.13259994983673096
7.85,1.8541781902313232,0.7226341366767883,-1.8991690874099731,-0.06410456448793411,0.828295886516571,0.17177274823188782
7.875,1.232666015625,0.6477401852607727,-1.6559721231460571,-0.1227492019534111,1.0241897106170654,0.20158913731575012
7.9,0.5759236812591553,0.5053757429122925,-1.253515601158142,-0.1611679643392563,1.1418581008911133,0.2106350213289261
7.925,0.04500482231378555,0.30259889364242554,-0.7482559680938721,-0.19472730159759521,1.1630877256393433,0.1884976625442505
7.95,-0.25352197885513306,-0.03684905543923378,-0.2948640286922455,-0.2608596980571747,1.1018180847167969,0.15360267460346222
7.975,-0.3235006332397461,-0.4987555146217346,0.030780989676713943,-0.3366345167160034,0.993849515914917,0.12266401201486588
8.0,-0.2527064383029938,-0.9416857361793518,0.2824493646621704,-0.37851279973983765,0.892167329788208,0.08562014997005463
8.025,-0.15361997485160828,-1.2470580339431763,0.47799181938171387,-0.3741180896759033,0.8220363259315491,0.04240165278315544
8.05,-0.07998953759670258,-1.3310842514038086,0.6235997676849365,-0.3145573139190674,0.772258460521698,0.004775184206664562
8.075,-0.0243961364030838,-1.1423320770263672,0.6897794604301453,-0.2087034434080124,0.7248510122299194,-0.025831539183855057
8.1,-0.04295729845762253,-0.8264399170875549,0.6341261267662048,-0.108791284263134,0.6868010759353638,-0.05172288045287132
8.125,-0.17019832134246826,-0.508234977722168,0.5471843481063843,-0.018285881727933884,0.6548084616661072,-0.08191944658756256
8.15,-0.2944910526275635,-0.28458401560783386,0.4566333591938019,0.045007482171058655,0.5851423144340515,-0.10441914200782776
8.175,-0.3006027638912201,-0.208433136343956,0.3068002760410309,0.07181357592344284,0.4654913544654846,-0.1100226417183876
8.2,-0.18993639945983887,-0.24488259851932526,0.12377714365720749,0.07508660107851028,0.3276732861995697,-0.10367073118686676
8.225,-0.018926091492176056,-0.3608913719654083,-0.0812239944934845,0.04878368228673935,0.18885664641857147,-0.08945446461439133
8.25,0.2674414813518524,-0.44148167967796326,-0.29206159710884094,-0.001417446881532669,0.04758204147219658,-0.0823654979467392
8.275,0.8056103587150574,-0.27091607451438904,-0.3490964472293854,-0.05248012766242027,-0.07094621658325195,-0.08425972610712051
8.3,1.5615410804748535,0.3773823082447052,-0.024321094155311584,-0.11330293118953705,-0.12223109602928162,-0.09898236393928528
8.325,2.30656361579895,1.3222333192825317,0.6476076245307922,-0.2306603044271469,-0.07974833250045776,-0.11858601868152618
8.35,2.6131649017333984,1.6687215566635132,1.0663909912109375,-0.38214123249053955,0.048511505126953125,-0.13912594318389893
8.375,2.1913578510284424,0.5788480043411255,0.6716486215591431,-0.4999604821205139,0.23262259364128113,-0.1718353033065796
8.4,1.488616704940796,-0.9871341586112976,-0.020334942266345024,-0.46197739243507385,0.4208451807498932,-0.23667670786380768
8.425,0.8300653100013733,-1.8554233312606812,-0.5955742597579956,-0.33055806159973145,0.6290167570114136,-0.3949340283870697
8.45,0.10961218923330307,-1.8851240873336792,-1.07646644115448,-0.14727094769477844,0.8838630318641663,-0.6427183747291565
8.475,-0.6801604628562927,-1.253511667251587,-1.3512394428253174,0.0934256911277771,1.1206862926483154,-0.7887841463088989
8.5,-1.4081779718399048,-0.4483291506767273,-1.3831744194030762,0.2800578773021698,1.2701683044433594,-0.7107947468757629
8.525,-1.900997281074524,0.33421510457992554,-1.1780195236206055,0.4379526972770691,1.3078563213348389,-0.5433676838874817
8.55,-2.11755633354187,1.160147786140442,-0.7102025747299194,0.5797175765037537,1.2678287029266357,-0.4287804663181305
8.575,-2.1035914421081543,1.85011887550354,-0.09846825897693634,0.6155480742454529,1.1661436557769775,-0.3443317115306854
8.6,-1.9271374940872192,2.025161027908325,0.3267844319343567,0.5136983394622803,0.9888975620269775,-0.22984959185123444
8.625,-1.5891664028167725,1.667228102684021,0.41788235306739807,0.32501137256622314,0.7813419699668884,-0.12812699377536774
8.65,-1.095046877861023,1.1650173664093018,0.36279529333114624,0.14466242492198944,0.6322057247161865,-0.08672846853733063
8.675,-0.6556740999221802,0.6966954469680786,0.3538477122783661,0.0065596578642725945,0.5769278407096863,-0.04636779800057411
8.7,-0.3924947679042816,0.19489583373069763,0.41226160526275635,-0.07906965911388397,0.5798161625862122,0.03372429311275482
8.725,-0.31191912293434143,-0.3028278052806854,0.46438464522361755,-0.10270552337169647,0.6091416478157043,0.13190095126628876
8.75,-0.32759255170822144,-0.6075067520141602,0.4904729127883911,-0.05612393841147423,0.6333752274513245,0.20234578847885132
8.775,-0.35253724455833435,-0.6078243255615234,0.5230875611305237,0.04214107617735863,0.6453841328620911,0.21757790446281433
8.8,-0.37039077281951904,-0.3787822723388672,0.5037226676940918,0.1397342085838318,0.6522325873374939,0.19252462685108185
8.825,-0.46629130840301514,-0.1984376758337021,0.3576742112636566,0.17613859474658966,0.667186975479126,0.17390815913677216
8.85,-0.7229816913604736,-0.1756601184606552,0.1398187130689621,0.15916970372200012,0.7022387981414795,0.1740630716085434
8.875,-1.0041567087173462,0.0038738425355404615,-0.02865809202194214,0.1617213636636734,0.73746258020401,0.17695167660713196
8.9,-1.0676755905151367,0.6478205323219299,-0.04680156335234642,0.21790838241577148,0.7455528974533081,0.18516741693019867
8.925,-0.8145891427993774,1.6593554019927979,0.15489308536052704,0.27311599254608154,0.7295807600021362,0.23130758106708527
8.95,-0.38193410634994507,2.524780511856079,0.5188263058662415,0.2523973882198334,0.7191950678825378,0.3174147605895996
8.975,-0.19607405364513397,2.5228798389434814,0.8397971391677856,0.11020898818969727,0.7557353377342224,0.4296022355556488
9.0,-0.35494208335876465,1.5019735097885132,1.0484479665756226,-0.09036866575479507,0.7855879664421082,0.5808939933776855
9.025,-0.39005377888679504,0.20466534793376923,1.0802737474441528,-0.22559460997581482,0.6996946930885315,0.720202624797821
9.05,-0.11137383431196213,-0.6575307250022888,0.8144233226776123,-0.17976757884025574,0.5020017623901367,0.7598057389259338
9.075,0.3719567656517029,-0.9123154878616333,0.2672255039215088,0.014385029673576355,0.2870938777923584,0.688167154788971
9.1,0.8619055151939392,-1.0227510929107666,-0.41241711378097534,0.1403951644897461,0.18448859453201294,0.611458420753479
9.125,1.283650517463684,-1.2749855518341064,-1.1800299882888794,0.13978101313114166,0.17493046820163727,0.5681041479110718
9.15,1.74547278881073,-1.2827914953231812,-1.9275766611099243,0.13754822313785553,0.19815510511398315,0.49456092715263367
9.175,2.1739044189453125,-0.9317622184753418,-2.4540605545043945,0.15125691890716553,0.2890869379043579,0.402279794216156
9.2,2.388838291168213,-0.433257520198822,-2.7016396522521973,0.17098987102508545,0.4392540454864502,0.30508655309677124
9.225,2.3070764541625977,0.033193230628967285,-2.662160634994507,0.18567614257335663,0.6325958967208862,0.19627173244953156
9.25,1.9554263353347778,0.34167927503585815,-2.331169843673706,0.16932745277881622,0.8375029563903809,0.09918718785047531
9.275,1.5188708305358887,0.5132940411567688,-1.7992140054702759,0.12377474457025528,0.9816946387290955,0.03820083290338516
9.3,1.2159340381622314,0.5222748517990112,-1.2681543827056885,0.05877620726823807,1.0264110565185547,0.021330472081899643
9.325,1.0713200569152832,0.32786455750465393,-0.891591489315033,-0.01660626195371151,1.0010406970977783,0.03133063018321991
9.35,1.0455385446548462,-0.019488440826535225,-0.7051161527633667,-0.09643225371837616,0.9409462213516235,0.06348817050457001
9.375,1.0966026782989502,-0.4450971186161041,-0.6567862033843994,-0.1589071899652481,0.8663166165351868,0.10243260860443115
9.4,1.1281073093414307,-0.884777307510376,-0.6433042287826538,-0.19181722402572632,0.803054690361023,0.1274348646402359
9.425,1.134103775024414,-1.2544872760772705,-0.5850196480751038,-0.20212635397911072,0.7629597783088684,0.11829212307929993
9.45,1.1447525024414062,-1.5192397832870483,-0.46441513299942017,-0.20261414349079132,0.7307562232017517,0.07701338827610016
9.475,1.209304928779602,-1.6563684940338135,-0.2857903242111206,-0.1985207349061966,0.6878854632377625,0.02311321347951889
9.5,1.3508309125900269,-1.6288502216339111,-0.12627661228179932,-0.191853865981102,0.6111700534820557,-0.03614557534456253
9.525,1.433600902557373,-1.4373093843460083,-0.030125580728054047,-0.1872318983078003,0.5261992812156677,-0.09340573847293854
9.55,1.4714527130126953,-1.1020785570144653,0.015588375739753246,-0.1764114499092102,0.4590447247028351,-0.1721143275499344
9.575,1.5985558032989502,-0.7361699342727661,0.009270073845982552,-0.15868334472179413,0.39535027742385864,-0.24132676422595978
9.6,1.8146840333938599,-0.3210964798927307,-0.02739799953997135,-0.14975477755069733,0.33528226613998413,-0.2739448845386505
9.625,2.060056686401367,0.06504817306995392,-0.09344833344221115,-0.17049095034599304,0.292746365070343,-0.24231570959091187
9.65,2.2550694942474365,0.20221133530139923,-0.23582953214645386,-0.21548855304718018,0.2620823383331299,-0.15407845377922058
9.675,2.2697460651397705,0.107689768075943,-0.4717927575111389,-0.26029089093208313,0.22909139096736908,-0.07593894004821777
9.7,2.202096939086914,0.2533959448337555,-0.6325682997703552,-0.2654578387737274,0.21662385761737823,-0.11122364550828934
9.725,2.1879916191101074,0.731010377407074,-0.6904008388519287,-0.26882800459861755,0.212204709649086,-0.18643873929977417
9.75,2.2023985385894775,1.0524330139160156,-0.814529538154602,-0.2860998809337616,0.16832715272903442,-0.1746462732553482
9.775,2.2360408306121826,1.002854347229004,-0.9691798090934753,-0.32437679171562195,0.135860875248909,-0.059645477682352066
9.8,2.5137460231781006,1.1257944107055664,-1.0217528343200684,-0.3770596981048584,0.13322173058986664,0.09733611345291138
9.825,3.264841079711914,2.1332292556762695,-1.0074677467346191,-0.4095795750617981,0.13286827504634857,0.21181705594062805
9.85,3.5038063526153564,2.9861583709716797,-1.0305768251419067,-0.40945810079574585,0.1599687784910202,0.13356809318065643
9.875,1.8578404188156128,1.309004783630371,-1.0068830251693726,-0.4134165048599243,0.259549617767334,0.04664759337902069
9.9,-0.2808893024921417,-0.6614714860916138,-0.7918210625648499,-0.35196441411972046,0.3288428485393524,-0.149274080991745
9.925,-2.188358783721924,-1.0880299806594849,-0.04906202480196953,-0.453864187002182,0.508517324924469,-0.42213019728660583
9.95,-3.467346668243408,0.2493421882390976,1.1018941402435303,-0.5929577350616455,0.7268787026405334,-0.9747176170349121
9.975,-3.599529504776001,2.0998902320861816,1.5981895923614502,-0.42295265197753906,0.6052530407905579,-1.252065896987915
10.0,-3.3917276859283447,2.2591395378112793,1.1675312519073486,-0.19958926737308502,0.34242838621139526,-0.8803671598434448
10.025,-3.3385391235351562,1.1757452487945557,0.7804198861122131,-0.15805573761463165,0.31194353103637695,-0.5262527465820312
10.05,-3.227992057800293,0.18808956444263458,0.8328623175621033,-0.22412659227848053,0.40403473377227783,-0.4391816556453705
10.075,-3.050748348236084,-0.4313544034957886,0.884000837802887,-0.26347118616104126,0.4120250940322876,-0.42299142479896545
10.1,-2.7507970333099365,-0.5601014494895935,0.6229073405265808,-0.24693617224693298,0.34366801381111145,-0.45784926414489746
10.125,-2.310116767883301,-0.32809919118881226,0.25560978055000305,-0.20694378018379211,0.3254833519458771,-0.4923117160797119
10.15,-1.9596929550170898,-0.23653025925159454,0.2546716332435608,-0.18570217490196228,0.43984973430633545,-0.43392765522003174
10.175,-1.861526370048523,-0.4398145079612732,0.7263690233230591,-0.17241254448890686,0.5951007604598999,-0.33269694447517395
10.2,-1.8887726068496704,-0.7507428526878357,1.2673577070236206,-0.15199372172355652,0.6497790813446045,-0.2626535892486572
10.225,-1.8810153007507324,-0.8847864866256714,1.5537885427474976,-0.1138409972190857,0.5996092557907104,-0.24717599153518677
10.25,-1.7741734981536865,-0.7167442440986633,1.540009617805481,-0.0632018893957138,0.5005502104759216,-0.2870769798755646
10.275,-1.5866236686706543,-0.36060795187950134,1.2999340295791626,-0.010001704096794128,0.40227627754211426,-0.3460606038570404
10.3,-1.4035331010818481,0.00507940910756588,0.9408853650093079,0.04234764724969864,0.3342077434062958,-0.38482385873794556
10.325,-1.2202177047729492,0.41754451394081116,0.5505481362342834,0.09578849375247955,0.2947876751422882,-0.41754481196403503
10.35,-1.0406404733657837,0.8219043612480164,0.23846222460269928,0.14709554612636566,0.2937804162502289,-0.42304283380508423
10.375,-0.9265614151954651,0.9968540072441101,0.1129210889339447,0.1784675419330597,0.34128567576408386,-0.3589930236339569
10.4,-0.872532308101654,0.9249574542045593,0.13118362426757812,0.18614250421524048,0.3972702622413635,-0.27069899439811707
10.425,-0.872107982635498,0.7093774080276489,0.16367635130882263,0.1760794073343277,0.43438470363616943,-0.19290591776371002
10.45,-0.8549483418464661,0.48757657408714294,0.13635529577732086,0.16008511185646057,0.46016189455986023,-0.14279107749462128
10.475,-0.7410579323768616,0.2977190613746643,0.09924175590276718,0.15983335673809052,0.497297078371048,-0.10937052965164185
10.5,-0.504939615726471,0.2169666886329651,0.11959602683782578,0.17544536292552948,0.5451054573059082,-0.08478911966085434
10.525,-0.14425882697105408,0.2906714081764221,0.17279526591300964,0.18872953951358795,0.5862739682197571,-0.06453202664852142
10.55,0.2359449863433838,0.3465433716773987,0.2390626221895218,0.17437167465686798,0.6302277445793152,-0.03320614993572235
10.575,0.5431482791900635,0.21357446908950806,0.34299236536026,0.13540513813495636,0.7101131677627563,0.008052077144384384
10.6,0.6831052899360657,-0.1234864890575409,0.523563027381897,0.09598683565855026,0.8098159432411194,0.048436008393764496
10.625,0.67104572057724,-0.5842828750610352,0.7359095215797424,0.0770188570022583,0.8691130876541138,0.03593224287033081
10.65,0.6201109886169434,-0.9641571640968323,0.818114697933197,0.10231945663690567,0.8381912112236023,-0.054661937057971954
10.675,0.6462205648422241,-1.0707874298095703,0.6303828954696655,0.16280335187911987,0.7159402370452881,-0.19714316725730896
10.7,0.7135725021362305,-0.9363728761672974,0.22736245393753052,0.22133904695510864,0.5619586706161499,-0.3453017473220825
10.725,0.659187912940979,-0.744421124458313,-0.23129534721374512,0.24941480159759521,0.4223654866218567,-0.45744988322257996
10.75,0.3974218964576721,-0.6226140260696411,-0.6080132722854614,0.2360839545726776,0.33075645565986633,-0.4971201419830322
10.775,0.07103945314884186,-0.49148479104042053,-0.8590752482414246,0.1683226227760315,0.2976865768432617,-0.5026047229766846
10.8,-0.20103389024734497,-0.2088891565799713,-1.0124517679214478,0.06277504563331604,0.2970329821109772,-0.5098828673362732
10.825,-0.3153603672981262,0.222678080201149,-1.2136873006820679,-0.048098549246788025,0.28739067912101746,-0.5185328125953674
10.85,-0.2795912027359009,0.6773918867111206,-1.524465799331665,-0.13443154096603394,0.2697966396808624,-0.49631816148757935
10.875,-0.21920612454414368,0.920041024684906,-1.7467042207717896,-0.17563380300998688,0.286868155002594,-0.4062182605266571
10.9,-0.16773033142089844,0.8803414702415466,-1.6702200174331665,-0.1738864630460739,0.34555092453956604,-0.28312578797340393
10.925,-0.1710665076971054,0.7091082334518433,-1.3730581998825073,-0.13357064127922058,0.39502301812171936,-0.1635698825120926
10.95,-0.09606926143169403,0.6001681685447693,-1.0398945808410645,-0.09402453154325485,0.41506266593933105,-0.10387445986270905
10.975,0.17165669798851013,0.5961560606956482,-0.7342658042907715,-0.07425190508365631,0.401813805103302,-0.08708886802196503
11.0,0.590883195400238,0.6150884628295898,-0.536014974117279,-0.0703386664390564,0.35327595472335815,-0.06648898869752884
11.025,0.9615359306335449,0.5203704833984375,-0.4515291452407837,-0.07146209478378296,0.29108497500419617,-0.0043142326176166534
11.05,1.130035400390625,0.21201226115226746,-0.298650324344635,-0.07048576325178146,0.2595587372779846,0.09567046165466309
11.075,1.074264645576477,-0.2761402726173401,0.010431733913719654,-0.0856875479221344,0.25580114126205444,0.17762938141822815
11.1,0.8612088561058044,-0.7194395661354065,0.3566359281539917,-0.13434824347496033,0.23408490419387817,0.19039559364318848
11.125,0.5658007264137268,-0.8712320923805237,0.6269745230674744,-0.21618708968162537,0.1849411576986313,0.12568862736225128
11.15,0.3353368043899536,-0.6416749954223633,0.7229449152946472,-0.30851078033447266,0.09887256473302841,0.005005419719964266
11.175,0.25705403089523315,-0.11168952286243439,0.5345252156257629,-0.3797365427017212,-0.02663664147257805,-0.12235240638256073
11.2,0.2584748864173889,0.4718523919582367,0.2002655565738678,-0.39648720622062683,-0.1403678059577942,-0.1729074865579605
11.225,0.24363861978054047,0.7949610948562622,-0.07569620758295059,-0.36789456009864807,-0.1972358226776123,-0.12308218330144882
11.25,0.19996027648448944,0.7921209931373596,-0.21933792531490326,-0.3313377797603607,-0.19399893283843994,-0.03096580319106579
11.275,0.15217316150665283,0.6137876510620117,-0.2733617424964905,-0.3073183596134186,-0.14854979515075684,0.04916510730981827
11.3,0.13207051157951355,0.38399985432624817,-0.22724024951457977,-0.2769702076911926,-0.0763784646987915,0.10010955482721329
11.325,0.18048253655433655,0.1656322479248047,-0.0815180167555809,-0.23281750082969666,0.0029819197952747345,0.11479045450687408
11.35,0.27006420493125916,-0.012832637876272202,0.09678171575069427,-0.18128889799118042,0.06307487934827805,0.1042405515909195
11.375,0.3327263593673706,-0.1717233657836914,0.238719642162323,-0.13555525243282318,0.09257059544324875,0.08703121542930603
11.4,0.33183127641677856,-0.2904939651489258,0.32359078526496887,-0.10125303268432617,0.10757344216108322,0.06206902861595154
11.425,0.30647045373916626,-0.33831024169921875,0.3957147002220154,-0.08435310423374176,0.1215142086148262,0.024349890649318695
11.45,0.29176875948905945,-0.279384583234787,0.49536606669425964,-0.08138751238584518,0.1303405612707138,-0.015623921528458595
11.475,0.2490580976009369,-0.09292025119066238,0.5357539057731628,-0.08897024393081665,0.11497393995523453,-0.059325944632291794
11.5,0.19833490252494812,0.12493426352739334,0.461250364780426,-0.08621534705162048,0.0853964239358902,-0.09379922598600388
11.525,0.19236886501312256,0.2619944214820862,0.34782570600509644,-0.06036574766039848,0.05905097350478172,-0.10472457110881805
11.55,0.21229924261569977,0.2854023575782776,0.24608081579208374,-0.024777308106422424,0.03908868134021759,-0.09231764078140259
11.575,0.23478440940380096,0.22186855971813202,0.16683152318000793,0.006213342770934105,0.02616061456501484,-0.07297930866479874
11.6,0.25969642400741577,0.13307954370975494,0.10663416981697083,0.02556970715522766,0.021800849586725235,-0.05989250913262367
11.625,0.28369393944740295,0.07741166651248932,0.10219941288232803,0.03217305243015289,0.0226119514554739,-0.052586063742637634
11.65,0.2815098762512207,-0.01241778302937746,0.1535152643918991,0.0259073618799448,0.021292272955179214,-0.038027044385671616
11.675,0.25227171182632446,-0.1009988784790039,0.15605448186397552,-0.0039005232974886894,0.017748253419995308,-0.030917011201381683
11.7,0.30530694127082825,-0.05852986499667168,0.025748495012521744,-0.0547393374145031,0.014697877690196037,-0.053970396518707275
11.725,0.35669010877609253,0.006855940446257591,-0.15067258477210999,-0.07332377135753632,0.01235940307378769,-0.047064248472452164
11.75,0.3299095630645752,0.01270004827529192,-0.23470455408096313,-0.04897183179855347,0.03852710500359535,-0.01121429167687893
11.775,0.37161749601364136,0.03321167826652527,-0.22208251059055328,-0.027433807030320168,0.08053620904684067,-0.01164921186864376
11.8,0.4211742579936981,0.021182037889957428,-0.12896397709846497,-0.015539675951004028,0.1267087161540985,0.008275656029582024
11.825,0.32960718870162964,-0.09529687464237213,0.04891113191843033,-0.010242153890430927,0.16604512929916382,0.031993865966796875
11.85,0.13248653709888458,-0.15069866180419922,0.18347761034965515,-0.01818802021443844,0.15855243802070618,-0.009927898645401001
11.875,0.004653800278902054,0.013728165067732334,0.18655848503112793,-0.022158276289701462,0.12120404094457626,-0.09685591608285904
11.9,-0.009850447066128254,0.28612998127937317,0.11785665899515152,-0.014744926244020462,0.08358355611562729,-0.16585884988307953
11.925,0.035469114780426025,0.4587774872779846,0.07325071841478348,-0.0020873062312602997,0.06739597767591476,-0.1900520622730255
11.95,0.11151865869760513,0.41995054483413696,0.06708110123872757,0.016695484519004822,0.061652772128582,-0.16404467821121216
11.975,0.19641973078250885,0.21299460530281067,-0.01858462765812874,0.026724636554718018,0.029446691274642944,-0.1052115261554718
12.0,0.22930410504341125,-0.02323343977332115,-0.17003312706947327,0.017786521464586258,0.010532977059483528,-0.04440523684024811
12.025,0.197527676820755,-0.27198511362075806,-0.22897961735725403,-0.003732050070539117,0.03996117413043976,-0.022700078785419464
12.05,0.20986658334732056,-0.4489670693874359,-0.15116071701049805,-0.029050294309854507,0.08868999779224396,-0.06285987794399261
12.075,0.24253904819488525,-0.4940081238746643,0.04262327775359154,-0.03569786995649338,0.13830885291099548,-0.10319951176643372
12.1,0.31382784247398376,-0.32405948638916016,0.21946075558662415,-0.036211445927619934,0.14908185601234436,-0.1639939248561859
12.125,0.3869156539440155,0.004422212019562721,0.2675108313560486,-0.0370795875787735,0.11154977232217789,-0.21775485575199127
12.15,0.4180331826210022,0.3430977165699005,0.1324572116136551,-0.03353981301188469,0.03952779620885849,-0.22494029998779297
12.175,0.3043358325958252,0.4273863434791565,0.046825870871543884,-0.007701406255364418,-0.010106576606631279,-0.16483256220817566
12.2,0.12382879853248596,0.29810813069343567,0.10673875361680984,0.006240631453692913,-0.018711857497692108,-0.09967971593141556
12.225,0.07894846051931381,0.22374634444713593,0.12646842002868652,-0.02068188413977623,-0.05120154470205307,-0.08640199154615402
12.25,0.07253531366586685,0.20376017689704895,0.055879805237054825,-0.05624862760305405,-0.09204035252332687,-0.05982363596558571
12.275,-0.0147855831310153,0.24121859669685364,-0.009444786235690117,-0.0916200578212738,-0.11223965138196945,-0.03403645008802414
12.3,-0.16782964766025543,0.3560066521167755,-0.0845082625746727,-0.12166180461645126,-0.12276741117238998,-0.008849317207932472
12.325,-0.24820522964000702,0.5695086121559143,-0.23000428080558777,-0.13734731078147888,-0.11674782633781433,0.0034520504996180534
12.35,-0.2168612778186798,0.7340002059936523,-0.3434280455112457,-0.11517922580242157,-0.0673266053199768,0.034097157418727875
12.375,-0.16246595978736877,0.749908447265625,-0.3558688461780548,-0.06202536076307297,-0.005034283269196749,0.08392584323883057
12.4,-0.15692470967769623,0.6287641525268555,-0.3323039710521698,0.0016527790576219559,0.03533841669559479,0.14198607206344604
12.425,-0.1547071933746338,0.44901469349861145,-0.3882896602153778,0.048757404088974,0.07283159345388412,0.1750212460756302
12.45,-0.16206736862659454,0.2501935660839081,-0.4713728725910187,0.08875105530023575,0.14572952687740326,0.18744546175003052
12.475,-0.2391285002231598,0.019247004762291908,-0.4924400746822357,0.13484406471252441,0.2061835080385208,0.18892726302146912
12.5,-0.269694060087204,-0.08892159163951874,-0.38799306750297546,0.15872234106063843,0.27383890748023987,0.1515446901321411
12.525,-0.15938016772270203,-0.05511954054236412,-0.1945425122976303,0.1654520034790039,0.3341248035430908,0.08727725595235825
12.55,0.00994882546365261,0.04239940643310547,-0.03920256718993187,0.15607836842536926,0.3543936610221863,0.03608766198158264
12.575,0.09440246224403381,0.1050720363855362,0.005959558766335249,0.13557854294776917,0.33754202723503113,0.02593580074608326
12.6,0.04211734980344772,0.0678720474243164,-0.03826606646180153,0.10552334785461426,0.311923086643219,0.05308627337217331
12.625,-0.03942511975765228,0.017220480367541313,-0.16528025269508362,0.07372743636369705,0.30097106099128723,0.08009475469589233
12.65,-0.06504605710506439,0.00950141903012991,-0.3447137773036957,0.06067158281803131,0.30064818263053894,0.08410545438528061
12.675,-0.09425923228263855,-0.02607637643814087,-0.48691022396087646,0.07671570777893066,0.30943459272384644,0.07749678194522858
12.7,-0.12565962970256805,-0.09238535165786743,-0.4479345977306366,0.11194747686386108,0.35870352387428284,0.06529354304075241
12.725,-0.12655764818191528,-0.04739001765847206,-0.24592536687850952,0.13854439556598663,0.42216089367866516,0.0288276057690382
12.75,-0.14071153104305267,0.0553588941693306,-0.020334355533123016,0.14841102063655853,0.4699213206768036,0.005556762218475342
12.775,-0.1636006087064743,0.16970542073249817,0.1474241465330124,0.1456558257341385,0.4935717284679413,0.0024838645476847887
12.8,-0.19693300127983093,0.2601681351661682,0.2660439610481262,0.13665714859962463,0.4982272982597351,0.01965728960931301
12.825,-0.26397180557250977,0.3381043076515198,0.32841601967811584,0.12807470560073853,0.5021398663520813,0.05842319875955582
12.85,-0.2691929340362549,0.47286805510520935,0.3228253424167633,0.12006870657205582,0.5199359655380249,0.09505093097686768
12.875,-0.24768325686454773,0.6227160692214966,0.27478501200675964,0.14132316410541534,0.5496248602867126,0.1376412808895111
12.9,-0.21483372151851654,0.7313662767410278,0.27536383271217346,0.22366145253181458,0.5939420461654663,0.1614992767572403
12.925,-0.12979371845722198,0.6117240190505981,0.4769814610481262,0.3750525414943695,0.6413456201553345,0.17900767922401428
12.95,0.041055984795093536,0.3243066072463989,0.6967408061027527,0.46894538402557373,0.6385177373886108,0.16300733387470245
12.975,0.07014017552137375,0.13453969359397888,0.669639527797699,0.4592161476612091,0.6031991839408875,0.1470201313495636
13.0,-0.13297420740127563,0.19400222599506378,0.40360748767852783,0.3944168984889984,0.5760370492935181,0.15371166169643402
13.025,-0.3498075306415558,0.3031168580055237,0.2604812681674957,0.3751450777053833,0.5958000421524048,0.167710080742836
13.05,-0.327484130859375,0.402803510427475,0.25645536184310913,0.369972288608551,0.6784573793411255,0.15387402474880219
13.075,-0.18755832314491272,0.3828059434890747,0.34830442070961,0.41784608364105225,0.7489736676216125,0.14193294942378998
13.1,-0.1304413229227066,0.2180386483669281,0.5072231292724609,0.4981544613838196,0.7783938050270081,0.14346501231193542
13.125,-0.16232123970985413,0.033648572862148285,0.6238627433776855,0.5296724438667297,0.8058739900588989,0.15781792998313904
13.15,-0.19900184869766235,0.010555347427725792,0.6429482698440552,0.5168216824531555,0.8469631671905518,0.16352565586566925
13.175,-0.1392165869474411,0.1306963860988617,0.6530429720878601,0.5181941390037537,0.8981282711029053,0.13987404108047485
13.2,0.003909088671207428,0.3036700487136841,0.6463821530342102,0.5581204891204834,0.9455543160438538,0.10391949117183685
13.225,0.1833518147468567,0.46545135974884033,0.6086204648017883,0.6415036916732788,0.9677425622940063,0.05466095358133316
13.25,0.3962845802307129,0.5387831926345825,0.6144512891769409,0.7848502397537231,0.9570781588554382,-0.04056357219815254
13.275,0.6721373796463013,0.38001739978790283,0.7327515482902527,0.9480644464492798,0.9321916699409485,-0.1364971548318863
13.3,0.9673410058021545,0.10049256682395935,0.7813111543655396,1.0123848915100098,0.8867655992507935,-0.20850437879562378
13.325,1.0520763397216797,-0.17939850687980652,0.6022337079048157,0.9782319664955139,0.7883235812187195,-0.22617657482624054
13.35,0.9035195112228394,-0.42707449197769165,0.27563798427581787,0.8901561498641968,0.6824933886528015,-0.20033814013004303
13.375,0.7102899551391602,-0.7044439911842346,-0.0027399531099945307,0.7823002338409424,0.608870804309845,-0.164757639169693
13.4,0.5594961643218994,-0.9665986895561218,-0.18185412883758545,0.643316388130188,0.5520861148834229,-0.12472227215766907
13.425,0.36630621552467346,-1.0529757738113403,-0.35181206464767456,0.4676322937011719,0.49494701623916626,-0.08257915079593658
13.45,0.13843339681625366,-0.7912790179252625,-0.5311294198036194,0.26837030053138733,0.45241057872772217,-0.0336994044482708
13.475,-0.051851071417331696,-0.41683685779571533,-0.5891078114509583,0.13603033125400543,0.46407631039619446,0.05357679724693298
13.5,-0.11459457129240036,-0.06427009403705597,-0.5695183277130127,0.05468473583459854,0.5020673274993896,0.13135498762130737
13.525,-0.05613338202238083,0.24246498942375183,-0.5106362700462341,0.013424040749669075,0.5303566455841064,0.17288987338542938
13.55,0.08083128929138184,0.37906551361083984,-0.40588802099227905,0.0328320749104023,0.5406564474105835,0.20589639246463776
13.575,0.17662447690963745,0.3891439735889435,-0.3266982436180115,0.06401192396879196,0.5285519361495972,0.24545694887638092
13.6,0.13664348423480988,0.41127777099609375,-0.37527981400489807,0.08678504079580307,0.4823448657989502,0.2826010286808014
13.625,0.08057193458080292,0.3821420669555664,-0.476615846157074,0.12482912838459015,0.4548548460006714,0.3098719120025635
13.65,0.12148979306221008,0.18881317973136902,-0.4914022982120514,0.1742105334997177,0.4577234089374542,0.3359706401824951
13.675,0.17756515741348267,-0.2017746865749359,-0.4347337484359741,0.2107212394475937,0.45119509100914,0.3756173551082611
13.7,0.1290898472070694,-0.5673762559890747,-0.4191349148750305,0.2058265060186386,0.42753615975379944,0.37326836585998535
13.725,0.09640270471572876,-0.5975505113601685,-0.4942476451396942,0.1454588770866394,0.4210801422595978,0.31740802526474
13.75,0.08909707516431808,-0.3506241738796234,-0.5577048063278198,0.07158320397138596,0.43512389063835144,0.26216959953308105
13.775,0.029944851994514465,-0.15464313328266144,-0.5127967596054077,0.038433805108070374,0.45186394453048706,0.24147769808769226
13.8,0.016972195357084274,-0.03833776339888573,-0.42873772978782654,0.018700595945119858,0.4847964346408844,0.23092351853847504
13.825,0.08484625816345215,0.0960206687450409,-0.34532150626182556,0.012004096060991287,0.5153188109397888,0.22768424451351166
13.85,0.17807646095752716,0.1368560642004013,-0.23120349645614624,0.019801001995801926,0.532811164855957,0.23656296730041504
13.875,0.26705846190452576,0.13036346435546875,-0.11541356146335602,0.02906830981373787,0.5290016531944275,0.24717341363430023
13.9,0.3144646883010864,0.20152093470096588,-0.09145916998386383,0.02506900578737259,0.5163721442222595,0.26619863510131836
13.925,0.24163082242012024,0.2418670803308487,-0.09626034647226334,0.05418712645769119,0.4907003939151764,0.2793647348880768
13.95,0.17142470180988312,0.12052059173583984,-0.08338761329650879,0.11106984317302704,0.4831497073173523,0.2796180844306946
13.975,0.19401372969150543,-0.11482051014900208,-0.07404710352420807,0.1438969224691391,0.49173399806022644,0.2491222620010376
14.0,0.2732682526111603,-0.35266783833503723,-0.0736679881811142,0.14757139980793,0.4880891442298889,0.20018307864665985
14.025,0.4173932373523712,-0.4046803414821625,-0.1031666249036789,0.11276578903198242,0.472874253988266,0.1317400485277176
14.05,0.5497164726257324,-0.32405000925064087,-0.12736991047859192,0.07602502405643463,0.4439297318458557,0.07693254202604294
14.075,0.5554371476173401,-0.20074468851089478,-0.11840113252401352,0.052103642374277115,0.3983750641345978,0.03549962118268013
14.1,0.49153244495391846,0.07292459160089493,-0.1879461705684662,-0.01711154729127884,0.35446006059646606,-0.014515940099954605
14.125,0.3773191571235657,0.22792339324951172,-0.18316122889518738,-0.022481242194771767,0.29913899302482605,-0.06095811352133751
14.15,0.25395259261131287,0.1836843490600586,-0.09384816884994507,0.011446619406342506,0.26068755984306335,-0.06857152283191681
14.175,0.09282954037189484,0.035428036004304886,-0.09840351343154907,0.036157820373773575,0.23048485815525055,-0.07363452017307281
14.2,-0.045500319451093674,-0.08084872364997864,-0.1934218555688858,0.04690815508365631,0.21135295927524567,-0.10579152405261993
14.225,-0.07281774282455444,-0.09828285872936249,-0.24993349611759186,0.046731192618608475,0.2115860879421234,-0.16144590079784393
14.25,-0.014982078224420547,-0.04738238826394081,-0.23510846495628357,0.042730651795864105,0.21430356800556183,-0.18755197525024414
14.275,0.06683184206485748,0.023327801376581192,-0.23343616724014282,0.02748848870396614,0.2004290074110031,-0.166521355509758
14.3,0.12221664190292358,-0.022875819355249405,-0.24578246474266052,0.022833872586488724,0.17994871735572815,-0.13400748372077942
14.325,0.09645318984985352,-0.08895591646432877,-0.2290704995393753,-0.0003251936286687851,0.14147573709487915,-0.13557209074497223
14.35,0.019293855875730515,-0.0019312145886942744,-0.19972631335258484,-0.048779767006635666,0.10477390885353088,-0.14610393345355988
14.375,-0.08463042974472046,0.24373246729373932,-0.16883081197738647,-0.10099866986274719,0.0741657242178917,-0.1453448385000229
14.4,-0.21306383609771729,0.3712053596973419,-0.16130803525447845,-0.07740870118141174,0.06750158220529556,-0.12860730290412903
14.425,-0.27263695001602173,0.3710356056690216,-0.16312238574028015,-0.04997905343770981,0.08857262879610062,-0.12349839508533478
14.45,-0.3126193583011627,0.34336283802986145,-0.17601805925369263,-0.031814802438020706,0.09699216485023499,-0.12015902996063232
14.475,-0.26258572936058044,0.1822824478149414,-0.18685641884803772,0.019031662493944168,0.11297600716352463,-0.11612596362829208
14.5,-0.08862754702568054,-0.02683260291814804,-0.1779269278049469,0.04813452437520027,0.1309376358985901,-0.1160634234547615
14.525,0.07085701823234558,-0.11326698213815689,-0.20594485104084015,0.03955990821123123,0.11897886544466019,-0.11035887151956558
14.55,0.13120251893997192,-0.08944610506296158,-0.2102471888065338,0.023219643160700798,0.08588813990354538,-0.09141060709953308
14.575,0.07029592990875244,-0.009734178893268108,-0.19093772768974304,-0.0031610820442438126,0.04311085119843483,-0.075546994805336
14.6,-0.03049093298614025,0.09872245788574219,-0.15286408364772797,-0.02541942149400711,0.010414657182991505,-0.06965211033821106
14.625,-0.10110849142074585,0.2480163723230362,-0.16190752387046814,-0.04052041098475456,-0.008391549810767174,-0.07042723894119263
14.65,-0.15523363649845123,0.37235164642333984,-0.19162927567958832,-0.03259582072496414,-0.01923852041363716,-0.05976371839642525
14.675,-0.1674697995185852,0.3820667564868927,-0.20601679384708405,0.0015395134687423706,-0.01808931864798069,-0.041330981999635696
14.7,-0.12979544699192047,0.33351993560791016,-0.25612205266952515,0.01109982281923294,-0.014677328988909721,-0.02528521977365017
14.725,-0.10252533853054047,0.1688690036535263,-0.2472502738237381,0.04527255892753601,-0.013598117977380753,-0.00026973593048751354
14.75,-0.09344927966594696,0.02672574296593666,-0.26617416739463806,0.04861750453710556,-0.01589430309832096,0.020148785784840584
14.775,-0.07953663915395737,-0.04701808840036392,-0.27832019329071045,0.04940474033355713,-0.011470623314380646,0.023709649220108986
14.8,-0.05661170557141304,-0.10313038527965546,-0.24042139947414398,0.04430215805768967,-0.01401455793529749,0.020403897389769554
14.825,-0.0032432377338409424,-0.12647061049938202,-0.22154562175273895,0.01675327494740486,-0.015376968309283257,0.016995567828416824
14.85,0.04875292629003525,-0.10730461776256561,-0.23688291013240814,-0.015570533461868763,-0.019131071865558624,0.02137334831058979
14.875,0.04562630504369736,0.02057644911110401,-0.25201699137687683,-0.05639239773154259,-0.0338418185710907,0.02863069623708725
14.9,0.04248221591114998,0.09768389165401459,-0.22155717015266418,-0.06346654891967773,-0.03336233273148537,0.04176146164536476
14.925,0.03657945990562439,0.06249712407588959,-0.1918528527021408,-0.053139712661504745,-0.029892023652791977,0.04667995125055313
14.95,0.03410783410072327,0.005988101474940777,-0.1682366579771042,-0.044903114438056946,-0.026338623836636543,0.015776989981532097
14.975,0.05956052243709564,-0.04117872565984726,-0.16200128197669983,-0.043063391000032425,-0.018749866634607315,-0.008664456196129322
15.0,0.04456178843975067,-0.01593973860144615,-0.1994839459657669,-0.06677921861410141,-0.027336858212947845,-0.00623443303629756
15.025,-0.04176226630806923,0.06362149864435196,-0.24670441448688507,-0.0928221121430397,-0.03623175621032715,0.01662982441484928
15.05,-0.09042920172214508,0.20534229278564453,-0.2670927941799164,-0.10969894379377365,-0.025627749040722847,0.04531100019812584
15.075,-0.010419797152280807,0.274627685546875,-0.23401302099227905,-0.1002570316195488,0.007390140555799007,0.0535772368311882
15.1,0.11138500273227692,0.18839551508426666,-0.14221544563770294,-0.08474341034889221,0.02091050148010254,0.03739676997065544
15.125,0.19273416697978973,0.09148787707090378,-0.07543177157640457,-0.07273871451616287,0.02521965280175209,0.03164387866854668
15.15,0.18168790638446808,0.2383718639612198,-0.1439346820116043,-0.11955694854259491,0.004384500440210104,0.028333008289337158
15.175,0.12467151880264282,0.2836275100708008,-0.1382962465286255,-0.1037931740283966,-0.010739531368017197,0.032330386340618134
15.2,0.09092344343662262,0.13162994384765625,-0.08478817343711853,-0.060205865651369095,-0.009734884835779667,0.04428061097860336
15.225,0.012978389859199524,-0.067934051156044,-0.04645594581961632,-0.02950223721563816,-0.014604786410927773,0.038327932357788086
15.25,-0.0635918378829956,-0.17673112452030182,-0.057002902030944824,-0.036513086408376694,-0.028135843575000763,0.01430591568350792
15.275,-0.11034682393074036,-0.1263294517993927,-0.08479700982570648,-0.0668884888291359,-0.030672617256641388,-0.013174628838896751
15.3,-0.11272048205137253,0.027401918545365334,-0.09849809110164642,-0.07754401117563248,-0.02439263090491295,-0.02593994140625
15.325,-0.11285486817359924,0.20362569391727448,-0.16178394854068756,-0.09222114831209183,-0.019045526161789894,-0.014765672385692596
15.35,-0.1443173736333847,0.22513391077518463,-0.20625214278697968,-0.074223093688488,-0.013952773064374924,0.0014712263364344835
15.375,-0.10448204725980759,0.1646280288696289,-0.18392188847064972,-0.05317080393433571,0.016432058066129684,-0.0012146126246079803
15.4,-0.010951777920126915,0.20046807825565338,-0.13703596591949463,-0.05412891134619713,0.04126802086830139,-0.031064020469784737
15.425,0.05664556100964546,0.22831059992313385,-0.12279441952705383,-0.04382145032286644,0.05395541340112686,-0.05523977056145668
15.45,0.002179449424147606,0.1619586944580078,-0.13189055025577545,-0.03239699825644493,0.053379591554403305,-0.06030646711587906
15.475,-0.04025358706712723,0.07793997973203659,-0.13616466522216797,-0.013224150985479355,0.05140122026205063,-0.06402658671140671
15.5,0.014921961352229118,0.030814154073596,-0.1733570098876953,-0.0017323130741715431,0.053309857845306396,-0.07174615561962128
15.525,0.11103948205709457,0.05480382964015007,-0.20423540472984314,0.009488140232861042,0.04529747739434242,-0.07458715885877609
15.55,0.15372636914253235,0.19779491424560547,-0.17088574171066284,0.0017345566302537918,0.031954504549503326,-0.06540937721729279
15.575,0.06459114700555801,0.21338273584842682,-0.06530989706516266,0.02224608324468136,0.0036094076931476593,-0.06387658417224884
15.6,0.02086915262043476,0.17159749567508698,-0.011428866535425186,0.038214296102523804,0.0038143577985465527,-0.06386181712150574
15.625,0.0002921023406088352,0.17097856104373932,-0.032564472407102585,0.014707394875586033,-0.0012095404090359807,-0.07650069147348404
15.65,0.03039778769016266,0.153413787484169,-0.048896677792072296,-0.004780570976436138,-0.008370866067707539,-0.07682677358388901
15.675,0.1074841246008873,0.18060874938964844,-0.08972316980361938,-0.034905921667814255,-0.013846312649548054,-0.04826660454273224
15.7,0.09408247470855713,0.20273591578006744,-0.12007907032966614,-0.048786506056785583,-0.023692484945058823,-0.0008470439934171736
15.725,0.05797935277223587,0.2899808883666992,-0.14153197407722473,-0.05393553897738457,-0.04197123274207115,0.027969976887106895
15.75,0.15688520669937134,0.286136656999588,-0.09508094191551208,0.001235696952790022,-0.04011450707912445,0.037156667560338974
15.775,0.37720802426338196,0.14324283599853516,-0.06130024418234825,0.04459886625409126,-0.046488091349601746,0.028198417276144028
15.8,0.4938291311264038,-0.03363039344549179,-0.06377578526735306,0.036262985318899155,-0.10943512618541718,0.029557805508375168
15.825,0.30945348739624023,-0.06403830647468567,-0.10522342473268509,0.002029695548117161,-0.20688992738723755,0.04940309375524521
15.85,-0.017248816788196564,0.023631077259778976,-0.19945058226585388,-0.02775876596570015,-0.26243531703948975,0.06888242065906525
15.875,-0.16241319477558136,0.059899307787418365,-0.2661201059818268,-0.02793804556131363,-0.24042056500911713,0.07290641218423843
15.9,-0.17550422251224518,-0.014262230135500431,-0.27753373980522156,-0.00902105774730444,-0.21088875830173492,0.06431888788938522
15.925,-0.10919424891471863,-0.040594130754470825,-0.2343660593032837,-0.015916381031274796,-0.18176254630088806,0.05321977287530899
15.95,0.02030569314956665,0.056974392384290695,-0.20590005815029144,-0.04030896723270416,-0.15526525676250458,0.050364963710308075
15.975,0.16406811773777008,0.17209337651729584,-0.1828295737504959,-0.03871406987309456,-0.14894212782382965,0.06401091068983078
16.0,0.23166529834270477,0.2610311508178711,-0.14799246191978455,-0.03300642967224121,-0.16929639875888824,0.09185840934515
16.025,0.21816861629486084,0.34645652770996094,-0.14254483580589294,-0.01927158422768116,-0.20888297259807587,0.11921804398298264
16.05,0.19255430996418,0.37041473388671875,-0.16837917268276215,0.00656110979616642,-0.25011590123176575,0.1482492983341217
16.075,0.11294974386692047,0.28483009338378906,-0.17973169684410095,0.0476858951151371,-0.28844496607780457,0.1783500760793686
16.1,0.01251957193017006,0.10360908508300781,-0.1418784260749817,0.09749137610197067,-0.3039657473564148,0.18416453897953033
16.125,0.002042911946773529,-0.03808308765292168,-0.06544390320777893,0.13309362530708313,-0.2724197804927826,0.16476258635520935
16.15,0.0269489586353302,0.14258289337158203,-0.06983985751867294,0.09222365915775299,-0.26410773396492004,0.1262885332107544
16.175,0.016290592029690742,0.3753224015235901,-0.059328943490982056,0.10181734710931778,-0.254798024892807,0.14606806635856628
16.2,-0.006907034199684858,0.507510244846344,-0.04454047232866287,0.15729564428329468,-0.24275873601436615,0.1922876238822937
16.225,0.007488461676985025,0.6770458817481995,-0.05004195496439934,0.21545195579528809,-0.239760160446167,0.21281839907169342
16.25,0.024449335411190987,0.9805775880813599,-0.08415155112743378,0.28678005933761597,-0.23926343023777008,0.21555684506893158
16.275,-0.014223701320588589,0.8038502931594849,0.07727162539958954,0.4769021272659302,-0.18977265059947968,0.2567925751209259
16.3,-0.03924420475959778,-0.0900563970208168,0.273857980966568,0.7101520895957947,-0.16885773837566376,0.31875577569007874
16.325,-0.019843757152557373,-0.34010887145996094,0.21627295017242432,0.624977171421051,-0.22845007479190826,0.3018563985824585
16.35,0.11880549043416977,-0.6202593445777893,0.1442459225654602,0.5388763546943665,-0.29274171590805054,0.29369163513183594
16.375,0.1177988052368164,-0.6723271012306213,-0.06810830533504486,0.36938318610191345,-0.35880646109580994,0.2550799548625946
16.4,0.02164619043469429,-0.5256234407424927,-0.2615889310836792,0.2566280663013458,-0.36392754316329956,0.21941328048706055
16.425,-0.03073815256357193,-0.36456209421157837,-0.362726092338562,0.17816652357578278,-0.3306748569011688,0.16155914962291718
16.45,-0.007288210093975067,-0.24780185520648956,-0.3855454921722412,0.14218872785568237,-0.28755903244018555,0.08832355588674545
16.475,0.06934835016727448,-0.25933653116226196,-0.35032129287719727,0.11048180609941483,-0.24471239745616913,0.017706923186779022
16.5,0.1277998685836792,-0.1579027771949768,-0.32017961144447327,0.044376131147146225,-0.22687123715877533,-0.02742925100028515
16.525,0.1292780190706253,0.1374673694372177,-0.26679641008377075,0.01670403592288494,-0.2282053679227829,-0.04314366355538368
16.55,0.05227607116103172,0.5315170288085938,-0.30044010281562805,0.0013914513401687145,-0.2495158314704895,-0.036420125514268875
16.575,-0.004985686391592026,0.57672119140625,-0.3137226700782776,0.032208118587732315,-0.254287451505661,0.006035537924617529
16.6,-0.020040389150381088,0.2707538604736328,-0.2501142919063568,0.1071929782629013,-0.24645362794399261,0.06462251394987106
16.625,-0.06240738555788994,-0.11242393404245377,-0.22328804433345795,0.10120055079460144,-0.2514330744743347,0.07805754244327545
16.65,-0.1187441349029541,-0.40687093138694763,-0.2369239777326584,0.06751488894224167,-0.25338757038116455,0.07198771089315414
16.675,-0.1428109109401703,-0.4821711480617523,-0.2656424641609192,0.001991884782910347,-0.2378002256155014,0.05144724249839783
16.7,-0.11990773677825928,-0.4175339639186859,-0.284158855676651,-0.06934443861246109,-0.2076999843120575,0.020110374316573143
16.725,-0.07199200987815857,-0.32255369424819946,-0.2913667857646942,-0.12634418904781342,-0.16759683191776276,-0.016859816387295723
16.75,-0.0005950070917606354,-0.28037840127944946,-0.240901917219162,-0.16532497107982635,-0.13251225650310516,-0.05745948106050491
16.775,0.028024591505527496,-0.2632799744606018,-0.15841646492481232,-0.1975855976343155,-0.11001372337341309,-0.08721645921468735
16.8,0.01771516352891922,-0.22021391987800598,-0.05819205194711685,-0.22191625833511353,-0.1035488098859787,-0.1244368925690651
16.825,-0.033307723701000214,-0.1238718181848526,0.005863402504473925,-0.24718648195266724,-0.10978483408689499,-0.17655059695243835
16.85,-0.08390742540359497,-0.013554572127759457,0.005542465951293707,-0.26195257902145386,-0.10886061191558838,-0.20341582596302032
16.875,-0.09821692109107971,0.02101803384721279,0.008423090912401676,-0.2669476568698883,-0.07146642357110977,-0.21317599713802338
16.9,-0.11664935201406479,-0.067535400390625,0.01402078103274107,-0.2620486319065094,-0.054630134254693985,-0.22285805642604828
16.925,-0.16004526615142822,-0.002995493356138468,-0.043512679636478424,-0.2909810543060303,-0.055319011211395264,-0.24003523588180542
16.95,-0.21631723642349243,0.127899169921875,-0.16186310350894928,-0.3199703097343445,-0.05548213794827461,-0.24336744844913483
16.975,-0.3403743803501129,0.15183734893798828,-0.21991722285747528,-0.2864159941673279,-0.027144160121679306,-0.20078997313976288
17.0,-0.4179231524467468,0.21749401092529297,-0.26762667298316956,-0.3026709258556366,0.014514811336994171,-0.1767103523015976
17.025,-0.3635184168815613,0.29935359954833984,-0.25825223326683044,-0.3222424387931824,0.07216408848762512,-0.16225209832191467
17.05,-0.31367969512939453,0.25141143798828125,-0.2398044914007187,-0.27955910563468933,0.11950551718473434,-0.1275542974472046
17.075,-0.35812270641326904,0.15583132207393646,-0.2835860848426819,-0.24723927676677704,0.15021711587905884,-0.10612144321203232
17.1,-0.394710898399353,0.08820055425167084,-0.288171648979187,-0.17688578367233276,0.21449391543865204,-0.08574583381414413
17.125,-0.3341022729873657,0.25719738006591797,-0.39025819301605225,-0.1523735225200653,0.2845369875431061,-0.10180074721574783
17.15,-0.29502373933792114,0.4985055923461914,-0.4341684877872467,-0.11026102304458618,0.34282204508781433,-0.12214530259370804
17.175,-0.15662725269794464,0.5151453614234924,-0.2782740592956543,-0.016002822667360306,0.42719700932502747,-0.1260359138250351
17.2,0.08427202701568604,0.3562183678150177,-0.06677988171577454,0.04664791375398636,0.4631054103374481,-0.1498631089925766
17.225,0.2599005103111267,0.0019846076611429453,0.14069092273712158,0.11287547647953033,0.4396759271621704,-0.12600652873516083
17.25,0.3533124029636383,-0.3030596077442169,0.17951637506484985,0.08307221531867981,0.3928994834423065,-0.09296352416276932
17.275,0.3263334035873413,-0.4462319016456604,0.11723848432302475,0.009704123251140118,0.3142983615398407,-0.07749052345752716
17.3,0.21206791698932648,-0.4602509140968323,0.0880410447716713,-0.07481168210506439,0.2349957376718521,-0.08187445998191833
17.325,0.19846147298812866,-0.40334421396255493,0.10596044361591339,-0.14286598563194275,0.21382321417331696,-0.10274221003055573
17.35,0.1755445897579193,-0.10378744453191757,-0.022650491446256638,-0.2705042064189911,0.19294945895671844,-0.11422939598560333
17.375,0.15613007545471191,0.15314197540283203,-0.07715214788913727,-0.2909125089645386,0.1919766068458557,-0.1124005913734436
17.4,0.24069011211395264,0.312961608171463,-0.025744136422872543,-0.2658939063549042,0.20493732392787933,-0.1148308739066124
17.425,0.35520240664482117,0.41007906198501587,0.036004528403282166,-0.21326956152915955,0.18150371313095093,-0.11679572612047195
17.45,0.388517290353775,0.3862763047218323,0.07944120466709137,-0.1509658694267273,0.13791543245315552,-0.107289619743824
17.475,0.3048500716686249,0.2038126438856125,0.1237206682562828,-0.11073017120361328,0.08360517024993896,-0.1075136736035347
17.5,0.24962563812732697,-0.04468153789639473,0.16675865650177002,-0.06977557390928268,0.03444922715425491,-0.10058704763650894
17.525,0.35538092255592346,0.03454304859042168,0.12799715995788574,-0.10868328809738159,0.005535841919481754,-0.10855351388454437
17.55,0.5014371871948242,0.05409909412264824,0.1326654553413391,-0.10091925412416458,-0.02848363108932972,-0.0715203583240509
17.575,0.6505147814750671,0.014788629487156868,0.10946571826934814,-0.13205324113368988,-0.07788195461034775,-0.03236211836338043
17.6,0.6712047457695007,0.021778101101517677,0.049140822142362595,-0.15532930195331573,-0.16598574817180634,-0.007904197089374065
17.625,0.5191189646720886,0.0367889367043972,0.030780013650655746,-0.16340427100658417,-0.27366262674331665,-0.021424422040581703
17.65,0.44571757316589355,-0.029206274077296257,0.11877405643463135,-0.18635228276252747,-0.36046868562698364,-0.031855788081884384
17.675,0.623559296131134,-0.15158748626708984,0.21561630070209503,-0.22640292346477509,-0.4509621858596802,-0.025099044665694237
17.7,0.7231590151786804,-0.1417846828699112,0.1444109082221985,-0.32332438230514526,-0.6007450222969055,0.03332486003637314
17.725,0.45995867252349854,-0.07142546027898788,-0.03700859099626541,-0.3770633935928345,-0.769232451915741,0.0971435010433197
17.75,0.049592021852731705,-0.07629397511482239,-0.15695983171463013,-0.36000341176986694,-0.8404138088226318,0.12216583639383316
17.775,-0.0025930143892765045,-0.10660842806100845,-0.21779878437519073,-0.36645206809043884,-0.814868152141571,0.07614388316869736
17.8,0.2570558190345764,-0.21822363138198853,-0.21129757165908813,-0.35630640387535095,-0.8172184824943542,0.04225603863596916
17.825,0.4790458083152771,-0.35203272104263306,-0.07128411531448364,-0.37987855076789856,-0.8759117126464844,0.0729459673166275
17.85,0.4330449402332306,-0.37543779611587524,0.026686809957027435,-0.4430496394634247,-0.9850668907165527,0.1336265206336975
17.875,0.10034607350826263,-0.2543640434741974,-0.03858647868037224,-0.520991325378418,-1.1086856126785278,0.1532222330570221
17.9,-0.30700862407684326,-0.14232733845710754,-0.20040719211101532,-0.5772035121917725,-1.184159755706787,0.13726897537708282
17.925,-0.6141413450241089,0.07439608871936798,-0.5355445146560669,-0.6310805678367615,-1.1850581169128418,0.10054975003004074
17.95,-0.8620345592498779,0.432888001203537,-0.9389614462852478,-0.6272488832473755,-1.1171821355819702,0.07193993031978607
17.975,-0.9659655094146729,0.5626649260520935,-1.0459702014923096,-0.48697221279144287,-0.9449273943901062,0.07555655390024185
18.0,-0.8311079740524292,0.46603676676750183,-0.831767737865448,-0.3413200080394745,-0.7342351078987122,0.03935767337679863
18.025,-0.5709501504898071,0.29790589213371277,-0.520624577999115,-0.24045401811599731,-0.5805566906929016,-0.007469708565622568
18.05,-0.31134146451950073,0.17615316808223724,-0.2577046751976013,-0.18939614295959473,-0.4956115484237671,-0.039511557668447495
18.075,-0.052375033497810364,0.22435380518436432,-0.09011776000261307,-0.2068636119365692,-0.4545894265174866,-0.06264155358076096
18.1,0.10420741140842438,0.24413684010505676,0.02397223562002182,-0.19871483743190765,-0.4430803656578064,-0.029988275840878487
18.125,0.13776741921901703,0.17684747278690338,0.05744663625955582,-0.19452007114887238,-0.45587676763534546,0.0004732102679554373
18.15,0.07790591567754745,0.11174871772527695,0.08149789273738861,-0.18637657165527344,-0.48902827501296997,0.017337486147880554
18.175,0.05807429552078247,0.045222293585538864,0.07541165500879288,-0.17875513434410095,-0.50483638048172,0.02155105397105217
18.2,0.0037214569747447968,-0.008522026240825653,0.07060638070106506,-0.16662254929542542,-0.5134862065315247,0.024964140728116035
18.225,-0.07114480435848236,-0.039064403623342514,0.055001746863126755,-0.16244827210903168,-0.512283980846405,0.011897293850779533
18.25,-0.15465138852596283,-0.042726509273052216,0.06011594086885452,-0.16057994961738586,-0.5044033527374268,-0.012696411460638046
18.275,-0.14441069960594177,-0.03486919030547142,0.03958141431212425,-0.17651036381721497,-0.4929058849811554,-0.044645704329013824
18.3,-0.08256584405899048,-0.007800098974257708,0.02241680771112442,-0.18631651997566223,-0.4734179377555847,-0.06796187162399292
18.325,-0.07633023709058762,0.02901841700077057,0.075863316655159,-0.1864931881427765,-0.45016658306121826,-0.08197996765375137
18.35,-0.09946274757385254,0.06620791554450989,0.1701699048280716,-0.18177537620067596,-0.42599737644195557,-0.09302663058042526
18.375,-0.08134381473064423,0.11157707870006561,0.21867328882217407,-0.18137121200561523,-0.41448989510536194,-0.1102176085114479
18.4,-0.07677552103996277,0.1646900624036789,0.18959149718284607,-0.1939552128314972,-0.4190584123134613,-0.11875616759061813
18.425,-0.11700468510389328,0.14329150319099426,0.11493055522441864,-0.19721925258636475,-0.42371246218681335,-0.10700532048940659
18.45,-0.13901108503341675,0.1714315563440323,-0.02127744071185589,-0.20502294600009918,-0.4202953279018402,-0.09993620216846466
18.475,-0.14785020053386688,0.20265105366706848,-0.08202946931123734,-0.1924120932817459,-0.3953906297683716,-0.08704391121864319
18.5,-0.14229895174503326,0.16769887506961823,-0.03166235610842705,-0.16141562163829803,-0.362291544675827,-0.07960361242294312
18.525,-0.141342431306839,0.12153913080692291,-0.00730737904086709,-0.13069161772727966,-0.35182490944862366,-0.08167225122451782
18.55,-0.1308211088180542,0.13605977594852448,-0.016596609726548195,-0.10617562383413315,-0.3426313102245331,-0.0801720842719078
18.575,-0.010736415162682533,0.2710409462451935,-0.09768104553222656,-0.10731814056634903,-0.3190058171749115,-0.08107617497444153
18.6,0.09437000751495361,0.31646156311035156,-0.13728396594524384,-0.06282416731119156,-0.2925701439380646,-0.05060861259698868
18.625,0.07204943895339966,0.15189361572265625,-0.1626126915216446,0.0055369907058775425,-0.28503480553627014,0.0006678372155874968
18.65,0.007835883647203445,-0.13948825001716614,-0.18160288035869598,0.05606900155544281,-0.279138445854187,0.041248954832553864
18.675,-0.06609204411506653,-0.4399634003639221,-0.10957612097263336,0.06059613823890686,-0.26859068870544434,0.051748502999544144
18.7,-0.15499252080917358,-0.5446673035621643,-0.12201675027608871,0.011069737374782562,-0.2822469174861908,0.019097620621323586
18.725,-0.22164437174797058,-0.3914519250392914,-0.28185153007507324,-0.04436435177922249,-0.29070916771888733,-0.048661909997463226
18.75,-0.17748667299747467,-0.19103725254535675,-0.35112908482551575,-0.060226768255233765,-0.2629074156284332,-0.10457869619131088
18.775,-0.05175003409385681,-0.03452209383249283,-0.2797528803348541,-0.06195923313498497,-0.22459015250205994,-0.1429939866065979
18.8,0.05382569506764412,0.06796929985284805,-0.25334060192108154,-0.056947946548461914,-0.2091643512248993,-0.15203452110290527
18.825,0.07531683892011642,0.05609413981437683,-0.3178879916667938,-0.051823072135448456,-0.1891569197177887,-0.13026143610477448
18.85,0.013058148324489594,-0.031647730618715286,-0.38091975450515747,-0.05127856880426407,-0.16476744413375854,-0.12463187426328659
18.875,-0.04124114289879799,-0.16671854257583618,-0.35732197761535645,-0.04877724498510361,-0.1295912116765976,-0.12481605261564255
18.9,-0.12053687870502472,-0.31206899881362915,-0.3049011826515198,-0.04899196699261665,-0.10943308472633362,-0.11575327813625336
18.925,-0.1992846578359604,-0.3756962716579437,-0.24448548257350922,-0.06871453672647476,-0.09330692142248154,-0.12376970797777176
18.95,-0.22262777388095856,-0.28657060861587524,-0.19798643887043,-0.10817938297986984,-0.06788494437932968,-0.15209166705608368
18.975,-0.15565837919712067,0.013484924100339413,-0.3017283082008362,-0.1682804524898529,-0.05746990442276001,-0.20353996753692627
19.0,-0.1613895446062088,0.19839954376220703,-0.31979823112487793,-0.16849201917648315,-0.028261933475732803,-0.1938483715057373
19.025,-0.1995789110660553,0.21106339991092682,-0.1332455426454544,-0.14268054068088531,0.024143923074007034,-0.15721599757671356
19.05,-0.14834001660346985,0.29815199971199036,-0.042650334537029266,-0.138838991522789,0.047502294182777405,-0.15818536281585693
19.075,-0.07172327488660812,0.379646360874176,-0.07496397197246552,-0.1283603310585022,0.06295547634363174,-0.13532806932926178
19.1,-0.08417300134897232,0.2867622673511505,-0.06881052255630493,-0.10228072106838226,0.07745587825775146,-0.09295403957366943
19.125,-0.09566638618707657,0.1332540661096573,0.0014118561521172523,-0.07502494752407074,0.08853182941675186,-0.0745338425040245
19.15,0.032127443701028824,0.10607244819402695,0.03828989714384079,-0.06745573878288269,0.09331918507814407,-0.09924189001321793
19.175,0.075564906001091,0.1445608288049698,0.06826070696115494,-0.05052051320672035,0.08702395856380463,-0.09220778197050095
19.2,0.10368160158395767,0.140199676156044,0.055775031447410583,-0.04842279478907585,0.08057821542024612,-0.08072549849748611
19.225,0.14088556170463562,0.04542447254061699,0.07865393906831741,-0.03703153505921364,0.0860600620508194,-0.05788573622703552
19.25,0.10617358982563019,-0.03516290709376335,0.19583894312381744,-0.029396967962384224,0.08115944266319275,-0.05001012980937958
19.275,0.11776146292686462,-0.036564797163009644,0.2970294654369354,-0.047498688101768494,0.05695795267820358,-0.05347462743520737
19.3,0.24636974930763245,0.010278736241161823,0.32871586084365845,-0.08435636758804321,0.04113505408167839,-0.051107507199048996
19.325,0.39071691036224365,0.08356574922800064,0.33935579657554626,-0.12243843823671341,0.04587592929601669,-0.04382174089550972
19.35,0.5237787365913391,0.1426573395729065,0.4475431740283966,-0.13318702578544617,0.07023207098245621,-0.0257943794131279
19.375,0.6733960509300232,0.18137939274311066,0.619172215461731,-0.13047002255916595,0.09333910793066025,-0.022106993943452835
19.4,0.756961464881897,0.18689832091331482,0.7420710921287537,-0.1248992308974266,0.08596236258745193,-0.035168830305337906
19.425,0.796386182308197,0.17395219206809998,0.8024152517318726,-0.11095359176397324,0.07863106578588486,-0.04270293936133385
19.45,0.8290183544158936,0.12331210821866989,0.9633479118347168,-0.0837734267115593,0.09080731868743896,-0.05997465178370476
19.475,0.8600987195968628,0.010510566644370556,1.1773022413253784,-0.04170608147978783,0.07874614745378494,-0.07866913080215454
19.5,0.8898928165435791,-0.07870852202177048,1.3272563219070435,-0.018601320683956146,0.0312681682407856,-0.10033708065748215
19.525,0.7874399423599243,-0.12044226378202438,1.360475778579712,-0.025391126051545143,-0.038878586143255234,-0.11643417924642563
19.55,0.42174196243286133,-0.15531623363494873,1.2144699096679688,-0.040794737637043,-0.1618250459432602,-0.12602345645427704
19.575,-0.015735983848571777,-0.1519726812839508,0.9058675169944763,-0.048715680837631226,-0.26922231912612915,-0.14800488948822021
19.6,-0.25836798548698425,-0.06183331459760666,0.5900576114654541,-0.037748076021671295,-0.28970807790756226,-0.18628600239753723
19.625,-0.24337872862815857,0.012554221786558628,0.39143651723861694,0.0006693899631500244,-0.2352229803800583,-0.21369525790214539
19.65,-0.08028110861778259,-0.08641143143177032,0.4201008975505829,0.07022257149219513,-0.13670557737350464,-0.1981344372034073
19.675,0.18190720677375793,-0.2081575095653534,0.5569062232971191,0.12615911662578583,-0.036830801516771317,-0.17158156633377075
19.7,0.5517215132713318,-0.1041383296251297,0.614757239818573,0.12290853261947632,0.028899097815155983,-0.1831256002187729
19.725,0.9008969068527222,0.10634716600179672,0.7557552456855774,0.10293148458003998,0.10164133459329605,-0.21111050248146057
19.75,1.0816808938980103,0.2310572862625122,0.9775230884552002,0.09762635827064514,0.12590791285037994,-0.23024031519889832
19.775,0.9074224233627319,0.14306560158729553,1.266547441482544,0.14685624837875366,0.05413518100976944,-0.22918924689292908
19.8,0.4043463468551636,-0.00670037092640996,1.3112159967422485,0.22938616573810577,-0.14293475449085236,-0.22137974202632904
19.825,-0.1656901240348816,0.06903183460235596,0.8930383920669556,0.2803528308868408,-0.3851347267627716,-0.2457301914691925
19.85,-0.5810081362724304,0.37361055612564087,0.24334171414375305,0.291875958442688,-0.5453713536262512,-0.294754296541214
19.875,-0.8474896550178528,0.6933727860450745,-0.25574007630348206,0.29065436124801636,-0.5709571242332458,-0.30886995792388916
19.9,-1.0149036645889282,0.9169560074806213,-0.5333820581436157,0.26727408170700073,-0.5201106667518616,-0.26582828164100647
19.925,-1.0492793321609497,1.005711555480957,-0.7012029886245728,0.23957011103630066,-0.460184246301651,-0.19695088267326355
19.95,-1.0589332580566406,0.911593496799469,-0.7680811882019043,0.2521894872188568,-0.4025113880634308,-0.08787849545478821
19.975,-1.0039602518081665,0.7949762940406799,-0.8833784461021423,0.25677919387817383,-0.3761294484138489,0.0005534848896786571
20.0,-0.7399852871894836,0.7340802550315857,-1.2006258964538574,0.23158077895641327,-0.3740454614162445,0.04443610459566116
20.025,-0.5018566846847534,0.37110981345176697,-1.5261152982711792,0.24077922105789185,-0.3722286522388458,0.13506466150283813
20.05,-0.43439990282058716,-0.31874677538871765,-1.7051851749420166,0.2829078435897827,-0.3539251685142517,0.25256916880607605
20.075,-0.32512426376342773,-0.9357388615608215,-1.7282358407974243,0.3049745261669159,-0.311408132314682,0.2833120822906494
20.1,0.012503117322921753,-1.0366910696029663,-1.7468135356903076,0.2641315758228302,-0.2722124755382538,0.16420166194438934
20.125,0.30883634090423584,-0.7398179173469543,-1.727451205253601,0.20440393686294556,-0.2627728581428528,0.013431861996650696
20.15,0.3002961575984955,-0.4474365711212158,-1.5669502019882202,0.14013966917991638,-0.2649349272251129,-0.0666995644569397
20.175,0.11050528287887573,-0.21614475548267365,-1.3410648107528687,0.053939491510391235,-0.2529487609863281,-0.11104663461446762
20.2,-0.07389198243618011,0.020315036177635193,-1.1723427772521973,-0.04692886024713516,-0.22278538346290588,-0.16625306010246277
20.225,-0.10269676148891449,0.29794779419898987,-1.133111834526062,-0.121474489569664,-0.1913023293018341,-0.21796995401382446
20.25,-0.05095405876636505,0.469235360622406,-1.103758692741394,-0.133738711476326,-0.15182334184646606,-0.22043530642986298
20.275,-0.18382275104522705,0.39249131083488464,-0.8927157521247864,-0.07346658408641815,-0.1162608414888382,-0.14603903889656067
20.3,-0.2697656750679016,0.36865514516830444,-0.6892827153205872,-0.03722838684916496,-0.07896959781646729,-0.10511279851198196
20.325,-0.22956736385822296,0.48463916778564453,-0.5749276280403137,-0.0261126309633255,-0.037715017795562744,-0.0970931425690651
20.35,-0.16737985610961914,0.6143007278442383,-0.41248440742492676,-0.006088826805353165,0.023647358641028404,-0.07275369018316269
20.375,0.09533392637968063,0.8511134386062622,-0.22518816590309143,-0.00217420794069767,0.10373446345329285,-0.06465767323970795
20.4,0.5250532627105713,0.9611560106277466,-0.04511680081486702,0.027873774990439415,0.1638159155845642,-0.006650818977504969
20.425,0.8324390649795532,0.6739140152931213,0.02303297631442547,0.09579718112945557,0.14296457171440125,0.10393206775188446
20.45,0.9018500447273254,0.06010626256465912,-0.02128525823354721,0.16933396458625793,0.08017656207084656,0.21374578773975372
20.475,0.849286675453186,-0.5855628252029419,-0.1727638989686966,0.20535831153392792,-0.005314330104738474,0.2593965232372284
20.5,0.8234346508979797,-0.9555923342704773,-0.31827062368392944,0.18786197900772095,-0.07191234827041626,0.22947068512439728
20.525,0.8760502934455872,-0.9927303194999695,-0.38916078209877014,0.13943436741828918,-0.1023969054222107,0.15163962543010712
20.55,0.8729020357131958,-1.0247299671173096,-0.4059505760669708,0.09932723641395569,-0.1353961080312729,0.10313663631677628
20.575,0.7035502791404724,-1.1407625675201416,-0.42331498861312866,0.056921135634183884,-0.1841300129890442,0.07860269397497177
20.6,0.4902212619781494,-1.1574318408966064,-0.4809299111366272,-0.002938642166554928,-0.21645614504814148,0.042463310062885284
20.625,0.35882070660591125,-0.9758979678153992,-0.6525528430938721,-0.08417628705501556,-0.2373279333114624,-0.01124260388314724
20.65,0.19208717346191406,-0.7772151827812195,-0.7118902802467346,-0.14855210483074188,-0.19908027350902557,-0.031956747174263
20.675,-0.07038790732622147,-0.6062356233596802,-0.4796948730945587,-0.18831588327884674,-0.11476600170135498,-0.03980273753404617
20.7,-0.23194952309131622,-0.429297536611557,-0.21659956872463226,-0.20313991606235504,-0.045819878578186035,-0.08090627938508987
20.725,-0.3418285548686981,-0.349979430437088,0.018340174108743668,-0.1794457584619522,-0.007949024438858032,-0.12138494849205017
20.75,-0.44201067090034485,-0.31958290934562683,0.3071480691432953,-0.14389854669570923,0.03706992045044899,-0.16594605147838593
20.775,-0.49039995670318604,-0.11688799411058426,0.505211591720581,-0.1364670991897583,0.061839278787374496,-0.23691892623901367
20.8,-0.4192126393318176,0.23402701318264008,0.504620373249054,-0.13992904126644135,0.04058907926082611,-0.3049142360687256
20.825,-0.24459891021251678,0.5336028337478638,0.3289060890674591,-0.14435777068138123,0.00043876367271877825,-0.3354886472225189
20.85,-0.11819116026163101,0.5791645646095276,0.13601665198802948,-0.13652317225933075,-0.015046171844005585,-0.2962021827697754
20.875,-0.16856105625629425,0.3258524239063263,0.09077011048793793,-0.10016241669654846,0.0051169744692742825,-0.19697734713554382
20.9,-0.2593865394592285,-0.023819899186491966,0.1905963271856308,-0.06593841314315796,0.021961543709039688,-0.12349219620227814
20.925,-0.4029324948787689,-0.3554362952709198,0.3462422490119934,-0.05807609111070633,0.02395487204194069,-0.07107651233673096
20.95,-0.593517541885376,-0.5089864730834961,0.5107579231262207,-0.06639130413532257,0.030241433531045914,-0.038283344358205795
20.975,-0.6915209889411926,-0.36131376028060913,0.6616262793540955,-0.08690956979990005,0.03291745483875275,-0.05411785840988159
21.0,-0.8209091424942017,-0.06157578155398369,0.8333820700645447,-0.10176823288202286,0.024799350649118423,-0.07946421951055527
21.025,-1.027580976486206,0.21644514799118042,1.049739122390747,-0.09898147732019424,-0.007586721330881119,-0.0866115614771843
21.05,-1.0808664560317993,0.4577066898345947,1.2761082649230957,-0.08385223150253296,-0.018788808956742287,-0.04752467945218086
21.075,-0.8754762411117554,0.7584584355354309,1.3600343465805054,-0.10121452808380127,-0.03735871613025665,0.00659544114023447
21.1,-0.6971813440322876,0.9878495335578918,1.2304385900497437,-0.13420118391513824,-0.09360013902187347,0.1054382249712944
21.125,-0.637346088886261,1.114650011062622,0.828353226184845,-0.18908417224884033,-0.18175108730793,0.19747038185596466
21.15,-0.5125866532325745,1.0994349718093872,0.18750840425491333,-0.24278494715690613,-0.25488340854644775,0.24825581908226013
21.175,-0.3975510001182556,0.7983752489089966,-0.31569716334342957,-0.2415449321269989,-0.25744500756263733,0.2789057195186615
21.2,-0.2649986743927002,0.25141236186027527,-0.5154871940612793,-0.21893541514873505,-0.22334784269332886,0.2752862274646759
21.225,-0.02411895990371704,-0.16520985960960388,-0.5882652401924133,-0.23190385103225708,-0.18406157195568085,0.1952856034040451
21.25,0.26014235615730286,-0.22467339038848877,-0.7057841420173645,-0.25339052081108093,-0.14791956543922424,0.08551545441150665
21.275,0.5365470051765442,-0.021394817158579826,-0.6440372467041016,-0.22609639167785645,-0.073545441031456,0.0053842091001570225
21.3,0.9839704036712646,0.3694448173046112,-0.44140663743019104,-0.17318026721477509,0.016223952174186707,-0.07710781693458557
21.325,1.5639369487762451,0.660130500793457,-0.38179829716682434,-0.10379044711589813,0.031437624245882034,-0.10147204250097275
21.35,1.994065284729004,0.5702581405639648,-0.34077978134155273,-0.01233911793678999,-0.003380903974175453,-0.04511796310544014
21.375,2.2558648586273193,0.17763227224349976,-0.2165423184633255,0.04546671360731125,-0.028665661811828613,0.007975793443620205
21.4,2.3646411895751953,-0.37829887866973877,-0.09050314128398895,0.06775391101837158,-0.05448190122842789,0.04221321642398834
21.425,2.2343056201934814,-1.039566159248352,0.05871998891234398,0.08818646520376205,-0.09537513554096222,0.07235655188560486
21.45,1.9585496187210083,-1.6686460971832275,0.212690070271492,0.10701621323823929,-0.1651199907064438,0.08185143023729324
21.475,1.6715409755706787,-2.1530606746673584,0.2866259515285492,0.10869237780570984,-0.2591591775417328,0.08282432705163956
21.5,1.0720248222351074,-2.6533010005950928,0.28641679883003235,0.07872263342142105,-0.3949769139289856,0.10856962949037552
21.525,0.11921723186969757,-3.2979297637939453,0.179144486784935,0.06451116502285004,-0.5247500538825989,0.19523616135120392
21.55,-0.41730576753616333,-3.3695826530456543,-0.342126727104187,0.011264977976679802,-0.6931062340736389,0.14988307654857635
21.575,-0.7772143483161926,-2.5119822025299072,-0.6247772574424744,-0.15081340074539185,-0.678519070148468,-0.15349261462688446
21.6,-0.5320749878883362,-0.8359529376029968,-0.5088667869567871,-0.30160701274871826,-0.4702557325363159,-0.5490245819091797
21.625,0.045438557863235474,0.6920290589332581,-0.23246274888515472,-0.29959970712661743,-0.34475547075271606,-0.7643684148788452
21.65,0.17738813161849976,1.0512257814407349,0.12213500589132309,-0.1411098837852478,-0.3510228097438812,-0.5659575462341309
21.675,0.4095630645751953,0.8670188784599304,0.5398634672164917,-0.09088370949029922,-0.3105289936065674,-0.45049211382865906
21.7,0.47811055183410645,0.39660757780075073,0.9939884543418884,-0.10710495710372925,-0.28667280077934265,-0.3097330629825592
21.725,0.35330718755722046,-0.07993782311677933,1.0857670307159424,-0.18390797078609467,-0.3223104476928711,-0.2262737900018692
21.75,0.005901843309402466,-0.4018726050853729,0.7679823040962219,-0.24875959753990173,-0.3675714433193207,-0.1672084629535675
21.775,-0.3307921886444092,-0.5163202285766602,0.49734440445899963,-0.26142027974128723,-0.32685697078704834,-0.17363537847995758
21.8,-0.5256931781768799,-0.2807921767234802,0.5493841767311096,-0.23069395124912262,-0.24490919709205627,-0.24762855470180511
21.825,-0.5470146536827087,0.23276148736476898,0.561492919921875,-0.2271895855665207,-0.20660722255706787,-0.337755411863327
21.85,-0.4418874680995941,0.6698485612869263,0.3608262240886688,-0.2145054191350937,-0.16467759013175964,-0.3668472170829773
21.875,-0.4079999029636383,0.7275935411453247,0.30050045251846313,-0.12830644845962524,-0.07630062848329544,-0.31793543696403503
21.9,-0.36544567346572876,0.5397483110427856,0.3969482183456421,-0.02335061877965927,-0.02438029646873474,-0.26342517137527466
21.925,-0.16051775217056274,0.4391413927078247,0.3879753351211548,0.034576546400785446,-0.019503850489854813,-0.26494547724723816
21.95,0.11812712252140045,0.5309353470802307,0.154252827167511,0.045071955770254135,-0.03279240429401398,-0.2837021052837372
21.975,0.34417426586151123,0.7037964463233948,-0.17958439886569977,0.03536386042833328,-0.02775690145790577,-0.29561811685562134
22.0,0.3383679687976837,0.6370249390602112,-0.1581505537033081,0.0642264187335968,0.03274483606219292,-0.23048368096351624
22.025,0.2595548629760742,0.2993937134742737,0.402897447347641,0.12184127420186996,0.14284896850585938,-0.15530401468276978
22.05,0.3427213430404663,0.130712628364563,0.9771637320518494,0.14402851462364197,0.16732138395309448,-0.1445608139038086
22.075,0.4747326970100403,0.32009899616241455,0.9517044425010681,0.1074422225356102,0.03248662129044533,-0.17441891133785248
22.1,0.5473493933677673,0.6824437379837036,0.40805551409721375,0.05833101272583008,-0.13317342102527618,-0.19708941876888275
22.125,0.5858873724937439,0.8737612366676331,-0.16662447154521942,0.012360285967588425,-0.19852812588214874,-0.16683971881866455
22.15,0.5750547647476196,0.7577381730079651,-0.4558004140853882,-0.018599579110741615,-0.15415897965431213,-0.10304582118988037
22.175,0.48290228843688965,0.4453115463256836,-0.45763611793518066,-0.006822865456342697,-0.07112044841051102,-0.03536423295736313
22.2,0.3274568021297455,0.16899582743644714,-0.27789443731307983,0.055149827152490616,-0.025675546377897263,-0.007015046197921038
22.225,0.21024872362613678,0.12711049616336823,-0.0034298000391572714,0.13768431544303894,-0.03277502581477165,-0.04335041716694832
22.25,0.19829575717449188,0.2863626778125763,0.14628632366657257,0.18482773005962372,-0.08734621852636337,-0.10343556106090546
22.275,0.25908809900283813,0.4907694458961487,0.023115521296858788,0.17071165144443512,-0.13046076893806458,-0.13281045854091644
22.3,0.26109057664871216,0.6859226822853088,-0.17828170955181122,0.1466732621192932,-0.1120150089263916,-0.135128915309906
22.325,0.20989035069942474,0.9225531220436096,-0.28807398676872253,0.1595868021249771,-0.08240336179733276,-0.144683837890625
22.35,0.20318466424942017,1.2349902391433716,-0.2687457799911499,0.22357304394245148,-0.08756960183382034,-0.1566234827041626
22.375,0.21794362366199493,1.4721766710281372,-0.17879745364189148,0.30209881067276,-0.11432518810033798,-0.14408360421657562
22.4,0.1751491129398346,1.5385334491729736,-0.12219639122486115,0.3373787999153137,-0.1309877336025238,-0.10266099870204926
22.425,0.20343545079231262,1.5197937488555908,-0.169352188706398,0.31357720494270325,-0.12894058227539062,-0.05488650128245354
22.45,0.22165530920028687,1.4695864915847778,-0.3001254200935364,0.2727997601032257,-0.1143951490521431,0.011904914863407612
22.475,0.1457507610321045,1.428151249885559,-0.4414384663105011,0.23772701621055603,-0.09270965307950974,0.059317003935575485
22.5,0.03853185474872589,1.3940515518188477,-0.566312849521637,0.20576967298984528,-0.07909935712814331,0.0657060369849205
22.525,0.0022135674953460693,1.4009017944335938,-0.5887572169303894,0.2117939293384552,-0.06121515855193138,0.06065146625041962
22.55,0.09999296069145203,1.5441687107086182,-0.42350196838378906,0.24988599121570587,-0.04645654931664467,0.053562384098768234
22.575,0.20976224541664124,1.7411587238311768,-0.16249334812164307,0.27367883920669556,-0.056258559226989746,0.059951022267341614
22.6,0.20186582207679749,1.8569653034210205,-0.037032656371593475,0.24609224498271942,-0.07950209081172943,0.0951484814286232
22.625,0.11445808410644531,1.896296739578247,-0.14296166598796844,0.1629343032836914,-0.06659147143363953,0.1413596272468567
22.65,-0.03429895266890526,1.7871220111846924,-0.25626620650291443,0.0834592655301094,-0.0002919232938438654,0.20300443470478058
22.675,-0.1865258514881134,1.5502617359161377,-0.13150182366371155,0.04895973205566406,0.09889014810323715,0.26464059948921204
22.7,-0.24376755952835083,1.2842589616775513,0.18229296803474426,0.03358045220375061,0.1847793608903885,0.31700316071510315
22.725,-0.20786450803279877,0.9826480746269226,0.5796289443969727,0.04086794704198837,0.2344733029603958,0.38557183742523193
22.75,0.010577395558357239,0.7808678150177002,0.8520877957344055,0.043246686458587646,0.25113365054130554,0.4123789370059967
22.775,0.08337801694869995,0.46637454628944397,0.8975865244865417,0.061962008476257324,0.2118065357208252,0.4638800323009491
22.8,-0.10807624459266663,0.04361830651760101,0.8229434490203857,0.11088038980960846,0.15285763144493103,0.5046120882034302
22.825,-0.3445519804954529,-0.20422834157943726,0.7094308137893677,0.16661357879638672,0.11390972882509232,0.4663372337818146
22.85,-0.4108867049217224,-0.11570925265550613,0.5035107135772705,0.20043496787548065,0.08699028193950653,0.3671678602695465
22.875,-0.2884311378002167,0.1383848637342453,0.2590789496898651,0.20395317673683167,0.07673834264278412,0.2575252652168274
22.9,-0.19923704862594604,0.27385810017585754,0.016766786575317383,0.2175699770450592,0.05850068852305412,0.2114909142255783
22.925,-0.24811096489429474,0.13931848108768463,-0.04720667004585266,0.28684088587760925,0.07605035603046417,0.24845971167087555
22.95,-0.33228233456611633,-0.0890340507030487,0.29024744033813477,0.399874210357666,0.16239435970783234,0.2934757471084595
22.975,-0.15982767939567566,-0.048827074468135834,0.860360860824585,0.4881110191345215,0.25111377239227295,0.25025954842567444
23.0,0.12636223435401917,0.10125938802957535,1.2456544637680054,0.5340921878814697,0.2611510455608368,0.20870672166347504
23.025,0.17183485627174377,0.009148731827735901,1.1614580154418945,0.5345566272735596,0.1767299324274063,0.24468190968036652
23.05,0.036853060126304626,-0.17215338349342346,0.8386335372924805,0.5127444267272949,0.10215330868959427,0.2582843005657196
23.075,-0.07122120261192322,-0.13378234207630157,0.5331241488456726,0.47469794750213623,0.06348472088575363,0.2345556914806366
23.1,-0.1777363121509552,0.06572631746530533,0.22253811359405518,0.42143961787223816,0.03673143684864044,0.23033574223518372
23.125,-0.3293415307998657,0.12252712994813919,-0.1275532990694046,0.3751033544540405,0.03307557851076126,0.2377951741218567
23.15,-0.3360879421234131,0.05353256314992905,-0.4372950494289398,0.3406717777252197,0.06228826940059662,0.1838999092578888
23.175,-0.2821548879146576,-0.12732896208763123,-0.6710754632949829,0.3254612982273102,0.10781403630971909,0.170525923371315
23.2,-0.33629342913627625,-0.4852859079837799,-0.8676556348800659,0.3114261329174042,0.1552661955356598,0.1902521699666977
23.225,-0.5225169062614441,-1.0136387348175049,-1.0737566947937012,0.27867940068244934,0.22585748136043549,0.1746198534965515
23.25,-0.6210233569145203,-1.3922760486602783,-1.3441917896270752,0.22329239547252655,0.33922117948532104,0.07542286068201065
23.275,-0.28889551758766174,-1.2662155628204346,-1.5476741790771484,0.18708159029483795,0.48374950885772705,-0.06728657335042953
23.3,0.40034162998199463,-0.7740042805671692,-1.4598816633224487,0.18647193908691406,0.5788407325744629,-0.19199036061763763
23.325,0.9936116933822632,-0.41483330726623535,-1.3775862455368042,0.18319013714790344,0.5045151710510254,-0.1796448975801468
23.35,1.0541563034057617,-0.5865986943244934,-1.6103678941726685,0.1777290552854538,0.3157607913017273,0.014043528586626053
23.375,0.9078405499458313,-0.9946101903915405,-1.8723716735839844,0.18258391320705414,0.20149189233779907,0.14910289645195007
23.4,0.8692570924758911,-1.2740405797958374,-1.9006515741348267,0.19834737479686737,0.18615670502185822,0.17998097836971283
23.425,0.8577935695648193,-1.272234320640564,-1.8752644062042236,0.19619335234165192,0.16815713047981262,0.18240618705749512
23.45,0.6759548187255859,-1.141832709312439,-1.8043293952941895,0.15650638937950134,0.15282154083251953,0.17098741233348846
23.475,0.47119826078414917,-1.0366557836532593,-1.5668977499008179,0.07580524682998657,0.18893007934093475,0.13386894762516022
23.5,0.3813781142234802,-0.9379380345344543,-1.240447759628296,-0.017743337899446487,0.21439866721630096,0.08602292835712433
23.525,0.4122809171676636,-0.8292992115020752,-1.0461207628250122,-0.11707721650600433,0.16659919917583466,0.05102542042732239
23.55,0.4676755368709564,-0.6380569338798523,-1.0653624534606934,-0.210917666554451,0.06686211377382278,0.061111435294151306
23.575,0.394182026386261,-0.3716413378715515,-1.2687170505523682,-0.2927802801132202,-0.07949210703372955,0.11751524358987808
23.6,-0.005101948976516724,-0.26201745867729187,-1.459547519683838,-0.35707658529281616,-0.19352416694164276,0.19260096549987793
23.625,-0.5850119590759277,-0.3575260043144226,-1.302436113357544,-0.39834311604499817,-0.1876840591430664,0.21147266030311584
