Time [s],Acc_x [m/s^2],Acc_y [m/s^2],Acc_z [m/s^2],Gyro_x [1/s],Gyro_y [1/s],Gyro_z [1/s]
0.0,0.0009857623372226954,0.08138561993837357,0.0025119255296885967,0.004927469417452812,-0.0005569080822169781,-0.0020103566348552704
0.05,0.012602811679244041,0.07696152478456497,0.00374483410269022,0.004429393447935581,-0.0038882580120116472,-0.0006231192965060472
0.1,0.00417834660038352,0.0946054607629776,0.011652635410428047,0.004277007654309273,-0.0007801656029187143,9.255735494662076e-05
0.15,0.0069336723536252975,0.14322949945926666,0.04242469742894173,0.003898973809555173,0.00875383522361517,-0.0013263539876788855
0.2,0.041638247668743134,0.1123209148645401,0.07310399413108826,-0.002951656701043248,0.007890724577009678,-0.003379293717443943
0.25,-0.012303544208407402,0.04035378247499466,0.0698101818561554,-0.011912038549780846,0.006931464187800884,-0.00726338243111968
0.3,-0.04148849844932556,0.06091977283358574,0.041250258684158325,-0.009482067078351974,0.003833741880953312,-0.00508051086217165
0.35,-0.030491333454847336,0.09617425501346588,0.005311102606356144,-0.0025704773142933846,0.00794727448374033,-0.0023220183793455362
0.4,-0.03631613403558731,0.12226010859012604,0.008576279506087303,-0.005467422306537628,0.0084537910297513,-0.007087688893079758
0.45,-0.012550005689263344,0.11431790888309479,0.0022574549075216055,-0.009178824722766876,0.00456963200122118,-0.0134922806173563
0.5,0.0035533299669623375,0.1166839748620987,-0.020993750542402267,-0.004149552900344133,0.006047624163329601,-0.018135085701942444
0.55,0.020144160836935043,0.1327848583459854,0.006261676549911499,0.0052698589861392975,0.0004618663515429944,-0.01876581460237503
0.6,0.05352655053138733,0.12611009180545807,0.01509580947458744,0.011236533522605896,-0.004651366733014584,-0.011870995163917542
0.65,0.056987687945365906,0.15282441675662994,0.01585136167705059,0.009037521667778492,0.00037788861664012074,-0.005533213727176189
0.7,0.031501319259405136,0.11905385553836823,-0.01914646476507187,0.0066992430947721004,-0.0008070801268331707,0.0018554783891886473
0.75,0.03261937201023102,0.110689178109169,-0.0005453144549392164,0.007247269153594971,-0.0022569424472749233,0.008047515526413918
0.8,0.018523991107940674,0.12436391413211823,0.03165915235877037,0.008010752499103546,-0.006083741784095764,0.01076851412653923
0.85,0.025696320459246635,0.15126992762088776,0.05131208151578903,0.0060677072033286095,-0.01118836086243391,0.008434705436229706
0.9,0.009659412316977978,0.12381269037723541,0.000259267573710531,0.001732031349092722,-0.015216945670545101,0.007114023435860872
0.95,-0.030322950333356857,0.10170556604862213,-0.012811224907636642,0.001401164336130023,-0.016968168318271637,0.008479480631649494
1.0,-0.02904466912150383,0.1093607097864151,-0.013681918382644653,0.003454785328358412,-0.008187219500541687,0.011701388284564018
1.05,-0.018358537927269936,0.11668206751346588,-0.025535324588418007,0.005502550397068262,-0.008673316799104214,0.011694908142089844
1.1,0.010788206942379475,0.10400964319705963,0.005196827929466963,0.0044862390495836735,-0.017483221367001534,0.007882908917963505
1.15,0.006571912206709385,0.08906746655702591,0.031039567664265633,0.004491399973630905,-0.01401014905422926,0.0025702244602143764
1.2,-0.025377551093697548,0.09899140894412994,0.017051544040441513,0.005718132480978966,-0.013360477983951569,0.0008336043683812022
1.25,-0.032202623784542084,0.1109171062707901,0.01883685775101185,0.009711254388093948,-0.012223945930600166,0.005774735473096371
1.3,-0.020382888615131378,0.13957597315311432,0.0468258336186409,0.008887363597750664,-0.007585612591356039,0.011437267996370792
1.35,-0.024491984397172928,0.1027221828699112,0.02471134625375271,5.489634349942207e-05,0.004561861045658588,0.011961832642555237
1.4,0.004705472849309444,0.0814361646771431,0.03961564972996712,-0.006641320418566465,0.024836914613842964,0.0031035407446324825
1.45,0.17339889705181122,0.09122657775878906,-0.03867727145552635,-0.017012525349855423,0.10159803181886673,-0.008007867261767387
1.5,0.4328738749027252,0.18264006078243256,-0.3163593113422394,-0.04994760453701019,0.37771767377853394,-0.03138930723071098
1.55,0.6137539744377136,0.31631752848625183,-0.4958297312259674,-0.11235528439283371,0.9031248092651367,-0.06244831904768944
1.6,0.46835190057754517,0.2913522720336914,-0.48306038975715637,-0.23220853507518768,1.5745388269424438,-0.10232359915971756
1.65,0.1608482152223587,0.06276320666074753,-0.12298465520143509,-0.38871651887893677,2.0671489238739014,-0.10802879184484482
1.7,0.044255003333091736,-0.3182821571826935,0.058284349739551544,-0.44650688767433167,2.171635150909424,-0.04922545328736305
1.75,-0.1068476140499115,-0.6328259110450745,0.1570797562599182,-0.4090590476989746,2.1602492332458496,-0.02905077300965786
1.8,0.15346769988536835,-0.7569962739944458,0.33290204405784607,-0.45684900879859924,2.020622968673706,-0.0639270544052124
1.85,0.7438781261444092,-0.8660375475883484,0.3335810899734497,-0.6844150424003601,1.7647606134414673,-0.05250738561153412
1.9,0.6645393967628479,-1.2185145616531372,0.2380412220954895,-0.8713249564170837,1.5119967460632324,0.019226938486099243
1.95,0.533689558506012,-0.8016960024833679,-0.5216922760009766,-0.7222913503646851,1.1135060787200928,0.12899114191532135
2.0,0.0949442982673645,0.4865007698535919,-0.795498251914978,-0.5282562375068665,1.0081136226654053,0.15158483386039734
2.05,-0.5880569219589233,2.1962835788726807,-0.7866063714027405,-0.2955968976020813,0.8949456214904785,0.12499680370092392
2.1,-1.2611600160598755,3.592319965362549,-1.1493736505508423,-0.031023379415273666,0.6309719085693359,0.11522192507982254
2.15,-1.3134407997131348,3.767655849456787,-0.9398036003112793,0.10496079921722412,0.4624350070953369,0.002911680843681097
2.2,-0.7342262864112854,2.302408456802368,-0.5844990611076355,0.22988750040531158,0.24343843758106232,-0.15910829603672028
2.25,0.07543657720088959,0.04803657531738281,-0.12121137976646423,0.298410028219223,0.04190743342041969,-0.2741360366344452
2.3,0.5132343769073486,-1.5923588275909424,0.024991074576973915,0.3800013065338135,-0.2522431015968323,-0.2797243595123291
2.35,0.6318050622940063,-2.3704473972320557,0.3396719992160797,0.4495014548301697,-0.45711207389831543,-0.24491292238235474
2.4,0.4069048762321472,-2.1397340297698975,1.279111623764038,0.4705519676208496,-0.6547877192497253,-0.1743261069059372
2.45,-0.36291074752807617,-1.1570701599121094,2.086214065551758,0.6098169088363647,-1.3754992485046387,-0.07921361178159714
2.5,-1.2620357275009155,-0.41180795431137085,1.4553375244140625,0.8489155173301697,-2.760080099105835,-0.033111438155174255
2.55,-1.303389549255371,0.10501106828451157,-0.02855932153761387,0.9647144079208374,-4.028432369232178,-0.12597951292991638
2.6,-0.607145369052887,0.40333276987075806,-1.1652854681015015,0.6267228722572327,-3.977302074432373,-0.31437310576438904
2.65,0.12900841236114502,0.8166828751564026,-1.354491114616394,0.20089171826839447,-2.7832226753234863,-0.47820359468460083
2.7,0.9096620082855225,0.8499699234962463,-1.0952919721603394,-0.09655757248401642,-1.3612120151519775,-0.5500823259353638
2.75,1.4445010423660278,0.7056960463523865,-0.7469479441642761,-0.34213876724243164,-0.08168885856866837,-0.5604555606842041
2.8,1.4780230522155762,0.8465929627418518,-0.37273460626602173,-0.4471431374549866,0.7206130623817444,-0.4636134207248688
2.85,2.27152681350708,0.7804822325706482,-1.2739818096160889,-0.48946547508239746,0.9065595865249634,-0.22088392078876495
2.9,3.042961359024048,0.2682340145111084,-3.5944466590881348,-0.4609226584434509,1.486414909362793,0.0728611946105957
2.95,0.7093987464904785,0.11483274400234222,-4.021275997161865,-0.2951841354370117,3.2054808139801025,0.2281266450881958
3.0,-0.9415476322174072,0.9874641299247742,-0.31934016942977905,-0.4383469223976135,4.6363348960876465,0.17266885936260223
3.05,1.2972979545593262,1.4500666856765747,1.4917070865631104,-1.1486048698425293,4.357293128967285,0.5269500017166138
3.1,0.8462128639221191,-0.028814345598220825,0.6731911897659302,-0.8375244736671448,3.26220703125,1.1949222087860107
3.15,-0.3301343321800232,-0.09337327629327774,0.5581154823303223,0.3064152002334595,2.219167947769165,1.0519819259643555
3.2,-0.7893271446228027,0.05793675407767296,1.2996559143066406,1.0481140613555908,1.4062024354934692,0.5539422035217285
3.25,-0.9898231029510498,-0.4835042655467987,1.5396499633789062,1.3751201629638672,0.4220220744609833,0.1561335027217865
3.3,-1.4732452630996704,-1.6867104768753052,1.1544078588485718,1.4753203392028809,-0.6861828565597534,-0.08623776584863663
3.35,-1.7550008296966553,-1.661795735359192,-0.049247365444898605,1.6604275703430176,-2.0246422290802,-0.5964836478233337
3.4,-0.7592851519584656,-0.6278057098388672,0.14522115886211395,1.346649169921875,-2.547028064727783,-1.0310131311416626
3.45,0.01882648468017578,-0.3116579055786133,0.5853153467178345,0.8244928121566772,-2.6704561710357666,-1.1400173902511597
3.5,1.074305772781372,0.07505600899457932,-0.589512288570404,0.37068822979927063,-2.563616991043091,-1.0970209836959839
3.55,1.7907177209854126,0.1619643270969391,-0.11434232443571091,-0.20750701427459717,-1.4028595685958862,-0.9394556283950806
3.6,2.5735435485839844,0.24162092804908752,0.4409521222114563,-0.4288720190525055,-0.8195056915283203,-0.8514700531959534
3.65,3.890228748321533,0.1573789417743683,-0.43680083751678467,-0.23055152595043182,-1.2024682760238647,-0.6392444968223572
3.7,3.9968132972717285,0.1998031586408615,-0.586685299873352,0.1419183909893036,-1.2406666278839111,-0.32463911175727844
3.75,2.5853819847106934,1.0510740280151367,0.4597521424293518,0.2989523410797119,-0.9131489992141724,0.005076137837022543
3.8,0.7932994365692139,1.0776692628860474,0.40417200326919556,-0.12604190409183502,-0.5477221608161926,0.42251262068748474
3.85,-0.1195782721042633,0.8096133470535278,-0.07260812819004059,-0.6890122890472412,-0.3174556791782379,0.6225888729095459
3.9,-0.11946956813335419,0.7337809205055237,-0.7945449948310852,-1.0471386909484863,-0.36096832156181335,0.725567102432251
3.95,-0.3305291533470154,0.8579598665237427,-1.387191891670227,-1.3288196325302124,-0.1585480123758316,0.7514953017234802
4.0,-0.8696765303611755,0.6327324509620667,-1.7921730279922485,-1.5350767374038696,0.15933644771575928,0.6776902079582214
4.05,-1.3136903047561646,-0.36342814564704895,-1.9853174686431885,-1.5658565759658813,0.296925812959671,0.5400725603103638
4.1,-1.3718891143798828,-1.4711562395095825,-1.9110127687454224,-1.389460802078247,0.2602181136608124,0.3618796169757843
4.15,-1.2367918491363525,-1.7761023044586182,-1.8719987869262695,-1.0142055749893188,0.16953249275684357,0.19765327870845795
4.2,-0.9772279262542725,-1.7903311252593994,-1.9267994165420532,-0.5334331393241882,0.14360696077346802,0.01226125005632639
4.25,-0.8126490712165833,-1.6145832538604736,-1.694288969039917,-0.015155263245105743,0.2254171520471573,-0.261953741312027
4.3,-0.7255328893661499,-0.9779845476150513,-1.1652902364730835,0.6113792657852173,0.27847129106521606,-0.5452277660369873
4.35,-0.5504328608512878,0.2590923607349396,-0.7299101948738098,1.3344897031784058,0.26615995168685913,-0.7839885354042053
4.4,-0.13090766966342926,1.4971829652786255,-0.3524690866470337,1.927837610244751,0.33921700716018677,-1.0131088495254517
4.45,0.485980749130249,2.0879833698272705,0.5378114581108093,2.0040411949157715,0.5604835748672485,-1.16005539894104
4.5,1.071388602256775,1.8244812488555908,1.7458717823028564,1.4498871564865112,0.5125761032104492,-1.0859744548797607
4.55,1.6152921915054321,0.9934941530227661,2.944859743118286,0.7965469360351562,-0.16057036817073822,-0.9519950151443481
4.6,2.55423641204834,-0.10323816537857056,3.246396541595459,0.44203856587409973,-0.8380516171455383,-0.7839915156364441
4.65,3.037543296813965,-0.6316138505935669,3.197032928466797,0.23240149021148682,-0.46212834119796753,-0.5018215179443359
4.7,2.7219936847686768,-0.631074070930481,3.3797473907470703,0.2089311182498932,0.1839963048696518,-0.16833607852458954
4.75,2.2570419311523438,0.13856790959835052,3.363971710205078,0.1557374745607376,0.28664734959602356,0.06970200687646866
4.8,1.6977028846740723,0.5604658722877502,2.8556971549987793,-0.26212987303733826,-0.046903252601623535,0.267394095659256
4.85,1.6671671867370605,0.5805301666259766,1.5429182052612305,-0.7275477647781372,-0.44751617312431335,0.427949458360672
4.9,1.2308483123779297,0.5222311019897461,0.9870876669883728,-0.9584367871284485,-0.212421715259552,0.588918149471283
4.95,0.5625686049461365,0.2307739406824112,0.5063917636871338,-1.0428009033203125,0.1296679973602295,0.6611745357513428
5.0,-0.046820104122161865,0.09389593452215195,0.18477433919906616,-1.0240232944488525,0.2617650330066681,0.6267139315605164
5.05,-0.39264267683029175,-0.025645246729254723,-0.2869628667831421,-0.9117249846458435,0.06681028753519058,0.5531071424484253
5.1,-0.539059042930603,-0.1832733154296875,-0.6725398302078247,-0.7334543466567993,-0.19143550097942352,0.4529954493045807
5.15,-0.693504810333252,-0.38606172800064087,-0.9207065105438232,-0.5251527428627014,-0.3539579212665558,0.3201671838760376
5.2,-0.8023920059204102,-0.5609484314918518,-1.003476619720459,-0.2824985086917877,-0.4427472651004791,0.15959948301315308
5.25,-0.6720100045204163,-0.6733999848365784,-0.9141187071800232,-0.016337472945451736,-0.470281183719635,-0.013713328167796135
5.3,-0.4762953519821167,-0.5524855256080627,-0.8301849961280823,0.2515053153038025,-0.47859951853752136,-0.17490682005882263
5.35,-0.16354821622371674,-0.057242412120103836,-0.767314612865448,0.4749855697154999,-0.4585196375846863,-0.30875492095947266
5.4,0.24343186616897583,0.43116477131843567,-0.6368857026100159,0.5829580426216125,-0.38382843136787415,-0.40511658787727356
5.45,0.5439574718475342,0.6810731887817383,-0.09726012498140335,0.640547513961792,-0.33759498596191406,-0.47097787261009216
5.5,0.9495154023170471,0.653498649597168,0.6887111067771912,0.7655489444732666,-0.41635000705718994,-0.4891304671764374
5.55,1.479063630104065,0.41315940022468567,1.2404462099075317,0.8845210671424866,-0.5406251549720764,-0.42342880368232727
5.6,2.1876752376556396,0.3255462050437927,1.3049578666687012,0.8560677170753479,-0.46560683846473694,-0.2611474096775055
5.65,1.8353219032287598,0.43695640563964844,1.5433896780014038,0.6740566492080688,0.06476280093193054,0.004325304180383682
5.7,0.5862730145454407,0.8255674242973328,2.5863423347473145,0.4789879322052002,0.31247541308403015,0.2359803318977356
5.75,0.9688287377357483,0.6260729432106018,1.317602515220642,0.28820890188217163,-0.02962919883430004,0.36868003010749817
5.8,0.5878697037696838,-0.4878426194190979,1.3717342615127563,-0.0041777342557907104,0.5198274850845337,0.3861466646194458
5.85,0.20696371793746948,-0.8071938157081604,1.7468446493148804,-0.3125401735305786,0.6513542532920837,0.35514113306999207
5.9,0.19245830178260803,-0.24374105036258698,1.0247845649719238,-0.47503581643104553,0.2690306007862091,0.404222309589386
5.95,0.22800973057746887,0.1368865966796875,0.11760079115629196,-0.6030555367469788,0.30935660004615784,0.48604288697242737
6.0,-0.09047216922044754,0.37264445424079895,-0.3970475494861603,-0.7750138640403748,0.5705937147140503,0.5240438580513
6.05,-0.47427791357040405,1.125418782234192,-0.8067667484283447,-0.9023691415786743,0.6239378452301025,0.5537652373313904
6.1,-0.5733212828636169,0.9226857423782349,-1.4490083456039429,-0.9544249176979065,0.5009881258010864,0.6161030530929565
6.15,-0.6230188608169556,0.3888006806373596,-1.6447595357894897,-0.9701588153839111,0.4303712844848633,0.608547568321228
6.2,-0.6458656787872314,0.06909370422363281,-1.6094636917114258,-0.8353027701377869,0.32803604006767273,0.5209487676620483
6.25,-0.38011956214904785,-0.3570423722267151,-1.4393787384033203,-0.523518443107605,0.19992686808109283,0.33868589997291565
6.3,-0.05847930908203125,-0.8434430360794067,-1.0057792663574219,-0.0994667112827301,0.1138077974319458,0.10953982919454575
6.35,0.05687311291694641,-0.9715291261672974,-0.8809666037559509,0.4076162874698639,0.047238707542419434,-0.07322266697883606
6.4,0.2896091341972351,-0.6364623308181763,-0.8205940127372742,0.8708798885345459,0.15334242582321167,-0.25931254029273987
6.45,0.47105082869529724,0.022887200117111206,-0.27505290508270264,1.1993135213851929,0.39417073130607605,-0.4651842713356018
6.5,0.6457667946815491,0.5689554810523987,0.4620383083820343,1.4218801259994507,0.3277056813240051,-0.569048285484314
6.55,0.9250979423522949,0.6127405762672424,0.8795021176338196,1.4718281030654907,-0.018598457798361778,-0.569720983505249
6.6,1.0063345432281494,0.1956052929162979,1.3489081859588623,1.255841612815857,-0.2620508074760437,-0.4874226152896881
6.65,1.058849573135376,0.07731915265321732,1.9044245481491089,0.8859553337097168,-0.43265393376350403,-0.34732693433761597
6.7,1.244314432144165,0.4865427613258362,2.2013347148895264,0.5167187452316284,-0.5392049551010132,-0.19724808633327484
6.75,1.5164835453033447,0.14185331761837006,2.0383262634277344,0.07313784956932068,-0.46059176325798035,-0.03056527115404606
6.8,1.0266790390014648,-0.37781912088394165,2.1251230239868164,-0.40029555559158325,-0.4498984217643738,0.13073723018169403
6.85,0.5102913975715637,-0.23340226709842682,1.506238579750061,-0.6730266213417053,-0.7699421048164368,0.27551186084747314
6.9,0.1804254800081253,0.20618727803230286,0.5921322107315063,-0.810998260974884,-0.8211488723754883,0.39356935024261475
6.95,-0.07659678906202316,0.4405432343482971,-0.187808558344841,-0.9109423756599426,-0.5704498291015625,0.4324570894241333
7.0,-0.3062666952610016,0.3195019066333771,-0.6688399910926819,-0.9908693432807922,-0.38447409868240356,0.3703601360321045
7.05,-0.7352956533432007,0.06228926405310631,-0.7656542062759399,-1.1026726961135864,-0.3597881495952606,0.24165116250514984
7.1,-0.7568706274032593,-0.2622375786304474,-0.9089213013648987,-1.0972846746444702,-0.49514591693878174,0.12128901481628418
7.15,-0.5310643911361694,-0.6447096467018127,-1.2397156953811646,-0.908729612827301,-0.550521731376648,0.051524218171834946
7.2,-0.27980074286460876,-0.6840096116065979,-1.3575117588043213,-0.6365945935249329,-0.36475640535354614,-0.05322723835706711
7.25,-0.10261428356170654,-0.4946509301662445,-1.3998565673828125,-0.32110080122947693,-0.10670268535614014,-0.18738088011741638
7.3,0.13383686542510986,-0.25092610716819763,-1.483677864074707,0.010119110345840454,0.05928328260779381,-0.2656368017196655
7.35,0.41071492433547974,0.029428424313664436,-1.4619908332824707,0.28249719738960266,0.19513040781021118,-0.2690278887748718
7.4,0.4037618637084961,0.5692052841186523,-1.3420000076293945,0.5006188750267029,0.4361022412776947,-0.2510843873023987
7.45,0.3889560103416443,0.9066811203956604,-1.103366494178772,0.6791021823883057,0.7619448900222778,-0.22814156115055084
7.5,0.45166146755218506,0.857511579990387,-0.5555065870285034,0.7356888651847839,1.039639949798584,-0.17528682947158813
7.55,0.2998310625553131,0.6465111374855042,0.03327900916337967,0.6844852566719055,1.1602274179458618,-0.09460625797510147
7.6,0.09694407880306244,0.45273980498313904,0.7262815833091736,0.6638867259025574,1.1135011911392212,-0.02948158234357834
7.65,0.18951764702796936,-0.10742472857236862,1.1679576635360718,0.6967775821685791,0.8611312508583069,0.004451087675988674
7.7,0.29101982712745667,-0.028583509847521782,1.302242398262024,0.7258965969085693,0.5384600758552551,-0.02976602129638195
7.75,0.46777158975601196,0.12836363911628723,1.6009700298309326,0.671424388885498,0.4610707759857178,-0.0794856995344162
7.8,0.5944736003875732,-0.11069964617490768,1.88473379611969,0.5380207896232605,0.37790223956108093,-0.09476061910390854
7.85,0.6305761337280273,-0.19852067530155182,1.874075174331665,0.38259753584861755,0.1350778192281723,-0.10173752158880234
7.9,0.5949717164039612,0.03905680030584335,1.7393399477005005,0.15790429711341858,-0.005937138572335243,-0.06756553053855896
7.95,0.4890875220298767,0.6418562531471252,1.4902721643447876,-0.09871231764554977,-0.08121148496866226,-0.00428690854460001
8.0,0.6121125817298889,0.6547108292579651,1.003637433052063,-0.3505244851112366,-0.1559818685054779,0.0718599408864975
8.05,0.4989379942417145,0.041899673640728,0.607265830039978,-0.5805553793907166,-0.2819710969924927,0.13937965035438538
8.1,0.35298192501068115,-0.30158141255378723,0.26411521434783936,-0.7033839225769043,-0.4727042615413666,0.16313837468624115
8.15,0.3089267313480377,-0.0106325289234519,0.10587576031684875,-0.6697567105293274,-0.5785279273986816,0.1218511089682579
8.2,0.45177388191223145,-0.1250181645154953,-0.2642952799797058,-0.5368703007698059,-0.5733960270881653,0.03789235278964043
8.25,0.40931636095046997,-0.15142636001110077,-0.459745317697525,-0.4138442575931549,-0.5120202302932739,-0.06305025517940521
8.3,0.44412314891815186,-0.13448530435562134,-0.763668417930603,-0.27751344442367554,-0.6410242319107056,-0.11285283416509628
8.35,0.4666858911514282,-0.012080253101885319,-1.2136098146438599,-0.20352545380592346,-0.7298350930213928,-0.10827408730983734
8.4,0.5287374258041382,0.1686076521873474,-1.680293083190918,-0.2504456639289856,-0.5808488726615906,-0.1096978560090065
8.45,0.608112633228302,0.474147766828537,-1.9311590194702148,-0.4657938480377197,-0.19521087408065796,-0.12031532824039459
8.5,-0.04343166947364807,1.296467900276184,-1.1654090881347656,-0.9297090768814087,0.19994348287582397,-0.11301366984844208
8.55,-0.05265599489212036,1.7913382053375244,-0.8911170959472656,-1.3464279174804688,-0.3397294580936432,0.035109322518110275
8.6,1.1932711601257324,1.299468994140625,-2.5854835510253906,-1.5702242851257324,-1.188249111175537,0.3331223726272583
8.65,1.2115702629089355,0.4177636206150055,-3.0026626586914062,-1.882673740386963,-0.746823787689209,0.30995556712150574
8.7,1.320467233657837,-0.6350815296173096,-3.3084797859191895,-2.127318859100342,-0.200571209192276,0.26449352502822876
8.75,1.8431869745254517,-1.6337924003601074,-3.3198485374450684,-2.3674914836883545,0.2992405295372009,0.37326177954673767
8.8,0.8767663240432739,-2.0581352710723877,-1.4896913766860962,-2.633835792541504,1.031819224357605,0.37005650997161865
8.85,0.15869379043579102,-1.9542572498321533,0.004036630503833294,-2.416611909866333,1.114105463027954,0.6370099186897278
8.9,-0.6273792386054993,-2.047342538833618,0.5095786452293396,-1.9250050783157349,1.3604378700256348,0.6866207718849182
8.95,-1.5618373155593872,-1.4302377700805664,2.136265754699707,-1.8391618728637695,1.8056808710098267,0.33257588744163513
9.0,-1.1865806579589844,-1.714558720588684,2.044938087463379,-1.5636621713638306,1.926619529724121,0.38103029131889343
9.05,-0.6761717200279236,-1.3835268020629883,2.5505142211914062,-1.6032934188842773,1.9681973457336426,0.1454581618309021
9.1,0.23439157009124756,-0.7403602600097656,2.549788475036621,-1.4769153594970703,1.8141790628433228,0.14380599558353424
9.15,0.46196019649505615,0.30097395181655884,1.8116916418075562,-1.2136183977127075,1.6514229774475098,0.10522670298814774
9.2,0.5263107419013977,0.7835274934768677,0.6078293919563293,-0.9686830043792725,1.6434483528137207,-0.047591738402843475
9.25,0.31505003571510315,1.0520449876785278,0.4009208083152771,-0.916384220123291,1.7326289415359497,-0.17815719544887543
9.3,0.4709739685058594,0.7429867386817932,0.5888561010360718,-0.6734509468078613,1.7212482690811157,-0.10173912346363068
9.35,0.5546550750732422,1.2953253984451294,0.7966471314430237,-0.36184439063072205,1.4290882349014282,0.08999481797218323
9.4,0.19899573922157288,1.6312401294708252,1.050966739654541,0.1331549733877182,0.9969112277030945,0.22553947567939758
9.45,-0.7395157814025879,2.0019285678863525,1.145363211631775,0.3983829617500305,0.5251615047454834,0.15278922021389008
9.5,-1.5090157985687256,2.3826963901519775,1.0857917070388794,0.5719602108001709,0.12038376182317734,0.10525166243314743
9.55,-1.9610193967819214,2.832815647125244,1.2588763236999512,0.5264217853546143,-0.1909397393465042,-0.037802498787641525
9.6,-1.9677563905715942,2.307746410369873,1.1139111518859863,0.5132398009300232,-0.4034476578235626,-0.23248068988323212
9.65,-1.661581039428711,1.6145509481430054,0.8967522382736206,0.4897734522819519,-0.6297719478607178,-0.43905505537986755
9.7,-1.171938419342041,0.9495145678520203,0.8358733654022217,0.5545634031295776,-0.8166811466217041,-0.6245368123054504
9.75,-0.9231442213058472,0.4142676591873169,0.9200714826583862,0.6100952625274658,-0.9756659865379333,-0.8179309964179993
9.8,-0.6680704951286316,0.09443767368793488,0.9945485591888428,0.9018517732620239,-1.1924071311950684,-1.0073316097259521
9.85,-0.591294527053833,-0.08838935196399689,0.7103149890899658,1.2542179822921753,-1.262215256690979,-1.3526874780654907
9.9,-0.4301099479198456,0.9653369784355164,0.8515475392341614,1.410558819770813,-1.1192412376403809,-1.8960624933242798
9.95,-0.1364334225654602,1.5894596576690674,0.2241300642490387,1.4853301048278809,-1.074692964553833,-2.257796287536621
10.0,0.026183485984802246,1.7167723178863525,1.057982087135315,1.2848812341690063,-0.9599113464355469,-2.475515365600586
10.05,0.5088127851486206,0.711158812046051,1.3637971878051758,1.3725557327270508,-1.1971724033355713,-2.3546736240386963
10.1,0.9012556076049805,-0.9563285708427429,0.3675558865070343,1.7580596208572388,-1.4768491983413696,-2.0332858562469482
10.15,1.3359415531158447,-1.869089961051941,-0.39916083216667175,1.9435265064239502,-1.2456828355789185,-1.7511121034622192
10.2,1.4491668939590454,-2.004638910293579,-0.403523713350296,1.6536096334457397,-0.8991434574127197,-1.264366865158081
10.25,1.4203534126281738,-2.1494271755218506,-0.36041903495788574,0.8314964175224304,-0.9618157744407654,-0.6515882611274719
10.3,2.086597204208374,-2.243413209915161,-0.2348472625017166,0.15413479506969452,-1.433823585510254,-0.4433434009552002
10.35,2.4582693576812744,-2.358186721801758,-0.13598616421222687,-0.14666025340557098,-1.9746454954147339,-0.4034183919429779
10.4,2.1951091289520264,-2.6541390419006348,-0.24214129149913788,-0.24555501341819763,-2.2648825645446777,-0.3633807599544525
10.45,2.028902769088745,-2.224346876144409,-0.3959689736366272,-0.243555948138237,-2.3958418369293213,-0.4148591458797455
10.5,1.9918230772018433,-1.8246983289718628,-0.9271305203437805,-0.15783655643463135,-2.511303186416626,-0.37800222635269165
10.55,1.6285650730133057,-0.5984174609184265,-1.0991973876953125,-0.21875710785388947,-2.3824093341827393,-0.22015778720378876
10.6,1.3629120588302612,0.6212472319602966,-1.7661457061767578,-0.3663191497325897,-2.3476169109344482,0.037554994225502014
10.65,1.9161665439605713,0.08906728029251099,-3.0430285930633545,-0.647547721862793,-2.065485715866089,0.23912034928798676
10.7,0.7552396059036255,0.4546756148338318,-2.3719303607940674,-0.8023164868354797,-1.071367621421814,0.0581793449819088
10.75,0.35362327098846436,1.2381105422973633,-2.5622098445892334,-0.8157215118408203,-0.9871022701263428,0.1303788274526596
10.8,0.711534857749939,1.9471608400344849,-3.321382999420166,-0.6851744651794434,-0.7437806725502014,0.26461437344551086
10.85,0.1648545265197754,2.3967297077178955,-3.440908670425415,-0.3869003653526306,0.10093121975660324,0.11931812763214111
10.9,-0.19582009315490723,2.539259195327759,-3.471219778060913,-0.19145432114601135,0.40357136726379395,-0.005848413333296776
10.95,-0.3073164224624634,2.697036027908325,-3.2296719551086426,-0.07626284658908844,0.2879592180252075,-0.044158510863780975
11.0,-0.45055603981018066,3.129547595977783,-2.795072317123413,0.17812088131904602,0.05599978566169739,0.047697778791189194
11.05,-1.2705943584442139,2.1750948429107666,-1.9797202348709106,0.573560357093811,0.17589224874973297,0.19398410618305206
11.1,-1.2588046789169312,1.1176272630691528,-0.8799723982810974,1.0607022047042847,0.37200629711151123,0.14337857067584991
11.15,-0.11291913688182831,0.884247899055481,0.05878429487347603,1.38662850856781,0.5086920261383057,-0.15611985325813293
11.2,0.8026506900787354,-0.26447588205337524,0.5576887130737305,0.9250316619873047,0.43977484107017517,-0.6423349976539612
11.25,1.872222661972046,-2.3438656330108643,0.9704847931861877,0.29227524995803833,-0.3713812232017517,-0.9432461261749268
11.3,1.4736664295196533,-3.082425594329834,1.4823819398880005,-0.135149747133255,-0.8630164265632629,-0.9484428763389587
11.35,1.47951078414917,-3.862762928009033,1.2417898178100586,-0.32130783796310425,-1.1288124322891235,-0.8142566084861755
11.4,1.2255618572235107,-3.699756145477295,1.0951710939407349,-0.1110507994890213,-1.0376615524291992,-0.5590969920158386
11.45,0.9886070489883423,-1.972581148147583,1.062414526939392,0.3358272910118103,-0.9801321029663086,-0.13152389228343964
11.5,1.4977030754089355,-0.6865397691726685,0.08732881397008896,0.5869031548500061,-0.7612712979316711,0.38925856351852417
11.55,1.2105624675750732,-0.8754265308380127,-1.0228371620178223,0.6446194052696228,0.3189656138420105,0.6262820363044739
11.6,-0.09784767031669617,-0.8173943758010864,-0.8565407991409302,0.4492635726928711,1.5230809450149536,0.5058693885803223
11.65,-1.5643993616104126,-1.3740615844726562,-0.11763390153646469,0.5576915740966797,1.8930625915527344,0.45687127113342285
11.7,-2.516667604446411,-0.8327808380126953,-0.2213209718465805,0.9438320994377136,1.4041162729263306,0.7666547894477844
11.75,-1.8768683671951294,0.5485507249832153,-0.9027761816978455,1.2254374027252197,1.161937952041626,0.798679530620575
11.8,-2.2074549198150635,1.6512998342514038,0.35959598422050476,1.0324667692184448,1.5159177780151367,0.41136109828948975
11.85,-2.6735026836395264,2.428626537322998,1.228137493133545,0.9201059341430664,1.028125524520874,0.11236998438835144
11.9,-1.5948585271835327,2.929792881011963,2.5220682621002197,0.9276120066642761,0.9325916767120361,-0.250214159488678
11.95,-0.3734750747680664,3.100654125213623,2.683281898498535,0.6961390972137451,0.8400294780731201,-0.5241647362709045
12.0,0.6549316644668579,2.6110031604766846,2.698366641998291,0.4789496064186096,0.947566568851471,-0.6512477993965149
12.05,1.9820177555084229,2.14288067817688,3.079695224761963,0.4044625163078308,1.035566806793213,-0.7304402589797974
12.1,3.135923147201538,1.4816255569458008,1.5606778860092163,0.1322927176952362,0.8414223790168762,-0.7483880519866943
12.15,3.5010268688201904,0.8325347304344177,0.42661088705062866,-0.09097328782081604,0.7789676785469055,-0.533523440361023
12.2,3.2431082725524902,-0.26619645953178406,-0.7740898728370667,-0.21330678462982178,0.8420727252960205,-0.18706777691841125
12.25,2.3224141597747803,-1.1931507587432861,-1.4331133365631104,-0.15113916993141174,0.8794844150543213,0.21731144189834595
12.3,1.3969935178756714,-1.633344054222107,-1.6747580766677856,0.005251482129096985,0.8001957535743713,0.5208125114440918
12.35,0.7726221084594727,-1.9436219930648804,-1.312515377998352,0.13183891773223877,0.6143295764923096,0.644149661064148
12.4,0.13727521896362305,-1.9068949222564697,-0.7760564088821411,0.19116829335689545,0.31739357113838196,0.664626955986023
12.45,-0.11620597541332245,-1.5882580280303955,0.0507250539958477,0.25050413608551025,0.07865350693464279,0.6094570159912109
12.5,-0.145607590675354,-0.6287460923194885,0.7001961469650269,0.21393221616744995,-0.052853625267744064,0.5763427019119263
12.55,0.177118182182312,-0.0906934067606926,2.995335102081299,0.012712299823760986,0.3338959813117981,0.6202893257141113
12.6,-1.76318359375,0.6359312534332275,2.1888301372528076,-0.5417194962501526,0.546532154083252,0.5633633732795715
12.65,0.07481861114501953,1.7901777029037476,2.4720611572265625,-0.39737579226493835,0.3639333248138428,0.27910518646240234
12.7,1.7641172409057617,4.235337734222412,0.8607195615768433,-0.3863721787929535,0.5401992201805115,0.22324411571025848
12.75,3.3418281078338623,4.971210956573486,-0.9427378177642822,-0.37382522225379944,0.3492826223373413,0.2953241765499115
12.8,2.543924570083618,4.484781742095947,0.031114012002944946,-0.13543350994586945,0.7728060483932495,0.5078134536743164
12.85,1.689324975013733,3.263796329498291,-0.15253739058971405,0.06644341349601746,0.834159255027771,0.7443124055862427
12.9,0.6312562823295593,2.430349588394165,1.7282730340957642,0.11245070397853851,0.8143357634544373,0.8152318596839905
12.95,0.3902042508125305,1.7726900577545166,2.05115008354187,0.11558017134666443,-0.3959478735923767,0.7724457383155823
13.0,0.27279379963874817,1.8792078495025635,1.4622230529785156,0.14372016489505768,-0.9435573220252991,0.8044143915176392
13.05,-0.3055087924003601,2.135599374771118,1.9016450643539429,0.16129276156425476,-0.34603020548820496,0.9073502421379089
13.1,-1.1906017065048218,1.2781975269317627,1.630887746810913,0.020639240741729736,-0.09606838971376419,1.0557655096054077
13.15,-1.730507254600525,0.17402376234531403,1.2228105068206787,-0.22424235939979553,-0.19807465374469757,1.271152138710022
13.2,-2.1341891288757324,-0.23216141760349274,0.984308123588562,-0.35892248153686523,-0.3150208294391632,1.4712234735488892
13.25,-2.4709012508392334,-0.9903383255004883,0.6664961576461792,-0.338947057723999,-0.2821604907512665,1.5901291370391846
13.3,-2.0832133293151855,-2.318182945251465,0.665549635887146,-0.24828076362609863,-0.14783795177936554,1.4885386228561401
13.35,-0.8289266228675842,-4.425783157348633,0.17149116098880768,-0.15107759833335876,-0.25776079297065735,1.2064568996429443
13.4,-0.6067113280296326,-4.5878005027771,-0.41242650151252747,-0.16858357191085815,-0.3504410982131958,0.8712896108627319
13.45,-0.3369692862033844,-3.42909574508667,-0.60567307472229,-0.34026604890823364,-0.2946779727935791,0.4300805628299713
13.5,-0.6022953987121582,-2.03320574760437,-0.7095564603805542,-0.2902219891548157,-0.4708217680454254,0.006180787459015846
13.55,-0.1675737500190735,-1.7254879474639893,-1.4149019718170166,-0.1323123425245285,-0.9440264105796814,-0.2544447183609009
13.6,0.4516090750694275,-1.1484453678131104,-1.6400223970413208,-0.17749202251434326,-1.3082056045532227,-0.5807912349700928
13.65,0.8662729859352112,-0.4107429087162018,-1.3136661052703857,-0.06548768281936646,-1.7310845851898193,-0.7689385414123535
13.7,1.7445582151412964,-0.15425126254558563,-2.0386929512023926,0.15108585357666016,-1.911596417427063,-0.8207991123199463
13.75,1.5642187595367432,-0.2358648031949997,-1.7606035470962524,0.10599622130393982,-1.2383097410202026,-0.8733886480331421
13.8,1.6397416591644287,-0.0982762798666954,-1.407887578010559,0.14268767833709717,-0.7792587876319885,-0.876897394657135
13.85,2.169358730316162,-0.1193639487028122,-1.324157476425171,0.18337102234363556,-0.5885929465293884,-0.7003540396690369
13.9,2.246891736984253,0.18153750896453857,-0.5470831990242004,0.21811361610889435,-0.3279876708984375,-0.5602614283561707
13.95,2.118964672088623,0.08115947991609573,-0.18201524019241333,0.29353511333465576,-0.3391694724559784,-0.3732532262802124
14.0,1.6360397338867188,-0.3562432527542114,0.38060155510902405,0.39030349254608154,-0.3481573462486267,-0.13290996849536896
14.05,1.1206855773925781,0.07961554825305939,0.3599070906639099,0.5628448724746704,-0.3452818691730499,0.12051998823881149
14.1,0.6022503972053528,0.7929641008377075,0.4632031321525574,0.656658947467804,-0.08888231217861176,0.30837738513946533
14.15,-0.07236233353614807,0.7778044939041138,0.3681880831718445,0.4470248222351074,0.2375461310148239,0.4429779648780823
14.2,-0.651379406452179,0.599746823310852,0.26715195178985596,-0.01732000708580017,0.26098448038101196,0.47684019804000854
14.25,-0.8648146390914917,0.20997817814350128,0.13948479294776917,-0.5118268728256226,0.0028927933890372515,0.40580254793167114
14.3,-1.0916236639022827,-0.009883820079267025,0.1379466950893402,-0.7769211530685425,-0.07666099071502686,0.26317495107650757
14.35,-0.9435228109359741,-0.47060203552246094,-0.001257626456208527,-0.7956852316856384,-0.04903755336999893,0.09284749627113342
14.4,-0.8085057139396667,-0.5635652542114258,-0.06823859363794327,-0.6437849998474121,-0.0573355071246624,-0.06907808780670166
14.45,-0.6608130931854248,-0.2458944320678711,-0.40315884351730347,-0.3561397194862366,-0.18857893347740173,-0.19163872301578522
14.5,-0.3487684428691864,-0.18269826471805573,-0.5951058268547058,-0.08954976499080658,-0.3089105188846588,-0.30814436078071594
14.55,-0.018933594226837158,-0.25254157185554504,-0.5331169366836548,0.0909801721572876,-0.4861616790294647,-0.37113240361213684
14.6,0.11590790748596191,-0.09816841036081314,-0.5112337470054626,0.19904184341430664,-0.7000092267990112,-0.3276873528957367
14.65,0.47147107124328613,0.03359218314290047,-0.7363182306289673,0.26187095046043396,-0.6988881230354309,-0.22627951204776764
14.7,0.5583539009094238,0.24919413030147552,-0.6378313302993774,0.2610001266002655,-0.2514857053756714,-0.21685776114463806
14.75,0.3085317611694336,0.5845337510108948,-0.031201275065541267,0.28947895765304565,0.21644523739814758,-0.22442135214805603
14.8,0.4259922206401825,0.42130476236343384,0.38056889176368713,0.31397774815559387,0.2729566693305969,-0.18190565705299377
14.85,0.3656896650791168,0.3849526047706604,0.6489224433898926,0.31081944704055786,0.13943713903427124,-0.1413939893245697
14.9,0.37860047817230225,0.35041525959968567,0.6878482103347778,0.2805417478084564,-0.025507815182209015,-0.07077527046203613
14.95,0.371875524520874,0.29328158497810364,0.7894659638404846,0.21634545922279358,-0.03742620721459389,-0.011816078796982765
15.0,0.21825633943080902,0.3321104347705841,0.9287915229797363,0.12090609222650528,0.006984720006585121,0.03173099458217621
15.05,0.12555214762687683,0.26805979013442993,0.951723575592041,0.016429390758275986,0.0036349992733448744,0.0693323090672493
15.1,0.004056274890899658,0.12752346694469452,0.8742966651916504,-0.07824721187353134,-0.01802736148238182,0.08127438277006149
15.15,-0.16626936197280884,0.20575052499771118,0.8020352721214294,-0.15827065706253052,-0.0529036708176136,0.07571427524089813
15.2,-0.08322535455226898,0.15926173329353333,0.47169458866119385,-0.20616088807582855,-0.13275879621505737,0.07165379077196121
15.25,-0.132428839802742,0.04639722779393196,0.24170640110969543,-0.2721790373325348,-0.1254379004240036,0.030764758586883545
15.3,-0.17729544639587402,-0.06433390825986862,0.1060834601521492,-0.3121432363986969,-0.18265746533870697,-0.002985443687066436
15.35,-0.0480969175696373,-0.08437157422304153,-0.20114374160766602,-0.32133737206459045,-0.2748786509037018,-0.008740769699215889
15.4,-0.0023196935653686523,-0.053064364939928055,-0.4083207845687866,-0.30919164419174194,-0.25228771567344666,-0.022684387862682343
15.45,0.02031390368938446,-0.02033807709813118,-0.5673925280570984,-0.27632707357406616,-0.17734964191913605,-0.044614944607019424
15.5,0.003205537796020508,-0.0052156634628772736,-0.6520472764968872,-0.21708650887012482,-0.09755819290876389,-0.0635150894522667
15.55,-0.005325376987457275,0.016334518790245056,-0.6468601226806641,-0.1355954259634018,-0.06440158188343048,-0.0745638832449913
15.6,0.18437060713768005,-0.0071678441017866135,-0.6213786602020264,-0.04479954019188881,-0.08016428351402283,-0.07756280153989792
15.65,0.24611495435237885,0.0918559804558754,-0.5540862083435059,0.040664829313755035,-0.05866299942135811,-0.07243900001049042
15.7,0.34507519006729126,0.1146392673254013,-0.35362082719802856,0.12725025415420532,-0.015558665618300438,-0.05656002461910248
15.75,0.377521812915802,0.17639635503292084,-0.22323980927467346,0.19687284529209137,0.0260100569576025,-0.019241293892264366
15.8,0.36054787039756775,0.22579003870487213,-0.07528681308031082,0.23418864607810974,0.0807686373591423,0.020800350233912468
15.85,0.26128703355789185,0.19863130152225494,0.1416499763727188,0.2213752716779709,0.1503654569387436,0.03530950844287872
15.9,0.17145666480064392,0.15225030481815338,0.25623956322669983,0.17652571201324463,0.14421069622039795,0.07235265523195267
15.95,0.00060252845287323,0.12364199012517929,0.306172251701355,0.14303721487522125,0.16527459025382996,0.09656333178281784
16.0,-0.14670799672603607,0.1067524328827858,0.44388431310653687,0.10414761304855347,0.2438839226961136,0.0848337858915329
16.05,-0.21730990707874298,0.06466677784919739,0.5002802014350891,0.08096581697463989,0.21103696525096893,0.07239960134029388
16.1,-0.225373774766922,0.04125312343239784,0.6455777287483215,0.05068626254796982,0.13294917345046997,0.05068329721689224
16.15,-0.25368088483810425,0.142975851893425,0.5533565282821655,0.024242132902145386,0.04791625216603279,0.025495976209640503
16.2,-0.1708981841802597,0.12375549226999283,0.44557029008865356,-0.005523097701370716,0.002019065897911787,-0.003689111676067114
16.25,-0.12041439116001129,0.08510401099920273,0.3858417868614197,-0.05311542749404907,-0.0226278118789196,-0.03122572787106037
16.3,0.011564113199710846,0.08585359156131744,0.18183255195617676,-0.11333875358104706,-0.051172081381082535,-0.04409433901309967
16.35,0.004782974720001221,0.07000542432069778,0.09441693127155304,-0.1573934555053711,-0.014537262730300426,-0.061330679804086685
16.4,0.016884449869394302,0.12245465815067291,0.041780099272727966,-0.16316354274749756,-0.0123197166249156,-0.06514438986778259
16.45,0.11420366913080215,0.11652565747499466,-0.021205194294452667,-0.14029952883720398,-0.04033404961228371,-0.05371512845158577
16.5,0.021636277437210083,0.18696023523807526,-0.20674020051956177,-0.11477819085121155,-0.05739906057715416,-0.04093606397509575
16.55,0.1959896832704544,0.1992941051721573,-0.28004521131515503,-0.08233128488063812,-0.05699305981397629,-0.04169915243983269
16.6,0.11411052942276001,0.10941124707460403,-0.11334159970283508,-0.057366885244846344,-0.03538643196225166,-0.05529382452368736
16.65,0.2193160057067871,0.04848002642393112,-0.1859825849533081,-0.0037063751369714737,-0.11291833966970444,-0.01229619700461626
16.7,0.10392913967370987,0.10679817199707031,-0.23742873966693878,0.037092775106430054,-0.05709582567214966,0.01670261099934578
16.75,0.02101897820830345,0.0854940414428711,-0.10960358381271362,0.05380694195628166,0.015669768676161766,0.027905164286494255
16.8,-0.02736043557524681,0.080109603703022,-0.04464498162269592,0.060157500207424164,-0.007423561066389084,0.04327397793531418
16.85,-0.1557774692773819,0.17334464192390442,0.010766333900392056,0.06901974231004715,-0.013932745903730392,0.043858595192432404
16.9,-0.18975041806697845,0.16939356923103333,0.005980874411761761,0.07956399768590927,-0.012585834600031376,0.03325875103473663
16.95,-0.1913754940032959,0.16361334919929504,0.10367242246866226,0.08831893652677536,-0.00853258091956377,0.010353918187320232
17.0,-0.16497129201889038,0.0245294738560915,0.12468073517084122,0.08495315164327621,-0.052569154649972916,-0.0068082972429692745
17.05,-0.1284094750881195,-0.23233701288700104,0.2022838294506073,0.07356289029121399,-0.03461067005991936,-0.020768487825989723
17.1,-0.3426416516304016,0.2848396897315979,0.2975274622440338,0.08034924417734146,-0.0017543983412906528,-0.0027766618877649307
17.15,-0.20076492428779602,0.35457709431648254,-0.05204610526561737,0.10056574642658234,0.018570268526673317,0.04998486489057541
17.2,-0.3117435574531555,0.3232298493385315,0.09453374892473221,0.01944669522345066,0.23781433701515198,-0.0006885642651468515
17.25,-0.34668779373168945,0.1753559410572052,0.08447832614183426,-0.1096193939447403,0.27542465925216675,-0.023533741012215614
17.3,-0.17283502221107483,0.2348337471485138,-0.11393333971500397,-0.18239587545394897,0.2920077443122864,-0.0028403003234416246
17.35,-0.12946653366088867,0.251830130815506,-0.17237412929534912,-0.17005294561386108,0.4678739011287689,0.0030952226370573044
17.4,-0.17350181937217712,0.15635396540164948,-0.12401638925075531,-0.12255887687206268,0.5782979726791382,0.005339887924492359
17.45,-0.17099952697753906,0.19477848708629608,-0.05092005804181099,-0.05867452174425125,0.560756504535675,0.029458504170179367
17.5,-0.0739482119679451,0.23953726887702942,0.020145632326602936,0.025390945374965668,0.5128879547119141,0.06815312802791595
17.55,-0.16502054035663605,0.5687742829322815,0.2623765468597412,0.15305274724960327,0.4652213752269745,0.09776423871517181
17.6,-0.021889477968215942,0.5449753403663635,0.2701222598552704,0.32027456164360046,0.34637966752052307,0.11486957967281342
17.65,-0.010333746671676636,-0.2378845363855362,0.775465726852417,0.3855486810207367,0.255561500787735,0.04833626747131348
17.7,-0.10520502924919128,-0.002045594621449709,1.1361305713653564,0.4306282699108124,-0.1347658932209015,0.054755158722400665
17.75,0.2791523337364197,0.11986543238162994,0.5367118120193481,0.5116825103759766,-0.47676950693130493,0.11667834222316742
17.8,-0.053678423166275024,-0.16138742864131927,0.8433142304420471,0.40033596754074097,-0.25604569911956787,0.09346437454223633
17.85,-0.17186790704727173,0.032582320272922516,0.831339955329895,0.22937394678592682,-0.35633939504623413,0.12684710323810577
17.9,0.17760604619979858,0.17778493463993073,0.3801281750202179,0.039075106382369995,-0.4599389433860779,0.15295812487602234
17.95,-0.031225748360157013,0.11376287788152695,0.16287468373775482,-0.21341265738010406,-0.277671754360199,0.11363036930561066
18.0,0.03138754516839981,-0.055714622139930725,-0.18513520061969757,-0.40222832560539246,-0.2566814720630646,0.0965316966176033
18.05,0.13176003098487854,-0.07975675910711288,-0.35815709829330444,-0.506168007850647,-0.2616238594055176,0.06662578880786896
18.1,0.11550715565681458,0.11826800554990768,-0.5467331409454346,-0.5033595561981201,-0.3169095814228058,0.03705045208334923
18.15,0.33123141527175903,0.03519817814230919,-0.7752330303192139,-0.40899020433425903,-0.3908417224884033,0.023768505081534386
18.2,0.5100120902061462,-0.22525128722190857,-0.9538462162017822,-0.309390664100647,-0.34979844093322754,-0.008434539660811424
18.25,0.40178075432777405,-0.2656708359718323,-0.8381109237670898,-0.22263510525226593,-0.3006070554256439,-0.016308333724737167
18.3,0.413913369178772,-0.19927985966205597,-0.8591631650924683,-0.056741174310445786,-0.2953633964061737,0.041971880942583084
18.35,0.2956571578979492,-0.14318279922008514,-0.7531330585479736,0.1472460776567459,-0.09947561472654343,0.05725378543138504
18.4,0.14312268793582916,-0.003147149458527565,-0.5870141983032227,0.3300687372684479,0.08218040317296982,0.06733715534210205
18.45,0.23509377241134644,0.2715921401977539,-0.5386756658554077,0.4348517656326294,0.1329418420791626,0.0938158705830574
18.5,0.25226742029190063,0.3501749038696289,-0.32216522097587585,0.4001590609550476,0.2001606822013855,0.07717590034008026
18.55,0.4256415367126465,0.08127782493829727,-0.20937860012054443,0.2755899131298065,0.23627053201198578,0.05752026289701462
18.6,0.2422393560409546,0.03473090007901192,-0.01645648293197155,0.0966608077287674,0.33761343359947205,0.06028078868985176
18.65,0.3900441825389862,0.4685726463794708,0.04857693240046501,0.010139279067516327,0.40189865231513977,0.07969633489847183
18.7,0.25163522362709045,0.3312101662158966,0.20394620299339294,-0.023757830262184143,0.49752575159072876,0.08127596229314804
18.75,0.2600683569908142,0.0765380859375,0.26673588156700134,-0.03075540065765381,0.47687751054763794,0.09339431673288345
18.8,0.23982709646224976,-0.15656282007694244,0.35345718264579773,-0.022139713168144226,0.4334146976470947,0.11720219999551773
18.85,0.10190786421298981,-0.10610200464725494,0.28082239627838135,-0.019664157181978226,0.4179491698741913,0.13596193492412567
18.9,0.1075524240732193,-0.015007981099188328,-0.02646465040743351,-0.10710616409778595,0.44275420904159546,0.12006132304668427
18.95,0.06939191371202469,0.05802059546113014,-0.028111958876252174,-0.27722734212875366,0.4838395416736603,0.053667642176151276
19.0,0.27071481943130493,-0.19602589309215546,0.024837609380483627,-0.4103127717971802,0.3376302123069763,0.0021121702156960964
19.05,0.6212843060493469,-0.2739620804786682,-0.3993847668170929,-0.44678348302841187,0.06977085024118423,0.01730850711464882
19.1,1.0439858436584473,-0.24142466485500336,-0.8820540308952332,-0.461597740650177,0.02714163064956665,0.04894828796386719
19.15,1.1802815198898315,-0.305644154548645,-1.0154460668563843,-0.48702871799468994,0.23219922184944153,0.0394287109375
19.2,1.2737387418746948,-0.843700647354126,-0.9897452592849731,-0.48138999938964844,0.3057580292224884,0.03461914137005806
19.25,0.9026506543159485,-1.4450008869171143,-0.9263348579406738,-0.3965327739715576,0.23862020671367645,0.01993095874786377
19.3,0.1139262467622757,-0.8137933015823364,-0.6258611679077148,-0.17189037799835205,0.1844763457775116,-0.06848243623971939
19.35,-0.7215331792831421,0.43923768401145935,-0.689619779586792,0.2321527898311615,0.09653114527463913,-0.1878795623779297
19.4,-0.9783538579940796,1.2096377611160278,-0.9410910606384277,0.6022624969482422,0.30830568075180054,-0.4411391317844391
19.45,-1.582808017730713,1.0007908344268799,-0.24622666835784912,0.5049326419830322,0.7759159803390503,-0.5258386731147766
19.5,-1.7754493951797485,-0.9564905166625977,1.0582005977630615,0.30951419472694397,0.425665944814682,-0.21773484349250793
19.55,-1.3699851036071777,-2.6380279064178467,1.2243727445602417,0.4012871980667114,-0.2826545238494873,0.13738396763801575
19.6,-0.7863697409629822,-3.5600900650024414,0.4520794749259949,0.5698385834693909,0.024884290993213654,0.16476525366306305
19.65,-0.8323289155960083,-3.2698721885681152,0.5839051604270935,0.5280283689498901,1.3804583549499512,-0.04686746746301651
19.7,-1.5755198001861572,-1.7190076112747192,1.695609450340271,0.35655704140663147,2.360403537750244,-0.04302886128425598
19.75,-1.103263020515442,-1.9702144861221313,1.7021564245224,0.28816336393356323,2.2061660289764404,0.008178946562111378
19.8,0.2466212511062622,-1.0360976457595825,1.840304970741272,0.22743839025497437,1.964245080947876,-0.2385452687740326
19.85,0.5772584676742554,-0.12205789983272552,2.054145336151123,0.27432143688201904,1.2925043106079102,-0.4732210636138916
19.9,0.3063191771507263,0.5723677277565002,0.01475836057215929,0.2427779883146286,-0.047993406653404236,-0.5698174834251404
19.95,0.5230177640914917,0.588717520236969,0.0804339274764061,-0.057265505194664,-0.31393200159072876,-0.5941652655601501
20.0,0.08687298744916916,0.8664342164993286,0.3936232030391693,-0.19508719444274902,-0.7746307849884033,-0.5827839374542236
20.05,-0.19594988226890564,1.3925515413284302,-0.5028335452079773,-0.13608640432357788,-1.5075064897537231,-0.6481037735939026
20.1,-0.38151609897613525,2.543541193008423,-0.2387036830186844,-0.1663949191570282,-1.604245901107788,-0.6594316959381104
20.15,-0.14809155464172363,3.6551461219787598,-1.2651866674423218,-0.19495153427124023,-1.5607041120529175,-0.6158379912376404
20.2,0.3882291913032532,4.727491855621338,-0.3993556499481201,-0.14715486764907837,-0.8223996162414551,-0.6425772905349731
20.25,3.3121132850646973,5.332484722137451,0.9831517338752747,-0.18195873498916626,-0.8823512196540833,-0.543317973613739
20.3,4.006507873535156,4.822981357574463,-0.24935312569141388,-0.2910921573638916,-1.049643635749817,-0.25690823793411255
20.35,1.6137068271636963,4.039529323577881,-0.28551697731018066,-0.23053786158561707,-0.46969327330589294,0.11460016667842865
20.4,-0.30536502599716187,2.93827748298645,1.3812742233276367,-0.1938469260931015,-0.400427907705307,0.22107723355293274
20.45,-0.6124262809753418,1.7545331716537476,1.310268521308899,-0.18381667137145996,-1.6144434213638306,0.21250289678573608
20.5,-0.7745317816734314,0.7621518969535828,0.7440605759620667,-0.2012292444705963,-2.2612667083740234,0.2294982224702835
20.55,-0.8829978704452515,-0.006709999404847622,0.2602729797363281,-0.03711049258708954,-1.7864079475402832,0.252052366733551
20.6,-1.9384630918502808,0.25829237699508667,1.4678149223327637,0.28579461574554443,-0.8519031405448914,0.24658314883708954
20.65,-2.8180978298187256,-0.01663379743695259,1.5827717781066895,0.42228904366493225,-0.8387932777404785,0.1916358470916748
20.7,-3.073836326599121,-0.8750438094139099,0.680988073348999,0.08606267720460892,-1.1111376285552979,-0.053870029747486115
20.75,-2.5748279094696045,-1.6326390504837036,0.17329342663288116,-0.3247798681259155,-1.1549662351608276,-0.42883437871932983
20.8,-2.1373350620269775,-2.1315410137176514,0.10436355322599411,-0.5155640840530396,-1.030543565750122,-0.8158631324768066
20.85,-1.463555097579956,-2.011643171310425,-0.5986030101776123,-0.5933955907821655,-1.0104000568389893,-1.1682077646255493
20.9,-0.34943312406539917,-1.4004079103469849,-1.2435373067855835,-0.6146859526634216,-1.0245355367660522,-1.478476643562317
20.95,1.1248173713684082,-0.962871789932251,-1.8691169023513794,-0.7662919759750366,-1.1044527292251587,-1.7811905145645142
21.0,3.0665183067321777,-0.7035191655158997,-2.3689427375793457,-1.0771093368530273,-0.9849755764007568,-2.1104705333709717
21.05,3.858517646789551,-1.1792463064193726,-2.2932538986206055,-1.099900245666504,-0.4695417881011963,-2.3034796714782715
21.1,4.128388404846191,-1.879472255706787,-1.7835166454315186,-0.6654374599456787,-0.04896310344338417,-2.1969521045684814
21.15,4.479404449462891,-1.9862852096557617,-1.2784370183944702,-0.1862911581993103,0.10446382313966751,-1.7778396606445312
21.2,5.323866367340088,-4.698779582977295,-0.8611019253730774,0.01472550630569458,-0.09105901420116425,-0.8924428820610046
21.25,2.4353458881378174,-2.2019858360290527,-0.21893413364887238,0.7471562623977661,-0.3097802698612213,-0.003513414179906249
21.3,0.2052367925643921,0.17883779108524323,0.5765622854232788,1.0916005373001099,-0.5641167163848877,0.2736137807369232
21.35,0.5782520174980164,0.18991754949092865,-0.28434666991233826,0.5394097566604614,-1.1023967266082764,0.6469364166259766
21.4,0.38652852177619934,1.7369816303253174,0.5391261577606201,0.6084024906158447,-1.0452475547790527,0.8046258687973022
21.45,0.4352816939353943,2.3940269947052,0.8114677667617798,0.5042937397956848,-0.9884158372879028,0.7935592532157898
21.5,1.0351665019989014,3.640307903289795,1.518693208694458,0.5350538492202759,-0.8719081282615662,0.8675061464309692
21.55,1.4276411533355713,4.241795063018799,1.238389015197754,0.4101104140281677,-0.4897081255912781,1.0208040475845337
21.6,1.1851623058319092,3.7450976371765137,0.8262922763824463,-0.030479848384857178,-0.16946858167648315,0.8686129450798035
21.65,0.5694302916526794,2.931396722793579,0.6905341744422913,-0.4433756470680237,0.0775626078248024,0.7245204448699951
21.7,0.2859475016593933,2.0370237827301025,0.30945563316345215,-0.7625315189361572,0.2299477458000183,0.6713114976882935
21.75,0.1703081876039505,1.1207629442214966,-0.06718989461660385,-0.9053961038589478,0.33401164412498474,0.6654786467552185
21.8,-0.3190535604953766,0.44515615701675415,-0.12560559809207916,-0.9104790091514587,0.4082000255584717,0.640768826007843
21.85,-0.526326060295105,-0.35476210713386536,-0.46540990471839905,-0.9167301654815674,0.32205724716186523,0.6641395092010498
21.9,-0.6935662627220154,-0.7487106919288635,-0.6638831496238708,-0.7804276347160339,0.3916436731815338,0.7056595087051392
21.95,-0.5426158905029297,-1.3504000902175903,-0.6903698444366455,-0.6189084649085999,0.35967323184013367,0.7291601896286011
22.0,-0.5691062808036804,-1.8790256977081299,-0.550518810749054,-0.38106977939605713,0.5550764799118042,0.6849583983421326
22.05,-0.7823439836502075,-2.040344476699829,-0.3373541831970215,-0.24720977246761322,0.6783738732337952,0.6175983548164368
22.1,0.124418243765831,-1.9626753330230713,-0.5102748274803162,-0.2908233404159546,0.6229861974716187,0.6097914576530457
22.15,-0.11710391938686371,-0.9536820650100708,-0.5719980597496033,-0.3229639530181885,1.1273860931396484,0.5865580439567566
22.2,-0.465549498796463,-0.08858776092529297,-0.7012841105461121,-0.3933756351470947,1.5808101892471313,0.6958808898925781
22.25,-0.6169653534889221,-0.183137908577919,-0.9466367363929749,-0.4459194242954254,1.8726892471313477,0.8363773822784424
22.3,-0.8188341856002808,0.6792994141578674,-0.9314749836921692,-0.35281622409820557,2.383945941925049,0.7232483625411987
22.35,-1.525167465209961,0.9279195666313171,-0.39887261390686035,-0.1966697871685028,3.1742310523986816,0.5047962665557861
22.4,-2.1515257358551025,0.3389074206352234,0.9798881411552429,-0.03585874289274216,3.6493728160858154,0.2982121407985687
22.45,-1.8815792798995972,0.0655776709318161,2.0034756660461426,0.18045514822006226,3.0354762077331543,0.1904415488243103
22.5,-1.0573654174804688,0.07512964308261871,2.5589911937713623,0.41031408309936523,1.8276528120040894,0.09023111313581467
22.55,-0.3568984270095825,-0.0404757559299469,2.719179391860962,0.5756892561912537,0.42658013105392456,-0.009486441500484943
22.6,0.17388635873794556,-0.06416792422533035,2.5304319858551025,0.6737881898880005,-0.8713122606277466,-0.08358573168516159
22.65,0.3019164204597473,-0.19176384806632996,2.542949676513672,0.6156108379364014,-1.7102446556091309,-0.1119663268327713
22.7,0.5184571743011475,-0.13536357879638672,1.7318311929702759,0.4220333993434906,-2.394040822982788,-0.07071514427661896
22.75,0.48530760407447815,-0.13584329187870026,1.0621492862701416,0.07735075056552887,-2.5716552734375,0.019882313907146454
22.8,0.5084943175315857,0.014312726445496082,0.2466661036014557,-0.3006465435028076,-2.387371778488159,0.1407049298286438
22.85,0.6516925096511841,0.11627670377492905,-0.5618892908096313,-0.6767767071723938,-1.8962171077728271,0.25773969292640686
22.9,0.37158358097076416,0.2364024966955185,-1.0729258060455322,-0.9902783632278442,-1.1146607398986816,0.24241231381893158
22.95,0.004279971122741699,0.23110578954219818,-1.6180555820465088,-1.1934281587600708,-0.4232686161994934,0.13338321447372437
23.0,-0.13725316524505615,-0.4253607988357544,-2.0241780281066895,-1.2879639863967896,0.033912789076566696,-0.03860020264983177
23.05,-0.382046103477478,-0.9531652331352234,-2.147280693054199,-1.2348970174789429,0.22721460461616516,-0.24615265429019928
23.1,-0.5983583331108093,-1.0714627504348755,-1.8581541776657104,-0.9740068316459656,0.08448772877454758,-0.33925625681877136
23.15,0.006443917751312256,-1.118698239326477,-1.5858358144760132,-0.47764092683792114,-0.28014713525772095,-0.2214324027299881
23.2,0.44165652990341187,-1.1340276002883911,-1.2322750091552734,0.12180329859256744,-0.31891071796417236,-0.09020408242940903
23.25,0.7290263175964355,-0.7695514559745789,-0.9954139590263367,0.7177972793579102,-0.04736311733722687,0.012381014414131641
23.3,0.7977884411811829,-0.10274704545736313,-0.829346776008606,1.1981761455535889,0.3185146749019623,0.13507916033267975
23.35,0.6277728080749512,0.7256975173950195,-0.5582367777824402,1.4859278202056885,0.722971498966217,0.2283177226781845
23.4,0.20080216228961945,1.03168785572052,-0.13524794578552246,1.4044036865234375,1.0957047939300537,0.2653005123138428
23.45,-0.39095205068588257,0.9663335084915161,0.18888643383979797,0.9250470399856567,1.2627301216125488,0.2107522338628769
23.5,-0.8979407548904419,0.8098985552787781,0.8649399876594543,0.46839606761932373,1.2343326807022095,0.1329704374074936
23.55,-0.8886635899543762,0.2571803331375122,1.296046495437622,0.18637223541736603,1.2357016801834106,0.060513630509376526
23.6,-0.6541709303855896,-0.30932706594467163,1.6346447467803955,0.07861173152923584,1.3054478168487549,-0.0038032648153603077
23.65,-0.41773319244384766,-0.4379539489746094,1.7024190425872803,0.09213673323392868,1.20063054561615,-0.07263734936714172
23.7,-0.11269903182983398,-0.21221064031124115,1.4775240421295166,0.06815469264984131,0.9716910123825073,-0.14723630249500275
23.75,0.019890189170837402,0.15386492013931274,1.5640475749969482,-0.04913985729217529,0.6975933313369751,-0.20116831362247467
23.8,0.3175661265850067,0.28887277841567993,1.3245409727096558,-0.14839990437030792,0.3174022138118744,-0.20225556194782257
23.85,0.41736650466918945,0.24321559071540833,1.050848364830017,-0.24677735567092896,0.12122779339551926,-0.1792832911014557
23.9,0.2981477975845337,0.25876525044441223,1.049314260482788,-0.31219181418418884,-0.026453759521245956,-0.16726171970367432
23.95,0.19934217631816864,0.38134199380874634,0.9148430228233337,-0.30585870146751404,-0.37099066376686096,-0.14734689891338348
24.0,0.26034921407699585,0.4363909363746643,0.37101027369499207,-0.28615355491638184,-0.7263619899749756,-0.11226781457662582
24.05,0.33912578225135803,0.34543323516845703,-0.04304350167512894,-0.31500089168548584,-0.8621955513954163,-0.0837729424238205
24.1,0.4876459240913391,0.18854139745235443,-0.4594818353652954,-0.368965208530426,-0.8109751343727112,-0.04988854005932808
24.15,0.6093273758888245,0.1148805320262909,-0.5445556044578552,-0.40339165925979614,-0.5320097208023071,-0.03819108381867409
24.2,0.5528115034103394,-0.00885681714862585,-0.49419331550598145,-0.35859328508377075,-0.22845232486724854,-0.021271688863635063
24.25,0.3724665939807892,-0.04682258144021034,-0.4287679195404053,-0.2344692051410675,-0.06288991123437881,0.026191722601652145
24.3,0.2181425243616104,-0.07160285115242004,-0.44083505868911743,-0.06614542007446289,-0.008922649547457695,0.09011028707027435
24.35,0.06769804656505585,-0.02232171595096588,-0.3673321306705475,0.08949295431375504,0.047875382006168365,0.12392918765544891
24.4,-0.1446242779493332,0.08907032757997513,-0.28233960270881653,0.2053840011358261,0.08780874311923981,0.13724882900714874
24.45,-0.22230270504951477,0.15740206837654114,-0.11985115706920624,0.26203078031539917,0.11587339639663696,0.1233949363231659
24.5,-0.31244170665740967,0.1364908516407013,0.01717502623796463,0.2578987777233124,0.13362130522727966,0.08224927634000778
24.55,-0.3467346131801605,0.10200313478708267,0.14956626296043396,0.21038025617599487,0.12015550583600998,0.04534196853637695
24.6,-0.13609470427036285,0.11594107747077942,0.19299669563770294,0.1560739278793335,0.15606023371219635,0.014167750254273415
24.65,-0.058462560176849365,0.1747446358203888,0.4286426901817322,0.09699367731809616,0.2890608608722687,-0.024452386423945427
24.7,0.05584894120693207,0.12051679939031601,0.4753245413303375,0.053896110504865646,0.2907294034957886,-0.036246251314878464
24.75,0.10218524932861328,0.17673400044441223,0.5450198650360107,0.020435089245438576,0.21780750155448914,-0.03548795357346535
24.8,0.18920499086380005,0.2301807701587677,0.44282564520835876,0.006684366147965193,0.08001411706209183,-0.014922318048775196
24.85,0.23637017607688904,0.26325514912605286,0.2804951071739197,-0.004438476171344519,-0.020564870908856392,0.014108099974691868
24.9,0.24177351593971252,0.26274970173835754,0.19282226264476776,-0.023318301886320114,-0.04523692652583122,0.042095400393009186
24.95,0.16988974809646606,0.24233821034431458,0.07642342150211334,-0.039522431790828705,-0.05401318147778511,0.07166986167430878
25.0,0.1230994462966919,0.21888449788093567,0.03392106294631958,-0.03565306216478348,-0.06385119259357452,0.09559401124715805
25.05,0.014259016141295433,0.15803052484989166,-0.07959803938865662,-0.011957384645938873,-0.0671856626868248,0.11701130867004395
25.1,0.00013925880193710327,0.04602527618408203,-0.16269390285015106,0.021914798766374588,-0.053608570247888565,0.12930023670196533
25.15,-0.022206805646419525,0.04411125183105469,-0.17073217034339905,0.03962384909391403,-0.02450745925307274,0.1261882185935974
25.2,-0.016831398010253906,-0.012009627185761929,-0.19694392383098602,0.057171400636434555,0.007764406036585569,0.12347086519002914
25.25,-0.11760313808917999,-0.04632091522216797,-0.10803108662366867,0.0779448002576828,0.08747764676809311,0.11183451861143112
25.3,-0.07220066338777542,-0.059980396181344986,-0.06548841297626495,0.11181633174419403,0.12664593756198883,0.09784334152936935
25.35,0.006978856399655342,-0.03838730230927467,0.07143004238605499,0.13295602798461914,0.1464308202266693,0.06691087037324905
25.4,0.0016850754618644714,0.033143050968647,0.18265922367572784,0.1370440274477005,0.11374815553426743,0.033930059522390366
25.45,0.14672207832336426,0.12778569757938385,0.19770722091197968,0.13397881388664246,0.042064741253852844,0.013321950100362301
25.5,0.18579904735088348,0.1106271892786026,0.23780474066734314,0.12057475745677948,-0.003424183465540409,0.007610298693180084
25.55,0.20403876900672913,0.0801553800702095,0.2603035569190979,0.0951046571135521,-0.01834998093545437,0.018352976068854332
25.6,0.14399504661560059,0.137636199593544,0.26802581548690796,0.06338480114936829,-0.013309386558830738,0.04109765589237213
25.65,0.07514622807502747,0.09422780573368073,0.2589551508426666,0.022122366353869438,0.020193932577967644,0.06258577108383179
25.7,-0.08318393677473068,0.06216813996434212,0.20294904708862305,-0.031702134758234024,0.0588260181248188,0.07098869234323502
25.75,-0.1402999609708786,0.060202617198228836,0.1487174779176712,-0.08076395839452744,0.05591706559062004,0.0662594884634018
25.8,-0.13215568661689758,0.04904748499393463,0.03133413568139076,-0.1136743351817131,0.024610262364149094,0.05675004422664642
25.85,-0.13700459897518158,0.03755093738436699,-0.046976957470178604,-0.1371547132730484,0.044481437653303146,0.03866032138466835
25.9,-0.1106550544500351,0.04354573041200638,-0.1023884043097496,-0.1405068337917328,0.06233996897935867,0.011972926557064056
25.95,-0.00413212925195694,0.014486311003565788,-0.1405700147151947,-0.11794014275074005,0.03374069556593895,-0.012909425422549248
26.0,0.0854310393333435,-0.023783693090081215,-0.05003516376018524,-0.08018198609352112,0.011662207543849945,-0.03713863343000412
26.05,0.12765169143676758,0.009791365824639797,-0.08951014280319214,-0.02493511512875557,-0.020150041207671165,-0.04023967683315277
26.1,0.16450685262680054,0.09792804718017578,-0.10312061011791229,0.019825391471385956,-0.004580901935696602,-0.03675391897559166
26.15,0.13921421766281128,0.11672592908143997,-0.10152709484100342,0.04118574783205986,0.02593357488512993,-0.025056546553969383
26.2,0.06792981177568436,0.10062123090028763,-0.08618449419736862,0.031422775238752365,0.04866368696093559,-0.008422878570854664
26.25,0.0014144182205200195,0.12519456446170807,0.029102172702550888,0.0025357247795909643,0.0665280818939209,0.006009935401380062
26.3,0.0028396137058734894,0.0758218839764595,0.041216425597667694,-0.011949554085731506,0.06589958816766739,0.009437219239771366
26.35,-0.05564519390463829,-0.11207199841737747,0.038139935582876205,-0.036761485040187836,0.09003624320030212,0.00030293199233710766
26.4,-0.14403414726257324,-0.029336920008063316,0.19736948609352112,-0.054048843681812286,0.0775052160024643,-0.02130850963294506
26.45,-0.13818401098251343,0.0929117426276207,0.19232866168022156,-0.008808467537164688,0.017829401418566704,-0.04167613387107849
26.5,-0.12078620493412018,0.1326599419116974,0.14631789922714233,0.03796349838376045,0.0006628979463130236,-0.06022391468286514
26.55,-0.06799806654453278,0.1463766247034073,0.11715476959943771,0.014906374737620354,-0.004018573090434074,-0.06281139701604843
26.6,-0.07510630786418915,0.14446260035037994,0.07794181257486343,-0.06271474063396454,-0.011915205046534538,-0.059411048889160156
26.65,-0.10131766647100449,0.18628598749637604,0.05949131399393082,-0.11779052019119263,-0.027028758078813553,-0.06137640029191971
26.7,-2.52407044172287e-05,0.23587802052497864,-0.07165315747261047,-0.13096314668655396,-0.027041980996727943,-0.05381334573030472
26.75,0.04267333447933197,0.2616758644580841,-0.2516131103038788,-0.14673812687397003,0.010419579222798347,-0.045588843524456024
26.8,0.17727738618850708,0.18331432342529297,-0.35348159074783325,-0.18852049112319946,0.06355324387550354,-0.04060141369700432
26.85,0.2065677046775818,0.16872787475585938,-0.36713066697120667,-0.2079242616891861,0.07677119970321655,-0.030183468014001846
26.9,0.26209214329719543,0.10545919835567474,-0.46425434947013855,-0.16899172961711884,0.07818177342414856,-0.007952543906867504
26.95,0.2540525197982788,0.07921884953975677,-0.42964795231819153,-0.0961819440126419,0.15139299631118774,-0.0011323599610477686
27.0,0.23614630103111267,0.0663890689611435,-0.3156462013721466,-0.010072596371173859,0.1850380152463913,-0.0015899076825007796
27.05,0.12669701874256134,0.07653331011533737,-0.27948641777038574,0.07351519912481308,0.14948628842830658,0.003956406842917204
27.1,0.11243261396884918,0.10380744934082031,-0.20543348789215088,0.1469344198703766,0.12627214193344116,0.011492446064949036
27.15,0.07742083072662354,0.12941361963748932,-0.08308960497379303,0.18236735463142395,0.16892825067043304,0.00966488104313612
27.2,-0.006920721381902695,0.1154327541589737,0.04214772209525108,0.17128680646419525,0.2006050944328308,0.010458630509674549
27.25,-0.06136196851730347,0.08379270136356354,0.21572215855121613,0.1379302442073822,0.2047206163406372,0.0032658809795975685
27.3,-0.09673716872930527,-0.012329088523983955,0.3428579866886139,0.10918639600276947,0.18940962851047516,-0.021963272243738174
27.35,-0.0036885440349578857,-0.021261202171444893,0.5029252171516418,0.10637281835079193,0.13273631036281586,-0.046777427196502686
27.4,0.2767254114151001,0.102784164249897,0.3318876028060913,0.1287108212709427,0.0007305418839678168,-0.04720887541770935
27.45,0.5954432487487793,-0.0715370625257492,-0.12306032329797745,0.08616317808628082,0.02737092413008213,-0.003676662454381585
27.5,0.43530941009521484,0.059516895562410355,0.1957903802394867,-0.04459913447499275,0.3630211353302002,0.0339648500084877
27.55,0.2864453196525574,0.9963494539260864,0.11010156571865082,-0.059425465762615204,0.41165420413017273,0.0838751420378685
27.6,0.2265164852142334,1.113974690437317,0.03225179761648178,-0.08880789577960968,0.2783432602882385,0.06479167938232422
27.65,0.020614370703697205,0.5211859345436096,0.37763044238090515,-0.12111251056194305,-0.15179142355918884,0.030905552208423615
27.7,-0.05359716713428497,-0.2987194061279297,0.5209674835205078,0.03744567930698395,-0.8615524172782898,0.07811098545789719
27.75,-0.08746972680091858,-0.8155480623245239,0.47244495153427124,0.3127070665359497,-1.3083692789077759,0.11511649191379547
27.8,-0.427432656288147,-0.5788202285766602,0.523382306098938,0.5900282859802246,-1.21763014793396,0.11873467266559601
27.85,-0.8030616641044617,0.10868175327777863,0.6493810415267944,0.7654314041137695,-0.7928698658943176,0.14411313831806183
27.9,-0.9219233393669128,0.628790020942688,0.5974491238594055,0.618579089641571,-0.4141547381877899,0.1546740084886551
27.95,-0.9373144507408142,0.5257254838943481,0.6056854128837585,0.10724273324012756,-0.3102453351020813,0.07970747351646423
28.0,-0.7964864373207092,0.12826068699359894,0.6813116073608398,-0.3764771819114685,-0.4233364164829254,-0.0330936424434185
28.05,-0.5317798256874084,-0.20229052007198334,0.5056665539741516,-0.5928171277046204,-0.5348706841468811,-0.10680732131004333
28.1,-0.3497909605503082,-0.3350486755371094,0.19608952105045319,-0.5754863023757935,-0.5937688946723938,-0.14465923607349396
28.15,-0.14960943162441254,-0.5001965165138245,-0.2915531396865845,-0.4732547402381897,-0.7288898825645447,-0.12289367616176605
28.2,-0.032168835401535034,-0.5508728623390198,-0.6286503076553345,-0.40671271085739136,-0.8525370359420776,-0.059435658156871796
28.25,-0.04361295700073242,-0.6175337433815002,-0.8060291409492493,-0.34658366441726685,-0.7650588154792786,0.018628135323524475
28.3,-0.2155146598815918,-0.3781195282936096,-0.9277404546737671,-0.23449836671352386,-0.37610140442848206,0.07880683988332748
28.35,-0.27202466130256653,0.44845202565193176,-1.132204294204712,-0.07755611836910248,0.17891794443130493,0.09632943570613861
28.4,-0.11311322450637817,0.956391453742981,-1.2278354167938232,0.025367680937051773,0.6245723366737366,-0.007931362837553024
28.45,0.14925068616867065,0.6018648147583008,-0.8183594346046448,-0.013696439564228058,0.5330212712287903,-0.20084169507026672
28.5,0.7586947679519653,0.054634999483823776,-0.5525818467140198,-0.06787499785423279,-0.1495487540960312,-0.2307119220495224
28.55,1.4641450643539429,-0.17811308801174164,-0.6144462823867798,-0.04550275206565857,-0.5618839263916016,-0.11650428175926208
28.6,1.7930679321289062,0.3831138014793396,-0.7454110383987427,0.05680153891444206,-0.2762509286403656,-0.04420263692736626
28.65,1.6878126859664917,1.1945486068725586,-0.7885904908180237,0.16589191555976868,0.17280316352844238,-0.018844205886125565
28.7,1.7111327648162842,1.2885007858276367,-1.0221657752990723,0.1665782630443573,0.15781906247138977,0.0581246092915535
28.75,1.8987758159637451,0.44342413544654846,-1.4939230680465698,-0.02779972180724144,-0.10132689774036407,0.15440355241298676
28.8,1.7508302927017212,-0.9527456760406494,-1.6608635187149048,-0.389424592256546,-0.08582514524459839,0.17913272976875305
28.85,1.3188248872756958,-1.9777354001998901,-1.1782993078231812,-0.6983374357223511,0.21122874319553375,0.11413930356502533
28.9,0.8043436408042908,-2.0325610637664795,-0.39388298988342285,-0.7213872671127319,0.3856082558631897,0.05485223978757858
28.95,0.4913986325263977,-0.852160632610321,-0.25128623843193054,-0.3483352065086365,0.23000700771808624,0.1353643387556076
29.0,0.6174525618553162,0.20276354253292084,-0.6818969249725342,0.2768523395061493,0.25208961963653564,0.23025695979595184
29.05,0.3750314712524414,0.9115343689918518,-0.6235223412513733,0.7967680096626282,0.7712550759315491,0.16635583341121674
29.1,-0.3602711856365204,1.8070299625396729,-0.29272109270095825,1.1229684352874756,1.2033491134643555,0.16299141943454742
29.15,-1.1111950874328613,1.6176475286483765,0.7575540542602539,1.0747133493423462,1.479265570640564,0.18945977091789246
29.2,-1.4922478199005127,0.7664787769317627,1.7001863718032837,0.6880714893341064,1.203438639640808,0.284856379032135
29.25,-1.1871187686920166,0.09282601624727249,2.0552635192871094,0.42288312315940857,0.5942181944847107,0.3433854579925537
29.3,-0.8134550452232361,-0.437714546918869,2.0721445083618164,0.30013108253479004,0.3867965340614319,0.3386419117450714
29.35,-0.585787296295166,-0.7001552581787109,1.9766957759857178,0.2423364520072937,0.5118822455406189,0.2830359637737274
29.4,-0.3537396788597107,-0.7185649871826172,1.6344316005706787,0.16599148511886597,0.5429897904396057,0.1964457482099533
29.45,-0.14533156156539917,-1.0085173845291138,1.4856950044631958,0.012400932610034943,0.5003230571746826,0.10939682275056839
29.5,0.047390878200531006,-1.3742982149124146,1.5328766107559204,-0.09098048508167267,0.26870840787887573,0.006557711400091648
29.55,0.1882094144821167,-1.5152924060821533,1.3243862390518188,-0.03562963008880615,-0.2911938726902008,-0.1342623382806778
29.6,0.16898566484451294,-1.9503920078277588,0.7962076663970947,0.037705689668655396,-0.8749167323112488,-0.2779925763607025
29.65,-0.19347769021987915,-2.0757620334625244,0.7155427932739258,0.08219903707504272,-1.2357558012008667,-0.446872740983963
29.7,-0.3255169689655304,-1.8146965503692627,0.43277841806411743,0.1746320277452469,-1.6006165742874146,-0.5887309312820435
29.75,-0.29337969422340393,-1.2982617616653442,-0.09078701585531235,0.1595427393913269,-1.7460731267929077,-0.6384364366531372
29.8,-0.12960776686668396,-0.7083168625831604,-0.5602009892463684,0.010091572999954224,-1.5152099132537842,-0.6075081825256348
29.85,-0.15582704544067383,-0.5597992539405823,-0.4992130994796753,-0.16443684697151184,-0.989488959312439,-0.5200738906860352
29.9,-0.5898732542991638,-0.1076660081744194,-0.346728652715683,-0.24147342145442963,-0.5376744866371155,-0.40315327048301697
29.95,-0.7859970927238464,0.5924788117408752,-0.7350735068321228,-0.21955300867557526,-0.3553675711154938,-0.2545101046562195
30.0,-0.5742782950401306,0.8122092485427856,-1.1672223806381226,-0.19898366928100586,-0.03191661089658737,-0.15878170728683472
30.05,-0.7068852782249451,0.5054827332496643,-1.03019380569458,-0.24333959817886353,0.30912402272224426,-0.1849556714296341
30.1,-0.9487972855567932,0.5691624879837036,-0.6403270363807678,-0.2170179933309555,0.2307531237602234,-0.27272483706474304
30.15,-1.0936620235443115,1.7936575412750244,-0.3082422614097595,0.02973274141550064,-0.00010092195589095354,-0.28304117918014526
30.2,-0.5575658082962036,2.978588342666626,-0.3382377028465271,0.44630345702171326,-0.03450068086385727,-0.21473568677902222
30.25,-0.18277931213378906,3.967794895172119,-0.10312013328075409,0.7468119263648987,0.25095075368881226,-0.19213278591632843
30.3,-0.07214342057704926,4.77640962600708,0.4627704620361328,0.7372987270355225,0.27210623025894165,-0.17300623655319214
30.35,0.27644532918930054,4.793460369110107,0.8519547581672668,0.4913879632949829,-0.09793142974376678,-0.10439624637365341
30.4,0.33894097805023193,3.8958802223205566,1.5265476703643799,0.21752235293388367,-0.3010389506816864,0.01984270289540291
30.45,0.40825989842414856,2.6026108264923096,1.4685276746749878,0.02864883840084076,-0.20444032549858093,0.21788616478443146
30.5,-0.28037336468696594,1.7637035846710205,1.3291162252426147,0.049639858305454254,0.07286062836647034,0.39528971910476685
30.55,-1.0084532499313354,1.2281649112701416,1.4042887687683105,0.038997501134872437,0.3247499465942383,0.5489690899848938
30.6,-1.3032443523406982,0.7134391665458679,1.1837480068206787,-0.10523578524589539,0.42088958621025085,0.5742831230163574
30.65,-1.5061453580856323,0.012056457810103893,0.9180200099945068,-0.3383980691432953,0.3738918602466583,0.46619802713394165
30.7,-1.643385410308838,-0.8562698364257812,0.859694242477417,-0.5462465286254883,0.1936306208372116,0.3357893228530884
30.75,-1.4339954853057861,-1.4473276138305664,0.7564143538475037,-0.591179370880127,-0.029693692922592163,0.2131669521331787
30.8,-1.3182872533798218,-1.7206240892410278,0.7866931557655334,-0.46219152212142944,-0.1116042211651802,0.09614720195531845
30.85,-1.3047341108322144,-1.9343281984329224,0.6659709215164185,-0.28589820861816406,-0.14326874911785126,0.03163668513298035
30.9,-1.0829157829284668,-2.226032018661499,0.22587765753269196,-0.16861066222190857,-0.15920975804328918,-0.01303081400692463
30.95,-0.8500583171844482,-2.730039358139038,0.06584210693836212,-0.17168176174163818,0.00949951820075512,-0.17366115748882294
31.0,-0.8118410110473633,-3.276378631591797,0.5780267715454102,-0.14805389940738678,0.21166469156742096,-0.43459397554397583
31.05,-0.8519195318222046,-3.386840343475342,1.0502300262451172,0.050811439752578735,0.09753230959177017,-0.6379233002662659
31.1,-1.1964082717895508,-2.896517515182495,1.729758381843567,0.3924255967140198,-0.30775880813598633,-0.7634860277175903
31.15,-2.8073360919952393,-0.7099589109420776,2.134521007537842,0.7528077960014343,-1.7558611631393433,-0.7653038501739502
31.2,1.2852298021316528,-0.9108641147613525,-1.6471768617630005,0.2437860518693924,-3.4300899505615234,-0.6206526756286621
31.25,2.552084445953369,-1.3035272359848022,-1.7386813163757324,-0.03865844011306763,-1.8094608783721924,-0.9654748439788818
31.3,2.2747304439544678,-1.3086588382720947,-0.646736204624176,0.12239277362823486,-0.30015990138053894,-1.1918878555297852
31.35,1.6833975315093994,-0.6152355074882507,-0.5665817856788635,0.037240296602249146,-0.12647294998168945,-1.1849944591522217
31.4,2.3602936267852783,0.3189457356929779,-1.6341326236724854,-0.341092050075531,-0.8072937726974487,-1.0769712924957275
31.45,3.0561106204986572,0.19571858644485474,-1.8043886423110962,-0.5509795546531677,-0.8291797637939453,-1.079495906829834
31.5,2.3540022373199463,0.1661308854818344,-0.7934024333953857,-0.39850255846977234,-0.3496636152267456,-1.1054236888885498
31.55,1.127105474472046,0.9015732407569885,-0.4141087234020233,-0.2488221824169159,-0.43257755041122437,-0.744060754776001
31.6,1.2655564546585083,2.5366241931915283,-1.2244914770126343,-0.22970916330814362,-1.0117619037628174,-0.04469132423400879
31.65,2.4032177925109863,4.150070667266846,-1.848739743232727,-0.03691035509109497,-0.9843299388885498,0.5098087191581726
31.7,2.127779006958008,4.875720500946045,-1.6358520984649658,0.22312790155410767,0.03266747295856476,0.4194469749927521
31.75,1.4877852201461792,4.529890537261963,-1.1882034540176392,0.14222656190395355,0.5588662624359131,0.00855940580368042
31.8,2.075629472732544,3.076953172683716,-0.9461798071861267,-0.11522121727466583,0.1726347804069519,-0.19880300760269165
31.85,2.305438756942749,1.7689372301101685,-1.1198334693908691,-0.37027859687805176,-0.21084310114383698,-0.228389710187912
31.9,1.2360594272613525,0.9470739364624023,-1.519679307937622,-0.5066986083984375,-0.3538060784339905,-0.039279453456401825
31.95,0.020570039749145508,0.4489193260669708,-1.3172862529754639,-0.4038357138633728,-0.5740739107131958,0.3879072964191437
32.0,0.15615464746952057,0.4991789162158966,-0.6211167573928833,-0.02854982018470764,-0.7884246706962585,0.9163617491722107
32.05,0.38370779156684875,0.5262393951416016,-0.4110230505466461,0.3876500129699707,-0.3724829852581024,1.1749235391616821
32.1,0.9038801789283752,0.19734856486320496,-0.3296407461166382,0.32028403878211975,0.1651025414466858,0.917445957660675
32.15,-0.36768168210983276,1.3451796770095825,0.41029950976371765,0.022489219903945923,0.24366970360279083,0.5475708246231079
32.2,-0.5523459315299988,1.6972792148590088,0.9143885374069214,-0.27718448638916016,-0.42671623826026917,0.45456910133361816
32.25,0.20537403225898743,0.6784735321998596,0.3911694586277008,-0.5431100130081177,-0.7226611375808716,0.6328216195106506
32.3,0.022455841302871704,-0.6672430634498596,-0.7239696383476257,-0.7938071489334106,-0.21361057460308075,0.8476772308349609
32.35,-0.978945791721344,-1.6381561756134033,-1.405854344367981,-0.9605779647827148,0.5977693796157837,0.8516148924827576
32.4,-1.3762338161468506,-2.135601282119751,-1.1861838102340698,-0.9584453701972961,1.2650320529937744,0.6545724272727966
32.45,-1.2794108390808105,-2.644841432571411,-0.9925165772438049,-0.9068257212638855,1.8028182983398438,0.3459886312484741
32.5,-1.3869199752807617,-3.0384421348571777,-1.0189101696014404,-0.8918118476867676,2.161914825439453,0.07151228934526443
32.55,-1.3287203311920166,-3.0554471015930176,-0.8341376185417175,-0.8381282687187195,2.2512316703796387,-0.024335578083992004
32.6,-1.0485353469848633,-2.4659578800201416,-0.5005267858505249,-0.6796289682388306,2.366443634033203,0.017985127866268158
32.65,-0.9033617973327637,-1.7366392612457275,-0.3668520152568817,-0.42897501587867737,2.69018816947937,0.06016257032752037
32.7,-0.807002604007721,-1.0810319185256958,0.21131069958209991,-0.07986006140708923,2.8665308952331543,-0.07507771253585815
32.75,-0.5269942283630371,-0.47651004791259766,1.38934326171875,0.3517323434352875,2.398491621017456,-0.24879010021686554
32.8,-0.10328596830368042,-0.4854002296924591,1.379896640777588,0.7993289828300476,1.2564700841903687,-0.1762300580739975
32.85,0.1773521602153778,-0.5558786988258362,1.2214514017105103,1.031005859375,0.41544169187545776,-0.1167074516415596
32.9,0.26895207166671753,-0.22851179540157318,1.906905174255371,1.027753233909607,0.3938606381416321,-0.17986637353897095
32.95,0.06530869007110596,0.08337123692035675,2.445206880569458,0.9556957483291626,0.6398299932479858,-0.2429479956626892
33.0,-0.32083284854888916,0.6267921328544617,2.6805713176727295,0.8773316144943237,0.5597036480903625,-0.27649661898612976
33.05,-0.6336151957511902,1.6217807531356812,2.6196095943450928,0.7984784841537476,0.017597001045942307,-0.2811596989631653
33.1,-0.77169269323349,2.7811434268951416,2.6111485958099365,0.6737119555473328,-0.43319252133369446,-0.26443442702293396
33.15,-0.7817327380180359,3.2791285514831543,2.6701724529266357,0.4255894124507904,-0.3003402650356293,-0.16892029345035553
33.2,-0.7342151403427124,2.518803834915161,2.5768866539001465,0.09347134828567505,0.16054776310920715,0.016823576763272285
33.25,-0.9312718510627747,1.3391821384429932,2.5033838748931885,-0.2544538378715515,0.34621572494506836,0.2292848378419876
33.3,-1.106698989868164,0.21762672066688538,2.1482977867126465,-0.4899061322212219,0.2265397012233734,0.4259527325630188
33.35,-1.1007988452911377,-0.43523210287094116,1.7139112949371338,-0.5897175073623657,0.4404304623603821,0.5449119210243225
33.4,-1.4141063690185547,-0.1802738904953003,1.9546928405761719,-0.6153745651245117,1.1114490032196045,0.5785766243934631
33.45,-1.9537864923477173,0.36082762479782104,2.167485475540161,-0.651635468006134,1.7011274099349976,0.5940097570419312
33.5,-2.1930389404296875,0.5286247730255127,1.6842637062072754,-0.898986279964447,1.8940447568893433,0.5885958075523376
33.55,-2.0373945236206055,0.41448137164115906,0.9643025398254395,-1.2927533388137817,1.867749810218811,0.5600792765617371
33.6,-1.7074899673461914,0.649554431438446,0.8221639394760132,-1.561281442642212,1.8751327991485596,0.40250179171562195
33.65,-0.22482076287269592,0.6298257112503052,1.035370111465454,-1.4067177772521973,1.3140846490859985,0.03764655068516731
33.7,1.9008729457855225,0.5909709930419922,0.701391875743866,-0.597827672958374,-0.46436622738838196,-0.30953267216682434
33.75,2.2658026218414307,0.8769693374633789,0.2850499749183655,0.5297053456306458,-2.811068058013916,-0.27863210439682007
33.8,1.100001573562622,1.1076698303222656,-1.5473490953445435,1.124121904373169,-5.061532020568848,0.3418193459510803
33.85,1.2959777116775513,0.6824988126754761,-3.8214669227600098,0.6198201179504395,-6.0343217849731445,1.0770970582962036
33.9,2.145698070526123,-0.29922035336494446,-4.210648536682129,-0.4579436480998993,-5.125932693481445,1.0932413339614868
33.95,2.7059383392333984,-1.1203721761703491,-3.632903814315796,-1.1633228063583374,-3.514390468597412,0.6907909512519836
34.0,2.29702091217041,-1.7610812187194824,-3.0199759006500244,-1.5079771280288696,-1.830301284790039,0.3754202723503113
34.05,1.3456196784973145,-2.267655849456787,-2.789266586303711,-1.5817174911499023,-0.32844609022140503,0.10131869465112686
34.1,0.7663258910179138,-2.3234822750091553,-2.7716476917266846,-1.3340439796447754,0.7245457172393799,-0.0882185846567154
34.15,0.6074502468109131,-1.9594591856002808,-2.8294548988342285,-0.8858839273452759,1.288151741027832,-0.18618334829807281
34.2,0.7860764265060425,-1.5059798955917358,-2.987070083618164,-0.3568468689918518,1.3661717176437378,-0.1657526195049286
34.25,0.7124983072280884,-1.1198923587799072,-3.081906318664551,0.17953719198703766,1.2589991092681885,-0.10640521347522736
34.3,0.5096604824066162,-0.8863260746002197,-3.1090478897094727,0.6742770075798035,1.3228203058242798,-0.09229741245508194
34.35,0.29276275634765625,-0.703356921672821,-3.040365695953369,1.0589038133621216,1.8219200372695923,-0.24407851696014404
34.4,-0.43419069051742554,0.10109421610832214,-2.3882575035095215,1.3020352125167847,2.7259442806243896,-0.5782557725906372
34.45,-0.8757456541061401,0.9348946809768677,-0.8772097229957581,1.5043281316757202,3.538747549057007,-0.865689754486084
34.5,-0.8403127193450928,1.5811189413070679,1.0758215188980103,1.6022096872329712,3.8324356079101562,-0.9376043677330017
34.55,-0.3565504550933838,1.695614218711853,2.3907570838928223,1.404249668121338,3.268122911453247,-0.7585632801055908
34.6,0.4694993495941162,1.1730587482452393,3.2379887104034424,1.0053799152374268,2.254877805709839,-0.5916189551353455
34.65,1.6151431798934937,0.3123484253883362,3.836219072341919,0.6212710738182068,1.5715086460113525,-0.5379935503005981
34.7,2.792414426803589,-0.42492493987083435,3.9128031730651855,0.3238062858581543,1.3456610441207886,-0.49108049273490906
34.75,3.812887668609619,-0.30474579334259033,4.240629196166992,0.14021585881710052,1.0763404369354248,-0.45000675320625305
34.8,4.0366106033325195,0.21439258754253387,3.7306747436523438,-0.02468392252922058,0.2471618950366974,-0.3597164750099182
34.85,3.3879690170288086,0.5308923125267029,2.6048569679260254,-0.3248005211353302,-0.6117466688156128,-0.08099805563688278
34.9,2.366262197494507,0.6298151016235352,1.9487583637237549,-0.6443338990211487,-1.0314685106277466,0.31605222821235657
34.95,1.0805555582046509,0.9765015840530396,1.6019134521484375,-0.7299888730049133,-1.319540023803711,0.6088263392448425
35.0,-0.26635587215423584,1.433707356452942,0.5497987866401672,-0.5820269584655762,-1.5782556533813477,0.78147292137146
35.05,-1.2186615467071533,1.1291791200637817,-0.3560757339000702,-0.6268947124481201,-1.2980616092681885,0.8899210095405579
35.1,-1.6668663024902344,0.26706230640411377,-0.3586491048336029,-0.8942973017692566,-0.76557457447052,0.8451016545295715
35.15,-1.8357324600219727,-0.27226632833480835,-0.3748461902141571,-0.980128824710846,-0.628212571144104,0.7059610486030579
35.2,-1.9568004608154297,-0.43328091502189636,-0.5235412120819092,-0.8181841969490051,-0.6957918405532837,0.5547508597373962
35.25,-1.8071987628936768,-0.5866117477416992,-0.8997381925582886,-0.5363882184028625,-0.7119380235671997,0.3734012246131897
35.3,-1.53165864944458,-0.6777744293212891,-1.3351904153823853,-0.30503034591674805,-0.5845296382904053,0.15203215181827545
35.35,-1.1771310567855835,-0.6551952958106995,-1.442226529121399,-0.17289406061172485,-0.4066067039966583,-0.07082487642765045
35.4,-0.6654610633850098,-0.5417757630348206,-1.291293978691101,-0.05143134668469429,-0.3573300242424011,-0.23327262699604034
35.45,-0.1338232457637787,-0.3800240457057953,-1.1673461198806763,0.13318410515785217,-0.42818889021873474,-0.3175821602344513
35.5,0.2813688814640045,-0.11554056406021118,-1.0309767723083496,0.3638937473297119,-0.4304640591144562,-0.35901007056236267
35.55,0.5275715589523315,0.2244090884923935,-0.7552534937858582,0.5781416296958923,-0.2834688425064087,-0.3964191675186157
35.6,0.6903354525566101,0.39412784576416016,-0.3242633640766144,0.7317414283752441,-0.10339246690273285,-0.4113665223121643
35.65,0.7878899574279785,0.4188099205493927,0.1351604163646698,0.7848638296127319,-0.02443530037999153,-0.36633649468421936
35.7,0.8373961448669434,0.4773712456226349,0.5865079164505005,0.7340617179870605,-0.029380319640040398,-0.2902003526687622
35.75,0.7925820350646973,0.47284799814224243,0.9819849133491516,0.6171711087226868,0.0015802669804543257,-0.21835824847221375
35.8,0.7220055460929871,0.36299994587898254,1.3164159059524536,0.47153952717781067,0.08107148110866547,-0.14831110835075378
35.85,0.6663827896118164,0.20488648116588593,1.5735665559768677,0.3148510456085205,0.11406775563955307,-0.07300007343292236
35.9,0.6124318838119507,0.06800176203250885,1.4897655248641968,0.14189398288726807,0.058166831731796265,0.007294743787497282
35.95,0.4970291256904602,0.04806806147098541,1.2770845890045166,-0.06392617523670197,0.03516775742173195,0.07331663370132446
36.0,0.2854808568954468,0.14212706685066223,1.0748519897460938,-0.27038687467575073,0.03642190620303154,0.11475218832492828
36.05,0.11035960912704468,0.2633343040943146,0.7102541327476501,-0.40885502099990845,-0.07249026000499725,0.13862408697605133
36.1,-0.033521831035614014,0.23703961074352264,0.35634034872055054,-0.46688777208328247,-0.2242729365825653,0.13774655759334564
36.15,-0.04137730225920677,0.0971384271979332,0.11127907782793045,-0.4322269558906555,-0.35944586992263794,0.11194749176502228
36.2,-0.038980159908533096,0.08326340466737747,-0.1647152155637741,-0.31550079584121704,-0.4604852795600891,0.0944834053516388
36.25,-0.1713353991508484,0.12955190241336823,-0.5707554817199707,-0.21271750330924988,-0.4489745795726776,0.11217526346445084
36.3,-0.2564202845096588,0.036238666623830795,-0.8118426203727722,-0.18712367117404938,-0.2563062608242035,0.1279388815164566
36.35,-0.4289245903491974,-0.07513618469238281,-0.5386888384819031,-0.1576090306043625,0.054302725940942764,0.10249307751655579
36.4,-0.6075261831283569,-0.15723703801631927,-0.06747526675462723,0.005715657025575638,0.24035637080669403,0.07342693954706192
36.45,-0.7683415412902832,0.08928781002759933,0.18266700208187103,0.2741830348968506,0.24573306739330292,0.06731043010950089
36.5,-0.8278560638427734,0.5463629961013794,0.44129061698913574,0.5005282163619995,0.22639372944831848,0.03725767135620117
36.55,-0.6867611408233643,0.711701512336731,1.1555688381195068,0.6278400421142578,0.022166935727000237,-0.014811812900006771
36.6,-0.31257760524749756,0.5495511293411255,1.5009077787399292,0.6509009003639221,-0.6724518537521362,0.014210362918674946
36.65,0.20595702528953552,0.31917673349380493,1.19655179977417,0.5282841920852661,-1.4369868040084839,0.08812405914068222
36.7,0.7596970200538635,0.08328818529844284,0.8738381266593933,0.35186058282852173,-1.7790013551712036,0.15813906490802765
36.75,0.8979686498641968,0.06484220176935196,0.7264255285263062,0.176651269197464,-1.6373032331466675,0.2520733177661896
36.8,1.005631446838379,0.5033054351806641,0.27830591797828674,0.019007787108421326,-1.3864340782165527,0.38396546244621277
36.85,1.4451754093170166,0.8067713379859924,-0.261282742023468,-0.20988819003105164,-1.0726908445358276,0.5367556214332581
36.9,0.8322268724441528,0.5725421905517578,-0.23710958659648895,-0.6937066316604614,-0.5199545621871948,0.5679020285606384
36.95,0.2639394998550415,0.045958492904901505,-0.5659239292144775,-1.072986125946045,-0.28390827775001526,0.5069243311882019
37.0,0.2940005958080292,-0.2965880334377289,-1.0945000648498535,-1.0848149061203003,-0.16484078764915466,0.39706289768218994
37.05,0.41506314277648926,-0.17605789005756378,-1.23006272315979,-0.960753858089447,0.08796875923871994,0.20470671355724335
37.1,0.6148167848587036,-0.18705376982688904,-1.359330177307129,-0.8263113498687744,0.2743805944919586,0.03272150456905365
37.15,0.6706876158714294,-0.9689247012138367,-1.792468547821045,-0.6754465103149414,0.5182893872261047,-0.18007145822048187
37.2,0.09359335899353027,-1.6219438314437866,-2.22491192817688,-0.27179279923439026,0.8924809098243713,-0.4916236698627472
37.25,-0.6142843961715698,-1.2208882570266724,-1.8066110610961914,0.45599985122680664,1.0323442220687866,-0.6300832629203796
37.3,-0.11077281832695007,-0.31805139780044556,-1.1365336179733276,1.1027096509933472,0.7322295904159546,-0.5231291055679321
37.35,1.0141750574111938,0.6545658111572266,-0.9897890686988831,1.4470336437225342,0.6299808025360107,-0.4603857100009918
37.4,1.0888261795043945,1.3776426315307617,-0.17993149161338806,1.4775758981704712,1.2964253425598145,-0.5165444016456604
37.45,0.7030037641525269,1.536250352859497,1.098127007484436,1.325208306312561,1.9329794645309448,-0.4702911674976349
37.5,0.7294719219207764,1.1389333009719849,2.2856369018554688,1.0898200273513794,1.800412654876709,-0.2854742705821991
37.55,1.000958800315857,0.4593525826931,2.633500576019287,0.7391643524169922,0.9694234132766724,-0.1054573804140091
37.6,1.1278982162475586,-0.06405067443847656,2.461240291595459,0.39728397130966187,0.19367530941963196,0.0054130819626152515
37.65,0.9769871234893799,-0.4034710228443146,2.610653877258301,0.12307910621166229,0.005102748982608318,0.12041907757520676
37.7,0.7181087732315063,-0.40773966908454895,2.5872690677642822,-0.11266706883907318,-0.051544852554798126,0.2135571539402008
37.75,0.40567612648010254,-0.12592026591300964,2.200526714324951,-0.306999146938324,-0.3365442156791687,0.24746592342853546
37.8,0.09916788339614868,0.1598530262708664,1.408463954925537,-0.5186131596565247,-0.7083959579467773,0.25335803627967834
37.85,-0.07787109911441803,0.42430123686790466,0.639126718044281,-0.7380843758583069,-0.9176844954490662,0.27922019362449646
37.9,-0.2882643938064575,0.4745694100856781,0.062084682285785675,-0.9483720064163208,-0.9323853850364685,0.31617194414138794
37.95,-0.5489760637283325,0.32563692331314087,-0.40002962946891785,-1.0723682641983032,-0.9568601250648499,0.2974449694156647
38.0,-0.5387803316116333,0.13475705683231354,-1.0082699060440063,-1.0596439838409424,-1.0761520862579346,0.2782001793384552
38.05,-0.2850038409233093,-0.1410856693983078,-1.6799356937408447,-0.9574933648109436,-1.0190660953521729,0.24887847900390625
38.1,0.01789635419845581,-0.4670611619949341,-1.9128286838531494,-0.8252890110015869,-0.6579951047897339,0.13685943186283112
38.15,0.10939252376556396,-0.7222720384597778,-1.7259185314178467,-0.6371273398399353,-0.26715850830078125,-0.002607659436762333
38.2,0.14757239818572998,-0.6356936693191528,-1.4500987529754639,-0.3014620542526245,-0.028481369838118553,-0.10481832921504974
38.25,0.27449119091033936,-0.5090724229812622,-1.2619524002075195,0.14172564446926117,0.15332654118537903,-0.1742102950811386
38.3,0.30505555868148804,-0.2569361627101898,-1.1231379508972168,0.5625450611114502,0.3496893644332886,-0.22469903528690338
38.35,0.2560676634311676,0.19005583226680756,-0.9662437438964844,0.8771677613258362,0.5471974015235901,-0.22964347898960114
38.4,0.0959717184305191,0.5745144486427307,-0.6241810321807861,1.014889121055603,0.778279721736908,-0.2227993905544281
38.45,-0.07869434356689453,0.7202578186988831,-0.11009904742240906,0.9503628015518188,0.9872662425041199,-0.2170383632183075
38.5,-0.18100230395793915,0.6324120163917542,0.4668421447277069,0.7398143410682678,1.045405626296997,-0.19279155135154724
38.55,-0.11923199892044067,0.4379063546657562,0.9959399700164795,0.5094044208526611,0.9309078454971313,-0.16309957206249237
38.6,0.09329485893249512,0.2846413254737854,1.6534124612808228,0.35247182846069336,0.7333099246025085,-0.1467917561531067
38.65,0.26849204301834106,0.18217188119888306,2.2381157875061035,0.31908145546913147,0.320447713136673,-0.12637920677661896
38.7,0.3724137544631958,0.20863254368305206,2.4332292079925537,0.35385820269584656,-0.34636399149894714,-0.1325225830078125
38.75,0.299446702003479,0.30022722482681274,1.9737639427185059,0.3264525234699249,-0.9363808035850525,-0.15832045674324036
38.8,0.4920984208583832,-0.033843033015728,1.343245029449463,0.2707619369029999,-1.2779237031936646,-0.14808990061283112
38.85,0.8248903155326843,-0.357451468706131,1.0336588621139526,0.3522874712944031,-1.5378133058547974,-0.14914317429065704
38.9,0.8399608135223389,0.021412819623947144,0.42796802520751953,0.5178823471069336,-1.7172924280166626,-0.15484856069087982
38.95,0.6347905993461609,0.5962420105934143,0.25396355986595154,0.44997522234916687,-1.6223945617675781,-0.10598453134298325
39.0,0.4783966541290283,0.7850762605667114,0.10766081511974335,0.08113204687833786,-1.577247142791748,-0.012613781727850437
39.05,0.539896547794342,0.7155637741088867,-0.2133198082447052,-0.42082837224006653,-1.5271528959274292,0.06811311841011047
39.1,0.632269561290741,0.5853900909423828,-0.14840523898601532,-0.8709847331047058,-1.277302861213684,0.15178480744361877
39.15,0.8372747302055359,0.2622528076171875,0.0937802642583847,-1.1436758041381836,-0.900521993637085,0.23382475972175598
39.2,0.7752649784088135,-0.13658718764781952,0.1693909913301468,-1.1908949613571167,-0.47880297899246216,0.31226763129234314
39.25,0.9760234355926514,-0.024811794981360435,0.2031824290752411,-1.1117511987686157,-0.042586054652929306,0.31152597069740295
39.3,0.4675252437591553,0.23457147181034088,0.24315431714057922,-1.0112533569335938,-0.006026923656463623,0.2617819905281067
39.35,-0.7067207098007202,-0.30527687072753906,-0.1890752762556076,-0.82554030418396,-0.44385430216789246,0.24928660690784454
39.4,-0.43646952509880066,-0.5363312363624573,-0.8988308906555176,-0.4432007372379303,-0.6586505770683289,0.2223740816116333
39.45,-0.39285221695899963,-0.24996761977672577,-1.263034462928772,0.05608236789703369,-0.6340760588645935,0.21406172215938568
39.5,-0.663804829120636,0.11188222467899323,-1.3259583711624146,0.39274001121520996,-0.5982327461242676,0.209451824426651
39.55,-0.20386621356010437,0.7161913514137268,-1.0346665382385254,0.34833478927612305,-0.5280653834342957,0.18134385347366333
39.6,-0.22124533355236053,0.8930083513259888,0.21246877312660217,-0.1582808792591095,-0.3652917742729187,0.051872603595256805
39.65,0.16790159046649933,-0.3596191704273224,0.2520987093448639,-0.6483579874038696,-0.19679318368434906,-0.0481993667781353
39.7,0.05587512254714966,-1.65328049659729,-1.3373634815216064,-0.4169272780418396,0.41766342520713806,-0.18589387834072113
39.75,-1.7128881216049194,-0.929629385471344,-1.2275218963623047,0.3857481777667999,0.9026929140090942,-0.2454453408718109
39.8,-1.427968978881836,0.456584095954895,-0.06489118933677673,0.7410517930984497,0.3531147837638855,-0.12945064902305603
39.85,-0.03850075602531433,0.9138318300247192,0.8760042190551758,0.47567957639694214,-0.14636866748332977,-0.1699288934469223
39.9,-0.212810218334198,0.5200015306472778,2.0480520725250244,0.2815704345703125,-0.026315705850720406,-0.24411162734031677
39.95,-0.1949169635772705,-0.1834697276353836,1.7889386415481567,0.21221911907196045,0.032270610332489014,-0.22187569737434387
40.0,0.3865463137626648,-0.08781050890684128,1.1687864065170288,0.23791715502738953,0.1143755316734314,-0.16632777452468872
40.05,0.781580924987793,0.45159438252449036,0.7378971576690674,0.0824899822473526,0.6330583095550537,-0.25517114996910095
40.1,-0.021423906087875366,0.4290963113307953,0.581674337387085,-0.29895859956741333,1.5185269117355347,-0.4844239354133606
40.15,-0.7588810324668884,0.08914286643266678,0.7680034637451172,-0.5391504764556885,1.8731188774108887,-0.5457366108894348
40.2,-0.29452964663505554,-0.041028961539268494,0.11566494405269623,-0.5620896816253662,1.8172661066055298,-0.4304191470146179
40.25,-0.4786747097969055,-0.058201782405376434,-0.3892606496810913,-0.6632976531982422,2.3714077472686768,-0.5131990909576416
40.3,-1.2491523027420044,0.07755669951438904,0.6309654116630554,-0.8514295816421509,3.0248703956604004,-0.7704770565032959
40.35,-0.8358126878738403,0.49743765592575073,2.216285228729248,-1.130918264389038,3.100436210632324,-1.0752718448638916
40.4,0.6197745203971863,1.091797947883606,2.568084478378296,-1.396767497062683,2.7568531036376953,-1.2047544717788696
40.45,1.3052804470062256,0.539942741394043,0.7919600605964661,-1.1064550876617432,1.9055840969085693,-0.7976891398429871
40.5,0.47747883200645447,-0.06663518399000168,-0.6602056622505188,-0.5340335369110107,1.1705843210220337,-0.36719459295272827
40.55,-0.08959433436393738,-0.04552842676639557,-0.5965831875801086,-0.3332265615463257,0.9904060959815979,-0.21240828931331635
40.6,0.046856142580509186,0.39457041025161743,-0.07284615188837051,-0.34423792362213135,0.9295667409896851,-0.10890824347734451
40.65,-0.004184603691101074,0.5568371415138245,0.49281400442123413,-0.10104873031377792,0.5517111420631409,0.09030498564243317
40.7,-0.20145860314369202,-0.06251714378595352,0.5846636295318604,0.3861381411552429,-0.09171643853187561,0.3407406806945801
40.75,-0.24191609025001526,-0.7570115327835083,-0.1432887464761734,0.6542468070983887,-0.5495295524597168,0.5380747318267822
40.8,-0.13101732730865479,-0.5601559281349182,-0.20647881925106049,0.3966072201728821,-0.17276164889335632,0.4207799434661865
40.85,-0.5224605202674866,-0.1692027598619461,0.9120835661888123,0.044857680797576904,0.5373528003692627,0.09564026445150375
40.9,-0.7565832138061523,0.11616334319114685,1.324775218963623,0.04845820367336273,0.6111318469047546,-0.04944431036710739
40.95,-0.6145042181015015,0.23672494292259216,1.2405204772949219,0.16840220987796783,0.21392929553985596,-0.029258975759148598
41.0,-0.34397372603416443,-0.04848858341574669,0.8499801754951477,0.25600916147232056,-0.36803463101387024,0.02286645770072937
41.05,0.09576693922281265,-0.24431326985359192,-0.029278531670570374,0.3859398365020752,-1.0355600118637085,0.12234660983085632
41.1,0.2508145570755005,0.019566506147384644,-0.6712270379066467,0.5805260539054871,-1.774891972541809,0.2867509722709656
41.15,0.274617075920105,0.5123186111450195,-0.8769934773445129,0.6129987239837646,-2.2449491024017334,0.3905908465385437
41.2,0.37676024436950684,0.6002874374389648,-0.6785537004470825,0.5441778898239136,-2.259733200073242,0.4253375828266144
41.25,0.6269024610519409,0.23347756266593933,-1.1058125495910645,0.46894633769989014,-2.1169910430908203,0.5145689249038696
41.3,0.9756456017494202,0.13685886561870575,-1.2706353664398193,0.3623034358024597,-1.6093170642852783,0.422762393951416
41.35,1.095288634300232,0.49037930369377136,-0.7674707174301147,0.3655790686607361,-1.1363898515701294,0.30686473846435547
41.4,0.9257581233978271,0.8679218888282776,-0.1235385313630104,0.5083205699920654,-1.256042242050171,0.37060871720314026
41.45,0.8375633955001831,1.074149250984192,0.17425063252449036,0.6871176958084106,-1.7681121826171875,0.5795713067054749
41.5,1.0861479043960571,0.9503069519996643,0.010900166817009449,0.7051043510437012,-2.1462008953094482,0.7775592803955078
41.55,1.123051404953003,0.5270242691040039,-0.1126982569694519,0.4477059543132782,-1.9448128938674927,0.8055805563926697
41.6,0.7418708801269531,0.17133232951164246,-0.30385303497314453,0.08412827551364899,-1.4009177684783936,0.70807284116745
41.65,0.3016611635684967,0.28047943115234375,-0.4509076178073883,-0.1737634241580963,-0.9081230163574219,0.5703367590904236
41.7,0.06755487620830536,0.2676582336425781,-0.47198188304901123,-0.2996455132961273,-0.5040594339370728,0.40573468804359436
41.75,-0.029863640666007996,-0.30735594034194946,-0.6309541463851929,-0.36109063029289246,-0.11743108928203583,0.19882990419864655
41.8,-0.2644142508506775,-0.8278065919876099,-0.9391841292381287,-0.3072446584701538,0.23996207118034363,-0.024954967200756073
41.85,-0.005484104156494141,-0.9620372653007507,-1.2474966049194336,-0.08817491680383682,0.6082262396812439,-0.20349690318107605
41.9,-0.25429898500442505,-0.47947317361831665,-0.9138792753219604,0.12124522030353546,0.8302204012870789,-0.2888023555278778
41.95,-0.32956424355506897,0.004698754753917456,-0.5861584544181824,0.16452988982200623,0.7035549283027649,-0.2723495662212372
42.0,-0.002279728651046753,0.14116859436035156,-0.47310832142829895,0.0962916761636734,0.5341396331787109,-0.272195428609848
42.05,0.24386253952980042,0.05842302739620209,-0.38585349917411804,0.007059723138809204,0.6593440771102905,-0.32199233770370483
42.1,0.262967973947525,0.03910444676876068,-0.12299665063619614,-0.09165192395448685,0.9706135988235474,-0.39179226756095886
42.15,-0.003944039344787598,0.23535065352916718,0.3226080536842346,-0.09535206109285355,1.0067402124404907,-0.384796679019928
42.2,0.20248407125473022,0.24736884236335754,0.34169870615005493,0.009060025215148926,0.6759739518165588,-0.23489071428775787
42.25,0.243626207113266,0.24133017659187317,0.38737156987190247,0.05988883227109909,0.4707484841346741,-0.1421109139919281
42.3,-0.08813856542110443,0.16533854603767395,0.5572963356971741,0.07534956932067871,0.27349555492401123,-0.07610505819320679
42.35,-0.49021610617637634,0.08906275033950806,1.002570629119873,0.1366509646177292,-0.09541871398687363,-0.0011265930952504277
42.4,-0.538959264755249,0.17409808933734894,1.1874606609344482,0.30164170265197754,-0.7547526955604553,0.13249807059764862
42.45,0.14137239754199982,0.32789137959480286,0.5891916751861572,0.47957298159599304,-1.4539787769317627,0.3155275285243988
42.5,0.6154816150665283,0.4458971321582794,-0.03874944522976875,0.3833988904953003,-1.5368092060089111,0.36676231026649475
42.55,-0.02306702733039856,0.5179968476295471,-0.10571844130754471,0.009497828781604767,-1.1089515686035156,0.22871217131614685
42.6,-0.025259163230657578,0.5997868180274963,-0.08375243097543716,-0.2796756327152252,-0.9324647784233093,0.1610262542963028
42.65,0.380497545003891,0.7158022522926331,-0.035937923938035965,-0.5177885293960571,-0.7574798464775085,0.10656075179576874
42.7,0.31146568059921265,0.4053964912891388,-0.3046410381793976,-0.7057008743286133,-0.5569250583648682,0.009914305061101913
42.75,0.5447120070457458,0.28767773509025574,-0.6745104193687439,-0.6336660385131836,-0.629278838634491,0.07742757350206375
42.8,0.7152400612831116,0.2165975272655487,-0.933394193649292,-0.4896700978279114,-0.5702754259109497,0.08279839903116226
42.85,0.5465402603149414,0.24205490946769714,-0.8877586126327515,-0.3591999113559723,-0.33165568113327026,0.014971683733165264
42.9,0.44427013397216797,0.11554428189992905,-0.9440147876739502,-0.26635804772377014,-0.16110309958457947,-0.007046783808618784
42.95,0.19461393356323242,-0.5277758836746216,-1.0134613513946533,-0.19158071279525757,0.001675317296758294,-0.027682490646839142
43.0,-0.19296973943710327,-0.5846396088600159,-0.7925885319709778,0.015281971544027328,0.12623216211795807,0.0008345884853042662
43.05,-0.3423108756542206,-0.2581644356250763,-0.5955899357795715,0.20136407017707825,0.19043020904064178,0.02619132772088051
43.1,-0.4660988748073578,-0.03337763249874115,-0.19734548032283783,0.2212984710931778,0.2307882457971573,0.0025066796224564314
43.15,-0.618575394153595,0.06202130392193794,0.24297894537448883,0.16231240332126617,0.21473094820976257,-0.016908293589949608
43.2,-0.7964951992034912,0.22297963500022888,0.4943285286426544,0.11072611808776855,0.2055523544549942,-0.043644536286592484
43.25,-0.7347441911697388,0.35032376646995544,0.6383194923400879,0.09102299064397812,0.1562667191028595,-0.058977335691452026
43.3,-0.6527408361434937,0.23005971312522888,0.8559086322784424,0.05977746844291687,0.09250001609325409,-0.07456689327955246
43.35,-0.5647456645965576,0.1471739560365677,1.0540820360183716,0.0276088397949934,0.031388115137815475,-0.06603232026100159
43.4,-0.35786908864974976,0.2127743512392044,1.1657994985580444,-0.0010626669973134995,0.005638760514557362,-0.054852087050676346
43.45,-0.4713127017021179,0.17847926914691925,1.0760067701339722,-0.042732737958431244,0.008516055531799793,-0.07370151579380035
43.5,-0.3183958828449249,0.18299204111099243,0.994592010974884,-0.044763222336769104,-0.06513289362192154,-0.06313513964414597
43.55,-0.23301056027412415,0.2502956986427307,0.9545027017593384,-0.05201379954814911,-0.11821281909942627,-0.06253648549318314
43.6,-0.26466837525367737,0.281649649143219,0.7992246150970459,-0.0654880702495575,-0.12411099672317505,-0.04873479902744293
43.65,-0.23142655193805695,0.3323565125465393,0.6270638108253479,-0.10653567314147949,-0.07921530306339264,-0.03722643852233887
43.7,-0.2872738242149353,0.27471452951431274,0.5158101320266724,-0.1978529691696167,0.015342685393989086,-0.05774970352649689
43.75,-0.3192541003227234,0.04198935627937317,0.38124340772628784,-0.29178816080093384,0.05635732412338257,-0.0716860443353653
43.8,-0.3277566432952881,-0.13252638280391693,0.36155205965042114,-0.33278846740722656,0.0791189968585968,-0.08334126323461533
43.85,-0.3453432619571686,-0.13689325749874115,0.27505776286125183,-0.31625717878341675,0.08461903035640717,-0.09060850739479065
43.9,-0.3327319622039795,-0.041504841297864914,0.17828384041786194,-0.26928451657295227,0.06831485778093338,-0.09214943647384644
43.95,-0.34149590134620667,0.07365992665290833,0.11054357141256332,-0.2071775197982788,0.055114999413490295,-0.09456201642751694
44.0,-0.29616329073905945,0.15920832753181458,0.06671717762947083,-0.13155445456504822,0.02483978495001793,-0.08379808068275452
44.05,-0.19496160745620728,0.2627144157886505,0.07805454730987549,-0.07019762694835663,-0.019646430388092995,-0.0708274245262146
44.1,-0.0041047558188438416,0.3054371178150177,0.13391250371932983,-0.026868799701333046,-0.051475316286087036,-0.058633118867874146
44.15,0.08114677667617798,0.2121429741382599,0.1341443955898285,-0.025844616815447807,-0.027357032522559166,-0.06428877264261246
44.2,0.16055849194526672,0.14002038538455963,0.06907454878091812,-0.04652392864227295,0.04814010486006737,-0.07343737781047821
44.25,0.12124881893396378,0.14463521540164948,0.06240975484251976,-0.041937828063964844,0.13410493731498718,-0.06636586785316467
44.3,0.09094196557998657,0.12009145319461823,0.05913693085312843,0.0062035080045461655,0.19339288771152496,-0.04158620163798332
44.35,-0.22851110994815826,0.14577963948249817,0.12324006110429764,0.050884123891592026,0.2845490574836731,-0.07112400233745575
44.4,-0.5262505412101746,0.057133715599775314,0.20161166787147522,0.1083635538816452,0.16246548295021057,-0.013420546427369118
44.45,-0.29612523317337036,0.012719174847006798,0.10620423406362534,0.18816672265529633,-0.06811285018920898,0.08829843252897263
44.5,1.1101731061935425,0.010556155815720558,-0.28869402408599854,0.16441600024700165,0.052995745092630386,-0.021410580724477768
44.55,2.8879616260528564,-0.36643338203430176,-1.6968235969543457,-0.16116295754909515,1.207848310470581,-0.6665750741958618
44.6,-0.09273499250411987,-0.6536418199539185,-1.981938123703003,-0.6695165038108826,3.2047207355499268,-1.6310462951660156
44.65,-2.3887031078338623,-0.02812182530760765,-0.00347739621065557,-0.59125816822052,3.625218152999878,-1.6842482089996338
44.7,-2.1922004222869873,1.0029548406600952,2.5762176513671875,-0.1820644736289978,2.392923593521118,-1.0403178930282593
44.75,-0.250091552734375,0.6828576326370239,1.747593879699707,0.24566440284252167,0.48175525665283203,-0.1275356411933899
44.8,0.20041251182556152,0.3465929329395294,0.3643506169319153,0.5528342723846436,-0.5714779496192932,0.3900269567966461
44.85,-0.6430562138557434,0.31681162118911743,0.14859993755817413,0.427880197763443,-0.6430181860923767,0.31167173385620117
44.9,-0.6964144706726074,0.166781485080719,0.2609313726425171,0.26690739393234253,-0.576596736907959,0.17204445600509644
44.95,-0.3937728703022003,0.2148161679506302,0.8930329084396362,0.19103217124938965,-0.5906592607498169,0.07478707283735275
45.0,0.21649332344532013,0.06783486157655716,0.34544312953948975,0.24769029021263123,-0.7250843048095703,0.11226710677146912
45.05,-0.05549962818622589,0.5124807953834534,0.48499825596809387,0.21148931980133057,-0.5115509033203125,0.03094816952943802
45.1,-0.2859523892402649,0.7434998154640198,0.4030549228191376,0.14506076276302338,-0.47091397643089294,0.06458080559968948
45.15,-0.3348829746246338,0.7416049242019653,0.45876988768577576,0.0687849149107933,-0.579261064529419,0.14218555390834808
45.2,-0.39379340410232544,0.520238995552063,0.533354640007019,0.07312276214361191,-0.8991080522537231,0.29849880933761597
45.25,0.029873032122850418,0.11529923975467682,0.09310364723205566,0.16678497195243835,-1.2555211782455444,0.5441555976867676
45.3,0.1820598542690277,-0.12360194325447083,-0.11743908375501633,0.18075796961784363,-1.037601351737976,0.5417850017547607
45.35,-0.3058012127876282,-0.16167545318603516,0.17632150650024414,0.10828261077404022,-0.5397411584854126,0.3511270582675934
45.4,-0.3532489240169525,-0.12279605120420456,0.18872006237506866,0.11587962508201599,-0.3304048776626587,0.2885480225086212
45.45,-0.3684432804584503,0.02885916456580162,0.10354539752006531,0.1146511659026146,-0.1014559343457222,0.20880959928035736
45.5,-0.568467915058136,0.22986608743667603,0.14082249999046326,0.08669628202915192,0.1473022848367691,0.0981672927737236
45.55,-0.4930287003517151,0.1569071263074875,0.32707276940345764,0.1128411740064621,0.13634474575519562,0.07539074122905731
45.6,-0.32016998529434204,-0.08452317863702774,0.40576425194740295,0.15864652395248413,0.008990412577986717,0.08023356646299362
45.65,-0.24915152788162231,-0.1599120944738388,0.43453484773635864,0.2070903331041336,-0.1661214530467987,0.10286605358123779
45.7,-0.5057357549667358,-0.44429972767829895,0.28016820549964905,0.23026035726070404,-0.5457595586776733,0.20240861177444458
45.75,-0.3655467629432678,-0.20504572987556458,-0.6565667390823364,0.3296571373939514,-1.097271203994751,0.3930221498012543
45.8,1.5627930164337158,0.899479866027832,-1.0593923330307007,0.37792181968688965,-1.0338799953460693,0.36097580194473267
45.85,0.951000452041626,1.1485787630081177,-0.03184696286916733,-0.030699927359819412,-0.09076602011919022,-0.04580700770020485
45.9,0.35249003767967224,-0.032357245683670044,-0.2821490168571472,-0.16735267639160156,0.11544323712587357,-0.13511763513088226
45.95,0.9811016917228699,-0.0562182292342186,-0.7986053228378296,0.13025186955928802,-0.21677392721176147,0.06724736094474792
46.0,1.2481416463851929,0.23483365774154663,-0.7327839732170105,0.18665842711925507,-0.07484200596809387,0.007291774265468121
46.05,1.2620965242385864,0.18337148427963257,-0.43010592460632324,0.12146271765232086,0.23694656789302826,-0.08083818852901459
46.1,1.277758240699768,0.22173495590686798,-0.28992950916290283,0.005859501659870148,0.8319832682609558,-0.23549388349056244
46.15,0.8466981649398804,0.5651674270629883,-0.1695815920829773,-0.04328791797161102,1.3113338947296143,-0.3362818658351898
46.2,-0.9431616067886353,0.4105120897293091,0.20372098684310913,-0.01246267557144165,1.3117868900299072,-0.28543469309806824
46.25,-1.4152032136917114,-0.2022838145494461,0.20171211659908295,0.21559017896652222,0.43159914016723633,0.005783568602055311
46.3,-0.2139875590801239,-0.22203734517097473,-0.22756828367710114,0.4318137764930725,-0.7194135785102844,0.2819384038448334
46.35,1.0660566091537476,-0.0023947444278746843,-0.42567646503448486,0.31318268179893494,-0.8391880989074707,0.27562305331230164
46.4,0.2870345115661621,0.17428207397460938,-0.037075433880090714,0.010154007002711296,0.0035396513994783163,-0.01902293786406517
46.45,-0.15370510518550873,0.05375005304813385,-0.035912707448005676,-0.07571235299110413,0.22894421219825745,-0.08557961881160736
46.5,0.06156262755393982,-0.06367018818855286,-0.5660642385482788,-0.051235929131507874,-0.035205766558647156,-0.029764913022518158
46.55,0.2262866497039795,-0.3062611222267151,-1.0309643745422363,-0.08259730041027069,0.019928868860006332,-0.07947590202093124
46.6,0.1256554126739502,-0.11849503964185715,-0.9902952909469604,-0.08577178418636322,0.24713000655174255,-0.14733289182186127
46.65,0.2570632994174957,0.03473946079611778,-0.8264360427856445,-0.00038114190101623535,0.4028255343437195,-0.1610730141401291
46.7,0.46438437700271606,0.12350080162286758,-0.5923802256584167,0.08319511264562607,0.4529452621936798,-0.2042386382818222
46.75,0.7629076242446899,0.2234926074743271,-0.19188858568668365,0.2364182323217392,0.20615509152412415,-0.14812950789928436
46.8,0.7879173755645752,0.11556528508663177,0.34470635652542114,0.33832845091819763,-0.026730282232165337,-0.10733495652675629
46.85,0.8356528282165527,-0.20698171854019165,0.6687182188034058,0.44713497161865234,-0.20462611317634583,-0.07918599992990494
46.9,0.5054441690444946,-0.08837890625,1.104875922203064,0.5879487991333008,-0.3984091877937317,-0.08027931302785873
46.95,-0.5731862783432007,0.4839870035648346,1.878692865371704,0.7499212026596069,-0.7071319818496704,-0.11703704297542572
47.0,-1.5299875736236572,0.8935539722442627,2.2602880001068115,0.9227350950241089,-1.2571362257003784,-0.12344826757907867
47.05,-1.5954936742782593,1.2208740711212158,1.9154106378555298,0.8714115619659424,-2.0142276287078857,-0.1324552595615387
47.1,-0.84150630235672,0.5312138795852661,1.55354642868042,0.5915913581848145,-2.540709972381592,-0.17139892280101776
47.15,-0.890754222869873,-0.6356334686279297,1.497138500213623,0.255862295627594,-2.408858060836792,-0.18893462419509888
47.2,-1.1500838994979858,-1.1430606842041016,1.265415072441101,0.11244058609008789,-2.104646921157837,-0.032149046659469604
47.25,-1.2907949686050415,-0.9400759339332581,0.7575281262397766,0.12481288611888885,-1.90550696849823,0.2148374319076538
47.3,-1.6070427894592285,-0.2319926619529724,0.23370777070522308,0.1845771223306656,-1.7495465278625488,0.41240042448043823
47.35,-1.6881072521209717,0.33869469165802,-0.04301450774073601,0.19944614171981812,-1.6527820825576782,0.5545235276222229
47.4,-1.530003309249878,0.8976756930351257,-0.1785457730293274,0.096147820353508,-1.4983131885528564,0.4794885516166687
47.45,-1.000442624092102,0.9860679507255554,-0.4013145864009857,-0.07181127369403839,-1.2175624370574951,0.17364569008350372
47.5,-0.6579686999320984,0.7462196946144104,-0.3885824382305145,-0.23723182082176208,-0.8108428716659546,-0.22327186167240143
47.55,-0.7621410489082336,0.464179128408432,-0.4293231666088104,-0.34631702303886414,-0.4704379141330719,-0.5996161103248596
47.6,-0.34874916076660156,0.23388484120368958,-0.5506341457366943,-0.403126984834671,-0.42066821455955505,-0.8174933791160583
47.65,0.346274733543396,0.19861125946044922,-0.6213396787643433,-0.4420473873615265,-0.34948059916496277,-0.9104430675506592
47.7,0.817152202129364,0.2020825892686844,-1.193403720855713,-0.4125436842441559,-0.06881345808506012,-0.9320040941238403
47.75,0.9668102860450745,-0.11722578853368759,-2.6446566581726074,-0.31043994426727295,-0.18877644836902618,-0.8195626139640808
47.8,1.75527024269104,0.3563755750656128,-1.6604242324829102,-0.31875574588775635,-1.3238779306411743,-0.44428327679634094
47.85,3.4210429191589355,1.7354298830032349,2.7927472591400146,-0.6391412615776062,-1.5821831226348877,-0.40144726634025574
47.9,-1.586308479309082,0.5383483171463013,-0.9814364314079285,-0.5840392708778381,0.38392817974090576,-1.3416322469711304
47.95,-0.7740535736083984,-1.118928074836731,-0.3233952522277832,-0.773977518081665,0.26529935002326965,-1.086942434310913
48.0,-0.49881279468536377,-1.102819561958313,0.3683550953865051,-0.4777800142765045,0.9591088891029358,-0.724458634853363
48.05,-0.24013254046440125,-0.054259292781353,0.13059286773204803,-0.24771016836166382,1.3306596279144287,-0.610353946685791
