Time [s],Acc_x [m/s^2],Acc_y [m/s^2],Acc_z [m/s^2],Gyro_x [1/s],Gyro_y [1/s],Gyro_z [1/s]
0.0,0.9522674679756165,0.31578540802001953,-0.5743735432624817,0.4108770787715912,0.0864168182015419,0.6895651817321777
0.05,0.6916072368621826,0.3436737060546875,-0.42921212315559387,0.4116491675376892,0.08668165653944016,0.6890711784362793
0.1,0.3402012586593628,0.35367584228515625,-0.2692749500274658,0.32184499502182007,0.04437493905425072,0.52201247215271
0.15,0.09171832352876663,0.26337623596191406,-0.18612140417099,0.181442990899086,-0.02138633280992508,0.2333747148513794
0.2,0.04858070984482765,0.13341237604618073,-0.07076017558574677,0.038012854754924774,-0.04675916209816933,-0.020774241536855698
0.25,-0.08836938440799713,0.06455041468143463,0.10690314322710037,-0.12546692788600922,-0.03857309743762016,-0.24241787195205688
0.3,-0.24385221302509308,0.006114018149673939,0.19516414403915405,-0.20796847343444824,-0.01341543160378933,-0.32612431049346924
0.35,-0.2458774298429489,-0.06812667846679688,0.14709611237049103,-0.18857720494270325,-0.0008826521807350218,-0.2709343433380127
0.4,-0.1526980847120285,-0.04634476080536842,0.04411711543798447,-0.13290709257125854,-0.020312853157520294,-0.19323210418224335
0.45,-0.11868438124656677,-0.02970600314438343,0.06349512189626694,-0.06524156779050827,-0.03949354588985443,-0.10438172519207001
0.5,-0.08110340684652328,-0.09294892102479935,0.059386901557445526,-0.03957627713680267,-0.030742937698960304,-0.06513796746730804
0.55,-0.0035963456612080336,-0.03158092871308327,-0.001753644784912467,-0.05569193512201309,-0.01948840357363224,-0.08811642974615097
0.6,0.04845188185572624,-0.005237580742686987,-0.029285505414009094,-0.06321892887353897,-0.014028814621269703,-0.10494133830070496
0.65,0.07218629866838455,-0.010056493803858757,-8.982540020952001e-05,-0.04335417225956917,-0.005228716880083084,-0.07973133027553558
0.7,0.07816645503044128,-0.002428048988804221,0.024335023015737534,-0.025219321250915527,0.010339967906475067,-0.04069988429546356
0.75,0.0631474182009697,0.047414787113666534,-0.023738469928503036,-0.019802970811724663,0.017311474308371544,-0.022505108267068863
0.8,0.009471505880355835,0.05813312903046608,-0.050055235624313354,-0.010487101972103119,0.010713650844991207,-0.011289871297776699
0.85,-0.006030119955539703,-0.02575397677719593,0.013245766051113605,-0.004517293535172939,0.006172444671392441,-0.000255585735430941
0.9,0.052765943109989166,0.001112941186875105,0.007242459803819656,0.0016031875275075436,0.002596308011561632,0.013165738433599472
0.95,0.053767476230859756,0.0080642718821764,-0.015365180559456348,0.019032366573810577,-2.7152702386956662e-05,0.03774070367217064
1.0,-0.00374525785446167,-0.06121731176972389,0.0371185839176178,0.08285678178071976,-0.0030483610462397337,0.11870363354682922
1.05,-0.09516938030719757,-0.09641551971435547,0.13960108160972595,0.24408374726772308,-0.010283957235515118,0.3256492018699646
1.1,-0.10754972696304321,-0.00038813528954051435,0.13418978452682495,0.39467698335647583,-6.657506310148165e-05,0.5465742349624634
1.15,-0.08274146169424057,0.20749381184577942,0.049588751047849655,0.3483532965183258,0.04895436391234398,0.5182647705078125
1.2,-0.10071825236082077,0.14914800226688385,0.05530168116092682,0.19157570600509644,0.0622013695538044,0.30419716238975525
1.25,-0.09064902365207672,-0.01521015353500843,0.0376245342195034,0.07143294811248779,0.0552375465631485,0.11457273364067078
1.3,-0.08429168164730072,-0.010669713839888573,-0.010351129807531834,-0.018320437520742416,0.04642033576965332,-0.03902607411146164
1.35,-0.046259891241788864,0.03361797332763672,-0.0012792653869837523,-0.09474066644906998,0.013472982682287693,-0.1538773626089096
1.4,-0.019324777647852898,0.10917283594608307,0.011021544225513935,-0.16090232133865356,-0.003861264558508992,-0.21605217456817627
1.45,-0.08221078664064407,0.12112904340028763,-0.008704017847776413,-0.1800345778465271,-0.01769569329917431,-0.2410905957221985
1.5,-0.05297347158193588,0.05235481634736061,-0.004386541899293661,-0.17223043739795685,-0.03738259896636009,-0.26390042901039124
1.55,-0.05216854065656662,0.007342333439737558,-0.035094887018203735,-0.1558322161436081,-0.04613776504993439,-0.2505319118499756
1.6,-0.10012771189212799,0.04183005541563034,-0.07488890737295151,-0.12506714463233948,-0.02580318972468376,-0.2017996460199356
1.65,0.09742683172225952,0.0023460406810045242,-0.02305966056883335,-0.10238805413246155,0.011736229062080383,-0.18052804470062256
1.7,0.25427085161209106,0.011863717809319496,-0.034084901213645935,-0.07599285244941711,0.07058367133140564,-0.1569451540708542
1.75,0.1996261477470398,0.009198183193802834,-0.13362963497638702,-0.06247851252555847,0.12813332676887512,-0.13245457410812378
1.8,0.17408162355422974,-0.034156810492277145,-0.12912233173847198,-0.06375149637460709,0.12836559116840363,-0.11874286830425262
1.85,0.2399234175682068,0.08162880688905716,-0.08178085833787918,-0.08881193399429321,0.08463708311319351,-0.10066139698028564
1.9,0.34904709458351135,0.017916694283485413,-0.024792460724711418,-0.14824675023555756,0.06749685853719711,-0.0859176516532898
1.95,0.4609120786190033,-0.1503896564245224,0.10127714276313782,-0.1742888242006302,0.1196473091840744,-0.041309889405965805
2.0,0.6026790738105774,-0.33365726470947266,0.09104933589696884,-0.11160914599895477,0.24091769754886627,0.040477149188518524
2.05,0.27863699197769165,-0.9644309282302856,0.029636431485414505,0.047000132501125336,0.407526433467865,0.12754148244857788
2.1,-0.7270389795303345,-0.9577466249465942,0.26557472348213196,0.23653823137283325,0.6607320308685303,0.3167082965373993
2.15,-1.6812081336975098,0.3265857994556427,0.532106339931488,0.4118425250053406,0.8518610000610352,0.5631036758422852
2.2,-2.0555310249328613,0.7314414978027344,0.5358481407165527,0.6774722933769226,0.7180841565132141,0.7094959616661072
2.25,-1.4271773099899292,0.309055358171463,0.4896452724933624,0.9786350727081299,0.41506531834602356,0.8932250142097473
2.3,-0.5188698768615723,0.18363481760025024,0.586715817451477,0.7805682420730591,0.2706410884857178,0.6859163641929626
2.35,-0.1317169964313507,0.015891164541244507,0.8439186215400696,0.34243044257164,0.30830010771751404,0.0910605788230896
2.4,1.0027735233306885,0.6713210940361023,0.5534656643867493,0.35673585534095764,0.41234123706817627,-0.03935661539435387
2.45,1.0299804210662842,0.9470254182815552,-0.45128342509269714,0.2666146755218506,0.648779571056366,0.0624043233692646
2.5,-0.7798700332641602,-0.19102594256401062,-1.2876158952713013,-0.14361584186553955,0.7714007496833801,-0.07677866518497467
2.55,-0.5724285840988159,-0.7207633852958679,-0.9255995750427246,-0.2880996763706207,0.48271605372428894,-0.19856923818588257
2.6,0.8125584721565247,-1.042965054512024,-0.03589630499482155,-0.14324906468391418,0.1984279304742813,-0.017080048099160194
2.65,0.9192644953727722,-0.7851801514625549,0.14375123381614685,-0.029281966388225555,0.3566357493400574,0.21531245112419128
2.7,0.1691778302192688,0.6923123002052307,0.1532064974308014,-0.010442785918712616,0.8171072006225586,0.2700560688972473
2.75,-0.6506829261779785,0.9529820084571838,-0.43619316816329956,-0.2634654641151428,1.3455883264541626,0.26898375153541565
2.8,-1.171126365661621,0.22343909740447998,-0.8361579179763794,-0.23474830389022827,1.5761020183563232,0.2606242001056671
2.85,-0.5320608019828796,-0.030818037688732147,-0.2229698747396469,0.08307557553052902,1.6442092657089233,0.10906128585338593
2.9,-0.02835283800959587,-0.22583773732185364,-0.04957563802599907,0.09078565239906311,1.877766728401184,0.0619085356593132
2.95,-0.25882288813591003,-0.3725605607032776,-0.22566990554332733,0.02257414348423481,2.025057792663574,0.11954294145107269
3.0,-0.4305567443370819,-0.22123917937278748,-0.35986649990081787,-0.0662933737039566,1.9467360973358154,0.25950807332992554
3.05,-0.5892235040664673,-0.08558952063322067,-0.7031317949295044,-0.17948421835899353,1.6277657747268677,0.3863562047481537
3.1,-0.5955190062522888,-0.017617367208003998,-1.0241447687149048,-0.24748417735099792,1.2592594623565674,0.432028204202652
3.15,-0.024328917264938354,0.030033929273486137,-1.2491350173950195,-0.27110040187835693,1.0930973291397095,0.3493275046348572
3.2,0.25106683373451233,-0.2818261682987213,-1.0942518711090088,-0.35663238167762756,1.0706504583358765,0.12172828614711761
3.25,-0.3537425994873047,-0.41564756631851196,0.2720225155353546,-0.20275400578975677,0.9077588319778442,-0.1831483542919159
3.3,-0.3213082551956177,0.7985575795173645,1.507153868675232,0.08681733161211014,0.6017246246337891,-0.3346821069717407
3.35,0.689475417137146,1.5162147283554077,1.2461470365524292,0.1096411943435669,0.386373370885849,-0.2449266016483307
3.4,-0.44535255432128906,1.5054495334625244,0.4826827049255371,0.2473355084657669,0.3736070990562439,-0.14369726181030273
3.45,-1.1186573505401611,0.5249500870704651,0.26201918721199036,0.2517293691635132,0.3471294045448303,0.1440088301897049
3.5,0.428633451461792,-1.0244779586791992,0.48428967595100403,0.133260577917099,0.1848062127828598,0.3647894561290741
3.55,0.5068452954292297,-0.5478887557983398,0.32797491550445557,0.23148494958877563,0.23278218507766724,0.1940670609474182
3.6,0.4157770872116089,0.012487458065152168,0.24337220191955566,0.24536725878715515,0.41336140036582947,0.14899487793445587
3.65,0.49054259061813354,-0.0704793855547905,-0.05471726506948471,0.1987813413143158,0.616560697555542,0.2880077660083771
3.7,0.385589599609375,-0.2217264324426651,-0.04502425715327263,0.24100814759731293,0.7329204678535461,0.4163956940174103
3.75,0.29225417971611023,-0.4230089783668518,-0.03161610662937164,0.3238818347454071,0.7392619848251343,0.4589313268661499
3.8,0.5679457187652588,-0.45554739236831665,-0.10030482709407806,0.4266752600669861,0.6956488490104675,0.39265871047973633
3.85,0.9820855855941772,-0.4178600609302521,-0.01932387612760067,0.50688636302948,0.6493039131164551,0.3037918508052826
3.9,0.9811084270477295,-0.42408084869384766,0.1251721829175949,0.5190883278846741,0.6005317568778992,0.258742094039917
3.95,0.40861576795578003,-0.6788759231567383,0.6009129881858826,0.44538193941116333,0.5143489837646484,0.18979205191135406
4.0,-0.11644759774208069,-1.166203498840332,0.8825182318687439,0.36030781269073486,0.27391207218170166,0.058357786387205124
4.05,-0.02575584501028061,-1.5079596042633057,0.35804036259651184,0.4109484553337097,-0.150157168507576,-0.1618516594171524
4.1,0.6615514159202576,-1.3490830659866333,-0.4505012333393097,0.6302191615104675,-0.459431916475296,-0.43066295981407166
4.15,0.9771087169647217,-0.7486649751663208,-1.0584194660186768,1.02493155002594,-0.49396950006484985,-0.7203970551490784
4.2,-0.5747211575508118,0.5441024899482727,-1.673045039176941,1.880009651184082,-0.41305118799209595,-1.1573539972305298
4.25,-1.8644554615020752,3.3699352741241455,-0.6447362899780273,3.4377973079681396,-0.08775843679904938,-1.9367831945419312
4.3,-0.6453203558921814,3.243285894393921,2.000661611557007,4.11146354675293,0.5022155046463013,-2.2627522945404053
4.35,1.024742603302002,3.0074050426483154,2.73415207862854,2.8330636024475098,0.5099570155143738,-1.3696379661560059
4.4,-0.16484493017196655,2.4473414421081543,2.7547476291656494,1.9679453372955322,0.16195082664489746,-0.6814725399017334
4.45,-1.2633136510849,-0.3937549591064453,1.1304247379302979,1.8191865682601929,0.5099594593048096,-0.6620393991470337
4.5,0.5737460255622864,-0.46452319622039795,1.305692434310913,1.7498432397842407,0.7775163650512695,-0.5079900026321411
4.55,-0.45976758003234863,-0.18358023464679718,1.7589526176452637,1.3839495182037354,0.7528324723243713,-0.19699540734291077
4.6,-1.4929239749908447,-0.09093471616506577,0.9751912355422974,1.0114097595214844,0.7376829385757446,0.0323331356048584
4.65,-0.046374306082725525,-0.22780032455921173,0.7499150633811951,0.8289640545845032,0.7119312286376953,-0.010655020363628864
4.7,-0.5544447898864746,-0.10116669535636902,0.589579701423645,0.6489629149436951,0.4930284917354584,0.11989937722682953
4.75,-1.213894248008728,0.2822408676147461,0.2623441517353058,0.4759752154350281,0.3251279890537262,0.029862890020012856
4.8,-0.43844494223594666,0.06690598279237747,0.1911730170249939,0.4064238965511322,0.22895030677318573,-0.1173524484038353
4.85,-0.25415271520614624,0.027493521571159363,0.46500736474990845,0.3176555037498474,0.1602686196565628,-0.09805754572153091
4.9,-0.13440579175949097,0.6590224504470825,0.5137407183647156,0.21475006639957428,0.10512933135032654,-0.01567251794040203
4.95,-0.3385782539844513,0.8629008531570435,0.25857311487197876,0.09321215003728867,0.011508760042488575,0.063825324177742
5.0,-0.45157134532928467,0.5958338379859924,0.09549551457166672,0.027397438883781433,-0.049970854073762894,0.057898350059986115
5.05,-0.8697913885116577,0.5835971832275391,0.03702298924326897,-0.018425550311803818,-0.076865553855896,-0.004366438835859299
5.1,-0.7627004384994507,0.6504097580909729,0.25690099596977234,-0.019050780683755875,-0.06318524479866028,-0.11917899549007416
5.15,-0.6124727725982666,0.6958819031715393,0.3698541820049286,-0.06737471371889114,-0.005738735198974609,-0.23632673919200897
5.2,-0.49907124042510986,0.2638559639453888,0.27778446674346924,-0.04056663066148758,0.056168969720602036,-0.36761799454689026
5.25,-0.1488199532032013,0.03605751320719719,0.40263861417770386,-0.1469603180885315,0.03832341358065605,-0.41825878620147705
5.3,0.055068764835596085,-0.05576132982969284,0.12005701661109924,-0.5273219347000122,-0.06285825371742249,-0.3708307147026062
5.35,0.16022981703281403,-0.3405933678150177,-0.09570586681365967,-0.6688783764839172,-0.1713005155324936,-0.3915552496910095
5.4,0.35511747002601624,-0.3368845283985138,-0.26573970913887024,-0.8547253608703613,-0.25476688146591187,-0.38006070256233215
5.45,0.3455525040626526,-1.0721867084503174,-1.176716923713684,-1.1028541326522827,-0.30651700496673584,-0.2481553554534912
5.5,0.12790104746818542,-1.2603256702423096,-1.036295771598816,-0.836769163608551,-0.3426574766635895,-0.10467741638422012
5.55,-0.22856679558753967,0.09712125360965729,0.06703190505504608,-0.5038822889328003,-0.46049588918685913,-0.049301352351903915
5.6,0.23406222462654114,0.6580020189285278,0.24028991162776947,-0.7500896453857422,-0.49963587522506714,-0.10932807624340057
5.65,0.43791067600250244,0.16767117381095886,-0.5257630944252014,-1.199450135231018,-0.39508330821990967,-0.11486335098743439
5.7,0.4252361059188843,-1.0068018436431885,-1.4834321737289429,-1.2858080863952637,-0.26966312527656555,-0.0733385682106018
5.75,0.6603091359138489,-0.8572685718536377,-1.30607271194458,-0.7177497148513794,-0.13061809539794922,-0.04676574468612671
5.8,0.8675221800804138,-0.1916237324476242,-0.41000598669052124,-0.3311702609062195,-0.0017099505057558417,0.028210490942001343
5.85,0.9894733428955078,-0.1158447340130806,-0.3271714746952057,-0.3388805687427521,0.059939052909612656,0.17734341323375702
5.9,0.370113343000412,0.19717027246952057,-0.2660537660121918,-0.4738105833530426,0.011816270649433136,0.3057006895542145
5.95,0.29477256536483765,0.032193176448345184,-0.20872050523757935,-0.5846526622772217,-0.060779720544815063,0.29312819242477417
6.0,0.4780265986919403,-0.033182136714458466,-0.08031909167766571,-0.654923677444458,-0.07540468126535416,0.326264351606369
6.05,0.49841105937957764,0.1388140320777893,0.1416206657886505,-0.7446821331977844,-0.0610944926738739,0.4195628762245178
6.1,0.388100802898407,-0.061984024941921234,0.24747854471206665,-0.9149828553199768,-0.11441205441951752,0.6014716625213623
6.15,0.18966521322727203,0.05057338997721672,0.23640850186347961,-0.871918797492981,-0.14495833218097687,0.6610826253890991
6.2,0.10324466973543167,0.0018949781078845263,0.20241335034370422,-0.7711891531944275,-0.13776513934135437,0.466865211725235
6.25,0.010280855000019073,-0.1766948401927948,0.33623379468917847,-0.8456760048866272,-0.20557938516139984,0.44734448194503784
6.3,0.14071255922317505,-0.4232674241065979,-0.1372835487127304,-0.9407898783683777,-0.2640792727470398,0.5490379929542542
6.35,0.26184242963790894,-0.1235676258802414,-0.3665786683559418,-0.9668854475021362,-0.35694897174835205,0.4138076603412628
6.4,-0.14376488327980042,0.14787383377552032,-0.5220949053764343,-1.2372723817825317,-0.5073213577270508,0.3424106240272522
6.45,-0.5710568428039551,-0.007409239187836647,-1.061068058013916,-1.6120986938476562,-0.6485884785652161,0.4400043785572052
6.5,-1.1563719511032104,-0.09964195638895035,-0.8190287351608276,-1.3907054662704468,-0.6581557393074036,0.4363633692264557
6.55,-1.8393526077270508,-0.7081424593925476,-0.3297511637210846,-1.1077220439910889,-0.5518102049827576,0.3633289933204651
6.6,-2.063469648361206,-0.49897879362106323,-0.33677244186401367,-0.6990121603012085,-0.49797433614730835,0.21674160659313202
6.65,-2.0633387565612793,-0.29713258147239685,0.23654821515083313,-0.5212097764015198,-0.4458872377872467,0.15935775637626648
6.7,-1.5701347589492798,-0.5762606263160706,0.6442786455154419,-0.4975569546222687,-0.3105338513851166,0.1628553420305252
6.75,-1.361785888671875,-0.56744384765625,0.9407413005828857,-0.37053006887435913,-0.026620954275131226,0.2518192231655121
6.8,-1.554369568824768,-0.2503109574317932,0.26587483286857605,-0.32600468397140503,0.1655438393354416,0.3330860435962677
6.85,-1.5144473314285278,0.49613186717033386,-0.1597052812576294,-0.17378787696361542,0.12182290107011795,0.38951849937438965
6.9,-0.6872687935829163,1.5037853717803955,0.1127358078956604,-0.010092407464981079,0.004842160735279322,0.39180439710617065
6.95,1.641268253326416,0.5147714614868164,-1.1150009632110596,-0.3206329345703125,0.12464849650859833,0.3731534481048584
7.0,2.0169477462768555,0.8908566832542419,-2.3740062713623047,-0.2602282166481018,0.45205265283584595,0.4671211242675781
7.05,1.1064579486846924,0.48938652873039246,-1.2596261501312256,0.16715878248214722,0.2725015878677368,0.35282397270202637
7.1,1.2691059112548828,-0.6468220353126526,-0.45816805958747864,0.21519961953163147,-0.010812018997967243,0.2833273410797119
7.15,1.3696273565292358,-0.5590105056762695,0.05946805328130722,0.2411799132823944,-0.09061615914106369,0.12600776553153992
7.2,0.8401057124137878,-1.1234380006790161,-0.009998545050621033,-0.027399033308029175,-0.14467157423496246,-0.004613135475665331
7.25,1.0851975679397583,-1.0026179552078247,-0.1947890669107437,-0.10434961318969727,-0.26707735657691956,-0.23414501547813416
7.3,1.6057024002075195,-0.4687633812427521,-0.390640527009964,-0.15015393495559692,-0.3372555077075958,-0.4035971760749817
7.35,1.4097623825073242,0.45769986510276794,-0.3573167026042938,-0.10323622822761536,-0.3627837002277374,-0.5253939628601074
7.4,1.1499598026275635,1.7355844974517822,-0.24778670072555542,-0.02775716781616211,-0.23685245215892792,-0.43946772813796997
7.45,0.2301226705312729,1.221309781074524,-0.09640716761350632,-0.348378449678421,-0.036790505051612854,-0.17597121000289917
7.5,-1.1769205331802368,-0.863543689250946,-0.19580920040607452,-0.7739627361297607,-0.07230719178915024,-0.14632059633731842
7.55,-2.173943042755127,-0.29973047971725464,-0.6218568682670593,-0.3862125873565674,-0.40765053033828735,-0.377560555934906
7.6,-1.0751276016235352,0.7497062087059021,-0.7862119674682617,-0.1272425353527069,-0.5643351078033447,-0.42140889167785645
7.65,-0.7861821055412292,-0.2154475897550583,-0.896304190158844,-0.28191712498664856,-0.6153462529182434,-0.4095117449760437
7.7,-1.596513032913208,-0.9469931125640869,-0.2692093253135681,-0.22705236077308655,-0.7394669651985168,-0.4837477207183838
7.75,-1.014709234237671,-0.6143580079078674,0.5885679125785828,-0.07451387494802475,-0.8385463953018188,-0.48210713267326355
7.8,0.037158846855163574,0.05266207456588745,1.5172059535980225,0.14166714251041412,-0.6694433093070984,-0.2844732701778412
7.85,-1.134761095046997,-0.5987348556518555,1.06108820438385,-0.10533982515335083,-0.37723278999328613,-0.08625834435224533
7.9,-1.4324308633804321,-0.7662592530250549,0.9171949625015259,-0.3314858675003052,-0.32454806566238403,-0.0617227703332901
7.95,-0.31058064103126526,-0.17302800714969635,0.0875217542052269,-0.26414138078689575,-0.35550054907798767,-0.028117327019572258
8.0,0.1761266142129898,0.23737044632434845,-0.7464966773986816,-0.06843259185552597,-0.2961547374725342,0.1682448834180832
8.05,0.1204017847776413,1.0464030504226685,0.03399718552827835,-0.09581848233938217,-0.2650710642337799,0.32554492354393005
8.1,-0.23099683225154877,-0.4265108108520508,0.5669261813163757,-0.30483725666999817,-0.3367176949977875,-0.06923484057188034
8.15,0.3203631043434143,-0.2075328826904297,0.19531434774398804,-0.11403898894786835,0.15287818014621735,-0.128040611743927
8.2,-0.7377467155456543,0.3746546804904938,-0.6684873700141907,0.17307208478450775,0.3111298680305481,0.03429005667567253
8.25,-0.03319230675697327,-0.26257142424583435,-0.6114872097969055,0.3166346549987793,-0.039602130651474,-0.15165984630584717
8.3,0.73823082447052,0.09459691494703293,0.03822601959109306,0.18953381478786469,-0.16455845534801483,-0.22098080813884735
8.35,0.3918958306312561,-0.17536546289920807,-0.1692269891500473,0.11595481634140015,-0.05140477046370506,-0.15213415026664734
8.4,-0.06563571095466614,-0.17800623178482056,-0.44276490807533264,0.1454208493232727,-0.0878925621509552,-0.16817288100719452
8.45,0.5018059015274048,-0.33688071370124817,-0.20424726605415344,0.11414793133735657,-0.18619294464588165,-0.2443709522485733
8.5,0.6789505481719971,-0.09591002017259598,0.369178831577301,0.13369396328926086,-0.14261046051979065,-0.23436443507671356
8.55,0.468086838722229,0.2116156816482544,0.6712460517883301,0.16370466351509094,-0.03928517922759056,-0.08714201301336288
8.6,0.11693184822797775,0.24130353331565857,0.5348675847053528,0.12475507706403732,-0.016981888562440872,0.0003997141611762345
8.65,-0.258426308631897,0.06623747199773788,0.22547300159931183,0.048862773925065994,-0.055253490805625916,-0.028938129544258118
8.7,-0.08183860778808594,0.16199401021003723,0.1914101094007492,0.015301195904612541,-0.1378791481256485,-0.033569883555173874
8.75,-0.0392417386174202,-0.13223077356815338,-0.028521740809082985,-0.037417568266391754,-0.24394947290420532,-0.029714997857809067
8.8,0.14455515146255493,-0.20737746357917786,0.00569562753662467,-0.015790903940796852,-0.36908426880836487,-0.03875260427594185
8.85,0.6466242074966431,0.13302142918109894,0.3285137414932251,0.09010279923677444,-0.4021371603012085,-0.016923915594816208
8.9,0.5213465690612793,0.09037119895219803,0.311463862657547,0.005581414792686701,-0.22999298572540283,0.0025464044883847237
8.95,0.15167587995529175,0.025455500930547714,0.13385877013206482,-0.05886596813797951,-0.047034844756126404,0.00648186169564724
9.0,-0.136738583445549,-0.07460593432188034,0.15519747138023376,-0.11546793580055237,0.06999535113573074,0.01019900944083929
9.05,-0.22050148248672485,-0.07609082013368607,0.10017525404691696,-0.13454127311706543,0.12053490430116653,-0.0050723073072731495
9.1,-0.22869406640529633,-0.09394743293523788,0.03670121729373932,-0.12547558546066284,0.11262857168912888,-0.038216762244701385
9.15,-0.17945636808872223,-0.11818888038396835,-0.02515748143196106,-0.11323387175798416,0.09095288813114166,-0.05071133375167847
9.2,-0.17323771119117737,-0.18098165094852448,0.026458334177732468,-0.11383090913295746,0.0671655535697937,-0.04527616128325462
9.25,-0.08308011293411255,-0.06818675994873047,0.07457346469163895,-0.07017943263053894,0.034898508340120316,-0.023529060184955597
9.3,-0.0031510405242443085,-0.09943008422851562,0.13108384609222412,-0.0719718411564827,0.032788366079330444,-0.010197915136814117
9.35,0.08185376226902008,-0.047186851501464844,0.04476284608244896,-0.10060051083564758,0.05120185762643814,-0.01813407428562641
9.4,-0.06194467842578888,0.01722717098891735,-0.015699248760938644,-0.2145100086927414,0.10886868834495544,-0.04252665862441063
9.45,-0.20532774925231934,-0.015242595225572586,-0.06721578538417816,-0.36730530858039856,0.1307346373796463,-0.06259163469076157
9.5,-0.12097272276878357,-0.14858150482177734,0.14314185082912445,-0.2735702395439148,0.07602335512638092,-0.05547964572906494
9.55,0.02135804295539856,0.09770875424146652,0.29633939266204834,-0.12192168831825256,0.025639163330197334,-0.041047025471925735
9.6,-0.33792006969451904,0.06539154797792435,0.13944299519062042,-0.08866215497255325,-0.017384571954607964,-0.02593844383955002
9.65,-0.05937271565198898,0.0660877376794815,0.09808403998613358,-0.09676069021224976,-0.08465266972780228,-0.028841504827141762
9.7,0.23895442485809326,0.08614448457956314,0.17164914309978485,-0.1329367309808731,-0.09875693917274475,-0.04013446718454361
9.75,0.3013923168182373,-0.051395393908023834,0.13967502117156982,-0.1673915833234787,-0.03537611663341522,-0.04267260432243347
9.8,0.5053239464759827,-0.09800717234611511,0.18258130550384521,-0.1640043705701828,0.06672016531229019,-0.06356353312730789
9.85,0.5609377026557922,-0.06040474399924278,0.14785589277744293,-0.1403130739927292,0.22890740633010864,-0.06268898397684097
9.9,0.22819437086582184,-0.2773895263671875,0.12008462846279144,-0.09269861876964569,0.4261624813079834,-0.01036799605935812
9.95,-0.2966737151145935,-0.06934647262096405,-0.19245915114879608,-0.015263685956597328,0.4952520728111267,0.06489258259534836
10.0,-0.6565059423446655,0.017751634120941162,-0.2947925925254822,0.008905291557312012,0.3898905813694,0.11935204267501831
10.05,-0.4019967317581177,-0.1984616219997406,-0.36855199933052063,-0.007198065519332886,0.18007197976112366,0.11948946863412857
10.1,-0.2493191808462143,-0.13966946303844452,-0.10671190172433853,-0.018475284799933434,-0.0255912933498621,0.09564287960529327
10.15,-0.3583715260028839,-0.1939573734998703,0.03221729397773743,-0.009686179459095001,-0.14339877665042877,0.12382738292217255
10.2,-0.6719622611999512,-0.24374204874038696,-0.05237002670764923,0.057438530027866364,-0.2722214460372925,0.16229034960269928
10.25,-0.588901698589325,-0.12266923487186432,0.24132712185382843,0.16230016946792603,-0.4363829791545868,0.19246287643909454
10.3,-0.19856630265712738,0.2160225808620453,0.5978491306304932,0.1687631756067276,-0.45887598395347595,0.1744825839996338
10.35,-0.18650096654891968,0.01743611879646778,0.8792308568954468,0.12373844534158707,-0.31056034564971924,0.1300644427537918
10.4,-0.6100636124610901,-0.25162315368652344,0.63609778881073,0.1312619000673294,-0.05104026570916176,0.17864374816417694
10.45,-0.6437301635742188,-0.20760245621204376,0.9100106954574585,0.13310308754444122,0.2051076889038086,0.2510251998901367
10.5,-0.8771213889122009,-0.5168246626853943,1.1762741804122925,0.09644932299852371,0.3846755027770996,0.27023157477378845
10.55,-1.073501706123352,-0.2951612174510956,1.0745790004730225,0.060696791857481,0.49941369891166687,0.32824617624282837
10.6,-0.790047287940979,0.6928473711013794,0.7412024140357971,0.10878722369670868,0.5837504863739014,0.37219807505607605
10.65,-0.10035459697246552,1.6918261051177979,-0.26854029297828674,0.05291670933365822,0.6712155342102051,0.28490492701530457
10.7,-0.36245015263557434,2.2983579635620117,-1.2337316274642944,-0.07846683263778687,0.5109944343566895,0.20717035233974457
10.75,1.648730754852295,1.5479633808135986,-0.9434565901756287,0.1921406388282776,0.26329436898231506,0.12329808622598648
10.8,3.0974624156951904,0.6994343996047974,-0.7260890007019043,0.10337600111961365,0.37956809997558594,0.5395974516868591
10.85,1.2002220153808594,0.45858296751976013,-0.12494448572397232,-0.06254971027374268,0.23137496411800385,0.7226253747940063
10.9,-0.5253500938415527,-0.4935503602027893,0.23797833919525146,-0.19047237932682037,-0.19481198489665985,0.5335781574249268
10.95,0.011337429285049438,-0.8835716843605042,0.4851229786872864,0.017771510407328606,-0.5710562467575073,0.028943294659256935
11.0,1.262381672859192,-0.7355642318725586,-0.08562347292900085,0.1944042295217514,-0.5226953625679016,-0.05314401537179947
11.05,0.6290122866630554,-0.6705265641212463,-0.22701184451580048,0.051765572279691696,-0.3195478618144989,0.051763683557510376
11.1,0.24264760315418243,-0.6290035843849182,-0.19806043803691864,0.06396976113319397,-0.31444668769836426,0.06502899527549744
11.15,0.899272620677948,-0.6047068238258362,-0.10333029925823212,0.20529907941818237,-0.3846590518951416,0.013649924658238888
11.2,1.2320168018341064,-0.5021018385887146,0.329306423664093,0.2615969777107239,-0.2901380658149719,0.040738049894571304
11.25,0.9485659599304199,-0.31235596537590027,0.22439217567443848,0.4109421670436859,-0.10272113978862762,0.01867014355957508
11.3,0.2935066521167755,-0.4540214240550995,0.6727250814437866,0.48713770508766174,-0.005705112591385841,-0.034728020429611206
11.35,0.004843771457672119,0.0021011277567595243,1.6473524570465088,0.4693663418292999,-0.06752906739711761,-0.14002098143100739
11.4,-0.2610201835632324,0.6359628438949585,2.6999852657318115,0.277698278427124,-0.276708722114563,-0.2982117235660553
11.45,-1.255063533782959,0.3122560977935791,2.4199557304382324,-0.22061926126480103,-0.5296134948730469,-0.49513253569602966
11.5,0.8047492504119873,0.15140743553638458,1.3041107654571533,-0.6223359107971191,-0.5996482372283936,-0.6890317797660828
11.55,4.215277671813965,2.005833864212036,-1.5875364542007446,-0.33666273951530457,-0.12453870475292206,-0.37159064412117004
11.6,0.40424644947052,-0.44392502307891846,-0.7656305432319641,-0.5741371512413025,0.8036375045776367,0.3505341112613678
11.65,-2.857562780380249,-2.4553027153015137,-1.3594825267791748,-0.8270747065544128,0.7529284954071045,-0.017555594444274902
11.7,-0.10899068415164948,0.8208466172218323,-0.6740767359733582,0.3239898085594177,-0.12673304975032806,-0.5658696889877319
11.75,0.2599341571331024,1.1622915267944336,-1.4021834135055542,0.1730407476425171,-0.06750106811523438,-0.39597901701927185
11.8,-1.6898670196533203,-0.6755297780036926,-1.6780188083648682,-0.10464588552713394,0.13174346089363098,-0.05857449024915695
11.85,-1.1325156688690186,-0.28752821683883667,-0.8872220516204834,0.09233397990465164,-0.2700364589691162,-0.049672286957502365
11.9,-0.7970634698867798,0.16945353150367737,-0.587281346321106,0.12271814048290253,-0.5979265570640564,-0.09913124144077301
11.95,-0.6333962678909302,0.003560027340427041,-0.10679464042186737,0.1735617220401764,-0.7577638626098633,-0.12646204233169556
12.0,-0.4344162046909332,-0.24263280630111694,0.9117710590362549,0.0901637077331543,-0.7549881339073181,-0.09945802390575409
12.05,-0.4136880040168762,0.34463509917259216,0.6825900673866272,0.04346205294132233,-0.6690461039543152,-0.06213616952300072
12.1,-0.23628631234169006,0.46981343626976013,0.4310012459754944,0.04174226522445679,-0.5662334561347961,-0.13000856339931488
12.15,-0.42455920577049255,-0.13666632771492004,0.03921277076005936,-0.012406490743160248,-0.5104593634605408,-0.15293121337890625
12.2,-0.44383081793785095,-0.493627667427063,-0.3835465908050537,-0.04469284415245056,-0.4171863794326782,-0.0035611954517662525
12.25,0.6158249974250793,0.22259236872196198,-0.37648141384124756,0.052837055176496506,-0.370468407869339,0.010031928308308125
12.3,0.4043465852737427,0.33045387268066406,-0.5437028408050537,-0.024194790050387383,-0.26806867122650146,-0.056521445512771606
12.35,0.29313695430755615,0.39678290486335754,-0.32271426916122437,-0.1695842742919922,-0.19005773961544037,-0.028263568878173828
12.4,0.1404745876789093,-0.44394686818122864,0.26863372325897217,-0.18679961562156677,-0.15344016253948212,-0.10814447700977325
12.45,-0.07295934855937958,-0.260926216840744,0.459327757358551,-0.16799640655517578,0.05956026539206505,-0.014329373836517334
12.5,-0.8110246658325195,0.04699994623661041,0.3913494050502777,-0.21012015640735626,0.17436525225639343,0.07867947220802307
12.55,-0.4654439687728882,-0.08103275299072266,0.2758714556694031,-0.17565006017684937,-0.038151707500219345,0.01783868297934532
12.6,0.09483379125595093,0.011210485361516476,0.34947434067726135,-0.01584458351135254,-0.33758071064949036,-0.09152698516845703
12.65,0.24032676219940186,0.0037374915555119514,0.28018105030059814,-0.04338115453720093,-0.33480343222618103,-0.07083619385957718
12.7,0.2561337947845459,-0.12295816093683243,0.26218774914741516,-0.1431237757205963,-0.21133467555046082,-0.0035576550289988518
12.75,0.03447809815406799,-0.1205749362707138,0.2883320450782776,-0.16433875262737274,-0.1274796426296234,0.033453911542892456
12.8,0.047448769211769104,0.06871802359819412,0.5239186882972717,-0.18404331803321838,-0.06493300944566727,-0.02468668296933174
12.85,0.46650412678718567,0.26994144916534424,0.6636348962783813,-0.22669334709644318,0.1276407539844513,-0.07011215388774872
12.9,0.7746649384498596,0.0702735111117363,0.6461141109466553,-0.3040890693664551,0.3266516327857971,-0.1474246084690094
12.95,1.3263816833496094,-0.29976460337638855,-0.07776609808206558,-0.4466368854045868,0.512048602104187,-0.22050896286964417
13.0,0.4540773034095764,-0.612342894077301,-0.3437693119049072,-0.32766032218933105,0.6779578924179077,-0.1390356868505478
13.05,-0.0345047265291214,0.028919221833348274,-0.008966279216110706,-0.06678687036037445,0.6944066882133484,0.018507808446884155
13.1,-0.4644726812839508,0.47315606474876404,0.3184282183647156,0.04928725212812424,0.5857824683189392,0.1018156111240387
13.15,0.11969438195228577,-0.056008242070674896,0.9015204310417175,0.0655524730682373,0.49537014961242676,0.08340916782617569
13.2,0.2873111963272095,-0.6654644012451172,0.6176196336746216,0.08626069873571396,0.5562635064125061,0.09325041621923447
13.25,0.8286221027374268,-0.05074965953826904,0.8121134638786316,0.13530834019184113,0.6942619681358337,0.060793548822402954
13.3,0.846038818359375,-0.40950775146484375,0.29719001054763794,0.1274670511484146,0.866044282913208,0.05321207642555237
13.35,-0.45069020986557007,-0.0297698937356472,0.24994197487831116,0.1256345510482788,1.0539172887802124,0.05392993241548538
13.4,-0.4883738160133362,-0.10822194814682007,0.8951727151870728,0.03721269220113754,0.9781899452209473,-0.011321477591991425
13.45,-0.8108202219009399,0.07501135766506195,1.170152187347412,-0.1001637801527977,0.7717400193214417,-0.08047167956829071
13.5,-1.193819522857666,-0.34033963084220886,1.049985647201538,-0.2410368025302887,0.48746272921562195,-0.1818712055683136
13.55,-0.1348295360803604,-0.6378547549247742,-0.9482826590538025,-0.32180553674697876,0.1958191841840744,-0.30847427248954773
13.6,2.359896659851074,0.24233418703079224,-2.7460992336273193,-0.11223451793193817,0.40565207600593567,-0.06486963480710983
13.65,-1.833315134048462,-1.144775629043579,0.11892585456371307,0.06275275349617004,0.7717393636703491,1.0222841501235962
13.7,-1.0841307640075684,0.1326323002576828,0.7432001829147339,0.15229371190071106,0.6494103670120239,0.37990522384643555
13.75,1.9288129806518555,4.518191814422607,1.3397647142410278,0.5852315425872803,0.39680904150009155,-0.35341697931289673
13.8,-0.3897826075553894,0.15483003854751587,0.5090822577476501,-0.17910443246364594,1.0446735620498657,-0.13019734621047974
13.85,1.8147672414779663,-3.1528501510620117,-0.762017011642456,-0.36799365282058716,1.366546392440796,-0.2596656084060669
13.9,1.5914537906646729,-4.494030475616455,-3.6721436977386475,-0.17515873908996582,1.5930259227752686,-0.03625797852873802
13.95,-1.3922641277313232,-2.612701654434204,-3.967541456222534,0.26461201906204224,1.9001528024673462,0.19492898881435394
14.0,-2.6352601051330566,2.499530076980591,2.1078598499298096,0.35201889276504517,1.8233593702316284,-0.32849857211112976
14.05,3.7243967056274414,3.6707687377929688,2.104829788208008,0.44111111760139465,1.065242052078247,-0.42697060108184814
14.1,1.4128276109695435,5.226552963256836,3.293022394180298,0.07286831736564636,1.2464877367019653,0.34311768412590027
14.15,-0.158830463886261,-0.4457845389842987,0.8732612133026123,-0.6640810966491699,1.0520398616790771,0.5179527997970581
14.2,0.2254246473312378,-1.516205072402954,-0.0010220279218629003,0.04919901490211487,0.8000296950340271,0.20806169509887695
14.25,0.35834193229675293,-3.6088919639587402,-0.05782731994986534,-0.01987120509147644,0.6961199641227722,0.2872627079486847
14.3,0.9543042778968811,-2.389650583267212,-0.19626149535179138,0.07883458584547043,0.7747894525527954,0.010471402667462826
14.35,1.664812445640564,-1.0509835481643677,-0.6333269476890564,-0.09174929559230804,0.9584285616874695,-0.28858470916748047
14.4,3.449106216430664,-0.17367446422576904,-0.10078146308660507,-0.4047923684120178,1.1756409406661987,-0.2962052524089813
14.45,3.862302780151367,-0.23955051600933075,-0.532831609249115,-0.27523311972618103,1.2912684679031372,-0.18206679821014404
14.5,2.683027744293213,-0.4601525664329529,-0.0847051665186882,0.16683709621429443,1.234002709388733,-0.08568525314331055
14.55,0.08640420436859131,-0.4987451732158661,-1.5003281831741333,0.13117749989032745,0.7127006649971008,-0.11502455919981003
14.6,-2.290545701980591,8.681719779968262,-3.877061605453491,1.1291126012802124,0.21875672042369843,-1.5843133926391602
14.65,-4.672040939331055,4.121273994445801,5.064426898956299,2.161731243133545,1.0428615808486938,-1.5050837993621826
14.7,-4.484184265136719,-2.659327983856201,4.2718586921691895,-0.9750897884368896,-1.1212959289550781,0.09304328262805939
14.75,3.1955103874206543,0.4800604283809662,-3.1735410690307617,-0.8314384818077087,-0.8095191121101379,-0.625404417514801
14.8,-0.2801082730293274,1.1312283277511597,-2.2448220252990723,0.23683056235313416,1.1699219942092896,0.14344872534275055
14.85,-4.484082221984863,-0.6114577054977417,3.6143391132354736,-0.036008477210998535,1.7599036693572998,0.9496910572052002
14.9,-2.084157705307007,-0.3931064009666443,1.830021858215332,-0.23832403123378754,0.6361819505691528,0.03962522745132446
14.95,-0.4659876227378845,-0.06633660942316055,0.4199405908584595,-0.40726256370544434,0.07522473484277725,0.14982758462429047
15.0,-0.8717657923698425,-0.4151276648044586,1.714418888092041,-0.2724326252937317,-0.10112453997135162,0.5121010541915894
15.05,-1.1018636226654053,-0.024672411382198334,1.3347846269607544,-0.3260800242424011,-0.5851848721504211,0.5995149612426758
15.1,-1.1498109102249146,0.21690747141838074,-0.10224253684282303,-0.4369097948074341,-1.0210999250411987,0.6474641561508179
15.15,-1.3751530647277832,-0.20083437860012054,-0.19513735175132751,-0.40126359462738037,-1.1301090717315674,0.7381910085678101
15.2,-1.3527623414993286,-0.5687963962554932,-1.1485812664031982,-0.25318825244903564,-1.0506610870361328,0.6670964956283569
15.25,-0.7415615916252136,-0.6525717973709106,-0.5075620412826538,-0.07087298482656479,-0.841736376285553,0.34194982051849365
15.3,-0.8622480630874634,0.5889072418212891,-0.3246845602989197,-0.07373201102018356,-0.7738481760025024,0.24029794335365295
15.35,-0.3588469624519348,1.1397476196289062,-0.4560815393924713,-0.016203489154577255,-0.7054593563079834,0.14970563352108002
15.4,-0.66399085521698,1.0011035203933716,-0.05767148733139038,0.0922534391283989,-0.7407717108726501,-0.019631890580058098
15.45,0.1573868840932846,-0.0754232257604599,0.1293196827173233,-0.03143070638179779,-0.6630975008010864,-0.0426517091691494
15.5,1.0644654035568237,-1.9302656650543213,-0.26587581634521484,-0.21438291668891907,-0.5304920077323914,-0.027350079268217087
15.55,0.5422842502593994,-2.274202585220337,-0.0973428264260292,0.022630896419286728,-0.2327556163072586,0.0422789603471756
15.6,0.5243782997131348,-0.5370654463768005,0.8245691061019897,0.030228951945900917,-0.07475113123655319,-0.02500075101852417
15.65,1.6645399332046509,0.637757420539856,-0.31834307312965393,-0.23817262053489685,-0.03664615377783775,0.07755453884601593
15.7,1.3572826385498047,1.0887949466705322,0.015954982489347458,-0.17471352219581604,0.1305338442325592,-0.10335807502269745
15.75,0.3068944215774536,1.3174258470535278,0.1465209573507309,0.05036398768424988,0.5071204304695129,0.0046464065089821815
15.8,0.2838195264339447,0.2747240662574768,0.19199153780937195,-0.1103169247508049,0.44349271059036255,-0.07220905274152756
15.85,-0.31028130650520325,-0.4980812668800354,0.1990615427494049,-0.14743618667125702,0.27950727939605713,-0.22980600595474243
15.9,-0.6511164903640747,-1.075588345527649,0.4692496061325073,-0.098491370677948,0.0704810619354248,-0.1401352733373642
15.95,-0.8262117505073547,-1.365580677986145,0.2991231381893158,-0.056144438683986664,-0.12623438239097595,-0.07978943735361099
16.0,-0.3344970941543579,0.04653838276863098,0.3786410391330719,0.057998429983854294,-0.4579893946647644,-0.09077709913253784
16.05,0.32330334186553955,0.4444170594215393,-0.09126108139753342,-0.004394088871777058,-0.7042050361633301,-0.03883387893438339
16.1,0.7207302451133728,0.6281433701515198,-0.3431116044521332,-0.10660029947757721,-0.8046806454658508,-0.18880057334899902
16.15,0.9971839785575867,-0.19118408858776093,-0.5447448492050171,-0.03117624670267105,-0.643653929233551,-0.26677608489990234
16.2,0.7600629925727844,-0.3204984664916992,0.022872319445014,0.10801395773887634,-0.3547029197216034,-0.30114248394966125
16.25,0.19202814996242523,-0.15668673813343048,0.43036529421806335,0.15444639325141907,-0.1487475484609604,-0.32912030816078186
16.3,-0.2315700352191925,-0.137996643781662,0.5438812971115112,0.20023182034492493,-0.13921593129634857,-0.3521635830402374
16.35,-0.5453802347183228,0.1824694126844406,0.5419154167175293,0.13237246870994568,-0.2764478325843811,-0.28677505254745483
16.4,-0.7921645641326904,0.17275908589363098,0.48740479350090027,0.03663298115134239,-0.5390369296073914,-0.1671009063720703
16.45,-0.4433031976222992,0.08372784405946732,0.19980795681476593,0.05261897295713425,-0.7646965980529785,-0.08964385092258453
16.5,-0.12809444963932037,0.5606070160865784,0.06698118895292282,0.16003352403640747,-0.9229981303215027,0.32111990451812744
16.55,1.06899094581604,0.8532050251960754,1.109470248222351,0.04591866210103035,-1.3036726713180542,-0.17034438252449036
16.6,1.6117018461227417,-0.2693690061569214,0.800337016582489,-0.1376083791255951,-0.9941738247871399,-0.03182032331824303
16.65,0.2120712399482727,0.024323567748069763,0.8260941505432129,-0.24616259336471558,-0.5908680558204651,0.23247520625591278
16.7,-0.25242942571640015,0.05173114314675331,0.3276316523551941,-0.234431192278862,-0.5530548095703125,0.20466375350952148
16.75,-0.17125293612480164,-0.4015722870826721,-0.04768720641732216,-0.28273114562034607,-0.6672108769416809,0.07308880239725113
16.8,-0.9589197039604187,-0.1958198845386505,0.4043305218219757,-0.14583326876163483,-0.8545804023742676,-0.03113568387925625
16.85,-0.5745804905891418,0.1266937106847763,-0.07928645610809326,-0.03329622745513916,-0.9960364699363708,-0.05980600789189339
16.9,-0.09431333094835281,0.3262472152709961,-0.24779357016086578,-0.005889370106160641,-1.0883033275604248,-0.04547907039523125
16.95,-0.3147639334201813,-0.018667301163077354,-0.5839958190917969,-0.05851690098643303,-1.173855185508728,0.031169049441814423
17.0,0.24543911218643188,0.2071504443883896,-0.5490361452102661,-0.024110330268740654,-1.0842962265014648,0.00717509351670742
17.05,0.5004579424858093,0.23556716740131378,0.1637142300605774,-0.07973349839448929,-0.9779826998710632,0.018501901999115944
17.1,1.621584177017212,-0.04395757243037224,0.6283751726150513,-0.06676614284515381,-0.7977801561355591,7.885124796302989e-05
17.15,1.1098198890686035,-0.31579867005348206,0.6384791731834412,-0.1401718407869339,-0.41165637969970703,0.04566636681556702
17.2,0.9352524280548096,0.27990448474884033,0.44340425729751587,0.04361599311232567,-0.01676235906779766,0.14332444965839386
17.25,0.17513786256313324,0.32671648263931274,0.139970064163208,-0.071353018283844,0.3200930953025818,0.15332181751728058
17.3,-0.6188039779663086,0.07283876091241837,-0.034599073231220245,-0.14780570566654205,0.28893205523490906,0.16170905530452728
17.35,-0.8273987174034119,-0.10377123206853867,0.27941370010375977,-0.13082526624202728,-0.08170676231384277,0.06508438289165497
17.4,-0.0008150488138198853,0.06347280740737915,0.4468058943748474,-0.033830426633358,-0.3595718443393707,0.01932927407324314
17.45,1.1407395601272583,0.0119734862819314,0.48568519949913025,0.026892172172665596,-0.3746509552001953,0.01611943170428276
17.5,0.9479910731315613,-0.3519429862499237,0.07959963381290436,0.037645142525434494,-0.080058254301548,0.09708055108785629
17.55,0.4723416566848755,0.05068206787109375,-0.24184732139110565,-0.044425878673791885,0.24410216510295868,0.1792585402727127
17.6,0.060139596462249756,0.03544231504201889,-0.40368562936782837,-0.15127745270729065,0.3416302502155304,0.15208303928375244
17.65,-0.5783003568649292,-0.5076819658279419,-0.3564912974834442,-0.12494104355573654,0.26209625601768494,0.05171143636107445
17.7,-0.5531898736953735,-1.136551022529602,-0.01654909737408161,-0.06823552399873734,0.03825031593441963,-0.13101406395435333
17.75,0.40102529525756836,0.31733524799346924,0.6873651146888733,0.08977880328893661,-0.07811509072780609,-0.11386562138795853
17.8,0.6961140036582947,1.4961150884628296,1.501607894897461,0.17832054197788239,-0.01697590760886669,-0.09597523510456085
17.85,1.1724143028259277,0.8520110249519348,1.2745168209075928,0.04214649647474289,0.08544217795133591,0.09183835983276367
17.9,0.9344983100891113,-0.7056216597557068,0.801362931728363,0.03623252734541893,0.15956498682498932,0.26972174644470215
17.95,-0.7778658866882324,-0.8502274751663208,0.45620089769363403,0.10029157996177673,-0.025827443227171898,0.2818768322467804
18.0,-1.0467724800109863,-0.3324699401855469,0.6050121188163757,0.1221165657043457,-0.5074511170387268,0.14306288957595825
18.05,-0.4661675691604614,-0.2313070148229599,0.6408647298812866,0.08941783010959625,-0.9427590370178223,-0.05134207755327225
18.1,1.1282007694244385,0.2780962884426117,0.08220911026000977,0.06153706833720207,-1.0595015287399292,-0.18183575570583344
18.15,1.0496338605880737,0.6317455768585205,1.2805497646331787,0.09334428608417511,-0.7318993806838989,-0.06365031749010086
18.2,-0.02381815016269684,-0.45454883575439453,0.6461654305458069,-0.06526711583137512,-0.49376627802848816,0.10170061886310577
18.25,0.6720993518829346,-0.07210815697908401,0.8410335779190063,-0.040868133306503296,-0.5526315569877625,-0.09142076969146729
18.3,0.9617851972579956,0.751812219619751,0.7755225896835327,-0.040956590324640274,-0.37189966440200806,-0.0058471462689340115
18.35,-0.4656437039375305,0.12062262743711472,-0.046755075454711914,-0.1951814442873001,-0.12187465280294418,0.12855103611946106
18.4,-0.7470436692237854,0.223385751247406,-0.4962143898010254,-0.11648763716220856,-0.2744760811328888,0.13719052076339722
18.45,-0.38389256596565247,-0.024903398007154465,-0.7246443033218384,-0.0375162772834301,-0.5443117022514343,0.08043185621500015
18.5,-0.24247166514396667,-0.10501297563314438,-0.49952855706214905,-0.012751959264278412,-0.6831585168838501,0.03748957812786102
18.55,-0.0605476088821888,0.05682085081934929,-0.20955660939216614,-0.025028595700860023,-0.6810410618782043,0.05204202979803085
18.6,-0.2265947014093399,-0.22077660262584686,-0.0300782211124897,-0.01471168827265501,-0.5902562141418457,0.03151407465338707
18.65,0.12609060108661652,-0.27178671956062317,-0.009175359271466732,0.11882030963897705,-0.5066448450088501,-0.010678802616894245
18.7,0.43428128957748413,0.13000397384166718,0.035186901688575745,0.279629111289978,-0.37504565715789795,0.03130625933408737
18.75,-0.4261454939842224,-0.09812741726636887,-0.1818874478340149,0.29804354906082153,-0.26602742075920105,0.08488499373197556
18.8,-0.6014800071716309,-0.29607781767845154,-0.23806384205818176,0.25053274631500244,-0.3468494117259979,0.015496205538511276
18.85,-0.59833824634552,0.28270435333251953,0.09883969277143478,0.27421894669532776,-0.4970862567424774,0.02984185516834259
18.9,-0.13223037123680115,0.06239040195941925,0.6500654220581055,0.10264730453491211,-0.6181183457374573,-0.09780322760343552
18.95,0.46610331535339355,0.3182613253593445,1.2759771347045898,-0.05082894489169121,-0.48673269152641296,-0.18965090811252594
19.0,0.3036808371543884,0.2348109632730484,0.7547471523284912,-0.27372610569000244,-0.15668994188308716,-0.26080814003944397
19.05,-0.5051999092102051,0.142728790640831,-0.0423964224755764,-0.37204423546791077,-0.09232638031244278,-0.35064995288848877
19.1,-0.9365584850311279,-0.44624918699264526,-0.7545314431190491,-0.48118722438812256,-0.23941433429718018,-0.3973011374473572
19.15,-0.7489520907402039,-0.43141862750053406,-1.1066240072250366,-0.4746112525463104,-0.6468466520309448,-0.3760116398334503
19.2,0.018300741910934448,-0.4946652948856354,-0.8663315773010254,-0.425866961479187,-1.029361367225647,-0.3652813732624054
19.25,0.5037727355957031,-0.04989428445696831,0.31053128838539124,-0.21836715936660767,-1.1807411909103394,-0.2441817969083786
19.3,0.5056469440460205,0.066290944814682,0.5700433850288391,0.01590535417199135,-1.0328956842422485,-0.09485412389039993
19.35,0.5798077583312988,-0.12620534002780914,0.9106807708740234,0.18999013304710388,-0.7481944561004639,-0.03766182065010071
19.4,0.4934064745903015,-0.056722551584243774,0.6867772340774536,0.26052117347717285,-0.36806705594062805,0.033217258751392365
19.45,0.6323752403259277,-0.2638568580150604,0.3994123935699463,0.2993919253349304,-0.0509578101336956,0.10459563136100769
19.5,0.7448188066482544,0.31796470284461975,0.7915272116661072,0.3012055456638336,0.2162458598613739,0.14938896894454956
19.55,0.3616858124732971,0.3033934533596039,0.284040242433548,0.134947270154953,0.5619062185287476,0.09304086863994598
19.6,-0.37722474336624146,0.012911717407405376,-0.5825384259223938,-0.002308863215148449,0.6960970163345337,0.045691028237342834
19.65,-1.2323768138885498,-0.13489554822444916,-1.3307589292526245,-0.10287310928106308,0.4698467552661896,-0.025371670722961426
19.7,-1.0327531099319458,0.09983713924884796,-1.2295925617218018,-0.10215560346841812,-0.005450024269521236,-0.03035450540482998
19.75,-0.6042056679725647,0.07075019180774689,-0.23904605209827423,-0.026875197887420654,-0.4528908133506775,0.01372677180916071
19.8,0.0560348778963089,-0.1473492980003357,0.6760103106498718,0.07547000050544739,-0.5926820039749146,0.09455320984125137
19.85,0.21488681435585022,0.0272446870803833,0.9621253609657288,0.14001180231571198,-0.4212433099746704,0.08692508935928345
19.9,-0.1830633282661438,-0.04558655247092247,0.4185756742954254,-0.0018536876887083054,0.001703547895886004,0.020889263600111008
19.95,-0.04956449195742607,0.21571066975593567,-0.00639093155041337,-0.06030966714024544,0.2685532569885254,0.023511899635195732
20.0,-0.18422827124595642,-0.012953808531165123,-0.3599966764450073,-0.07111668586730957,0.33545902371406555,-0.029991550371050835
20.05,-0.21090741455554962,-0.2875252962112427,-0.7148016691207886,-0.033304363489151,0.26356953382492065,0.01844426803290844
20.1,0.11918091773986816,0.37080952525138855,-0.56661057472229,0.03662111610174179,0.1398589164018631,0.10833627730607986
20.15,0.3492676615715027,0.1537322849035263,-0.43895313143730164,0.08865012228488922,0.04026900231838226,0.06525633484125137
20.2,0.2919314205646515,-0.05615998059511185,-0.10080645233392715,0.07130496203899384,0.038195762783288956,0.0380440317094326
20.25,-0.20740726590156555,-0.1490354984998703,-0.16087454557418823,0.07014374434947968,-0.010349643416702747,0.06210419163107872
20.3,-0.16412214934825897,-0.021156279370188713,0.3628416061401367,0.07711149752140045,-0.10909343510866165,0.06600923091173172
20.35,0.035783931612968445,0.22711095213890076,0.5323445200920105,0.025399386882781982,-0.12118381261825562,0.030033409595489502
20.4,-0.13014788925647736,0.04486754909157753,0.3349517583847046,0.007868491113185883,-0.09007664769887924,-0.01636774092912674
20.45,-0.3251582980155945,-0.182315856218338,0.017592594027519226,0.027816496789455414,-0.130353644490242,-0.031543392688035965
20.5,-0.2917894721031189,-0.11356929689645767,-0.08234501630067825,0.049994565546512604,-0.2275310754776001,0.005032814107835293
20.55,-0.05365337058901787,-0.033082008361816406,0.04166919365525246,0.06696957349777222,-0.3451366424560547,0.03715284541249275
20.6,0.24911867082118988,-0.1729087382555008,0.4283501207828522,0.0694032609462738,-0.40840989351272583,0.03747952729463577
20.65,0.3302527368068695,-0.12437241524457932,0.6217202544212341,0.035581812262535095,-0.33692941069602966,0.07525362819433212
20.7,0.2270098477602005,0.31102949380874634,0.29054534435272217,-0.013165388256311417,-0.1896163523197174,0.07462456822395325
20.75,-0.06519021093845367,-0.10560133308172226,-0.02470790594816208,-0.1077137142419815,-0.06126270070672035,-0.03460907191038132
20.8,-0.047077763825654984,-0.26923659443855286,0.027167292311787605,-0.11201298236846924,-0.03196738660335541,-0.050370920449495316
20.85,0.018509067595005035,0.03261566907167435,0.04164063185453415,-0.05093945935368538,-0.035329896956682205,0.038658592849969864
20.9,0.12196556478738785,0.18197065591812134,0.383916974067688,0.0166887529194355,0.03862249478697777,0.13684523105621338
20.95,0.13624688982963562,-0.12210080027580261,0.3456669747829437,0.1186208724975586,0.08704052120447159,0.18923920392990112
21.0,-0.043402478098869324,0.15827371180057526,0.055748362094163895,0.19391705095767975,0.11344346404075623,0.2827463746070862
21.05,-0.29160839319229126,-0.0730925053358078,-0.2534976303577423,0.19308064877986908,0.08111995458602905,0.42208537459373474
21.1,-0.30776476860046387,-0.019418757408857346,-0.22619712352752686,0.10649514943361282,0.03067854978144169,0.4842107892036438
21.15,-0.2507011890411377,0.04005908966064453,0.07527893036603928,-0.0660926029086113,-0.006942221894860268,0.1501881331205368
21.2,-0.011006541550159454,0.24424463510513306,0.2898508906364441,-0.04773993790149689,-0.02007346786558628,-0.07405058294534683
21.25,-0.12055838108062744,0.05468843877315521,-0.1516137421131134,-0.06923797726631165,0.11586946994066238,-0.08817966282367706
21.3,-0.17207351326942444,-0.2702198922634125,-0.5305408239364624,-0.06480209529399872,0.20293064415454865,0.020957516506314278
21.35,0.0628209114074707,-0.053152140229940414,-0.4533533751964569,-0.012102587148547173,0.15019100904464722,0.08575337380170822
21.4,0.3524131774902344,-0.1464395523071289,-0.0409514345228672,-0.023287758231163025,0.10881972312927246,0.018631985411047935
21.45,0.4428258538246155,-0.33228105306625366,0.6252461671829224,0.008138791657984257,0.15843737125396729,0.01005302369594574
21.5,-0.0007552802562713623,-0.0033997404389083385,0.9820238947868347,0.026977751404047012,0.24744436144828796,0.032803308218717575
21.55,-0.626072347164154,0.5947858095169067,0.5484551787376404,-0.007453220896422863,0.24308836460113525,0.005224410444498062
21.6,-0.17642289400100708,0.6935254335403442,0.6855424642562866,-0.021792130544781685,0.16728194057941437,-0.012093414552509785
21.65,-0.04928549379110336,0.1481638252735138,0.16893614828586578,-0.13257621228694916,0.11883816868066788,0.050105880945920944
21.7,-0.2468111515045166,-0.40238484740257263,-0.2408750057220459,-0.15449723601341248,-0.04320408031344414,0.12009306997060776
21.75,-0.054365161806344986,-0.3624573349952698,-0.2233489751815796,-0.07355383783578873,-0.30373337864875793,0.07840859144926071
21.8,0.046737611293792725,0.04286384955048561,-0.018973151221871376,0.01908585987985134,-0.5324776768684387,-0.032127413898706436
21.85,-0.14224164187908173,0.10868359357118607,0.02157767303287983,0.0648006796836853,-0.6389868259429932,-0.12282554805278778
21.9,-0.1499694585800171,0.31356242299079895,0.16537508368492126,0.07503485679626465,-0.649681806564331,-0.1860014647245407
21.95,0.17186322808265686,0.14759449660778046,0.2540748417377472,0.03429722040891647,-0.6192563772201538,-0.2201462984085083
22.0,0.8019335865974426,-0.3391198217868805,0.8692803978919983,-0.0008339658379554749,-0.46658238768577576,-0.18195021152496338
22.05,1.1578000783920288,-0.2855128049850464,0.7760868668556213,0.006465323269367218,-0.18864545226097107,-0.08160872012376785
22.1,0.5529494881629944,-0.04813285544514656,0.22955863177776337,0.04681513458490372,0.1302112191915512,-0.024976057931780815
22.15,-0.22447040677070618,0.05210013687610626,-0.3747066557407379,0.06423462182283401,0.33858057856559753,0.03496747091412544
22.2,-0.5357601642608643,-0.035437680780887604,-0.6342903971672058,0.04854979366064072,0.374446302652359,0.07112972438335419
22.25,-0.33455485105514526,-0.28548726439476013,-0.35339829325675964,0.04975561425089836,0.28533777594566345,0.07644154876470566
22.3,-0.21439459919929504,-0.22225381433963776,0.208123117685318,0.1339675337076187,0.20995570719242096,0.13402418792247772
22.35,-0.10432182997465134,0.07059099525213242,0.17520788311958313,0.23094268143177032,0.17391161620616913,0.18032117187976837
22.4,-0.3759768605232239,0.1617421656847,-0.4228392541408539,0.23014716804027557,0.17414499819278717,0.16959291696548462
22.45,-0.11046306788921356,-0.06546884775161743,-0.397256463766098,0.2012900710105896,0.09212254732847214,0.17700672149658203
22.5,0.09631611406803131,-0.39855676889419556,0.0068567777052521706,0.20173543691635132,-0.03334006667137146,0.14220106601715088
22.55,-0.015571698546409607,-0.4155760705471039,-0.22767764329910278,0.3428270220756531,-0.14494898915290833,0.2802448272705078
22.6,0.020569302141666412,-0.4531736969947815,-0.006879174150526524,0.44606202840805054,-0.1494792103767395,0.5099915862083435
22.65,0.21387982368469238,0.011693093925714493,0.7489542365074158,0.6054803729057312,-0.2532767057418823,0.5505654811859131
22.7,-0.6131590604782104,-0.20616526901721954,0.8518695831298828,0.6282786130905151,-0.1537603735923767,0.37638261914253235
22.75,-1.090936303138733,-0.09194664657115936,0.09377234429121017,0.5621891021728516,0.006511196959763765,0.4449694752693176
22.8,-1.079146146774292,0.6619492173194885,0.5066688656806946,0.6230921745300293,-0.11892961710691452,0.390682578086853
22.85,-0.43417128920555115,0.7332097887992859,1.3077540397644043,0.47183191776275635,-0.2180289775133133,0.00285932794213295
22.9,-0.028827965259552002,0.4544956684112549,1.508833885192871,0.2708943486213684,-0.14566153287887573,-0.3136884272098541
22.95,-0.11587220430374146,0.2388812005519867,0.6287649273872375,0.10867519676685333,-0.02093866467475891,-0.3691446781158447
23.0,0.4450553059577942,-0.09232228994369507,0.4609469175338745,-0.0295005664229393,0.14556488394737244,-0.4234914481639862
23.05,0.5267100930213928,-0.10978789627552032,0.3631809651851654,-0.034292519092559814,0.3298472464084625,-0.5017127394676208
23.1,-0.021005960181355476,0.4465504288673401,0.021201543509960175,-0.07162383198738098,0.4769159257411957,-0.40104860067367554
23.15,0.23895853757858276,-0.16074660420417786,-0.21650482714176178,-0.08204755932092667,0.5568023324012756,-0.3739764392375946
23.2,0.3275498151779175,0.037923797965049744,-0.2963729500770569,-0.053129155188798904,0.6090139746665955,-0.1752994954586029
23.25,-0.30027323961257935,-0.2856265902519226,-1.1609346866607666,-0.14495697617530823,0.6873897910118103,0.015302274376153946
23.3,-0.4484151601791382,-0.22206424176692963,-1.5146466493606567,-0.0839218944311142,0.5065450072288513,0.12438757717609406
23.35,-0.8750514984130859,-0.12799952924251556,-1.5182808637619019,-0.05092208832502365,0.1026139184832573,0.22162379324436188
23.4,-0.834086537361145,-0.0707351490855217,-1.1184606552124023,-0.060010045766830444,-0.4724787473678589,0.2795349955558777
23.45,-0.6600475311279297,-0.39007675647735596,-0.24650737643241882,-0.04577115923166275,-1.0102335214614868,-0.021892832592129707
23.5,-0.26531174778938293,-0.2851162254810333,0.10181094706058502,-0.09155082702636719,-1.1753281354904175,-0.26599639654159546
23.55,-0.14352162182331085,-0.28676706552505493,-0.28118398785591125,-0.07439717650413513,-1.163730263710022,-0.22283147275447845
23.6,-0.20742124319076538,-0.3260851502418518,-0.31807997822761536,-0.06644009798765182,-1.1763310432434082,-0.08575430512428284
23.65,-0.07474937289953232,-0.17972280085086823,-0.0051855044439435005,-0.04005173593759537,-1.1736352443695068,0.004697216674685478
23.7,0.01571432501077652,-0.1430186927318573,0.3411523997783661,-0.07556433230638504,-0.9246955513954163,0.041028812527656555
23.75,0.06385903805494308,-0.5518465042114258,0.4303590953350067,-0.13881348073482513,-0.5514442324638367,0.09894516319036484
23.8,0.06097682565450668,-0.5241137146949768,-0.04738929495215416,-0.24390918016433716,-0.2397543340921402,0.2608397305011749
23.85,-0.2047518938779831,-0.2383614480495453,-0.4786381721496582,-0.40350109338760376,-0.01620311476290226,0.35444748401641846
23.9,-0.6620969772338867,-0.13426506519317627,-0.6906106472015381,-0.4618399143218994,0.08472386002540588,0.3856280744075775
23.95,-0.12906119227409363,0.9637365341186523,-1.2243854999542236,-0.32847386598587036,0.1319180279970169,0.3340509831905365
24.0,-0.13009920716285706,0.7357378005981445,-0.43597611784935,-0.03553275018930435,0.07723907381296158,0.17918528616428375
24.05,-0.12709757685661316,-0.3074168562889099,0.9063423275947571,0.02265106700360775,0.01739528775215149,-0.015104275196790695
24.1,0.5675113201141357,-0.4066809415817261,1.4980888366699219,-0.1769212931394577,0.2103985697031021,0.03277761489152908
24.15,0.9868463277816772,0.19068549573421478,1.386895775794983,-0.3315681219100952,0.4230663478374481,0.08503592759370804
24.2,1.4971615076065063,0.9263013601303101,1.665640950202942,-0.3598800599575043,0.4895510971546173,0.05255848169326782
24.25,1.113439917564392,0.20083729922771454,0.7669235467910767,-0.3912632465362549,0.5322542786598206,-0.07683473825454712
24.3,0.43233346939086914,-0.13368506729602814,0.30079343914985657,-0.3096967339515686,0.49666067957878113,-0.0712929293513298
24.35,0.15741217136383057,-0.13012593984603882,0.6417572498321533,-0.1884499043226242,0.3717396557331085,-0.02870067209005356
24.4,0.3598930537700653,-0.18333043158054352,0.9058458209037781,-0.1453639715909958,0.37794363498687744,-0.03434880077838898
24.45,1.119194746017456,-0.45634543895721436,1.0706440210342407,-0.16975340247154236,0.5879892110824585,-0.06095188483595848
24.5,0.9807249307632446,-0.3160666525363922,0.7500550746917725,-0.2047896534204483,0.9790785908699036,0.051344823092222214
24.55,0.27079904079437256,-0.45763882994651794,-0.47309303283691406,-0.3245167136192322,1.308066725730896,0.10794073343276978
24.6,-0.48397982120513916,-0.2774726450443268,-0.8271157741546631,-0.14103828370571136,1.2612583637237549,0.18468838930130005
24.65,-0.32711517810821533,0.13908767700195312,-0.034355856478214264,-0.08408999443054199,1.0455533266067505,0.25747084617614746
24.7,-0.2781524360179901,0.1043425127863884,0.430473268032074,-0.0571170300245285,0.8384824395179749,0.22563216090202332
24.75,-0.5962390899658203,0.07813073694705963,0.29849621653556824,0.0985439270734787,0.5419195294380188,0.14723500609397888
24.8,-0.42212677001953125,-0.09617901593446732,0.209164097905159,0.2089798003435135,0.2628404498100281,0.05899742245674133
24.85,-0.07546672224998474,-0.41941744089126587,-0.04873226210474968,0.23471644520759583,0.06421393901109695,-0.08453590422868729
24.9,0.5148982405662537,-0.23914630711078644,-0.5552577972412109,0.2664237320423126,-0.06500762701034546,-0.11748465895652771
24.95,0.5855240225791931,-0.4712887704372406,-0.4036403298377991,0.42274361848831177,-0.20508550107479095,0.03904992714524269
25.0,-0.37011104822158813,-0.8311875462532043,-1.3464088439941406,0.8265818357467651,-0.5927285552024841,0.26378774642944336
25.05,0.10180479288101196,-0.5084068775177002,-1.38542640209198,1.2063109874725342,-0.9009202718734741,0.36409521102905273
25.1,0.45345747470855713,-0.21668332815170288,0.5717805027961731,1.0113770961761475,-1.0716910362243652,0.3745940327644348
25.15,-0.4880908727645874,0.6430426836013794,0.7083701491355896,0.8982981443405151,-0.9830982685089111,0.3909030258655548
25.2,-1.2867645025253296,1.1324617862701416,1.2799824476242065,1.1631826162338257,-0.831195056438446,0.37258389592170715
25.25,-0.8390262722969055,1.312172293663025,2.1378252506256104,0.6995220184326172,-0.6397728323936462,-0.14181312918663025
25.3,-0.8720982074737549,1.3468143939971924,0.9305853247642517,0.21894891560077667,-0.35646897554397583,-0.6373893618583679
25.35,-0.5565975308418274,0.8156882524490356,0.19056054949760437,-0.03393298387527466,-0.1868647336959839,-0.9060287475585938
25.4,0.5007898807525635,-0.09911051392555237,0.7182520627975464,-0.3400382101535797,-0.019842999055981636,-1.2009954452514648
25.45,0.7614948749542236,-0.6688851714134216,0.5121443867683411,-0.43341708183288574,0.28591468930244446,-1.102900743484497
25.5,0.3615739345550537,-0.33767804503440857,-0.7148983478546143,-0.4012162387371063,0.664344310760498,-0.3896462917327881
25.55,-0.0015529394149780273,0.41365617513656616,-1.1908599138259888,-0.30207616090774536,0.8239299654960632,0.09975077956914902
25.6,-0.008324146270751953,-0.8639538884162903,-1.810083031654358,-0.3071776032447815,0.7130640149116516,-0.2238679826259613
25.65,-0.7296874523162842,-0.7604373693466187,-2.066894769668579,-0.3274221420288086,0.4500328600406647,-0.19867083430290222
25.7,-0.5052884221076965,-0.598069429397583,-1.1636641025543213,-0.19971881806850433,-0.0008393643074668944,-0.12669719755649567
25.75,0.32985609769821167,-0.27357393503189087,-0.2700750529766083,-0.08226756751537323,-0.2625791132450104,-0.050424858927726746
25.8,0.006071150302886963,-0.33799660205841064,-0.7224699258804321,-0.06309720128774643,-0.29606661200523376,0.07323764264583588
25.85,-0.32414019107818604,-0.5657340884208679,-0.796389102935791,-0.03568149730563164,-0.34848687052726746,0.15319375693798065
25.9,-0.09995342046022415,-0.11428264528512955,-0.14305926859378815,-0.02449088916182518,-0.4098284840583801,0.16870863735675812
25.95,-0.1237146183848381,-0.18042467534542084,0.3463907539844513,-0.09011265635490417,-0.41305163502693176,-0.059149738401174545
26.0,-0.0587637722492218,-0.2488984316587448,0.9391462206840515,-0.04158129543066025,-0.3766957223415375,-0.20933018624782562
26.05,-0.420747846364975,0.8252575397491455,1.1772562265396118,0.09251993149518967,-0.2537984251976013,-0.08037199079990387
26.1,-0.2250734269618988,1.0337555408477783,0.7113010883331299,0.07382535934448242,-0.1620880365371704,-0.15512503683567047
26.15,-0.03930123150348663,0.018269581720232964,0.38856008648872375,0.021542012691497803,-0.17325805127620697,-0.4004147946834564
26.2,-0.20458893477916718,0.05123235657811165,0.18363307416439056,0.051173336803913116,-0.19236749410629272,-0.3217972218990326
26.25,0.15060009062290192,0.29865747690200806,0.2512378394603729,-0.009017765522003174,-0.12628014385700226,-0.2835317850112915
26.3,0.8909691572189331,0.2306567132472992,0.23937132954597473,-0.04594409465789795,-0.04518286883831024,-0.522977352142334
26.35,0.7303117513656616,-0.05840771272778511,0.4028385877609253,-0.05577731132507324,0.05589951574802399,-0.4604904353618622
26.4,0.44193413853645325,-0.03636642545461655,0.17970506846904755,-0.171816885471344,0.2509315013885498,-0.15637674927711487
26.45,0.23717622458934784,-0.17214109003543854,-0.0711970329284668,-0.2759205400943756,0.38019296526908875,0.01692751795053482
26.5,0.047583211213350296,-0.19588951766490936,-0.18710346519947052,-0.322940468788147,0.4511297345161438,0.11567352712154388
26.55,-0.4117656350135803,-0.34636983275413513,-0.43853527307510376,-0.3194514811038971,0.5027482509613037,0.19590483605861664
26.6,-0.31069329380989075,-0.23185354471206665,-0.13213315606117249,-0.2529405653476715,0.5662645697593689,0.34427309036254883
26.65,-0.8647366762161255,-0.17683516442775726,-0.42223289608955383,-0.2935694456100464,0.7133743166923523,0.4488871991634369
26.7,-1.5083849430084229,0.4070814251899719,-1.4733777046203613,-0.384674072265625,0.6576746702194214,0.5267863869667053
26.75,-0.8614588975906372,-0.48171356320381165,-1.4231370687484741,-0.3850831389427185,0.04077659919857979,0.008379240520298481
26.8,-0.2836513817310333,-0.48823660612106323,-0.8811613321304321,-0.21700215339660645,-0.4636478126049042,-0.22695392370224
26.85,0.009702622890472412,-0.29319870471954346,-0.6994438767433167,-0.13258661329746246,-0.5514804124832153,-0.11792822182178497
26.9,0.13387984037399292,-0.326388418674469,-0.25806933641433716,-0.0748419389128685,-0.5715480446815491,-0.08559603244066238
26.95,0.08814362436532974,-0.29408174753189087,-0.22745758295059204,-0.0002127811312675476,-0.5067290663719177,-0.04036339744925499
27.0,0.05423048511147499,0.02355765737593174,-0.10839951038360596,0.05596645176410675,-0.4130888879299164,0.10769300162792206
27.05,-0.08266744762659073,0.08918095380067825,0.018539004027843475,0.09627310931682587,-0.36542433500289917,0.20286831259727478
27.1,-0.4903471767902374,-0.2993030846118927,0.19039511680603027,0.17684508860111237,-0.3984745740890503,0.20291350781917572
27.15,-1.1017869710922241,0.01983357034623623,0.4716363847255707,0.2324201464653015,-0.4721083641052246,0.20171168446540833
27.2,-0.8462805151939392,0.524415135383606,1.0419548749923706,0.2567383050918579,-0.5621777176856995,0.043195366859436035
27.25,-0.21472081542015076,0.4626905024051666,0.9337805509567261,0.21409949660301208,-0.574073851108551,-0.14413227140903473
27.3,0.0024923980236053467,-0.09640401601791382,0.6663967370986938,0.14728759229183197,-0.47495806217193604,-0.10886366665363312
27.35,0.35869336128234863,-0.22490587830543518,0.9073432683944702,0.09346730262041092,-0.27876314520835876,0.021480996161699295
27.4,0.35907575488090515,0.24537579715251923,1.0039007663726807,0.0006470829248428345,0.06618160754442215,0.19633524119853973
27.45,0.01974337548017502,0.03775886818766594,0.33617380261421204,-0.15873748064041138,0.4322398602962494,0.1977340430021286
27.5,-0.08494457602500916,0.11496156454086304,-0.6418983936309814,-0.4172583222389221,0.6060701012611389,0.14351952075958252
27.55,-0.12555095553398132,-0.08985631167888641,-1.3525079488754272,-0.5656450986862183,0.37560373544692993,-0.019632384181022644
27.6,0.14471378922462463,-0.5763961672782898,-0.9631996750831604,-0.3949839472770691,-0.12196172773838043,-0.17753559350967407
27.65,0.6977307200431824,-0.5206222534179688,0.03105526976287365,-0.18315106630325317,-0.36012598872184753,-0.16329076886177063
27.7,1.1795942783355713,-0.13733182847499847,0.9290207624435425,-0.10458830744028091,-0.19559495151042938,-0.09773138910531998
27.75,1.0936188697814941,-0.08526881039142609,1.1270476579666138,-0.1045932024717331,0.20215992629528046,0.012047763913869858
27.8,0.6422070264816284,0.014155520126223564,0.9207854866981506,-0.18351998925209045,0.6527341604232788,0.1614147573709488
27.85,0.3233274221420288,0.41601482033729553,0.5628084540367126,-0.30128592252731323,0.9720329642295837,0.31033191084861755
27.9,-0.07667381316423416,0.08098892867565155,0.37703225016593933,-0.41098636388778687,1.1396782398223877,0.39785924553871155
27.95,-0.37259697914123535,-0.32738399505615234,0.3860923945903778,-0.2602950930595398,1.084091305732727,0.46917808055877686
28.0,-0.4828825891017914,-0.053248416632413864,0.154267817735672,0.1356918215751648,0.8598106503486633,0.6368482112884521
28.05,-0.5029855370521545,-0.021229824051260948,-0.5006593465805054,0.23656877875328064,0.695296049118042,0.653377115726471
28.1,-0.4734794497489929,-0.22787584364414215,-0.7195329070091248,0.3140983581542969,0.41817158460617065,0.3226112425327301
28.15,0.020642131567001343,-0.1961413472890854,-0.6855945587158203,0.5619487762451172,0.06354844570159912,-0.04875422269105911
28.2,0.7747150659561157,0.26450541615486145,-0.2067829966545105,0.6583528518676758,-0.07972866296768188,-0.22164945304393768
28.25,0.09477129578590393,0.08995150029659271,-0.21527300775051117,0.45452630519866943,-0.03628474846482277,-0.4493221342563629
28.3,-0.3085636496543884,-0.36823174357414246,0.7715251445770264,0.25408995151519775,0.014776571653783321,-0.5249307751655579
28.35,0.0298750102519989,-0.15934547781944275,1.505580186843872,0.2240431308746338,0.08463504910469055,-0.32272058725357056
28.4,-0.2773183584213257,0.5662328600883484,1.0225574970245361,0.23975874483585358,0.18837228417396545,-0.21732059121131897
28.45,-0.4667263627052307,0.41129979491233826,0.5655719637870789,0.14552578330039978,0.19897691905498505,-0.302362859249115
28.5,-0.1699756532907486,0.29617223143577576,0.7005605697631836,-0.0069827064871788025,0.20024999976158142,-0.3204113841056824
28.55,0.33013278245925903,0.11671460419893265,0.9046306014060974,-0.244628444314003,0.30575427412986755,-0.41483184695243835
28.6,0.20743462443351746,0.08944422006607056,0.3597525954246521,-0.43168145418167114,0.5161619186401367,-0.4380527436733246
28.65,-0.29619598388671875,-0.021906934678554535,-0.6012251973152161,-0.5150253772735596,0.6070874333381653,-0.3654524087905884
28.7,-0.3959973156452179,-0.32796019315719604,-1.0657477378845215,-0.5284029245376587,0.38343921303749084,-0.33122193813323975
28.75,-0.19959165155887604,-0.6036550402641296,-0.9227036833763123,-0.45383089780807495,0.013046513311564922,-0.3171759843826294
28.8,0.3460041880607605,-0.1702738255262375,-0.37136784195899963,-0.3133162260055542,-0.2559654116630554,-0.26398491859436035
28.85,0.5708351135253906,0.28975585103034973,-0.09561140835285187,-0.2625557482242584,-0.25061020255088806,-0.22196581959724426
28.9,0.3055155277252197,-0.3053455948829651,-0.2566998600959778,-0.26449280977249146,-0.09156323224306107,-0.1931082159280777
28.95,0.2503541111946106,-0.5721875429153442,-0.488528311252594,-0.1287102848291397,0.017310885712504387,-0.08367013186216354
29.0,0.07198789715766907,-0.23593050241470337,-0.3332136571407318,0.01140499860048294,0.08051344007253647,0.035867612808942795
29.05,-0.1045173853635788,-0.0958900898694992,-0.23934417963027954,0.07621408998966217,0.09534500539302826,0.07329976558685303
29.1,-0.06515976041555405,-0.1505318135023117,-0.19238565862178802,0.12147074937820435,0.02443854510784149,0.05544893071055412
29.15,-0.23339898884296417,-0.11314774304628372,0.15987329185009003,0.1691822111606598,-0.08583477884531021,0.03775708004832268
29.2,-0.5376338958740234,0.16628843545913696,0.6027793884277344,0.1860937476158142,-0.14348654448986053,0.04834319278597832
29.25,-0.5348605513572693,0.07729920744895935,0.9474512934684753,0.11053529381752014,-0.16265030205249786,-0.0016018979949876666
29.3,-0.09489166736602783,-0.18052370846271515,1.6128448247909546,0.08993524312973022,-0.125865176320076,-0.024854836985468864
29.35,0.17843866348266602,0.3043549656867981,2.441631317138672,0.21054790914058685,-0.009898539632558823,-0.04141957685351372
29.4,0.8161635398864746,0.18135391175746918,2.5829851627349854,0.13884378969669342,0.2537476122379303,-0.09858807921409607
29.45,0.7071420550346375,-0.09121497720479965,1.1765235662460327,-0.0623544417321682,0.6050498485565186,-0.02459109202027321
29.5,0.34106776118278503,0.03472044691443443,0.0793682262301445,-0.0885520800948143,0.828156054019928,0.06716284900903702
29.55,-0.053905367851257324,-0.01173689030110836,-0.1489676982164383,0.0564582459628582,0.8895750045776367,0.17480570077896118
29.6,-0.8351439237594604,-0.03243270143866539,-0.9390547275543213,0.2041497677564621,0.8500130772590637,0.29065054655075073
29.65,-1.8286395072937012,0.18358302116394043,-1.5982000827789307,0.06797993928194046,0.5226375460624695,0.14505162835121155
29.7,-1.1963319778442383,0.04762157052755356,-1.0225331783294678,-0.1195833832025528,-0.1219070702791214,-0.15559476613998413
29.75,0.4266878664493561,-0.2853974997997284,0.36695948243141174,-0.14245790243148804,-0.6154648661613464,-0.34835001826286316
29.8,1.2400596141815186,-0.31158334016799927,1.2700603008270264,-0.13016730546951294,-0.5647780299186707,-0.2951897978782654
29.85,1.206716775894165,0.017511582002043724,1.4412428140640259,-0.10843460261821747,-0.10223301500082016,-0.1012415811419487
29.9,-0.48523807525634766,0.8054648041725159,-0.1948556751012802,-0.12184946984052658,0.2702467143535614,0.08727678656578064
29.95,-1.9117326736450195,0.6495645046234131,-1.9269996881484985,-0.34823334217071533,0.048632796853780746,-0.0585663765668869
30.0,-0.984898567199707,-0.5715372562408447,-1.3186722993850708,-0.49421611428260803,-0.6991372108459473,-0.44639575481414795
30.05,0.2874409556388855,-0.8036938309669495,0.2884112596511841,-0.268079936504364,-1.2230602502822876,-0.4665294885635376
30.1,0.7402713298797607,0.14720454812049866,0.8900941610336304,-0.007294930517673492,-1.0957672595977783,-0.20362459123134613
30.15,0.8096582293510437,0.3283301889896393,0.8662360310554504,0.11493377387523651,-0.6399168968200684,-0.12543676793575287
30.2,0.6427678465843201,-0.4836558997631073,0.5349794030189514,0.09558070451021194,-0.1763686090707779,-0.21585769951343536
30.25,0.3064289689064026,-0.6118746399879456,-0.019735341891646385,-0.0007771030068397522,0.2400185465812683,-0.1382942646741867
30.3,0.07194758951663971,0.07466216385364532,-0.48750343918800354,-0.05350778251886368,0.4845021367073059,0.07804390043020248
30.35,-0.03815740346908569,0.3289613127708435,-0.8153265118598938,-0.05797847732901573,0.5021638870239258,0.1602369248867035
30.4,-0.3816695213317871,0.1344231814146042,-0.6961176991462708,-0.0145510733127594,0.3942597210407257,0.1410031020641327
30.45,-0.6375516653060913,0.02325717732310295,-0.4777599573135376,0.04308853670954704,0.24803395569324493,0.12469185143709183
30.5,-0.6580067873001099,-0.06531154364347458,-0.6731732487678528,0.06738661974668503,0.0664166808128357,0.12437959760427475
30.55,-0.6696122288703918,-0.1553584486246109,-0.7998075485229492,0.10539475083351135,-0.1741516888141632,0.13914762437343597
30.6,-0.6949376463890076,0.012498751282691956,-0.6868021488189697,0.16288229823112488,-0.4611804783344269,0.1291913390159607
30.65,-0.6754750609397888,-0.05332570895552635,-0.16506478190422058,0.1520889550447464,-0.7132154107093811,0.0446530319750309
30.7,-0.4848407506942749,-0.2220296412706375,0.865849494934082,0.16713468730449677,-0.8886485695838928,-0.08004491776227951
30.75,-0.10866081714630127,0.03693408519029617,1.698673963546753,0.19202741980552673,-0.9125158786773682,-0.24127067625522614
30.8,0.410438597202301,0.30438923835754395,1.7235815525054932,0.16096220910549164,-0.7268515825271606,-0.32289770245552063
30.85,-0.18362906575202942,0.35654935240745544,0.7239096760749817,0.08324436098337173,-0.3370579779148102,-0.136973038315773
30.9,-0.7675343751907349,0.14192962646484375,0.18602104485034943,0.0253446102142334,-0.081272192299366,-0.004357840865850449
30.95,-0.06474079191684723,0.17730149626731873,0.6814257502555847,-0.05166923627257347,-0.03749658539891243,-0.0500473789870739
31.0,0.032117992639541626,0.22468292713165283,0.7376034259796143,-0.07994304597377777,0.10745074599981308,0.05368729308247566
31.05,0.12378513813018799,0.22541338205337524,0.19304023683071136,-0.11031195521354675,0.29575103521347046,0.12249850481748581
31.1,0.20682616531848907,0.20044802129268646,-0.49408939480781555,-0.2986028492450714,0.4154472053050995,0.018990015611052513
31.15,-0.3511609435081482,-0.07291239500045776,-1.4186985492706299,-0.46586641669273376,0.294219046831131,-0.14719776809215546
31.2,-0.3954656720161438,-0.5768826603889465,-1.8740373849868774,-0.5557177066802979,-0.21215826272964478,-0.3285755515098572
31.25,0.27212727069854736,-0.9062473773956299,-0.9594457149505615,-0.4049258828163147,-0.8431215286254883,-0.3227342367172241
31.3,1.1166164875030518,-0.174640491604805,1.2099385261535645,-0.10901433974504471,-1.0100493431091309,-0.03916563093662262
31.35,1.3757262229919434,0.31559404730796814,2.0260822772979736,0.05555048957467079,-0.5653215646743774,0.17516769468784332
31.4,0.664578914642334,-0.6140403151512146,0.6189590096473694,0.13476714491844177,-0.02531290054321289,0.25840237736701965
31.45,-0.44777005910873413,-0.6473618745803833,-0.4437640309333801,0.20509491860866547,0.2629438042640686,0.4544489085674286
31.5,-0.4630999267101288,0.46889594197273254,-0.1008172333240509,0.22902938723564148,0.25752127170562744,0.6271648406982422
31.55,-0.07112839818000793,0.5210305452346802,0.4089304208755493,0.12421977519989014,0.029839688912034035,0.3609621822834015
31.6,-0.3781346380710602,0.3490296006202698,0.3251941204071045,-0.02908884361386299,-0.12269991636276245,0.14232388138771057
31.65,-0.3434881567955017,0.39388951659202576,0.40094295144081116,-0.17521199584007263,-0.21731238067150116,0.175032839179039
31.7,0.2249017208814621,0.21252262592315674,0.7758316993713379,-0.255731999874115,-0.3173002600669861,0.12553457915782928
31.75,0.3760106563568115,0.040071576833724976,0.6210678219795227,-0.24219238758087158,-0.3001370131969452,0.11497612297534943
31.8,-0.014665110036730766,-0.429507315158844,0.08742760866880417,-0.18467667698860168,-0.3113488554954529,0.10385342687368393
31.85,-0.10828238725662231,-0.16176417469978333,-0.1534053534269333,-0.07966652512550354,-0.42030709981918335,0.12911361455917358
31.9,0.08970692753791809,0.15730668604373932,-0.08465441316366196,-0.034831590950489044,-0.5381607413291931,0.1031201034784317
31.95,0.2116825133562088,-0.03239917755126953,-0.039830878376960754,-0.11692722141742706,-0.5587510466575623,-0.06487030535936356
32.0,0.386954665184021,-0.0627860352396965,0.5006977319717407,-0.174188494682312,-0.5193584561347961,-0.14364555478096008
32.05,0.5728175044059753,-0.020335979759693146,1.3340964317321777,-0.16131389141082764,-0.41333937644958496,-0.06773293763399124
32.1,0.7109647393226624,0.12398166209459305,1.2858686447143555,-0.1716689169406891,-0.11090639233589172,0.045390885323286057
32.15,0.4737975597381592,0.12197789549827576,0.511857271194458,-0.5176525115966797,0.40359872579574585,0.11815710365772247
32.2,0.059972599148750305,-0.12108710408210754,-0.15726055204868317,-0.6177234053611755,0.7608429193496704,0.10621234029531479
32.25,0.042981259524822235,-0.17149163782596588,-0.05831310525536537,-0.3410564661026001,0.9025344848632812,0.1162482425570488
32.3,0.3236790895462036,0.013680520467460155,0.4151848554611206,-0.26929008960723877,1.08587646484375,0.19465483725070953
32.35,0.480745792388916,0.06964404135942459,0.32258471846580505,-0.19783923029899597,1.2740886211395264,0.2836642563343048
32.4,0.3050224483013153,0.05661775544285774,-0.008755342103540897,-0.10925165563821793,1.455334186553955,0.33636921644210815
32.45,0.0826433002948761,0.016535764560103416,0.006383100524544716,-0.036756403744220734,1.6174731254577637,0.3092660903930664
32.5,-0.08077511936426163,-0.13477042317390442,-0.0814969539642334,-0.024953380227088928,1.7056102752685547,0.20996759831905365
32.55,-0.19511210918426514,-0.2618456482887268,-0.11671388149261475,0.026958435773849487,1.6766505241394043,0.10515932738780975
32.6,-0.19683435559272766,-0.20834164321422577,-0.003641578136011958,0.16436761617660522,1.5182256698608398,0.03460397571325302
32.65,-0.011565068736672401,-0.04392528533935547,0.05458749458193779,0.28509119153022766,1.259636402130127,-0.0690680593252182
32.7,0.16368654370307922,-0.35819053649902344,0.0908646285533905,0.32039713859558105,0.968505859375,-0.22191110253334045
32.75,0.06771253049373627,-0.7590075731277466,0.020428935065865517,0.3362499475479126,0.7364700436592102,-0.35184335708618164
32.8,-0.4056837260723114,-0.30497461557388306,-0.060773469507694244,0.4700750708580017,0.5743255019187927,-0.36162257194519043
32.85,-0.7294405102729797,0.5092039704322815,0.11699678003787994,0.5366253852844238,0.4008806347846985,-0.3397790193557739
32.9,-0.36209917068481445,0.6858655214309692,0.53496915102005,0.33977046608924866,0.25601911544799805,-0.22688469290733337
32.95,-0.3905865550041199,0.0714293122291565,0.6289927959442139,0.13221831619739532,0.15429812669754028,-0.03703242167830467
33.0,-0.3560531735420227,-0.04061218351125717,0.5182274580001831,0.213783860206604,-0.046652279794216156,-0.10433712601661682
33.05,0.3730090856552124,0.4318658411502838,0.5261569023132324,0.3392795920372009,-0.14052867889404297,-0.2397693246603012
33.1,0.2496148645877838,0.6868448853492737,0.045805610716342926,0.2999557554721832,-0.05634952709078789,-0.2975037395954132
33.15,-0.16684438288211823,0.22050948441028595,-0.5728240013122559,0.1103130578994751,-0.04774245247244835,-0.4707411527633667
33.2,-0.09752199053764343,-0.46473515033721924,-0.6019667387008667,-0.07118295133113861,-0.006402153987437487,-0.5364755392074585
33.25,0.26702043414115906,-0.5209351181983948,-0.2609335780143738,-0.1364290863275528,0.22382161021232605,-0.39611950516700745
33.3,0.2945483326911926,-0.04296300560235977,0.1342134177684784,-0.22361969947814941,0.6395456790924072,-0.18387983739376068
33.35,0.067231185734272,0.07533171772956848,0.20788706839084625,-0.3079715669155121,1.0106998682022095,-0.07651720196008682
33.4,0.1906166523694992,-0.41372591257095337,-0.1623157113790512,-0.27918753027915955,1.2673739194869995,0.008115643635392189
33.45,-0.17987166345119476,-0.4932013750076294,-0.4356144070625305,-0.15164007246494293,1.414389967918396,0.19842033088207245
33.5,-0.6477705836296082,0.3247537612915039,0.03392332047224045,-0.027892038226127625,1.488938808441162,0.3800230622291565
33.55,-0.42815500497817993,0.8357650637626648,0.4508013427257538,0.08011320978403091,1.6322370767593384,0.4420194923877716
33.6,-0.3158744275569916,0.19753935933113098,0.1616867184638977,0.06196119636297226,1.7044516801834106,0.3847500681877136
33.65,-1.2304773330688477,-0.4151087701320648,0.17181839048862457,-0.06723862886428833,1.5125963687896729,0.19989503920078278
33.7,-1.748381495475769,-0.44636255502700806,0.5576001405715942,-0.15830138325691223,1.1584287881851196,0.0002982134756166488
33.75,-1.3642520904541016,-0.5351943969726562,0.9453378319740295,-0.22047147154808044,0.6924008727073669,-0.08956904709339142
33.8,-0.6374374032020569,-0.2826699912548065,0.9025024771690369,-0.14296728372573853,0.33740106225013733,-0.06272850185632706
33.85,0.07205556333065033,-0.2205151915550232,0.749860942363739,-0.03165228292346001,0.20004525780677795,-0.03453468903899193
33.9,0.7074556350708008,-0.3218916654586792,1.044130563735962,-0.03562874719500542,0.24102695286273956,-0.09068942815065384
33.95,1.2759745121002197,-0.4627397954463959,1.273533582687378,-0.12446115911006927,0.5105229020118713,-0.07102140039205551
34.0,0.8954707384109497,-0.7907456755638123,1.395260214805603,-0.25509342551231384,0.7996187210083008,0.03224845230579376
34.05,-0.1014135479927063,-0.904787003993988,1.5047729015350342,-0.42643868923187256,0.7765663862228394,0.12164067476987839
34.1,0.11109793186187744,-1.496779441833496,1.5218594074249268,-0.463846892118454,0.6119187474250793,0.23511846363544464
34.15,-0.2871847152709961,-1.612776756286621,1.8013824224472046,-0.2807759642601013,0.5120016932487488,0.30856284499168396
34.2,-1.440774917602539,-0.5762079954147339,1.9782627820968628,0.06629420816898346,0.38832369446754456,0.30030959844589233
34.25,-1.3457376956939697,1.3729612827301025,1.6117714643478394,0.5434793829917908,0.164935901761055,0.1361440122127533
34.3,-0.6348157525062561,3.6283977031707764,1.5196774005889893,1.0183054208755493,-0.06428608298301697,-0.24400736391544342
34.35,0.21746841073036194,2.8354430198669434,1.3179055452346802,1.2070417404174805,-0.169111967086792,-0.7124636173248291
34.4,-0.14212268590927124,0.59404456615448,-1.6355775594711304,0.9737382531166077,0.058023661375045776,-0.48264944553375244
34.45,-1.9132026433944702,1.9012857675552368,-4.325441837310791,0.6004527807235718,-0.019227994605898857,-0.008609818294644356
34.5,0.04952746629714966,2.4146547317504883,-2.716547966003418,0.22695492208003998,-0.7198603749275208,-0.19836421310901642
34.55,0.6892294883728027,-0.09153856337070465,-1.3956506252288818,-0.40883421897888184,-1.0838924646377563,-0.13634835183620453
34.6,1.2819467782974243,-0.6044493913650513,-1.0869415998458862,-0.3682990074157715,-1.1156336069107056,-0.19522462785243988
34.65,2.074868679046631,-0.7425127625465393,-0.7494321465492249,-0.4141441583633423,-0.9100033640861511,-0.2687642574310303
34.7,2.0379555225372314,-1.0505295991897583,-0.31237488985061646,-0.49748459458351135,-0.43919751048088074,-0.07817769795656204
34.75,1.3138883113861084,-1.1221896409988403,-0.2549360990524292,-0.37539005279541016,-0.041623346507549286,-0.009337161667644978
34.8,0.32206815481185913,-1.0786621570587158,-0.7174431681632996,-0.20255379378795624,0.1948433518409729,0.00034633366158232093
34.85,0.03803415596485138,-0.8986379504203796,-0.4662831723690033,-0.07490628957748413,0.3301357924938202,0.056482087820768356
34.9,0.10417959094047546,-0.6700926423072815,0.18949481844902039,0.041857294738292694,0.346668004989624,0.07152458280324936
34.95,0.2886577546596527,-0.6474075317382812,0.5731768012046814,-0.05194864422082901,0.2323101907968521,0.13862159848213196
35.0,0.20688189566135406,-0.44177526235580444,0.9381583333015442,-0.2590995728969574,0.017629019916057587,0.061263784766197205
35.05,0.04133731126785278,-0.47250261902809143,1.322163701057434,-0.44635647535324097,-0.24464315176010132,-0.03197130560874939
35.1,0.12166973948478699,-0.4733790159225464,1.6741057634353638,-0.5620585083961487,-0.5116754770278931,-0.07973681390285492
35.15,0.689018964767456,-0.691827654838562,1.3300203084945679,-0.6705302596092224,-0.7444838881492615,-0.060126930475234985
35.2,1.5486124753952026,-0.1747865378856659,-0.21701614558696747,-0.3733893930912018,-0.8679182529449463,-0.13668504357337952
35.25,1.7682393789291382,2.3249874114990234,-2.01774525642395,0.6712643504142761,-0.5946980714797974,-0.14199937880039215
35.3,-0.5523961186408997,3.72029709815979,-1.4410151243209839,1.544750452041626,-0.022447019815444946,-0.12411025166511536
35.35,-2.5539779663085938,0.9423245787620544,-0.8474581241607666,0.8700326681137085,-0.06904749572277069,-0.41145867109298706
35.4,-1.3901710510253906,-0.36634954810142517,-2.070345163345337,-0.12227556109428406,-0.5086823105812073,-0.4813643991947174
35.45,-0.5489057898521423,0.3378942608833313,-1.548598051071167,0.03955691307783127,-0.3035775423049927,-0.33166927099227905
35.5,0.06350842118263245,-0.8545190691947937,-0.6577565670013428,-0.16950033605098724,0.0017247527139261365,-0.312267005443573
35.55,-0.30716994404792786,-1.4115650653839111,-0.46259498596191406,-0.10512436926364899,0.20021884143352509,-0.2906307280063629
35.6,-1.6046876907348633,-0.5908672213554382,-0.358308881521225,0.1273360550403595,0.2020685076713562,-0.17711281776428223
35.65,-1.405954360961914,-0.014886923134326935,-0.03607925772666931,0.016876056790351868,0.035060733556747437,-0.1751163750886917
35.7,0.13614778220653534,-0.07377048581838608,0.36740612983703613,-0.29261788725852966,-0.08305243402719498,-0.12745188176631927
35.75,1.7146025896072388,-0.5728034973144531,0.12467896193265915,-0.56587815284729,0.0032025608234107494,-0.0720146894454956
35.8,2.0738131999969482,-1.1835862398147583,-0.39196449518203735,-0.44428393244743347,0.45251819491386414,0.041019998490810394
35.85,0.4777173697948456,-0.6487217545509338,-0.44210734963417053,0.03898989409208298,0.9924004673957825,0.24691753089427948
35.9,-0.08592350780963898,-0.02366740070283413,-0.5261335968971252,0.3254025876522064,1.1647611856460571,0.3381620943546295
35.95,-0.9300593137741089,0.779393196105957,-0.44171714782714844,0.45022279024124146,1.1416164636611938,0.33015525341033936
36.0,-2.4989778995513916,1.391256332397461,0.32094693183898926,0.39704689383506775,0.8442783951759338,0.19264517724514008
36.05,-2.438943386077881,-0.12873944640159607,0.30685535073280334,-0.01763222925364971,0.09109730273485184,-0.0034488921519368887
36.1,-1.3762462139129639,-1.0723659992218018,-0.3004802167415619,-0.16836285591125488,-0.621558666229248,-0.1033894419670105
36.15,-0.7434959411621094,-0.46301567554473877,-0.309503436088562,0.002183355391025543,-0.996193528175354,-0.18535321950912476
36.2,-0.5859790444374084,0.061787571758031845,-0.1401015967130661,0.072255440056324,-1.1670054197311401,-0.18056277930736542
36.25,-0.1706182211637497,-0.171358123421669,0.05704815313220024,0.026779435575008392,-1.294521689414978,-0.2029622495174408
36.3,0.558064341545105,-0.018741535022854805,0.4499313235282898,0.08506468683481216,-1.3202860355377197,-0.2946030795574188
36.35,1.2920328378677368,0.11372867971658707,0.7882982492446899,0.015202902257442474,-1.157158374786377,-0.31955280900001526
36.4,2.2123947143554688,0.050300855189561844,1.3967273235321045,-0.22643065452575684,-0.8867127895355225,-0.43822571635246277
36.45,2.9079501628875732,0.46365582942962646,1.564694881439209,-0.2585205137729645,-0.5030145049095154,-0.5637286901473999
36.5,1.8875417709350586,-0.3565967381000519,1.284696340560913,-0.007758781313896179,0.026320582255721092,-0.38839438557624817
36.55,0.613999605178833,-1.0738468170166016,0.8100944757461548,0.3227158188819885,0.5378037095069885,0.009803679771721363
36.6,0.9874968528747559,-0.024163125082850456,0.7332649230957031,0.42295151948928833,0.9306792616844177,0.2651579678058624
36.65,1.6880574226379395,-0.6429414749145508,-0.06207980588078499,0.424823522567749,1.3382803201675415,0.3085882365703583
36.7,-0.09296000003814697,0.48972034454345703,-0.5802528858184814,0.7981916666030884,1.8210022449493408,0.48905208706855774
36.75,-2.8412084579467773,0.8373250365257263,-0.4716266691684723,0.822007417678833,1.8314348459243774,0.42242321372032166
36.8,-4.44042444229126,0.2313927412033081,0.41778650879859924,0.5995001792907715,1.0889183282852173,0.09819885343313217
36.85,-3.201972246170044,0.02134414203464985,0.8460794687271118,0.31026700139045715,-0.11182476580142975,-0.13292984664440155
36.9,-0.47539860010147095,0.05487349256873131,0.36400216817855835,0.21009144186973572,-1.0386583805084229,-0.332709938287735
36.95,0.8815618753433228,-0.10657026618719101,-0.4210386276245117,0.22639384865760803,-1.2748838663101196,-0.3652668297290802
37.0,0.4686299264431,-0.3425922989845276,-0.5489714741706848,0.20097699761390686,-1.0537515878677368,-0.29018497467041016
37.05,0.045425571501255035,-0.4679594933986664,-0.31823843717575073,0.3131118416786194,-0.7855454683303833,-0.28470340371131897
37.1,0.21200910210609436,-0.4910793900489807,-0.08941036462783813,0.4599904716014862,-0.6197052597999573,-0.22583869099617004
37.15,0.25998538732528687,-0.40299132466316223,0.18664062023162842,0.5844547152519226,-0.5843334794044495,-0.22292470932006836
37.2,0.038891881704330444,0.06029422581195831,0.601678729057312,0.6915040612220764,-0.610048234462738,-0.20788490772247314
37.25,0.0070645809173583984,0.5100919604301453,1.0013543367385864,0.6548331379890442,-0.6965722441673279,-0.2704024314880371
37.3,0.029822230339050293,0.2291986346244812,1.2857069969177246,0.4538339078426361,-0.7760887145996094,-0.3719083368778229
37.35,0.5244914889335632,0.281235933303833,1.6606277227401733,0.2671125531196594,-0.7958559989929199,-0.3580310642719269
37.4,1.8480491638183594,-0.007422165479511023,1.8219202756881714,-0.035906121134757996,-0.6249698996543884,-0.2790350615978241
37.45,1.4348793029785156,-0.22523096203804016,1.5600101947784424,-0.2001032829284668,-0.19170893728733063,-0.06438226252794266
37.5,0.2533856928348541,0.03653918579220772,0.8243576288223267,-0.23617471754550934,0.24926000833511353,0.22340762615203857
37.55,-0.5729034543037415,0.5310984253883362,0.4078340530395508,-0.3002365231513977,0.47420284152030945,0.2959873378276825
37.6,-0.7886556386947632,0.3913927674293518,0.41360998153686523,-0.5142074823379517,0.5268533229827881,0.20363257825374603
37.65,0.5730646848678589,-0.0016574497567489743,0.10333487391471863,-0.7914153337478638,0.6059883236885071,0.10802672803401947
37.7,0.7011188268661499,0.1763448566198349,-0.4940776526927948,-0.7432159781455994,0.7933214902877808,0.12893715500831604
37.75,-1.0623210668563843,0.5563783049583435,-0.6910884976387024,-0.4697992205619812,0.8713915348052979,0.1901044100522995
37.8,-1.7767930030822754,-0.1375724971294403,-0.9860739707946777,-0.43993812799453735,0.6320039629936218,0.1307138353586197
37.85,-1.693617582321167,-1.0280412435531616,-1.3168660402297974,-0.5111682415008545,0.04611101746559143,0.10463318228721619
37.9,0.04577431082725525,-0.670014500617981,-0.6756418347358704,-0.28429412841796875,-0.5702242851257324,0.09795944392681122
37.95,1.1283210515975952,-0.18476584553718567,-0.5348705649375916,-0.09563104808330536,-0.6982555985450745,-0.00836347509175539
38.0,0.3682257831096649,-0.53327476978302,-0.8850093483924866,0.03548508882522583,-0.46788495779037476,-0.12231496721506119
38.05,-0.885500431060791,-0.47953909635543823,-0.8433905243873596,0.2372598797082901,-0.3350209891796112,-0.12801770865917206
38.1,-0.6389398574829102,-0.499155193567276,-0.4609929323196411,0.39848268032073975,-0.3786690831184387,-0.047859422862529755
38.15,0.36933737993240356,-0.28411293029785156,0.22396919131278992,0.5629262328147888,-0.4627072513103485,-0.049863945692777634
38.2,0.23470550775527954,-0.33195778727531433,0.47762712836265564,0.5527424812316895,-0.41719117760658264,-0.017451515421271324
38.25,-0.08116525411605835,-0.04063694551587105,0.6966120004653931,0.5523755550384521,-0.3359672427177429,0.0179237462580204
38.3,-0.37226638197898865,0.39810290932655334,0.9090145826339722,0.5867257714271545,-0.3014441132545471,-0.01072095986455679
38.35,-0.26027631759643555,0.28970828652381897,1.1448800563812256,0.5777861475944519,-0.3435836434364319,-0.14991877973079681
38.4,0.18485504388809204,0.4568798542022705,1.6318957805633545,0.5231350660324097,-0.37614020705223083,-0.23966950178146362
38.45,0.7330705523490906,0.8434175252914429,1.7941237688064575,0.2725670039653778,-0.30673083662986755,-0.27490493655204773
38.5,0.2965168356895447,0.42245030403137207,1.3908538818359375,-0.07488030940294266,-0.17919467389583588,-0.24131760001182556
38.55,0.6474971175193787,-0.205313578248024,0.9232932329177856,-0.3725764751434326,-0.0155062610283494,-0.11637618392705917
38.6,0.8658391833305359,0.05579100921750069,0.5503297448158264,-0.5584862232208252,0.18802514672279358,0.011918358504772186
38.65,-0.3809327781200409,0.31386470794677734,-0.12015429139137268,-0.5852181315422058,0.35681620240211487,0.23556748032569885
38.7,-0.8840986490249634,0.16934196650981903,-0.5073879361152649,-0.6435911059379578,0.3406040370464325,0.2688906788825989
38.75,-0.10237671434879303,-0.2589656114578247,-0.6643049120903015,-0.8531022667884827,0.20810966193675995,0.131219282746315
38.8,0.2695285975933075,-0.6449605226516724,-0.8124759793281555,-0.7073702812194824,0.13154500722885132,0.14805756509304047
38.85,-0.20407000184059143,-0.22354042530059814,-0.6895031929016113,-0.30556416511535645,0.11779159307479858,0.19564436376094818
38.9,-0.4979008436203003,-0.118630550801754,-0.9448338150978088,-0.18809881806373596,0.09921012818813324,0.15983237326145172
38.95,-0.399580717086792,-0.1557552069425583,-1.194968581199646,-0.16402924060821533,-0.02633913978934288,0.12698940932750702
39.0,0.42499181628227234,-0.8995373249053955,-1.3418147563934326,-0.12325163185596466,-0.22673243284225464,0.0764530748128891
39.05,-0.07382373511791229,-0.6521168947219849,-0.5773579478263855,0.06799077242612839,-0.3679875433444977,0.04530932754278183
39.1,-0.07758454978466034,-0.0956449806690216,-0.07040750235319138,0.24664130806922913,-0.3775017559528351,0.13112235069274902
39.15,-0.04304829239845276,-0.018260013312101364,-0.0629543736577034,0.2773955762386322,-0.3411143720149994,0.07017715275287628
39.2,0.05659198760986328,0.05078126862645149,0.08339338004589081,0.32267484068870544,-0.23857195675373077,-0.024777425453066826
39.25,-0.8898158073425293,-0.20144277811050415,0.10089822858572006,0.2202753871679306,-0.13157600164413452,-0.04845576733350754
39.3,-1.2417186498641968,-0.6747781038284302,0.2168487012386322,0.16638654470443726,-0.2068200558423996,-0.058473993092775345
39.35,-0.12654241919517517,-0.34491536021232605,0.6524319648742676,0.36324846744537354,-0.19238480925559998,0.09801726788282394
39.4,-0.031022250652313232,0.7210619449615479,1.6569279432296753,0.5417025685310364,-0.1156277060508728,0.26904141902923584
39.45,0.5425084829330444,0.946682333946228,1.993614673614502,0.15515875816345215,-0.06539656221866608,0.11023789644241333
39.5,0.4262632727622986,-0.2607334852218628,1.1563339233398438,-0.26548370718955994,0.1616896241903305,0.07490168511867523
39.55,-0.2184862196445465,0.012555169872939587,0.49609315395355225,-0.3643146753311157,0.3373302221298218,0.25069302320480347
39.6,-0.1738123595714569,0.5631504654884338,-0.11967979371547699,-0.36249735951423645,0.3678779602050781,0.47288963198661804
39.65,-0.5671159625053406,0.3819092810153961,-1.2128386497497559,-0.5268375873565674,0.29541701078414917,0.5430561304092407
39.7,-1.0815401077270508,0.16645696759223938,-1.571706771850586,-0.7393479943275452,0.04758279398083687,0.39127442240715027
39.75,-1.1045031547546387,-0.27890127897262573,-0.9565775990486145,-0.9191651344299316,-0.38909587264060974,0.1542198657989502
39.8,0.2573215365409851,-0.9298392534255981,-0.19047234952449799,-0.8692624568939209,-0.7563808560371399,0.07167212665081024
39.85,1.5454833507537842,-0.08522307872772217,0.5057528018951416,-0.5356402397155762,-0.771368145942688,0.1550954431295395
39.9,1.6017953157424927,0.16973604261875153,0.5037490725517273,-0.4675041735172272,-0.4020259976387024,0.1716076135635376
39.95,0.8956752419471741,-0.517460823059082,0.16565248370170593,-0.5970040559768677,0.21172378957271576,0.1567804217338562
40.0,-0.149497389793396,-1.0224629640579224,0.1280059814453125,-0.6929510235786438,0.733294665813446,0.15022796392440796
40.05,-0.5709776282310486,-0.17325495183467865,0.4418990910053253,-0.47105759382247925,0.8684918284416199,0.057401254773139954
40.1,-0.3866477608680725,0.8825008869171143,1.3573986291885376,-0.21236982941627502,0.6214345097541809,-0.08374758064746857
40.15,0.5853474736213684,1.5373377799987793,1.5048249959945679,-0.1270778477191925,0.34395280480384827,0.012628905475139618
40.2,-0.03879714012145996,0.5008403062820435,0.6345650553703308,-0.33606573939323425,0.20400375127792358,0.13500379025936127
40.25,-0.5541188716888428,-1.6743061542510986,-0.013290157541632652,-0.36098358035087585,-0.10549589991569519,0.10650384426116943
40.3,-0.454517126083374,-1.333206295967102,0.08251805603504181,0.12188012897968292,-0.5409680008888245,-0.1137424036860466
40.35,0.4809792935848236,0.15765003859996796,0.02395879104733467,0.30602148175239563,-0.6181942224502563,-0.19508706033229828
40.4,0.957077145576477,0.8136798143386841,-0.44590893387794495,0.22280511260032654,-0.3107796907424927,-0.11319396644830704
40.45,-1.6140947341918945,0.6722402572631836,0.026983341202139854,0.3952980637550354,-0.2243543565273285,0.1684970110654831
40.5,-1.0498803853988647,-0.7403136491775513,-0.31652435660362244,0.4418962597846985,-0.5410560965538025,0.09820697456598282
40.55,-0.40861567854881287,0.6217679977416992,-0.18243013322353363,0.6984344720840454,-0.8917410373687744,-0.03187349811196327
40.6,-1.4176340103149414,0.0038908780552446842,-0.4681141972541809,0.617290198802948,-1.1041063070297241,-0.015451651997864246
40.65,-1.1890895366668701,-0.05951414257287979,-0.3250315487384796,0.4386104345321655,-1.458608865737915,-0.05399564281105995
40.7,0.14317022264003754,0.7031155824661255,0.35764819383621216,0.3173750340938568,-1.6929453611373901,-0.0903971716761589
40.75,-0.08528631925582886,0.44676700234413147,0.8933182954788208,0.11498242616653442,-1.670473337173462,-0.11298712342977524
40.8,-0.4855838418006897,-0.3527975380420685,0.2947780191898346,-0.163006991147995,-1.4745452404022217,-0.2122497856616974
40.85,-0.6424697041511536,-0.6578798890113831,0.10621184855699539,-0.25136083364486694,-1.3669406175613403,-0.09527812153100967
40.9,-0.688437819480896,-0.685395359992981,-0.08338727802038193,-0.4429757297039032,-1.3366974592208862,-0.06671742349863052
40.95,0.05194033682346344,-0.4695988595485687,-0.36459070444107056,-0.6669250130653381,-1.137209415435791,-0.025511549785733223
41.0,1.08054780960083,-0.7400418519973755,-1.1942603588104248,-0.7183173298835754,-0.910241425037384,-0.06777336448431015
41.05,2.2914528846740723,-1.3925143480300903,-0.5828210711479187,-0.6246584057807922,-0.830653965473175,-0.28601160645484924
41.1,0.8987220525741577,-0.12174023687839508,0.7359457015991211,-0.28144747018814087,-0.7955189347267151,-0.17776691913604736
41.15,-0.483228474855423,2.308504581451416,1.3935879468917847,-0.216490238904953,-0.6052018404006958,0.09072678536176682
41.2,-0.1282181441783905,3.3938698768615723,0.6745221614837646,-0.0044751763343811035,-0.616028904914856,0.44723495841026306
41.25,0.9201067686080933,-0.7632340788841248,1.1385211944580078,-0.31758248805999756,-0.7249638438224792,-0.11638359725475311
41.3,-0.05058375373482704,-1.897172212600708,-0.13148687779903412,-0.256963312625885,-0.5978695154190063,-0.027431447058916092
41.35,0.0545787587761879,-0.012643765658140182,0.4297744631767273,0.16956770420074463,-0.9236810207366943,0.5265276432037354
41.4,0.22592388093471527,-0.12672507762908936,1.1347606182098389,0.005094632506370544,-0.7323817014694214,0.5156739950180054
41.45,-0.1518174111843109,0.023806653916835785,0.7587210536003113,0.01593668758869171,-0.41131436824798584,0.44365519285202026
41.5,-0.3621525168418884,-0.3471880257129669,0.2376595437526703,-0.012656114995479584,-0.2534758448600769,0.3005226254463196
41.55,-1.0492066144943237,-0.589361310005188,-0.2252265363931656,0.017998646944761276,-0.34527069330215454,0.22911152243614197
41.6,-1.3907783031463623,-0.13587769865989685,-0.06793864071369171,0.18814018368721008,-0.6116958856582642,0.18606968224048615
41.65,-0.6326853036880493,-0.12969686090946198,0.31108564138412476,0.32370197772979736,-0.7820016145706177,-0.00416899099946022
41.7,-0.07960726320743561,-0.6361179351806641,0.6073375344276428,0.5037618279457092,-0.8294727206230164,0.029097026214003563
41.75,1.584221363067627,0.6064350008964539,0.3901212811470032,0.6557701826095581,-0.7095279097557068,0.59031081199646
41.8,1.557399868965149,1.3850395679473877,0.8585951924324036,0.6691901683807373,-0.5747024416923523,1.2027777433395386
41.85,2.8923897743225098,0.9230682253837585,-0.7427343130111694,0.5774576663970947,-0.4690040647983551,1.3638973236083984
41.9,2.643447160720825,0.778419554233551,-1.4625061750411987,1.0644606351852417,-0.8449060320854187,1.3761526346206665
41.95,0.5005252361297607,0.6436053514480591,0.315364807844162,0.9536269903182983,-0.6957854628562927,1.380186676979065
42.0,0.6458993554115295,-0.43668368458747864,-0.09940218180418015,0.8263214826583862,-0.6921517252922058,0.7643919587135315
42.05,-0.366218626499176,0.3369750678539276,-0.29711484909057617,0.7444379329681396,-0.6072407960891724,0.9688206315040588
42.1,-0.5222359895706177,0.39459434151649475,0.9610318541526794,0.6507017612457275,-0.5746514201164246,0.6077765226364136
42.15,-0.2773858904838562,0.569855809211731,0.4188791811466217,0.3587600290775299,-0.4341556131839752,0.1703677922487259
42.2,0.002268195152282715,0.17156217992305756,-0.30362844467163086,0.18623758852481842,-0.2479132115840912,-0.1886233687400818
42.25,-0.024948671460151672,0.4254789352416992,-0.5507227182388306,0.059340521693229675,-0.07909735292196274,-0.3846607506275177
42.3,0.08459481596946716,-0.022459091618657112,-0.5742874145507812,0.0369492769241333,-0.010647941380739212,-0.707527220249176
42.35,0.4833018481731415,-0.5999031066894531,0.22697459161281586,0.053525060415267944,0.06601966172456741,-0.8356415033340454
42.4,0.7340357303619385,-0.8289546370506287,1.179481029510498,-0.03754420578479767,0.30529043078422546,-0.599790632724762
42.45,1.3041365146636963,-0.7894554734230042,0.17256954312324524,-0.33616262674331665,0.7013264894485474,-0.2496660202741623
42.5,1.1768368482589722,0.3396596312522888,-1.241418719291687,-0.6642881035804749,0.9652134776115417,0.03458770737051964
42.55,1.0184850692749023,0.7141501903533936,-2.9157094955444336,-0.7640070915222168,0.7090106010437012,-0.38763514161109924
42.6,0.8879188299179077,-0.05001576617360115,-3.1400935649871826,-0.4896031320095062,-0.17153300344944,-0.8949587941169739
42.65,0.8685517311096191,-1.0200817584991455,-0.9229065179824829,0.15054187178611755,-1.237017035484314,-0.7750909328460693
42.7,0.8474059700965881,-0.3043489456176758,-0.17336121201515198,0.29065126180648804,-1.710489273071289,-0.3775578439235687
42.75,0.3505832552909851,-0.21284765005111694,0.6634411811828613,0.2803786098957062,-1.7228872776031494,-0.402558296918869
42.8,-0.11132192611694336,-0.17661753296852112,0.9182912707328796,0.3570382297039032,-1.6327340602874756,-0.640626847743988
42.85,-0.39925292134284973,-0.7456712126731873,1.1661100387573242,0.3986329436302185,-1.2814762592315674,-0.7946274876594543
42.9,-1.0419516563415527,-0.14497460424900055,1.5396385192871094,0.1819872409105301,-0.6829168200492859,-0.3770282566547394
42.95,-0.6484091281890869,1.53140389919281,0.8017079830169678,-0.021802248433232307,-0.17407655715942383,-0.06268830597400665
43.0,0.04624581336975098,-0.6786736845970154,0.7887929677963257,0.04568672552704811,0.13707244396209717,-0.18892022967338562
43.05,-0.12184788286685944,-0.33272260427474976,0.7267387509346008,-0.18455971777439117,0.46788954734802246,0.12025073915719986
43.1,0.7410759925842285,0.8931799530982971,-1.0249145030975342,-0.4321414530277252,0.8295340538024902,0.10083363205194473
43.15,2.239102602005005,1.0144774913787842,-3.650939464569092,-0.3281059265136719,0.6059579849243164,-0.5876744985580444
43.2,1.822627067565918,-1.3646663427352905,-2.763092279434204,0.28011783957481384,-0.5589932799339294,-0.9334246516227722
43.25,-0.31474125385284424,-0.7058544158935547,0.6555251479148865,0.4015973210334778,-1.4264979362487793,-0.1483701467514038
43.3,0.35752785205841064,-0.5496339797973633,0.44824740290641785,0.2560698091983795,-1.3542451858520508,-0.012225558049976826
43.35,1.3334380388259888,0.1877041906118393,0.13612443208694458,0.19302336871623993,-1.2504571676254272,0.14675380289554596
43.4,0.6235748529434204,-0.2095135897397995,0.6363722085952759,0.23675283789634705,-1.2490683794021606,0.2202472686767578
43.45,0.11299143731594086,-0.033362288028001785,0.9061945676803589,0.06543456017971039,-1.143949031829834,0.2718046307563782
43.5,-0.1953493356704712,-0.14371579885482788,0.7207598686218262,-0.016086667776107788,-1.016019582748413,0.21805298328399658
43.55,-0.17139025032520294,0.054503507912158966,0.5928494930267334,-0.12818340957164764,-0.8752102851867676,0.28355473279953003
43.6,-0.25502240657806396,-0.039704322814941406,0.14284390211105347,-0.19037996232509613,-0.6589151620864868,0.2671845257282257
43.65,-0.5428227186203003,-0.2069436013698578,-0.30691611766815186,-0.235410675406456,-0.5160654783248901,0.2113105058670044
43.7,-1.3577766418457031,0.10193150490522385,-0.21983735263347626,-0.1967429220676422,-0.3868125379085541,0.2963170111179352
43.75,-1.1820387840270996,1.4606341123580933,-1.3681851625442505,0.14539353549480438,-0.33787789940834045,0.22250060737133026
43.8,-1.5314475297927856,-0.580268919467926,0.3478409945964813,0.3356352746486664,-0.1623283326625824,-0.0806267186999321
43.85,-0.9987802505493164,-0.6331453323364258,0.7750992774963379,0.1298455446958542,0.27718719840049744,-0.1553070843219757
43.9,-0.5345394015312195,0.3191690742969513,0.32892492413520813,-0.16477826237678528,0.6444512605667114,-0.21940284967422485
43.95,0.5065517425537109,0.678683340549469,-0.20670855045318604,-0.25306957960128784,0.8908464312553406,-0.444316029548645
44.0,0.6079068779945374,-0.42533209919929504,0.1271815448999405,-0.09805238246917725,0.8840699195861816,-0.6663912534713745
44.05,0.3913722038269043,-0.2844800651073456,0.3415430784225464,-0.0731765627861023,0.8661940097808838,-0.7756369709968567
44.1,0.5833975672721863,0.40311822295188904,-0.004832592327147722,-0.18026107549667358,0.9662412405014038,-0.6241623163223267
44.15,1.6510471105575562,0.28473377227783203,-0.8069263696670532,-0.06946830451488495,1.0667991638183594,-0.5855018496513367
44.2,2.927792549133301,-0.405164897441864,-2.3065481185913086,-0.0024191737174987793,0.7744714021682739,-0.6878599524497986
44.25,2.2918477058410645,-0.8841030597686768,-1.7296780347824097,0.04521253705024719,0.05523915961384773,-0.5315340757369995
44.3,0.4693901836872101,0.20456892251968384,0.1217905655503273,0.11035840958356857,-0.6092609763145447,-0.04593714326620102
44.35,0.4625583589076996,-0.3803596496582031,0.3782995939254761,0.26948031783103943,-0.7056787014007568,0.06962163001298904
44.4,0.6394724249839783,-0.5419665575027466,-0.5972355008125305,0.20551010966300964,-0.6430431604385376,0.017397476360201836
44.45,0.2751482129096985,0.15425392985343933,-0.5198078155517578,0.10221473127603531,-0.7237368226051331,0.13150934875011444
44.5,-0.1361158937215805,0.2047729641199112,-0.06101787090301514,0.03552383929491043,-0.808893620967865,0.22411471605300903
44.55,-0.43574294447898865,0.018620498478412628,0.21658700704574585,-0.026089243590831757,-0.8137230277061462,0.3104346692562103
44.6,-1.1211347579956055,-0.6509819030761719,1.106092095375061,0.11177411675453186,-0.674260675907135,0.2428964227437973
44.65,-1.4874504804611206,-0.2395409345626831,1.8998774290084839,0.11199143528938293,-0.2698741853237152,0.07209968566894531
44.7,-0.9657638669013977,0.859298825263977,0.6107457876205444,-0.19687415659427643,0.20451366901397705,0.11884915083646774
44.75,-0.16082048416137695,-0.11077974736690521,0.3389871120452881,-0.22328130900859833,0.5562689900398254,0.12146759033203125
44.8,0.4093811511993408,-0.569852888584137,-0.15348610281944275,-0.2984465956687927,0.697519838809967,0.09116338938474655
44.85,0.6669859886169434,0.6526565551757812,-0.9023008942604065,-0.3140948414802551,0.5312519073486328,0.08319660276174545
44.9,1.4835954904556274,0.2802905738353729,-1.0774683952331543,-0.15054211020469666,0.18763120472431183,-0.03724486753344536
44.95,0.7493880391120911,-0.9461280107498169,-0.4927068054676056,0.06329576671123505,-0.35211658477783203,0.17364001274108887
45.0,0.5302678942680359,-0.01882074773311615,-0.056765440851449966,0.050589825958013535,-0.6907368302345276,0.2934845983982086
45.05,0.3405284285545349,-0.02206706628203392,-0.0807410404086113,0.043908387422561646,-0.7780935764312744,0.18318983912467957
45.1,-0.5316295623779297,0.06832791119813919,0.18875597417354584,0.12029976397752762,-0.8707126379013062,0.23869819939136505
45.15,-1.5773568153381348,-0.3075285255908966,0.5667698383331299,0.22292053699493408,-0.6922240257263184,0.17744332551956177
45.2,-1.265538215637207,-0.2888469994068146,0.384138822555542,0.29213953018188477,-0.38651272654533386,0.10977499186992645
45.25,-1.2344046831130981,0.5093584060668945,0.12978586554527283,0.2738240957260132,-0.2764003872871399,0.1675320267677307
45.3,-1.4497665166854858,-0.21065329015254974,0.915283203125,0.1240568682551384,-0.1256069839000702,0.06490211188793182
45.35,-0.3038681745529175,-0.2728738486766815,0.5433169007301331,-0.053946737200021744,0.1037934198975563,-0.14612719416618347
45.4,-0.9230533838272095,0.009100004099309444,0.7510515451431274,-0.1246422827243805,0.19433951377868652,-0.045117225497961044
45.45,-0.5921034812927246,0.3402166962623596,0.3872145712375641,-0.3065447211265564,0.466410756111145,-0.03165668621659279
45.5,0.4379052519798279,-0.016640644520521164,0.013911841437220573,-0.3273197412490845,0.6353986859321594,-0.1381557732820511
45.55,1.2143158912658691,0.10851002484560013,-0.5108882784843445,-0.16083897650241852,0.42072704434394836,-0.13152238726615906
45.6,1.3951820135116577,-0.11292365193367004,-0.6937183141708374,-0.01793474331498146,-0.029500974342226982,-0.14960487186908722
45.65,1.0616110563278198,-0.46258166432380676,-0.1049218401312828,0.10518301278352737,-0.49878305196762085,-0.1173747330904007
45.7,0.8082252144813538,-0.1940765380859375,-0.024424366652965546,0.06572140008211136,-0.8213484287261963,-0.053338587284088135
45.75,-0.01799517124891281,-0.05381295830011368,0.2743363678455353,0.04657052457332611,-0.8579273223876953,-0.06373222172260284
45.8,0.1034608781337738,-0.5864925980567932,-0.02050919644534588,0.11047571897506714,-0.7660328149795532,-0.02924935705959797
45.85,0.33622536063194275,-0.31910231709480286,-0.025717660784721375,0.07009075582027435,-0.8603301048278809,0.06637132167816162
45.9,-1.980410099029541,0.11700920015573502,0.9987362027168274,0.2294427454471588,-0.913489580154419,0.16841651499271393
45.95,-1.4798518419265747,0.09415720403194427,0.2803167700767517,0.502954363822937,-0.7020964026451111,0.03350263088941574
46.0,-2.3235087394714355,0.5222710967063904,-0.03131776675581932,0.16278277337551117,-0.3791983425617218,0.04709869250655174
46.05,-1.4775038957595825,1.2299920320510864,0.09678572416305542,-0.12837809324264526,0.04231618717312813,-0.05196020379662514
46.1,0.7649072408676147,-0.870582640171051,0.08395139873027802,0.14377489686012268,0.3294985592365265,-0.3103524148464203
46.15,1.1734415292739868,-0.4252643883228302,-0.16574271023273468,0.03644131124019623,0.17908820509910583,-0.23279964923858643
46.2,1.220884084701538,0.11726482957601547,0.11787422001361847,-0.015573415905237198,0.05671696737408638,-0.21594640612602234
46.25,1.6336263418197632,-0.6922369003295898,0.16082486510276794,0.07545803487300873,-0.10610746592283249,-0.12574400007724762
46.3,1.1415852308273315,-0.04421515390276909,0.038457270711660385,-0.007658421527594328,-0.3482300341129303,-0.016361040994524956
46.35,0.7123361229896545,-0.24694156646728516,0.053145796060562134,0.10652416944503784,-0.5017058253288269,0.021625686436891556
46.4,0.16294455528259277,0.12164022028446198,-0.052914418280124664,0.2140435129404068,-0.6294176578521729,0.016684092581272125
46.45,-1.251592755317688,0.3659152686595917,-0.11125482618808746,0.4987044632434845,-0.6198602318763733,-0.028083190321922302
46.5,-2.3902029991149902,-0.09608853608369827,-0.09699185192584991,0.6678735017776489,-0.37531328201293945,-0.016291499137878418
46.55,-2.8689515590667725,0.8571538925170898,0.27706459164619446,0.3597073554992676,0.16398358345031738,0.021269384771585464
46.6,-1.3020294904708862,-0.40740683674812317,0.9049586653709412,0.17944280803203583,0.7514368295669556,-0.04865686595439911
46.65,1.0605030059814453,-0.2312907576560974,0.37465041875839233,-0.17112329602241516,1.0960839986801147,-0.1364901214838028
46.7,2.3616654872894287,0.4444209635257721,-0.05622047930955887,-0.2764088213443756,0.9982351064682007,-0.19677762687206268
46.75,2.7757749557495117,0.057349298149347305,-0.31509512662887573,-0.10198937356472015,0.474129855632782,-0.20200307667255402
46.8,0.9507005214691162,-0.17476752400398254,-0.4866369068622589,0.07013000547885895,-0.2985902726650238,0.12276609241962433
46.85,-0.8258451223373413,-0.5524998903274536,-0.06437236815690994,0.3141377866268158,-0.45662006735801697,0.1347125619649887
46.9,-0.327631413936615,-0.40236011147499084,-0.719072699546814,0.12159913778305054,-0.10945441573858261,-0.08679060637950897
46.95,0.6617218255996704,-0.4566537141799927,-0.8569305539131165,-0.008666235953569412,0.17726966738700867,-0.1454228311777115
47.0,0.5076693296432495,-0.3778144121170044,-0.6051996350288391,-0.10826251655817032,0.2075415998697281,-0.13078460097312927
47.05,0.7460556626319885,-0.5535222291946411,-0.7822116017341614,-0.2370276153087616,0.28297916054725647,-0.21907483041286469
47.1,1.027160406112671,-0.2691327631473541,-1.376899003982544,-0.34953176975250244,0.3533315360546112,-0.3027658760547638
47.15,1.198253870010376,-0.04027463123202324,-0.5520745515823364,-0.28736424446105957,0.297370046377182,-0.3487083315849304
47.2,-0.5456336736679077,1.5022478103637695,-1.5707253217697144,-0.5622183680534363,0.07384020835161209,-0.30660128593444824
47.25,-1.068177580833435,2.1675312519073486,-0.5169726610183716,-0.9566579461097717,-0.029872147366404533,0.2996891438961029
47.3,-1.311846137046814,-0.5495625138282776,0.6646575331687927,-0.34369713068008423,0.34331294894218445,0.22433330118656158
47.35,-0.4369192123413086,1.4538387060165405,2.2875471115112305,-0.7897402048110962,1.1374015808105469,0.07747684419155121
