Time [s],Acc_x [m/s^2],Acc_y [m/s^2],Acc_z [m/s^2],Gyro_x [1/s],Gyro_y [1/s],Gyro_z [1/s]
0.0,-0.03990616649389267,0.2354307472705841,0.02967165969312191,-0.053163375705480576,-0.08723574131727219,-0.02187865972518921
0.05,-0.029022518545389175,0.23101714253425598,0.0048460629768669605,-0.05315529555082321,-0.08723849058151245,-0.021887345239520073
0.1,0.011303916573524475,0.1289529949426651,-0.024035679176449776,-0.05258695408701897,-0.0677400678396225,-0.02332545816898346
0.15,-0.01756407879292965,0.12834836542606354,-0.05226941406726837,-0.012769892811775208,0.0013072837609797716,-0.027885517105460167
0.2,-0.012959228828549385,0.14811231195926666,-0.01934085600078106,0.022930078208446503,0.033633653074502945,-0.0352645106613636
0.25,0.17248326539993286,-0.0045862081460654736,0.03972788527607918,0.019519628956913948,0.02908695675432682,-0.06841164827346802
0.3,0.3368193507194519,-0.08974837511777878,0.025586966425180435,0.01293136179447174,0.041903305798769,-0.06345285475254059
0.35,0.3281763792037964,-0.002256386913359165,-0.06856435537338257,-0.0036317934282124043,0.07160636782646179,-0.010518413968384266
0.4,0.17829158902168274,0.0941467210650444,-0.2479991912841797,-0.013263961300253868,0.10867823660373688,0.019059211015701294
0.45,0.07651121914386749,0.011315325275063515,-0.22298875451087952,0.0247176643460989,0.06844457238912582,0.04244514927268028
0.5,0.009326636791229248,0.045740120112895966,-0.0985991507768631,0.04853736609220505,0.03836402669548988,0.036833543330430984
0.55,-0.02239627204835415,0.09387398511171341,-0.058573562651872635,0.025560278445482254,0.03271233290433884,0.042957112193107605
0.6,-0.13993319869041443,0.17318248748779297,-0.017622878775000572,0.029503624886274338,0.03067871928215027,0.06361940503120422
0.65,-0.2805939316749573,0.22631171345710754,0.09285125881433487,0.031695351004600525,0.003060112241655588,0.04702993109822273
0.7,-0.1681780219078064,0.20244888961315155,0.15607109665870667,0.02833402529358864,0.004568018019199371,-0.0005651139072142541
0.75,-0.07072778046131134,0.2390775978565216,0.09119491279125214,0.02963467314839363,0.06365528702735901,-0.0546368807554245
0.8,-0.02539895847439766,0.22514918446540833,0.029343027621507645,0.02476802095770836,0.05309955030679703,-0.059977367520332336
0.85,0.06515870988368988,0.18420317769050598,0.0908496230840683,0.026519199833273888,-0.008636018261313438,-0.03876107558608055
0.9,0.10420332849025726,0.1737680733203888,0.1367478221654892,0.01064298301935196,-0.02242887206375599,-0.034555088728666306
0.95,0.08487485349178314,0.11757281422615051,0.10362889617681503,-0.011333931237459183,-0.00568427424877882,-0.030580665916204453
1.0,0.06762944161891937,0.11800673604011536,0.1026286780834198,-0.005937700159847736,-0.009013334289193153,-0.01954824849963188
1.05,0.13146181404590607,0.11874011904001236,0.15197695791721344,-0.016237862408161163,-0.03725924342870712,-0.018838535994291306
1.1,0.19963040947914124,0.0672312080860138,0.11180984228849411,-0.03932412713766098,-0.02240169048309326,-0.028157655149698257
1.15,0.14729540050029755,0.1000366359949112,-0.0293737780302763,-0.029225610196590424,0.038924723863601685,-0.01801641285419464
1.2,0.09327241778373718,0.04396914318203926,-0.16112858057022095,-0.01585928536951542,0.062015730887651443,-0.0027624168433248997
1.25,0.09008143097162247,-0.028272658586502075,-0.27037280797958374,0.005530295893549919,0.05845297873020172,-0.020452821627259254
1.3,0.11440957337617874,-0.010357862338423729,-0.08444584906101227,0.01921509951353073,-0.04406272992491722,0.008125495165586472
1.35,0.13356207311153412,0.037174250930547714,0.15383727848529816,-0.00202278234064579,-0.16189907491207123,0.06090785935521126
1.4,0.07453708350658417,0.11170867830514908,0.18323342502117157,-0.020251533016562462,-0.12157052755355835,0.06230351701378822
1.45,-0.06886585056781769,0.22011855244636536,0.06674924492835999,-0.03877691179513931,-0.05271336808800697,0.06076157093048096
1.5,-0.15311817824840546,0.21665574610233307,-0.043650299310684204,-0.08249898999929428,-0.08606630563735962,0.054069746285676956
1.55,-0.16006937623023987,0.06663227081298828,-0.021583206951618195,-0.14948174357414246,-0.16042748093605042,0.028991274535655975
1.6,0.004436386749148369,-0.553927481174469,0.0836760550737381,-0.3302261531352997,-0.2542751729488373,0.019778743386268616
1.65,0.1048818975687027,-0.34455591440200806,-0.42505884170532227,-0.24018362164497375,-0.20383015275001526,0.14775414764881134
1.7,-0.05687664449214935,0.49707889556884766,-0.5467936396598816,0.01942179724574089,-0.10363022983074188,0.14718495309352875
1.75,0.2788628041744232,0.614194929599762,-0.1569628119468689,-0.20011579990386963,-0.0636197105050087,-0.10989653319120407
1.8,0.6716733574867249,0.39988142251968384,-0.14726676046848297,-0.3685668706893921,0.08508298546075821,-0.21860957145690918
1.85,0.5315162539482117,0.3998585045337677,-0.3630427420139313,-0.1744699329137802,0.19065821170806885,-0.10868334770202637
1.9,0.37524640560150146,0.42748740315437317,-0.3098633289337158,-0.05241876840591431,-0.016676729544997215,0.08960781991481781
1.95,0.21547392010688782,0.5122595429420471,0.06244993209838867,-0.07039613276720047,-0.34731608629226685,0.24638321995735168
2.0,0.1178794875741005,0.42148029804229736,0.5797671675682068,-0.1347387135028839,-0.5778321623802185,0.29911866784095764
2.05,0.204216867685318,-0.2835940420627594,0.9507036209106445,-0.22578728199005127,-0.4909469783306122,0.2544458508491516
2.1,0.49813562631607056,-0.7167137861251831,1.1829713582992554,-0.26658010482788086,0.030452033504843712,0.01517028734087944
2.15,0.36086010932922363,-0.634152352809906,0.8010658621788025,-0.2103542983531952,0.6566035151481628,-0.17993922531604767
2.2,-0.7151421904563904,-0.6628084778785706,0.0645812526345253,-0.10996025800704956,0.7283398509025574,0.06927473843097687
2.25,-1.3197219371795654,-1.1680814027786255,-0.014996012672781944,-0.08675609529018402,0.12815585732460022,0.4286995530128479
2.3,-0.9237397313117981,-1.4145976305007935,0.3623087406158447,-0.19701485335826874,-0.27967023849487305,0.3737201690673828
2.35,-0.5955629348754883,-0.4046793580055237,0.21455512940883636,-0.23183093965053558,0.1052398607134819,0.015336242504417896
2.4,-0.8277556896209717,1.6372969150543213,-0.16913853585720062,-0.14406122267246246,0.6785328388214111,-0.28455784916877747
2.45,-0.8318012952804565,1.6986172199249268,0.0424845889210701,-0.016551770269870758,0.7032554149627686,-0.23679716885089874
2.5,0.3369000256061554,0.5947924256324768,-0.07249092310667038,0.09118057787418365,0.8259274959564209,-0.5766299366950989
2.55,1.658250093460083,0.09173201024532318,-0.8447931408882141,0.19149577617645264,1.5983519554138184,-1.5725657939910889
2.6,2.315659523010254,-0.002883983077481389,-1.5554808378219604,0.23496085405349731,2.118149995803833,-1.9782342910766602
2.65,2.9698095321655273,-0.3592625856399536,-1.9903440475463867,-0.19807079434394836,2.00297212600708,-1.5828430652618408
2.7,2.759701728820801,-0.8059046268463135,-2.045957565307617,-0.7963894605636597,1.9604631662368774,-0.8316476941108704
2.75,2.193113088607788,-1.1377718448638916,-1.9509741067886353,-0.6548317670822144,1.986958384513855,0.16982965171337128
2.8,1.7579408884048462,-0.5373594760894775,-2.503688335418701,0.1310814768075943,2.2680304050445557,0.6537221670150757
2.85,0.9825977087020874,0.5447432398796082,-3.349482536315918,0.45557701587677,2.8955633640289307,0.40404319763183594
2.9,-0.2937909960746765,1.2836577892303467,-3.387829065322876,0.31513655185699463,3.33857798576355,0.2084684520959854
2.95,-1.532524824142456,1.5591286420822144,-2.4368784427642822,0.39344239234924316,3.0908188819885254,0.49933838844299316
3.0,-2.131507635116577,1.8435029983520508,-1.822603464126587,0.6678005456924438,2.2633004188537598,0.9355522394180298
3.05,-2.599879741668701,1.9398144483566284,-1.676105260848999,0.7775031328201294,1.7849149703979492,1.1802096366882324
3.1,-3.2824738025665283,1.4494484663009644,-1.0139127969741821,0.6583196520805359,2.017756938934326,1.2172900438308716
3.15,-3.7349307537078857,0.5454739928245544,0.3857826590538025,0.5849753618240356,2.348841667175293,1.047113060951233
3.2,-3.7524216175079346,-0.2738523781299591,1.480156421661377,0.6408184766769409,2.2404069900512695,0.7568756341934204
3.25,-3.422621726989746,-0.6476878523826599,2.299222469329834,0.635208010673523,1.8477879762649536,0.5075763463973999
3.3,-2.327972888946533,-0.5469071865081787,3.6692147254943848,0.819425106048584,1.2170937061309814,0.08679284900426865
3.35,-0.672163724899292,-0.526369571685791,4.92038631439209,1.523322343826294,-0.11156948655843735,-0.9331191778182983
3.4,1.6768579483032227,-0.8137173652648926,4.486245155334473,2.286527156829834,-1.6357882022857666,-2.185450792312622
3.45,4.360705375671387,-0.0060790725983679295,3.714021682739258,2.1861677169799805,-1.5045219659805298,-2.644230604171753
3.5,5.037048816680908,1.027347445487976,4.075711727142334,1.0647683143615723,0.10873257368803024,-1.6664001941680908
3.55,3.966383934020996,1.4227617979049683,4.808089256286621,-0.3861025869846344,1.0590336322784424,0.10417269170284271
3.6,2.3927133083343506,1.2536733150482178,4.566771030426025,-1.2160192728042603,0.5228244662284851,1.4086664915084839
3.65,0.9392884969711304,1.1770377159118652,3.0598177909851074,-1.3307596445083618,-0.5085712671279907,1.9140146970748901
3.7,-0.29444897174835205,1.1623222827911377,1.3205426931381226,-1.394892930984497,-0.910825252532959,1.9158542156219482
3.75,-1.3645633459091187,0.6761713027954102,0.24399559199810028,-1.7242380380630493,-0.6786972880363464,1.6491056680679321
3.8,-1.8238550424575806,-0.09453979134559631,-0.4626334309577942,-1.8705556392669678,-0.6060993671417236,1.190717101097107
3.85,-1.5743502378463745,-1.065106749534607,-1.3021262884140015,-1.5970104932785034,-0.9145213961601257,0.7619222402572632
3.9,-0.7554534673690796,-1.8781332969665527,-2.1716229915618896,-1.2215214967727661,-1.2684935331344604,0.44335341453552246
3.95,0.4296495318412781,-2.5993146896362305,-2.7351698875427246,-0.906707763671875,-1.440348505973816,0.0746827945113182
4.0,1.6082372665405273,-3.4636600017547607,-2.749589443206787,-0.5917395353317261,-1.3383671045303345,-0.31516560912132263
4.05,2.3499183654785156,-4.479756832122803,-2.132671356201172,-0.17728109657764435,-1.0245800018310547,-0.6107361316680908
4.1,2.4775595664978027,-5.013282299041748,-1.4627445936203003,0.47985535860061646,-0.7315419912338257,-0.7410798072814941
4.15,2.012108087539673,-4.164120197296143,-1.1794058084487915,1.3378314971923828,-0.6315189003944397,-0.6846367120742798
4.2,1.7211954593658447,-0.9051448702812195,-1.3177419900894165,2.2579662799835205,-0.8598694205284119,-0.5977590680122375
4.25,1.4917398691177368,4.722106456756592,-0.6038175821304321,3.1990506649017334,-1.2974364757537842,-0.733913004398346
4.3,1.3486915826797485,6.528318405151367,1.4047634601593018,3.343723773956299,-0.9909647703170776,-0.3436734080314636
4.35,1.1697561740875244,6.036252021789551,0.9785609841346741,2.091925621032715,0.29053378105163574,0.5801941156387329
4.4,-1.3793835639953613,5.49760627746582,-1.7963770627975464,-0.5248385667800903,2.4619457721710205,1.767972707748413
4.45,-4.754820346832275,1.9634358882904053,-2.162937879562378,-2.688849925994873,4.48618745803833,2.8548049926757812
4.5,-5.029599189758301,-1.3397431373596191,-0.7478944659233093,-2.38893461227417,4.546563625335693,2.878833293914795
4.55,-4.226353645324707,-2.1938085556030273,0.08657155185937881,-0.21373146772384644,2.4303295612335205,1.5932064056396484
4.6,-3.30759859085083,-1.7923539876937866,-0.04201755300164223,2.1915104389190674,-0.04666408896446228,-0.007308846339583397
4.65,-1.8719213008880615,-0.9006711840629578,0.1677524298429489,3.5274548530578613,-1.0433458089828491,-1.2731592655181885
4.7,-0.8037351965904236,-0.29592788219451904,1.6993745565414429,3.5722804069519043,-0.36136797070503235,-1.799050211906433
4.75,0.037705063819885254,-0.2770220637321472,2.9246838092803955,2.7841978073120117,0.6566891670227051,-1.4428681135177612
4.8,1.1390833854675293,-1.2829519510269165,3.5136337280273438,1.5042991638183594,1.1324034929275513,-0.9232499599456787
4.85,2.1281425952911377,-1.6767421960830688,4.236259460449219,0.6432504057884216,1.1460496187210083,-0.8628644943237305
4.9,2.5797300338745117,-0.22534601390361786,4.2700700759887695,0.33090144395828247,0.7640208601951599,-0.9013617038726807
4.95,2.2067599296569824,1.6268861293792725,3.1656980514526367,-0.39087817072868347,0.40565356612205505,0.00071829924127087
5.0,0.9747792482376099,2.0864996910095215,1.4491139650344849,-1.5590624809265137,0.49504581093788147,1.5243399143218994
5.05,-0.27289432287216187,0.762757420539856,0.11805510520935059,-2.3620200157165527,0.6918359398841858,2.2379326820373535
5.1,-1.2487658262252808,-1.2001105546951294,0.7939668893814087,-2.0879404544830322,0.3796696364879608,1.7463994026184082
5.15,-2.000544786453247,-1.9210635423660278,2.1636641025543213,-0.8060712218284607,-0.6224132180213928,0.6721336841583252
5.2,-2.233125686645508,-1.1434764862060547,2.346928358078003,0.16268230974674225,-1.7712616920471191,-0.447866290807724
5.25,-1.6181429624557495,0.40281030535697937,2.020439624786377,-0.18939021229743958,-2.408864974975586,-1.1689049005508423
5.3,-0.5585402250289917,1.3807995319366455,0.9184486269950867,-1.3297719955444336,-2.144620895385742,-1.1173229217529297
5.35,0.01501302607357502,0.9776917695999146,-0.09563033282756805,-2.246220111846924,-1.0064083337783813,-0.7148764729499817
5.4,-0.14868542551994324,0.7748566269874573,-0.46155741810798645,-2.3547251224517822,-0.015399402007460594,-0.7213372588157654
5.45,0.12897804379463196,0.7004212737083435,-1.2006644010543823,-1.991774320602417,0.01574002392590046,-0.9661588668823242
5.5,0.7848177552223206,0.30752357840538025,-1.8231430053710938,-1.7000656127929688,-0.4636518657207489,-1.0748631954193115
5.55,1.1658742427825928,0.47085657715797424,-1.9309662580490112,-1.4548496007919312,-0.9051542282104492,-0.8200664520263672
5.6,1.394831895828247,1.1408233642578125,-1.7887440919876099,-1.2995796203613281,-1.3646727800369263,-0.2857099771499634
5.65,1.9300975799560547,0.7975120544433594,-1.7054311037063599,-1.059341311454773,-1.5329596996307373,0.1472804844379425
5.7,1.5549437999725342,0.9577150940895081,-0.9509004354476929,-0.6620157957077026,-1.0339664220809937,-0.01447351649403572
5.75,0.6855157017707825,1.2124207019805908,0.3279367983341217,-0.39067018032073975,-0.06057239696383476,-0.42939502000808716
5.8,-0.7954336404800415,1.2823030948638916,1.0665444135665894,-0.248445063829422,1.5128705501556396,-1.21123468875885
5.85,-1.6950222253799438,0.3063928186893463,1.7518192529678345,-0.867431104183197,1.7502347230911255,-1.9090359210968018
5.9,-1.0180833339691162,0.1387912482023239,1.7844078540802002,-1.4275903701782227,0.8165178298950195,-1.7908776998519897
5.95,0.8026386499404907,0.05364421755075455,-0.04692956060171127,-1.4344403743743896,-0.5273433327674866,-1.154457688331604
6.0,2.450119972229004,-0.139227032661438,-1.9198591709136963,-1.4068875312805176,-1.274949073791504,-0.6324478983879089
6.05,3.3225059509277344,0.08554635941982269,-2.5895562171936035,-1.3421263694763184,-1.4078822135925293,-0.2235747128725052
6.1,3.790316581726074,-0.27122801542282104,-2.697114944458008,-1.125715970993042,-1.5738976001739502,0.34226858615875244
6.15,4.145873546600342,-2.069135904312134,-2.443175792694092,-0.8607065677642822,-1.2910171747207642,0.6350088715553284
6.2,2.960536479949951,-2.423105478286743,-1.166473150253296,-0.37306955456733704,-0.17640730738639832,0.1105801984667778
6.25,1.2556772232055664,-0.545140266418457,0.28574323654174805,0.21576061844825745,0.4885689616203308,-0.20120063424110413
6.3,0.5166115760803223,0.6513692736625671,1.0438746213912964,0.4363972544670105,0.3618203103542328,0.03554157912731171
6.35,0.09284129738807678,0.924422562122345,1.408624529838562,0.29653337597846985,0.25989577174186707,0.05069535970687866
6.4,-0.3335353434085846,0.25625723600387573,1.4997771978378296,0.10699152201414108,0.2552371621131897,-0.14103849232196808
6.45,-0.653748095035553,0.06960214674472809,1.3851596117019653,0.042430877685546875,0.2495715469121933,-0.3374463617801666
6.5,-0.9258504509925842,0.5762197375297546,1.2126294374465942,0.08021038770675659,0.10287848860025406,-0.31884658336639404
6.55,-0.6960039734840393,0.7234994173049927,0.7439699769020081,0.03731905668973923,-0.3564014136791229,-0.009322197176516056
6.6,-0.3512580692768097,0.6293306350708008,-0.153694286942482,-0.04276653379201889,-0.7665184736251831,0.36110568046569824
6.65,-0.11736759543418884,-0.4066554605960846,-0.7038440704345703,-0.21078740060329437,-0.6441798806190491,0.740001380443573
6.7,-0.5285584926605225,-1.1195175647735596,-0.5827559232711792,-0.2073563039302826,-0.009593934752047062,0.8830112218856812
6.75,-1.088862657546997,-0.9041321277618408,-0.6140271425247192,0.08351682126522064,0.5244569182395935,0.944165050983429
6.8,-1.4428123235702515,0.06301579624414444,-0.7823666334152222,0.35646483302116394,0.6471946239471436,1.1009502410888672
6.85,-0.9669569730758667,0.19571959972381592,-1.0140278339385986,0.32602789998054504,0.3535612225532532,1.341310739517212
6.9,-0.2885138988494873,-0.09436900913715363,-0.4001016318798065,0.3755137026309967,0.39334335923194885,1.1968711614608765
6.95,-0.5738818645477295,1.140194058418274,0.7255368828773499,0.6800016760826111,0.9067608118057251,0.3412623405456543
7.0,0.010711908340454102,2.3011813163757324,1.118673324584961,0.5468637347221375,0.4793749451637268,-0.29614144563674927
7.05,2.1477646827697754,1.4438804388046265,0.9293405413627625,0.2825234532356262,-0.7358202338218689,-0.06409621238708496
7.1,3.893907070159912,-0.7767952680587769,0.5782740116119385,0.09976157546043396,-1.525950312614441,0.15610332787036896
7.15,4.048673629760742,-2.1924023628234863,0.5314348936080933,-0.06645795702934265,-1.1245533227920532,-0.24130180478096008
7.2,2.866779327392578,-1.888616681098938,0.48089778423309326,-0.00788542628288269,-0.11103180795907974,-0.8509600758552551
7.25,1.753848910331726,-1.057826042175293,0.371770441532135,0.02138867974281311,0.42577171325683594,-0.9208483099937439
7.3,1.195861577987671,0.4093095064163208,-0.0638410821557045,-0.08872117847204208,0.26697221398353577,-0.5131264925003052
7.35,1.2995719909667969,1.188284993171692,-0.7693959474563599,-0.33516162633895874,0.00642795767635107,-0.154536634683609
7.4,1.0939602851867676,1.1795053482055664,-1.0573376417160034,-0.5357235074043274,0.12186143547296524,-0.26706016063690186
7.45,0.7899380326271057,1.0334978103637695,-0.9412319660186768,-0.31131190061569214,0.5246679782867432,-0.6442334055900574
7.5,0.41194814443588257,-0.49688920378685,-0.47176289558410645,0.17140087485313416,1.3583697080612183,-1.4538031816482544
7.55,-1.0475635528564453,-0.8120966553688049,1.0304605960845947,0.6083030700683594,2.2182559967041016,-2.488276720046997
7.6,-1.6198583841323853,-0.17158497869968414,1.7726281881332397,0.7619495987892151,1.923973560333252,-2.11085844039917
7.65,-1.2698529958724976,-1.3706207275390625,1.0832399129867554,0.7345277667045593,1.2722125053405762,-1.067160964012146
7.7,-1.6784207820892334,-1.986323595046997,0.7766779661178589,1.1178374290466309,1.4819800853729248,-1.450935959815979
7.75,-2.1975059509277344,0.2036513388156891,-0.231305330991745,1.544126033782959,1.262441635131836,-2.416069746017456
7.8,-2.0570082664489746,2.88321590423584,-1.013403296470642,1.4381115436553955,0.5184500813484192,-1.7974679470062256
7.85,-2.0947048664093018,2.276516914367676,-1.5027680397033691,0.5847481489181519,-0.32880741357803345,0.0435103215277195
7.9,-0.9311327338218689,-0.3538106381893158,-2.2954471111297607,-0.22132810950279236,-0.856876015663147,0.6837208867073059
7.95,0.5371997952461243,-0.9763272404670715,-1.8727245330810547,-0.15201430022716522,-0.15472352504730225,-0.2498207539319992
8.0,1.4083257913589478,-0.09966189414262772,-1.0557122230529785,0.3705725073814392,0.630138099193573,-0.7964757084846497
8.05,1.6202306747436523,0.03645911067724228,0.6112667322158813,0.5136818885803223,0.8715064525604248,-0.4617291986942291
8.1,1.8718222379684448,1.0362762212753296,1.7493435144424438,0.5722486972808838,0.6951647400856018,-0.3488837778568268
8.15,2.6877641677856445,2.810218572616577,4.166424751281738,0.4598081111907959,0.5712627172470093,-0.18122783303260803
8.2,1.5287171602249146,-1.1472527980804443,2.610036849975586,0.571578323841095,-0.0005870408494956791,1.234071135520935
8.25,1.5917725563049316,-3.4976322650909424,-1.778868556022644,0.5786981582641602,-0.8007718920707703,1.1747568845748901
8.3,0.5431544184684753,0.18833832442760468,-0.14401856064796448,0.3942797780036926,0.12640511989593506,0.22830380499362946
8.35,-0.3268483281135559,0.6276589632034302,0.7259517312049866,0.05540236085653305,0.17187532782554626,0.22130924463272095
8.4,0.018601328134536743,-1.1289845705032349,-0.3811939060688019,-0.21207214891910553,-0.20122189819812775,0.4982779920101166
8.45,0.5976979732513428,0.30840688943862915,0.10321209579706192,-0.19816425442695618,0.1854359358549118,-0.03693155199289322
8.5,0.14319953322410583,0.20355224609375,-0.38495174050331116,-0.18309688568115234,-0.010045647621154785,-0.0711885467171669
8.55,0.9956367015838623,0.5760031938552856,0.41021767258644104,0.0317329540848732,0.03349290415644646,0.12207257002592087
8.6,1.2847747802734375,-0.226008340716362,0.3951855003833771,0.2828725278377533,-0.018906675279140472,0.23994004726409912
8.65,0.48835301399230957,1.5510475635528564,-0.33490288257598877,0.2764813303947449,-0.17471560835838318,0.18140216171741486
8.7,0.6356585621833801,1.827362298965454,-0.37966349720954895,0.02008071541786194,-0.2897874414920807,0.5649167895317078
8.75,1.1898152828216553,-0.5902251601219177,0.3931652009487152,-0.1389601230621338,-0.11320146918296814,0.1524544507265091
8.8,-0.030140593647956848,0.8607189059257507,0.5711306929588318,-0.45089632272720337,-0.11681365966796875,-0.5890944600105286
8.85,-0.0017288923263549805,-0.3474292755126953,0.21025332808494568,-0.2710132896900177,-0.14286859333515167,-0.2739507257938385
8.9,0.3632497191429138,-0.46715840697288513,-0.3851282596588135,-0.011903023347258568,-0.1993967890739441,-0.03376479819417
8.95,0.4253915846347809,0.6023989915847778,0.11090193688869476,-0.09940080344676971,-0.16555610299110413,-0.1695721447467804
9.0,0.5095586180686951,0.39753443002700806,-0.23678772151470184,-0.24716997146606445,-0.09074242413043976,-0.2544119656085968
9.05,0.8870149254798889,0.2253304272890091,0.12120980024337769,-0.20634254813194275,-0.08880826830863953,-0.3294757604598999
9.1,0.7150231599807739,-0.5915394425392151,-0.38007593154907227,-0.1965998113155365,-0.24814872443675995,-0.141941636800766
9.15,0.6916018724441528,-0.6606302857398987,-0.2356906682252884,-0.17331871390342712,-0.11551371961832047,-0.16902990639209747
9.2,0.8334375619888306,-0.4571076035499573,-0.40959101915359497,-0.06790908426046371,0.029238905757665634,-0.1437029093503952
9.25,0.5541530847549438,-0.07505900412797928,-0.7520960569381714,-0.12102638930082321,0.054070260375738144,-0.04146308824419975
9.3,0.7375991940498352,-0.1413622349500656,-0.5796074867248535,0.023393670096993446,-0.0002563977031968534,-0.048249997198581696
9.35,0.4506455659866333,-0.2406167984008789,0.03079576976597309,0.12194393575191498,0.0991332083940506,0.061451178044080734
9.4,0.008194267749786377,-0.1462831348180771,0.22875846922397614,0.16171588003635406,0.15023864805698395,0.32266828417778015
9.45,-0.39138656854629517,0.3206968307495117,-0.09130050241947174,0.15092483162879944,0.0005903728888370097,0.5200472474098206
9.5,-0.2114371806383133,0.2475796639919281,0.5761816501617432,0.2553369402885437,0.11451064795255661,0.4826386272907257
9.55,0.10273054242134094,-0.2822570502758026,0.38004326820373535,0.14083899557590485,-0.046514593064785004,0.4017328917980194
9.6,0.14801225066184998,0.1650744080543518,0.4058753252029419,0.06811611354351044,-0.18858183920383453,0.12475918978452682
9.65,-0.039743196219205856,0.2674999535083771,0.04493555799126625,-0.09192214161157608,-0.3119843304157257,0.06297039240598679
9.7,0.13961340487003326,0.2645884156227112,0.23027026653289795,-0.22278311848640442,-0.1614508181810379,0.025783292949199677
9.75,0.3482372760772705,0.2884140908718109,0.3999744951725006,-0.16164976358413696,0.09201864153146744,-0.050114940851926804
9.8,0.5938937067985535,0.21483145654201508,0.41319042444229126,-0.13981355726718903,0.12418299168348312,0.0013610495952889323
9.85,0.800511360168457,0.2436257153749466,0.0947737991809845,-0.150223046541214,0.1053832545876503,0.09600482881069183
9.9,0.6352494359016418,-0.24803447723388672,0.0005818160716444254,-0.2844781279563904,-0.01898449845612049,0.34683188796043396
9.95,0.23041193187236786,-0.554202139377594,0.022551344707608223,-0.2954501807689667,-0.11797783523797989,0.4372882843017578
10.0,-0.11308576166629791,-0.4159603714942932,-0.04595246538519859,-0.13456101715564728,-0.08839429914951324,0.4288029670715332
10.05,-0.01965223252773285,-0.49012187123298645,0.16598139703273773,0.03804577887058258,-0.02567244879901409,0.499798446893692
10.1,-0.07826587557792664,-1.0682461261749268,-1.1493273973464966,0.25863146781921387,-0.11631163209676743,0.5534870028495789
10.15,-0.4546016752719879,0.24103356897830963,0.027922971174120903,0.3447524905204773,-0.0547204352915287,0.37176764011383057
10.2,-0.7635841965675354,0.17196278274059296,0.597962498664856,0.28341034054756165,-0.23180395364761353,0.4121762216091156
10.25,-1.2163561582565308,0.29222017526626587,0.8235458731651306,0.24067464470863342,-0.5164458155632019,0.44851887226104736
10.3,-1.1199225187301636,0.6708508133888245,0.2881298363208771,0.17168660461902618,-0.6824309229850769,0.4153520166873932
10.35,-0.5109608173370361,-0.09556104987859726,0.14784452319145203,0.1579505205154419,-0.4003978669643402,0.40364810824394226
10.4,-0.716970682144165,0.2643042504787445,0.8070078492164612,-0.06801486015319824,0.033549148589372635,0.18464845418930054
10.45,-0.9856979250907898,0.21543508768081665,0.6379108428955078,-0.329233318567276,0.14046841859817505,0.030711451545357704
10.5,-0.8355659246444702,0.21149642765522003,0.6943116188049316,-0.3705078661441803,0.30305051803588867,-0.0846618264913559
10.55,-0.5265156626701355,0.599215567111969,0.4098770022392273,-0.3274352550506592,0.3998871445655823,-0.05450483784079552
10.6,0.03931007906794548,0.6675081849098206,-0.16024553775787354,-0.4681333005428314,0.3815240263938904,0.036965325474739075
10.65,0.13099434971809387,1.944576382637024,-1.0774919986724854,-0.3187197744846344,0.4262503683567047,0.001707522664219141
10.7,0.5618018507957458,1.8154938220977783,-0.05836174637079239,-0.07440424710512161,0.624521017074585,0.3315485119819641
10.75,0.668084979057312,0.823520839214325,0.2583824098110199,-0.1627560257911682,0.33158767223358154,0.6370945572853088
10.8,0.9440408945083618,0.08437919616699219,-0.4284411668777466,-0.4747477173805237,-0.09382572770118713,0.6921408176422119
10.85,1.4134187698364258,0.04770181328058243,-0.8239833116531372,-0.3151983618736267,0.20669007301330566,0.3480960428714752
10.9,1.6307159662246704,-0.008046061731874943,0.16362237930297852,0.013338297605514526,0.6096447110176086,-0.007488540839403868
10.95,1.5623621940612793,-0.8887147307395935,1.0890754461288452,0.06749395281076431,0.22804905474185944,-0.13620653748512268
11.0,0.3629499673843384,-1.7358900308609009,-3.4446675777435303,0.5240193605422974,-0.5456843972206116,0.22550399601459503
11.05,0.7074208855628967,0.4310169816017151,-0.2663302421569824,0.44839391112327576,-0.5336500406265259,0.06329479068517685
11.1,0.5260075330734253,-0.23383620381355286,-0.16804510354995728,0.02289211004972458,-0.4208354353904724,-0.1833360344171524
11.15,1.3370120525360107,0.979754626750946,0.04129322990775108,-0.046492546796798706,0.1328977793455124,-0.6851726770401001
11.2,1.3282477855682373,0.3255247473716736,3.0579235553741455,0.36170676350593567,-0.38729023933410645,-0.632415235042572
11.25,-0.10851383209228516,4.124807834625244,1.861344337463379,0.18998633325099945,-2.5783069133758545,-0.36023932695388794
11.3,-0.11821328103542328,1.300858497619629,-0.7991276383399963,-0.5584991574287415,-4.128880023956299,2.599130630493164
11.35,2.4332258701324463,-1.0760862827301025,-1.5429542064666748,-1.4146108627319336,-3.9831955432891846,3.50378155708313
11.4,2.140688419342041,2.5667948722839355,0.5293934941291809,-1.1603220701217651,-2.5299532413482666,-0.04355505481362343
11.45,-0.4990244507789612,5.2575297355651855,1.399238109588623,-0.3567609190940857,-1.3016810417175293,-3.5954437255859375
11.5,-3.6867306232452393,10.764415740966797,-0.16275516152381897,0.8139582872390747,-1.255380392074585,-5.415709972381592
11.55,-1.5431804656982422,9.807880401611328,-2.1010966300964355,0.22825121879577637,-3.0328776836395264,-6.04518985748291
11.6,0.6282778978347778,-0.9886089563369751,-4.737857341766357,-1.1633350849151611,-4.1717305183410645,-6.804603099822998
11.65,2.0126583576202393,-8.566227912902832,-2.107396364212036,-0.7239807844161987,-4.806371688842773,-6.628298759460449
11.7,1.9091994762420654,-11.708990097045898,2.0737133026123047,-0.39676499366760254,-4.282033443450928,-4.2726030349731445
11.75,1.0066803693771362,-12.372095108032227,5.482761383056641,-0.3576114773750305,-2.349741220474243,-1.7146186828613281
11.8,1.1343485116958618,-11.353120803833008,5.408960819244385,0.4491730332374573,0.2843966484069824,0.4847830832004547
11.85,3.8393328189849854,-6.141890525817871,-0.5916725993156433,1.409373164176941,3.5261173248291016,2.434051036834717
11.9,-0.23855257034301758,5.357388019561768,-6.697707653045654,2.543787717819214,5.880390167236328,4.0044074058532715
11.95,-0.2576991319656372,2.493407964706421,-4.976832866668701,4.472146987915039,3.9560863971710205,1.161124587059021
12.0,-3.2538561820983887,3.8448402881622314,-1.6028910875320435,7.332057476043701,4.357509136199951,-1.0067460536956787
12.05,0.03892010450363159,9.641647338867188,1.8617725372314453,4.897213935852051,2.4968769550323486,0.20927280187606812
12.1,-6.434061050415039,10.957658767700195,-1.6999973058700562,-1.936015009880066,-1.2516294717788696,4.400425434112549
12.15,0.10050472617149353,2.1021854877471924,-0.29541194438934326,-6.394325256347656,-3.7826178073883057,2.2194631099700928
12.2,1.4641218185424805,-5.503783226013184,2.779273271560669,-5.308599472045898,-2.4194769859313965,-0.8191177248954773
12.25,2.3149349689483643,-5.339083194732666,3.528695821762085,-1.0742255449295044,0.011392489075660706,-2.671626329421997
12.3,0.42111948132514954,-7.554250240325928,1.3771541118621826,0.47302645444869995,2.79050350189209,-1.7898074388504028
12.35,-1.8676384687423706,-7.554967403411865,-6.237755298614502,1.3434535264968872,4.647177696228027,0.3185046911239624
12.4,-3.970994710922241,7.326625347137451,-4.154014587402344,6.646074295043945,4.1928815841674805,0.10408618301153183
12.45,-2.2800867557525635,4.788586616516113,-4.7886481285095215,2.5853216648101807,-1.427312970161438,1.1530117988586426
12.5,-0.16421222686767578,0.9343492984771729,-7.201815605163574,-4.10774564743042,-5.413052082061768,2.4706034660339355
12.55,0.8759804964065552,-7.330759048461914,-2.373861312866211,-5.134641170501709,-4.843423366546631,1.8879209756851196
12.6,2.609917640686035,-7.21359395980835,0.7157541513442993,0.3379916548728943,-3.9909160137176514,-0.07414554059505463
12.65,3.4997730255126953,-1.042647123336792,1.4067736864089966,5.170234203338623,-1.873199224472046,-1.139221429824829
12.7,2.0350844860076904,6.454544544219971,4.031647682189941,4.066272735595703,0.317636638879776,0.5589273571968079
12.75,0.01902151107788086,4.8885297775268555,3.8101794719696045,-0.8454718589782715,-0.3568328022956848,2.355902671813965
12.8,0.08093208074569702,1.420458197593689,2.4883339405059814,-1.9765244722366333,-2.238637924194336,2.713808298110962
12.85,0.9782950282096863,0.8144209980964661,1.0251879692077637,-1.9270216226577759,-2.177541494369507,2.3790245056152344
12.9,2.061781406402588,-0.3545169234275818,-0.07783620059490204,-2.2021334171295166,-0.9283246397972107,1.5674846172332764
12.95,2.6161184310913086,0.03938122093677521,0.6955515742301941,-1.3055579662322998,0.19483356177806854,0.9169037938117981
13.0,3.4792823791503906,-0.5968732237815857,-0.30116891860961914,-0.5302962064743042,1.0344692468643188,0.35174649953842163
13.05,3.740832567214966,-2.3027374744415283,-2.211228609085083,-1.0078051090240479,1.730151891708374,-0.11198031902313232
13.1,2.5336852073669434,-3.606806516647339,-3.330245018005371,-1.9716832637786865,2.445981979370117,0.19898542761802673
13.15,-0.7706947922706604,-3.0611164569854736,-2.7215425968170166,-2.0085763931274414,3.0622825622558594,1.8714487552642822
13.2,-1.8792967796325684,-3.63378643989563,-1.3134684562683105,-0.7557780742645264,2.4887502193450928,4.174679279327393
13.25,-1.845584511756897,-1.7347484827041626,-2.044961452484131,1.8511344194412231,1.372686505317688,4.828184604644775
13.3,-2.5515503883361816,1.023903489112854,-2.8090007305145264,3.6015784740448,1.1690930128097534,3.397357702255249
13.35,-4.877109527587891,3.0583441257476807,-0.8400623798370361,3.110400915145874,1.6377521753311157,1.5728139877319336
13.4,-5.706620693206787,2.8464691638946533,1.931344747543335,2.4392282962799072,1.9544905424118042,0.5026190876960754
13.45,-5.072457790374756,0.9563458561897278,3.5714573860168457,1.9648469686508179,1.7806378602981567,0.051744017750024796
13.5,-3.973452091217041,-0.6081988215446472,4.5617594718933105,1.3764475584030151,1.137170433998108,-0.3255588710308075
13.55,-3.075483798980713,0.29218530654907227,5.249129295349121,1.0649423599243164,0.46578899025917053,-0.7523964047431946
13.6,-2.346745491027832,0.4336831867694855,7.080515384674072,1.3297829627990723,-0.6195240616798401,-1.4570566415786743
13.65,-0.6278814077377319,3.416994094848633,3.6543378829956055,1.1847705841064453,-1.787404179573059,-1.7242777347564697
13.7,1.419918179512024,6.542070388793945,0.16338279843330383,-1.1768813133239746,-0.5850923657417297,-0.7959279417991638
13.75,0.80104660987854,3.414702892303467,-0.5214921236038208,-3.2238247394561768,1.8153111934661865,-0.07833602279424667
13.8,0.018627852201461792,0.3344498872756958,0.8521958589553833,-2.9290571212768555,2.9114174842834473,-0.1909516602754593
13.85,0.7945219874382019,1.3511897325515747,-0.653270959854126,-1.7927947044372559,1.4442133903503418,-0.6639721989631653
13.9,1.6355648040771484,1.1954714059829712,-4.525597095489502,-1.8707102537155151,-0.3546103239059448,-0.22445397078990936
13.95,0.29000020027160645,-0.02220715582370758,-7.757772445678711,-2.6466870307922363,0.6140064001083374,0.8240574598312378
14.0,-1.8833762407302856,-4.184793949127197,-6.611069679260254,-3.4256603717803955,2.85717511177063,1.819541096687317
14.05,-1.856575846672058,-7.1239333152771,-4.298331260681152,-3.136795997619629,3.458362340927124,2.0023691654205322
14.1,-0.016667410731315613,-5.940911769866943,0.15666982531547546,-0.9053835868835449,2.5900051593780518,1.4202758073806763
14.15,-0.014305993914604187,-5.1411051750183105,-0.727839469909668,3.7596983909606934,1.3253477811813354,-0.9565582275390625
14.2,-3.5247955322265625,0.885390043258667,-1.742991328239441,5.958991527557373,1.0635594129562378,-4.04226016998291
14.25,-1.9926661252975464,3.49165678024292,1.823940396308899,5.054378509521484,0.8890382647514343,-3.608713150024414
14.3,0.28612351417541504,4.356834411621094,6.0141777992248535,3.3966619968414307,0.7008515000343323,-2.171078681945801
14.35,2.2280290126800537,2.133352518081665,7.986428737640381,2.4673707485198975,0.887285053730011,-1.1655503511428833
14.4,3.3972361087799072,-0.43250954151153564,6.829757213592529,1.2692569494247437,1.3047524690628052,-0.6186435222625732
14.45,4.332125663757324,-1.2428114414215088,5.377382755279541,-0.8754737377166748,1.3930233716964722,-0.4979734718799591
14.5,4.862245082855225,-1.0049071311950684,3.8644540309906006,-2.1551496982574463,0.8800197243690491,-0.6199524998664856
14.55,4.857696056365967,4.346630096435547,3.45405912399292,-1.9573004245758057,0.315341979265213,-0.315586656332016
14.6,5.984219551086426,6.2334065437316895,3.480879068374634,-0.9878579378128052,-1.0218101739883423,-0.13459578156471252
14.65,5.451844215393066,4.274919509887695,3.3775277137756348,-0.2971511781215668,-1.386110544204712,0.6376602649688721
14.7,9.612531661987305,9.853826522827148,0.1429567188024521,-2.5400748252868652,-0.5479539632797241,2.2906603813171387
14.75,5.690044403076172,22.283601760864258,-1.8301506042480469,-3.9000344276428223,-0.14043766260147095,3.321427345275879
14.8,-10.620614051818848,18.28525161743164,-10.539865493774414,-3.0309412479400635,0.7535938024520874,7.705554008483887
14.85,-18.385704040527344,0.7013666033744812,-8.810811996459961,-4.124079704284668,2.6509246826171875,9.019145965576172
14.9,-12.049768447875977,-9.905391693115234,-1.6191201210021973,-5.663189888000488,3.264406204223633,7.04719877243042
14.95,-6.1743388175964355,-11.819538116455078,1.2676095962524414,-4.467191219329834,1.312077283859253,4.3261566162109375
15.0,-4.632863998413086,-13.895427703857422,2.0151913166046143,-2.0575499534606934,-0.3722715675830841,2.421788215637207
15.05,-4.669430732727051,-12.512846946716309,3.9998183250427246,-1.8248037099838257,-0.7061543464660645,1.0158013105392456
15.1,-4.73799467086792,-9.587631225585938,5.606025695800781,-1.089030146598816,-0.37105754017829895,0.23784270882606506
15.15,-2.3562870025634766,-11.63304615020752,4.119758605957031,0.6812910437583923,-0.7288781404495239,0.24560943245887756
15.2,-1.1994118690490723,-11.395110130310059,3.993978977203369,-0.08314856886863708,-2.2423417568206787,-0.38592618703842163
15.25,-3.5461816787719727,-11.846619606018066,1.8182928562164307,0.394706666469574,-3.5462121963500977,-2.034423589706421
15.3,-7.155996322631836,-10.032527923583984,-1.3496901988983154,1.9788367748260498,-3.605172872543335,-3.5425665378570557
15.35,-8.702627182006836,-2.1935927867889404,-5.4671101570129395,3.5198376178741455,-2.73020076751709,-4.498426914215088
15.4,-5.926498889923096,10.654702186584473,-7.1310906410217285,4.633617401123047,-2.3549692630767822,-4.159067630767822
15.45,3.3787245750427246,16.030420303344727,-4.705865383148193,4.660566329956055,-2.9381186962127686,-2.524895668029785
15.5,11.052702903747559,15.979702949523926,-1.4774603843688965,1.2427600622177124,-2.958670139312744,-2.999454975128174
15.55,14.583781242370605,9.568774223327637,0.05831164866685867,-0.6308727860450745,-2.214021682739258,-1.6764217615127563
15.6,14.148898124694824,4.879207134246826,-3.7323954105377197,-0.34612035751342773,-1.7645050287246704,1.5300706624984741
15.65,7.833277702331543,2.29549503326416,-5.865736484527588,-2.4508461952209473,2.3936755657196045,1.187834620475769
15.7,-2.7315073013305664,-0.07184338569641113,-0.998126208782196,-6.993286609649658,7.279430389404297,-2.387976884841919
15.75,-5.025119781494141,-2.904110908508301,4.548737049102783,-9.361194610595703,8.493584632873535,-3.8364672660827637
15.8,-1.9390326738357544,1.406394124031067,0.38623401522636414,-9.026847839355469,6.4924821853637695,-3.5390384197235107
15.85,-4.0321526527404785,-2.8396122455596924,1.4899035692214966,-2.689462661743164,3.099456310272217,-0.3822861909866333
15.9,-5.396271705627441,-4.825638771057129,4.0112385749816895,1.1465126276016235,1.242201328277588,1.3853704929351807
15.95,-3.0285024642944336,-4.799166679382324,2.348872661590576,0.5738650560379028,0.056716438382864,0.4840083718299866
16.0,-2.7060844898223877,-4.108478546142578,1.859954595565796,0.16820424795150757,-1.0751018524169922,0.0862199142575264
16.05,-2.2856974601745605,-2.5523924827575684,2.999006986618042,0.07487753033638,-1.3528716564178467,-0.645919680595398
16.1,-1.3039838075637817,1.4719641208648682,1.9666647911071777,-0.8678507804870605,-1.8326606750488281,-1.4635478258132935
16.15,-2.0223331451416016,0.32136091589927673,3.502272129058838,0.11559523642063141,-2.210225820541382,-0.6506936550140381
16.2,-3.188432216644287,-1.3020381927490234,2.6695117950439453,0.6151435375213623,-3.683669090270996,0.22417600452899933
16.25,-4.501089096069336,-1.389777660369873,-0.9630287289619446,1.1361980438232422,-5.166710376739502,0.2022961527109146
16.3,-2.965397357940674,-0.7649551033973694,-2.8335535526275635,1.7735093832015991,-5.4311113357543945,0.3778647184371948
16.35,0.24529898166656494,2.2563931941986084,-4.433974266052246,1.6148607730865479,-5.997350215911865,0.8253751397132874
16.4,3.06257700920105,1.771489143371582,-3.8124430179595947,0.7809281349182129,-5.727112293243408,0.986905574798584
16.45,4.73293924331665,1.6389477252960205,-1.7706838846206665,0.21233294904232025,-3.518214702606201,-0.5457824468612671
16.5,4.243692874908447,2.4817843437194824,0.8870978951454163,0.6178211569786072,-2.1226813793182373,0.0037805738393217325
16.55,3.207242488861084,1.9619420766830444,0.2770054340362549,-0.23592126369476318,-1.9032708406448364,0.6093883514404297
16.6,2.806365728378296,1.2757046222686768,0.3948921859264374,-0.6761497855186462,-1.2930564880371094,0.39238351583480835
16.65,2.5850682258605957,1.0825207233428955,0.5131421089172363,-0.5023782849311829,-0.7693345546722412,0.006322694476693869
16.7,1.5949993133544922,0.3698236048221588,0.5465282797813416,0.0069446861743927,-0.3628639280796051,1.2285884618759155
16.75,1.2931978702545166,-2.165224313735962,-0.6525606513023376,0.6297683715820312,0.14063484966754913,2.960261344909668
16.8,-0.5225426554679871,-1.52387535572052,0.7616647481918335,1.1266591548919678,0.7043044567108154,2.478954553604126
16.85,-0.5965673923492432,0.37471655011177063,-1.8297728300094604,0.2268962562084198,0.04737190902233124,1.0645549297332764
16.9,-0.448835164308548,2.9416067600250244,0.012823366560041904,-0.08157623559236526,0.6774556636810303,-0.00819385889917612
16.95,1.2405242919921875,6.528968811035156,-0.012080129235982895,-1.0923478603363037,1.2198834419250488,-1.1750155687332153
17.0,1.431460976600647,4.148613452911377,0.23497368395328522,-2.7253425121307373,1.784793734550476,-1.8659906387329102
17.05,-0.013533137738704681,3.124851703643799,0.26375558972358704,-3.3005504608154297,1.9796361923217773,-1.6240260601043701
17.1,-5.017885208129883,-0.3894960880279541,0.4078887104988098,-3.339447498321533,1.741307258605957,-0.8234711289405823
17.15,-5.07942008972168,2.921342611312866,-2.91627836227417,-3.3247311115264893,-0.7466040253639221,0.2532366216182709
17.2,1.943019151687622,6.3459367752075195,-9.786319732666016,-4.398931980133057,-2.9515020847320557,2.332759141921997
17.25,11.834814071655273,-1.7740341424942017,-7.413482666015625,-7.070932388305664,-1.1279834508895874,3.1090474128723145
17.3,8.913235664367676,-4.089859485626221,-0.09095001965761185,-4.694187164306641,-0.735282838344574,-3.467510461807251
17.35,5.677093029022217,-7.981964588165283,-0.9440304040908813,-1.8880889415740967,-3.009829521179199,-6.849217414855957
17.4,-3.1914970874786377,-9.878213882446289,3.9482390880584717,-2.281843423843384,-1.3670889139175415,-5.986398220062256
17.45,-6.958157062530518,-6.350884914398193,5.285430908203125,-1.346096396446228,-0.09908729791641235,-3.1017253398895264
17.5,-6.64970064163208,-3.5408992767333984,1.8115911483764648,0.9190970659255981,0.505330502986908,-0.44254979491233826
17.55,-2.6133999824523926,0.5116792917251587,-2.5195350646972656,2.376291036605835,-0.1989772468805313,0.2656581699848175
17.6,4.108476638793945,3.890061378479004,-6.087316989898682,1.3612604141235352,-0.5407652854919434,0.8667145371437073
17.65,1.1047918796539307,4.000224590301514,-1.4950664043426514,-0.19474291801452637,1.7484591007232666,2.0610926151275635
17.7,-1.6352510452270508,1.4716875553131104,2.201112747192383,-1.971961498260498,0.5557878613471985,1.624841570854187
17.75,-10.245694160461426,-1.6050468683242798,8.947443008422852,-2.511486291885376,-0.6827564835548401,2.8018038272857666
17.8,-10.800752639770508,-10.056589126586914,8.72859001159668,-0.3577702045440674,-1.4236366748809814,5.2503252029418945
17.85,2.0754151344299316,-3.8144774436950684,-4.759599685668945,3.5754308700561523,0.7890864014625549,5.653750896453857
17.9,-8.31871509552002,-8.267180442810059,-10.515153884887695,-1.8948760032653809,8.850218772888184,12.26746940612793
17.95,48.54298782348633,8.243412017822266,19.466041564941406,-7.302381992340088,7.063624858856201,16.677326202392578
18.0,0.2357426881790161,-0.40186071395874023,-3.961801767349243,5.318180084228516,-2.7451155185699463,-9.63456916809082
18.05,-6.002249240875244,-2.8022000789642334,-1.3671478033065796,4.776932239532471,-3.400052785873413,-13.823387145996094
18.1,-6.5100812911987305,-0.9791690111160278,2.3257687091827393,3.803231716156006,-2.183906078338623,-12.897562026977539
18.15,1.689360499382019,-1.6346789598464966,0.08442173898220062,2.415210723876953,-2.740546703338623,-9.062692642211914
18.2,-2.2043581008911133,-5.675718784332275,-2.481161594390869,2.0068094730377197,0.9750431180000305,-0.7770669460296631
18.25,-8.241798400878906,-6.82690954208374,-4.482063293457031,4.520725250244141,0.8832607865333557,2.036778450012207
18.3,0.5968954563140869,3.0302436351776123,-7.525609016418457,6.270739555358887,-1.6614606380462646,-2.9592843055725098
18.35,4.659620761871338,6.226194381713867,-0.8586028218269348,5.998115062713623,-2.0094356536865234,-0.3916323184967041
18.4,0.921405553817749,2.8744993209838867,-1.867479920387268,2.220829963684082,-3.90990948677063,2.7680492401123047
18.45,2.7710983753204346,3.999061346054077,0.04971325397491455,1.435843825340271,-2.4768145084381104,-0.032666053622961044
18.5,3.2140798568725586,2.525146484375,5.883009433746338,1.6994692087173462,-1.623233437538147,0.17093227803707123
18.55,1.3866877555847168,3.647488832473755,5.488254547119141,0.7628824710845947,-2.3410890102386475,0.5347161293029785
18.6,0.7659578323364258,5.44921350479126,8.936249732971191,-0.5643895268440247,-2.1851868629455566,0.47052112221717834
18.65,-0.9666502475738525,6.02512264251709,8.402445793151855,-2.5883190631866455,-2.697244882583618,1.4136518239974976
18.7,0.052475929260253906,4.350779056549072,6.602225303649902,-4.049427032470703,-1.9230327606201172,1.8126543760299683
18.75,2.893312454223633,0.811362624168396,0.9061326384544373,-4.679328918457031,0.24430499970912933,0.3153921663761139
18.8,-1.9356533288955688,-2.8018906116485596,-6.930571556091309,-3.6592559814453125,2.496155261993408,-0.8881257176399231
18.85,-13.240781784057617,6.7807698249816895,-9.641704559326172,-1.3556928634643555,1.9544556140899658,-1.2482048273086548
18.9,-6.79407262802124,-1.2976422309875488,-17.387554168701172,-4.213512420654297,-4.448555946350098,1.7636659145355225
18.95,3.7670812606811523,-5.397756576538086,-6.628157138824463,-4.44077205657959,-6.566893577575684,1.6448103189468384
19.0,5.5610127449035645,-5.4227495193481445,3.9419424533843994,-3.0886805057525635,-4.285912990570068,0.8927592635154724
19.05,4.749563217163086,-3.2469799518585205,8.079655647277832,-1.62586510181427,-2.082928419113159,0.34027165174484253
19.1,7.281495094299316,-1.0222660303115845,10.533846855163574,-0.0982494130730629,-0.8831714987754822,-0.03494567424058914
19.15,4.653072357177734,-1.1056020259857178,9.936125755310059,1.2132375240325928,1.614646315574646,-0.8851566314697266
19.2,3.658595085144043,-4.026493549346924,4.834381580352783,2.3955562114715576,3.122377634048462,-0.3513358235359192
19.25,1.127066969871521,0.9385432600975037,-1.8126338720321655,4.232844352722168,3.5024454593658447,0.12841731309890747
19.3,-1.0349788665771484,5.125685691833496,-4.052880764007568,4.300778388977051,2.8826394081115723,0.231392964720726
19.35,-1.4921984672546387,5.671138763427734,-4.708730697631836,2.349998950958252,1.1984851360321045,0.1152423843741417
19.4,-2.6473920345306396,4.799737930297852,-4.358153820037842,0.3253606855869293,-0.5958535671234131,-0.09401728212833405
19.45,-4.115983009338379,2.854832410812378,-3.521801233291626,-1.1713204383850098,-2.2191731929779053,-0.19073808193206787
19.5,0.7931234836578369,-6.302881717681885,0.9381051659584045,-2.7459375858306885,-4.204434871673584,1.10576331615448
19.55,4.262100696563721,-4.946439743041992,6.212949752807617,-1.5599868297576904,-3.181469202041626,1.800615906715393
19.6,7.4730024337768555,-2.962697982788086,7.172893524169922,-1.2772886753082275,-1.1758524179458618,2.393944025039673
19.65,7.935318946838379,4.165916919708252,5.235361576080322,-0.36002323031425476,1.0465469360351562,1.2279835939407349
19.7,6.824472427368164,4.480732440948486,-0.6678207516670227,-3.087322950363159,2.0535717010498047,0.10469014197587967
19.75,2.3245508670806885,-6.629129886627197,2.521493911743164,-6.157565593719482,2.4205827713012695,-0.34130018949508667
19.8,-0.8185833692550659,-7.570229530334473,3.7732226848602295,-1.834153652191162,0.34086543321609497,-1.2161937952041626
19.85,1.425167202949524,-6.478466987609863,-0.4721531271934509,2.6284313201904297,-2.084348440170288,-0.14176376163959503
19.9,1.3674050569534302,0.7350025773048401,-0.5312684774398804,2.702180862426758,-2.5688984394073486,1.7544680833816528
19.95,2.5958051681518555,3.995319128036499,1.6277952194213867,0.420454204082489,-3.3314273357391357,2.773885488510132
20.0,0.20267713069915771,6.347752094268799,3.624173164367676,0.0826597809791565,-2.9700052738189697,1.7926000356674194
20.05,-2.079786777496338,3.9683589935302734,4.692439556121826,-0.11109508574008942,-2.4976038932800293,0.7437416911125183
20.1,-2.9712016582489014,3.839752197265625,4.899162769317627,-0.012722155079245567,-2.183303117752075,-0.013060345314443111
20.15,-1.7976179122924805,1.4246826171875,7.749896049499512,-0.3699713349342346,-2.657834053039551,-0.43438345193862915
20.2,0.02573370933532715,1.7698544263839722,5.044885158538818,0.3529466688632965,-1.6441853046417236,-0.45518550276756287
20.25,0.4817657470703125,-0.7430427670478821,2.1311075687408447,-0.8325053453445435,-0.8885781168937683,-1.2834478616714478
20.3,1.5279465913772583,-2.152181625366211,1.8760058879852295,-1.705309271812439,-1.8501238822937012,-1.4493390321731567
20.35,3.417836904525757,-1.805546522140503,2.7243082523345947,-1.632646918296814,-1.8180228471755981,-1.2102876901626587
20.4,3.084324836730957,-1.585307002067566,2.295748472213745,-0.8080700635910034,-0.9686781167984009,-2.024275064468384
20.45,0.625738263130188,-3.1139256954193115,2.2725636959075928,-0.5147219896316528,0.10598115622997284,-2.2481589317321777
20.5,2.8449602127075195,-2.171400785446167,2.5421676635742188,-1.4885585308074951,-0.4923800826072693,-0.9689777493476868
20.55,2.809713363647461,0.3141902983188629,2.050689458847046,-0.440604031085968,0.5175422430038452,-0.4667907953262329
20.6,1.6610429286956787,0.11629712581634521,2.460817575454712,-0.49585431814193726,0.38285112380981445,0.023118557408452034
20.65,0.04316803812980652,0.538914680480957,-0.29928848147392273,-1.0403943061828613,0.06526840478181839,0.3887707591056824
20.7,-0.8349001407623291,-1.118889570236206,3.03728985786438,-0.8319478034973145,0.3455941081047058,0.20039184391498566
20.75,3.3221962451934814,-0.05702042579650879,5.220849990844727,-0.08857393264770508,0.5628262758255005,0.5210257172584534
20.8,0.33418262004852295,0.6782638430595398,0.9488616585731506,0.5476021766662598,0.6479244828224182,0.011820795945823193
20.85,1.0439097881317139,0.5853291749954224,0.23466001451015472,0.6536860466003418,0.6180955171585083,-0.02584679424762726
20.9,1.4994245767593384,1.3534090518951416,0.29042598605155945,0.5917437672615051,0.8502025008201599,-0.015561479143798351
20.95,1.0975863933563232,0.7849038243293762,0.9603855609893799,0.41525179147720337,1.0344669818878174,-0.010110106319189072
21.0,0.2294975221157074,-0.02630509063601494,0.9182047843933105,0.38665977120399475,0.8571683764457703,0.11770284920930862
21.05,-0.07136678695678711,-0.4562358558177948,0.897240936756134,0.4811215400695801,0.4623371660709381,0.33722028136253357
21.1,0.10931213200092316,-0.484065979719162,0.7291486859321594,0.48498353362083435,0.35274529457092285,0.406662255525589
21.15,0.4292866289615631,0.029317012056708336,0.7816704511642456,0.3999663293361664,0.344713032245636,0.3903663754463196
21.2,0.27011168003082275,0.3390190005302429,1.1724673509597778,0.2021256536245346,0.27291324734687805,0.35526227951049805
21.25,0.29078641533851624,0.45326921343803406,1.2718313932418823,0.168487548828125,0.08210527896881104,0.39794468879699707
21.3,0.3726181387901306,0.4766848087310791,1.4487837553024292,0.13150592148303986,-0.03961892053484917,0.3435722589492798
21.35,0.64121413230896,0.41733673214912415,1.5068215131759644,0.0634993463754654,-0.13652881979942322,0.3274931013584137
21.4,1.007866382598877,0.4413369297981262,1.6333900690078735,-0.07210196554660797,-0.20559938251972198,0.2448500096797943
21.45,0.8108704090118408,0.004116343799978495,2.250073194503784,-0.23399071395397186,-0.22990109026432037,0.12073348462581635
21.5,1.019797444343567,0.039976391941308975,2.008756637573242,-0.21212731301784515,-0.24436208605766296,0.1053803488612175
21.55,1.035394549369812,0.2807324230670929,1.808558464050293,-0.2525920867919922,-0.27549245953559875,0.027404814958572388
21.6,0.31479448080062866,0.9478402137756348,2.881134510040283,-0.24363771080970764,-0.45711418986320496,-0.06427041441202164
21.65,-0.5326228141784668,1.7711961269378662,4.970874309539795,-0.137273907661438,-0.39469707012176514,-0.17631657421588898
21.7,-0.21499265730381012,0.329567015171051,0.25195837020874023,0.06637577712535858,-0.20222334563732147,-0.3097704350948334
21.75,0.07924726605415344,1.3146296739578247,-0.09517956525087357,0.4041532576084137,-0.5343640446662903,0.08166713267564774
21.8,0.09855981171131134,0.8115503191947937,0.6360516548156738,0.3520788252353668,-0.32501447200775146,-0.2812953293323517
21.85,0.7975677251815796,0.27448001503944397,0.658819854259491,0.923677384853363,0.2946985363960266,-0.2600652277469635
21.9,1.0638638734817505,-1.098017692565918,0.5019394159317017,0.7688981890678406,0.4696474075317383,-0.749045193195343
21.95,0.760312557220459,-0.712916374206543,0.02125639095902443,0.6371608972549438,0.4335649311542511,-0.9729564785957336
22.0,0.8053896427154541,-1.344308614730835,2.6015396118164062,-0.22498172521591187,-0.02358953282237053,-0.7771801948547363
22.05,1.7416126728057861,-1.0715528726577759,3.649155616760254,-0.23845189809799194,0.03585847467184067,-0.32717087864875793
22.1,2.4175705909729004,-1.2268013954162598,4.184147357940674,-0.42655354738235474,0.1986636072397232,-0.2797798812389374
22.15,2.656301975250244,-0.4842676818370819,3.9722933769226074,-0.28726524114608765,0.6794882416725159,-0.05855336785316467
22.2,1.8797365427017212,-0.565618097782135,3.4258809089660645,-0.4303783178329468,1.1147181987762451,0.024190319702029228
22.25,1.047511339187622,-1.1470612287521362,1.9375085830688477,-0.47467735409736633,1.2909623384475708,0.26707905530929565
22.3,0.9392401576042175,0.36436009407043457,1.3864303827285767,-0.4699919819831848,1.2047815322875977,0.5507620573043823
22.35,1.051257610321045,-0.34630101919174194,0.3702588975429535,-0.45820093154907227,1.2206611633300781,0.7098435759544373
22.4,1.8057410717010498,-1.076252818107605,1.2500486373901367,-0.26088085770606995,1.324179768562317,0.8450037837028503
22.45,2.2808494567871094,-1.255660057067871,0.02731916308403015,-0.5442659854888916,1.6622178554534912,0.7806606888771057
22.5,1.2039990425109863,-0.7135286927223206,-0.22270528972148895,-0.6442937850952148,2.2194552421569824,0.6421554088592529
22.55,-0.31555622816085815,-2.9918854236602783,-0.22959938645362854,-0.24866458773612976,3.0605554580688477,0.8819941878318787
22.6,-2.008870840072632,-3.915311574935913,-0.36478620767593384,0.7102170586585999,4.0910725593566895,1.4550868272781372
22.65,-2.4545106887817383,1.5551650524139404,-2.9253129959106445,2.1992251873016357,4.086756229400635,1.9178838729858398
22.7,-3.105922222137451,2.420269727706909,-3.614168643951416,1.2422618865966797,2.5401229858398438,1.3230053186416626
22.75,-4.063149452209473,3.250553846359253,-4.041482448577881,1.076344609260559,0.30107009410858154,1.5397872924804688
22.8,-5.909006595611572,5.276801586151123,-5.6229071617126465,0.6814085841178894,-0.4686650335788727,-0.5394330024719238
22.85,-6.385448932647705,2.217416286468506,-3.66288161277771,-0.47961825132369995,-0.3411988615989685,-3.225527286529541
22.9,4.06488037109375,3.9769933223724365,0.7097839117050171,-0.8269733190536499,0.9837074875831604,-3.2031490802764893
22.95,1.4011934995651245,2.4765255451202393,-0.013305279426276684,-1.1185051202774048,-0.8951855897903442,-1.8226630687713623
23.0,2.8422539234161377,1.2543882131576538,0.9831603169441223,-0.9023281335830688,-1.588834524154663,-1.3921560049057007
23.05,2.671609401702881,2.71806001663208,2.1507418155670166,0.007349878549575806,-0.5838457942008972,-1.1538012027740479
23.1,-1.9591068029403687,2.0967838764190674,0.09313268959522247,0.1426904797554016,-1.2107993364334106,-0.9353288412094116
23.15,1.709242582321167,-0.6684216856956482,0.5142021775245667,0.17560486495494843,-2.2471024990081787,-0.5300161838531494
23.2,3.880579948425293,0.603165864944458,0.02653820626437664,0.0437171570956707,-2.617182493209839,-0.17629098892211914
23.25,3.7905588150024414,1.0041728019714355,2.063910484313965,-0.4406241476535797,-2.4578089714050293,0.01982036791741848
23.3,7.043571472167969,0.30243682861328125,5.5633745193481445,-0.5830538868904114,-2.204482078552246,0.3552455008029938
23.35,7.734950542449951,-0.048448093235492706,1.2775051593780518,-0.09490989148616791,-0.9276785850524902,-0.01842416077852249
23.4,3.1149322986602783,0.9289412498474121,1.8498789072036743,0.20540915429592133,0.10174187272787094,-0.7922385931015015
23.45,0.11584964394569397,-0.8130245208740234,1.1984901428222656,-0.24434129893779755,0.16575057804584503,-0.2391609251499176
23.5,0.7998446226119995,-2.213324785232544,0.5119670629501343,-0.36506354808807373,-0.022162601351737976,0.42051631212234497
23.55,0.15485741198062897,-1.8138452768325806,0.5373187065124512,-0.5639904737472534,0.34677261114120483,0.5084134936332703
23.6,-0.04319167137145996,-0.7749700546264648,0.889089047908783,-0.47818103432655334,0.5946155786514282,0.6936008334159851
23.65,-0.7901595830917358,-2.4456443786621094,1.4154675006866455,-0.33264821767807007,0.9501291513442993,0.8761038184165955
23.7,-2.030245780944824,-2.985116481781006,-0.32213765382766724,0.16328120231628418,1.4628324508666992,0.9966669678688049
23.75,-1.7896974086761475,-3.1342434883117676,0.6826359629631042,0.03256860375404358,1.4635156393051147,1.0673185586929321
23.8,-0.6843410134315491,-3.0715408325195312,1.2268074750900269,0.14659875631332397,1.5126972198486328,1.1684894561767578
23.85,-2.3170220851898193,-0.42868149280548096,0.42577362060546875,0.4897383451461792,1.5566571950912476,0.876137375831604
23.9,-6.096376419067383,3.26654314994812,-3.650263786315918,0.9407724142074585,1.5888158082962036,0.4814472198486328
23.95,-2.739914894104004,2.604227066040039,-1.2237569093704224,0.23654404282569885,0.063473641872406,0.9251145124435425
24.0,-1.1949596405029297,2.532942771911621,-2.7111690044403076,0.750989556312561,0.18867911398410797,0.669465959072113
24.05,-5.5704121589660645,5.127747535705566,-1.0684869289398193,-0.02288065478205681,0.24500912427902222,-0.2057131975889206
24.1,-2.0670042037963867,2.7468948364257812,-0.34390655159950256,-0.7314279079437256,0.35858526825904846,-1.2751197814941406
24.15,-1.2334388494491577,-0.044070638716220856,-3.053579807281494,-0.5069485306739807,0.2568625509738922,-1.5302104949951172
24.2,-0.9776498675346375,0.6079357862472534,-1.4434961080551147,0.291156142950058,-0.6829946041107178,-1.3825621604919434
24.25,-2.890532970428467,0.7782695889472961,-1.6100338697433472,0.443021684885025,-0.7367547154426575,-1.3824642896652222
24.3,-2.4465785026550293,0.9817816019058228,-3.201204776763916,0.13141968846321106,-1.1101047992706299,-1.4791498184204102
24.35,4.051876068115234,-1.3165398836135864,-1.2394527196884155,-0.17460547387599945,-0.9168992042541504,-1.0105334520339966
24.4,2.454371452331543,-2.824582099914551,1.3248385190963745,-0.2964906692504883,-1.4325634241104126,-0.2761000096797943
24.45,7.635901927947998,-0.6728390455245972,6.977014541625977,-0.2436572015285492,-2.3135721683502197,0.3004733622074127
24.5,5.161502361297607,1.2546378374099731,6.98030424118042,-0.4113714098930359,-2.1574418544769287,0.6209863424301147
24.55,4.074363708496094,-0.4651709794998169,6.394471645355225,-0.546954870223999,-0.900658369064331,0.694983720779419
24.6,1.6710201501846313,-0.7744343876838684,6.528024673461914,-0.39483290910720825,0.13843485713005066,0.1451527625322342
24.65,2.801636219024658,-0.08721283078193665,5.155555725097656,-0.25559091567993164,0.7531851530075073,0.1566483974456787
24.7,2.01395845413208,-0.6498705148696899,2.787137508392334,-0.4934287667274475,1.249940037727356,0.25878602266311646
24.75,2.2824220657348633,-1.7494664192199707,5.984565258026123,-1.0079048871994019,0.9161180257797241,0.5353873372077942
24.8,2.7431130409240723,-1.9088091850280762,5.082002639770508,-0.9681302905082703,0.9915392994880676,0.6394123435020447
24.85,1.920278549194336,-1.207381010055542,2.015650987625122,-0.8371460437774658,1.9652692079544067,0.7577279210090637
24.9,2.199392318725586,-1.6964876651763916,-0.3469265103340149,-1.2953860759735107,2.7306830883026123,0.754663348197937
24.95,0.7591856718063354,-2.4312281608581543,-2.399383544921875,-1.5480258464813232,3.2682394981384277,0.9221317172050476
25.0,-2.2403008937835693,-2.775181770324707,-5.199093341827393,-0.43581342697143555,3.113582134246826,1.1995294094085693
25.05,-3.5930285453796387,-0.8251780867576599,-5.643367767333984,1.290325403213501,1.1821844577789307,1.4288835525512695
25.1,-0.7816439867019653,1.698591947555542,-4.430071830749512,1.6822633743286133,-0.49197885394096375,1.4418058395385742
25.15,-4.0102763175964355,1.6047518253326416,-7.105862617492676,1.3925068378448486,-0.42397499084472656,1.7518864870071411
25.2,-10.89793586730957,2.8082966804504395,-11.065825462341309,1.6726678609848022,-1.2179019451141357,0.1990891993045807
25.25,-6.793948173522949,0.08096183836460114,-9.08112621307373,1.512732982635498,-3.6490530967712402,-1.0515323877334595
25.3,-3.4148473739624023,7.570958614349365,-3.8887217044830322,1.1785086393356323,-2.36470103263855,-2.2463431358337402
25.35,-2.133439302444458,8.645012855529785,-4.637551307678223,0.6126666069030762,-1.2925597429275513,-3.071842908859253
25.4,5.47001314163208,7.6813530921936035,2.5226192474365234,0.7801386713981628,-1.5795793533325195,-2.4383018016815186
25.45,5.155977249145508,1.0439389944076538,8.346271514892578,0.6637295484542847,-0.7610869407653809,-1.6878867149353027
25.5,2.9360883235931396,-0.2116355448961258,8.170479774475098,-0.045390382409095764,-0.6107658743858337,-0.7219908237457275
25.55,8.064238548278809,-0.5794320702552795,9.482276916503906,-0.1298387199640274,-1.081133484840393,0.10389095544815063
25.6,7.876662254333496,-2.97552490234375,6.978874683380127,0.7763522267341614,-0.40977713465690613,0.012207966297864914
25.65,2.695779800415039,-4.986766815185547,2.401376962661743,1.025162696838379,1.5724982023239136,-0.7452743649482727
25.7,1.1611528396606445,-6.444925785064697,5.864130020141602,-0.0024760067462921143,2.079380989074707,-0.8105921149253845
25.75,0.11425936222076416,-7.604747295379639,3.5597500801086426,-0.41966772079467773,2.2834157943725586,-0.46507203578948975
25.8,-1.2697707414627075,-6.434865951538086,1.89750075340271,-0.8643343448638916,1.9490761756896973,-0.20003831386566162
25.85,-3.00101375579834,0.40648922324180603,-0.6130656599998474,-0.8770243525505066,1.8418710231781006,-0.12515349686145782
25.9,-5.339229583740234,2.0814404487609863,-5.301894664764404,-0.7094541192054749,1.4152299165725708,0.5820160508155823
25.95,-5.690880298614502,3.1581063270568848,-6.449033737182617,0.16827453672885895,0.8080472350120544,0.49164822697639465
26.0,-1.5813850164413452,0.019929975271224976,-7.188986301422119,0.8819986581802368,-1.7011252641677856,-0.5830509662628174
26.05,2.969460964202881,-4.354440689086914,-4.427593231201172,0.4990728497505188,-2.5061845779418945,-1.578095555305481
26.1,-1.8867218494415283,4.172860145568848,-3.2142653465270996,0.44695597887039185,-0.5563951134681702,-1.3846200704574585
26.15,0.9170299172401428,3.433366537094116,1.6471823453903198,0.16757574677467346,-1.5498167276382446,-0.6970739960670471
26.2,2.579314708709717,0.4032205641269684,1.842599630355835,0.2114517092704773,-2.168609857559204,-0.296767920255661
26.25,0.5816963911056519,-0.7578637599945068,2.863868474960327,0.14172790944576263,-1.5202653408050537,-0.3900563716888428
26.3,2.5837931632995605,1.1348519325256348,2.5517385005950928,0.20208153128623962,-1.3410030603408813,-0.2678300142288208
26.35,0.8123465776443481,0.6768449544906616,2.1569936275482178,0.2352093756198883,-1.3686155080795288,-0.328206866979599
26.4,2.6246423721313477,-2.011404275894165,4.243026256561279,0.18971982598304749,-1.5033330917358398,-0.4003748893737793
26.45,1.934875726699829,-1.4650532007217407,3.3094098567962646,0.060547247529029846,-1.1886216402053833,-0.6084615588188171
26.5,1.5165221691131592,-1.2099804878234863,4.717769622802734,-0.35725027322769165,-1.4100462198257446,-0.28663772344589233
26.55,2.1569342613220215,0.7192306518554688,7.145252704620361,-0.7327145338058472,-1.7731744050979614,0.09158168733119965
26.6,3.419553518295288,1.9865801334381104,7.210682392120361,-0.8615853190422058,-1.1647188663482666,-0.06576680392026901
26.65,1.1381477117538452,-1.4003132581710815,1.6962515115737915,-0.6780633926391602,0.2110590636730194,-0.38924527168273926
26.7,-2.3129007816314697,-1.4199564456939697,0.3163180351257324,-0.4899655282497406,1.199468731880188,-0.66031414270401
26.75,0.08958148956298828,-2.7116799354553223,3.117352247238159,-0.51157146692276,1.4932407140731812,-0.30280935764312744
26.8,-0.6198585033416748,-5.894624710083008,2.7655069828033447,-0.7500520944595337,1.8784493207931519,-0.32219141721725464
26.85,-2.526873826980591,-4.652245998382568,1.3203078508377075,-0.551647424697876,2.1705830097198486,-0.1993059515953064
26.9,-2.6595401763916016,-0.979489803314209,-2.2745895385742188,-0.19710001349449158,2.081916570663452,0.6198180317878723
26.95,-0.05023312568664551,-2.3497350215911865,-3.489905595779419,-0.5047327280044556,1.280009150505066,1.2096694707870483
27.0,0.31064772605895996,1.6238882541656494,-8.337867736816406,0.07210427522659302,0.4796794354915619,1.0684336423873901
27.05,0.7861826419830322,3.1707186698913574,-9.35049057006836,0.10634905099868774,0.0175149068236351,1.2098352909088135
27.1,-1.3717072010040283,6.536844730377197,-12.623351097106934,0.7177450060844421,-0.5881081819534302,0.866386890411377
27.15,-5.334049224853516,6.505523681640625,-14.710494995117188,1.173701286315918,-1.8249772787094116,-0.14016200602054596
27.2,-3.3054726123809814,5.216017246246338,-6.749631881713867,1.0891088247299194,-1.8371344804763794,-0.9396764039993286
27.25,-0.7255876064300537,3.8273043632507324,0.9000711441040039,0.46763500571250916,-1.195136308670044,-1.0165482759475708
27.3,1.3090734481811523,2.0748841762542725,2.8386433124542236,0.07617385685443878,-1.8630231618881226,-0.5586796402931213
27.35,1.6320087909698486,0.6875733733177185,7.135091781616211,-0.5439331531524658,-2.0121805667877197,0.21067753434181213
27.4,-0.040351152420043945,1.349233627319336,7.583120822906494,-0.8298704028129578,-1.4767957925796509,-0.028450218960642815
27.45,0.32615458965301514,0.11227001249790192,5.274425029754639,-0.9935409426689148,-1.3323088884353638,0.0394737608730793
27.5,1.2930824756622314,-1.2534102201461792,1.3107906579971313,-0.6027374267578125,-0.6803288459777832,-0.08482583612203598
27.55,0.45227083563804626,-0.6135367155075073,1.2509522438049316,0.14051783084869385,0.41196224093437195,-0.7286986708641052
27.6,0.6354207992553711,-1.9220809936523438,2.2251012325286865,0.21177273988723755,1.1326932907104492,-0.9114440679550171
27.65,1.2668399810791016,-1.163144826889038,3.0540480613708496,0.04420849680900574,1.2274487018585205,-0.5863149762153625
27.7,0.9423341155052185,-0.33645597100257874,2.9462890625,-0.2725067734718323,1.1224042177200317,-0.24307303130626678
27.75,1.8219997882843018,-0.18699520826339722,2.162930488586426,-0.36096808314323425,1.2007478475570679,0.2226809859275818
27.8,2.622831344604492,-0.4780747890472412,1.6850284337997437,-0.31154704093933105,1.388811469078064,0.5109357833862305
27.85,2.994363784790039,-0.1967352330684662,0.4148944318294525,-0.38963472843170166,1.5420345067977905,0.4976044297218323
27.9,2.1808013916015625,-0.42116445302963257,0.29309022426605225,-0.5720584988594055,1.7240688800811768,0.19370804727077484
27.95,0.8272876143455505,-1.3360720872879028,-0.3355235159397125,-0.41241806745529175,1.7466707229614258,0.1739901304244995
28.0,-0.016356147825717926,-2.729217290878296,-0.15421313047409058,0.015141285955905914,1.8583420515060425,0.31472915410995483
28.05,-0.339092880487442,-2.553703546524048,0.2259562611579895,0.34316515922546387,1.7722811698913574,0.2172975242137909
28.1,0.005738183856010437,-2.2792837619781494,-0.6370782852172852,0.4721851944923401,1.6891324520111084,0.2445264607667923
28.15,-1.3273671865463257,-0.9536357522010803,-3.43243408203125,0.7643939256668091,1.7588516473770142,0.08141307532787323
28.2,-3.1549458503723145,0.9370294213294983,-3.7345380783081055,0.5281875133514404,1.205217719078064,0.0233979020267725
28.25,-3.996978282928467,2.1037983894348145,-5.168221473693848,0.867700457572937,0.6525566577911377,-0.12725001573562622
28.3,-5.062618255615234,3.189995288848877,-5.745116710662842,0.91178959608078,0.1062898188829422,-0.7328797578811646
28.35,-4.3819146156311035,3.1134135723114014,-4.738685131072998,0.7298460602760315,-0.09395633637905121,-1.377472996711731
28.4,2.976248025894165,3.545849561691284,1.7357940673828125,0.2355198860168457,0.35240089893341064,-1.8692370653152466
28.45,6.840276718139648,1.760115385055542,1.8631713390350342,0.2849179804325104,0.7699320316314697,-1.3709825277328491
28.5,1.1452276706695557,-0.0013561069499701262,-0.28626513481140137,0.30897361040115356,-0.959899365901947,-0.26382943987846375
28.55,2.581578254699707,-1.260728359222412,3.9581756591796875,-0.10532598942518234,-2.11018443107605,0.03097361885011196
28.6,3.9309582710266113,-1.7951492071151733,5.469603061676025,-0.24234503507614136,-1.7550969123840332,0.08691690862178802
28.65,4.06337308883667,-1.2928118705749512,4.011650562286377,-0.0743941143155098,-0.7007117867469788,0.3827432692050934
28.7,2.905787467956543,0.34769392013549805,2.8067784309387207,-0.15339937806129456,-0.1879897266626358,0.31504976749420166
28.75,1.5631470680236816,0.6621468663215637,1.4764124155044556,-0.2370442897081375,0.1009671613574028,0.12301021814346313
28.8,1.0944290161132812,-0.35100057721138,1.615754246711731,-0.2508675456047058,0.6460199356079102,0.18996590375900269
28.85,1.1361228227615356,-0.983959972858429,2.1073343753814697,-0.3473583459854126,0.923650324344635,0.3463703989982605
28.9,1.3281772136688232,-1.5280884504318237,2.3068222999572754,-0.59444659948349,1.1913501024246216,0.34531015157699585
28.95,0.5837421417236328,-1.029870867729187,1.4017888307571411,-0.7171030044555664,1.4970225095748901,0.3510340452194214
29.0,-0.18471845984458923,-0.9933692216873169,-0.09488168358802795,-0.8331220746040344,1.747117280960083,0.8077564835548401
29.05,0.8180813193321228,-3.056443214416504,0.33688265085220337,-0.6307579874992371,2.091914653778076,1.2266576290130615
29.1,0.27497488260269165,-3.8090293407440186,-1.3760733604431152,0.2829882502555847,2.466188669204712,1.0331344604492188
29.15,-2.1278367042541504,-2.1176679134368896,-4.440237522125244,0.8499447107315063,1.9248110055923462,1.2953723669052124
29.2,-7.412374496459961,3.6900084018707275,-8.60602855682373,1.2372936010360718,0.47599852085113525,1.796592354774475
29.25,-8.457477569580078,4.936384677886963,-6.643980026245117,0.9712527990341187,-1.715502381324768,1.1414495706558228
29.3,-9.32085132598877,-0.9803309440612793,0.402774453163147,-0.32374879717826843,-1.5891857147216797,-2.070582389831543
29.35,-5.889634132385254,-0.16801847517490387,1.258610486984253,-0.706480860710144,0.6459490060806274,-3.4120540618896484
29.4,0.9282886981964111,1.2121851444244385,1.1285216808319092,-0.289829283952713,-0.5005403161048889,-2.1872997283935547
29.45,2.4809727668762207,0.3812565207481384,2.195821762084961,-0.0873028039932251,-0.9626968502998352,-1.5286844968795776
29.5,0.22822415828704834,0.5090976357460022,4.093296527862549,0.17337748408317566,-1.5660696029663086,-0.4832421541213989
29.55,1.6695380210876465,1.3544325828552246,2.2428462505340576,-0.28810185194015503,-1.5119116306304932,0.22877642512321472
29.6,0.8639202117919922,-6.462508201599121,0.5865936279296875,-0.8291085958480835,-0.1950964778661728,-0.060128383338451385
29.65,-4.470804691314697,-9.04478645324707,0.9867278337478638,-0.42797255516052246,1.2412075996398926,-1.152143955230713
29.7,-3.609435796737671,-1.766635537147522,-1.5285824537277222,0.20619207620620728,0.9642564654350281,-0.834673285484314
29.75,-1.7408356666564941,1.6596578359603882,-6.577309608459473,0.3042786717414856,-0.8526107668876648,0.21875841915607452
29.8,0.9923363924026489,2.7470805644989014,-5.13614559173584,0.5087745189666748,-2.8129384517669678,0.4616219699382782
29.85,5.032167434692383,3.542551040649414,1.652108907699585,0.3995574712753296,-2.9537434577941895,0.19172555208206177
29.9,4.490143775939941,1.1542645692825317,7.321547031402588,-0.23973476886749268,-1.2701784372329712,-0.30498477816581726
29.95,1.4492254257202148,-2.3056771755218506,3.0371525287628174,-0.5065723657608032,0.6759462952613831,-0.744061291217804
30.0,-0.33013829588890076,-1.3920681476593018,-0.4220113754272461,-0.28811338543891907,0.6233814358711243,-0.8076668381690979
30.05,-0.924017071723938,-2.5313732624053955,1.1170731782913208,-0.2442643642425537,0.3079892098903656,-0.6755909323692322
30.1,-2.2788398265838623,-3.154561996459961,0.3162723481655121,-0.3849474787712097,0.17383642494678497,-0.21504302322864532
30.15,-1.6055676937103271,0.1597413420677185,-0.018082957714796066,-0.34284597635269165,-0.011183193884789944,0.24811983108520508
30.2,-0.7570446133613586,1.4579497575759888,0.12190522998571396,-0.20952525734901428,-0.150191530585289,0.36917880177497864
30.25,-1.9543589353561401,1.1937322616577148,0.14043530821800232,-0.19882173836231232,-0.030873779207468033,0.10802669823169708
30.3,-2.832995653152466,1.1179771423339844,0.5507786273956299,-0.3850851356983185,0.29679349064826965,-0.10242810100317001
30.35,-2.4695472717285156,-0.2052757292985916,-0.4679388105869293,-0.469088077545166,0.42019549012184143,-0.06666115671396255
30.4,-1.8546826839447021,-1.9970053434371948,-0.07210665941238403,-0.5323178172111511,0.49859559535980225,-0.10894840955734253
30.45,-1.6468137502670288,-3.8419175148010254,1.289550542831421,-0.1779101938009262,0.6009220480918884,-0.12867799401283264
30.5,-1.5564771890640259,-4.387899875640869,0.21746821701526642,0.5313123464584351,0.5208733677864075,0.5964314937591553
30.55,1.59470796585083,-4.232453346252441,-2.789835214614868,0.7606009244918823,0.037260934710502625,1.6830501556396484
30.6,4.273963928222656,1.1148284673690796,-8.608321189880371,1.2531999349594116,-0.40749892592430115,1.8621364831924438
30.65,6.979941368103027,10.554902076721191,-11.560413360595703,0.9907888174057007,-1.4128445386886597,1.1436078548431396
30.7,6.110177993774414,11.380558967590332,-11.60643196105957,0.7384118437767029,-2.349489688873291,-0.5724474191665649
30.75,-0.003523588180541992,4.462768077850342,-7.924976825714111,0.689241886138916,-1.819541335105896,-1.214298963546753
30.8,-2.3897078037261963,4.681723117828369,-0.5940715074539185,0.37069427967071533,-1.780811071395874,-0.8046975135803223
30.85,-1.974083662033081,1.1994352340698242,-0.07161024957895279,0.14089146256446838,-1.4119672775268555,-0.7432639002799988
30.9,0.5831761956214905,-1.2415105104446411,-0.04340565204620361,-0.12199238687753677,-1.4138219356536865,-0.3249392807483673
30.95,-0.962622344493866,-1.7817792892456055,2.4128310680389404,-0.22786973416805267,-1.3377301692962646,-0.24359194934368134
31.0,-1.7191131114959717,-3.441041946411133,1.4474493265151978,-0.44519948959350586,-1.7658674716949463,0.04795476421713829
31.05,1.1756675243377686,-1.916891098022461,1.4648089408874512,-0.5197280049324036,-2.1583034992218018,0.2917836308479309
31.1,1.6856639385223389,0.14872285723686218,1.1332484483718872,-0.6356041431427002,-1.5632286071777344,0.0744762197136879
31.15,2.288181781768799,2.806000232696533,2.309527635574341,-0.6264693140983582,-0.5615185499191284,-0.38722968101501465
31.2,2.507852077484131,2.1415650844573975,2.555147409439087,0.07484056055545807,0.22156113386154175,-0.7279013395309448
31.25,-1.8652632236480713,-5.646088600158691,-2.417386293411255,0.4854355454444885,0.5407065153121948,-0.846737802028656
31.3,-5.263045787811279,-5.011831760406494,-0.4230215549468994,-0.11591494083404541,0.4201143682003021,-0.8125120997428894
31.35,1.683490514755249,0.6019330024719238,3.01798152923584,-0.7140231728553772,-0.03850339353084564,-0.013368492014706135
31.4,3.1357316970825195,-0.11196988821029663,-0.5635843873023987,-0.2571837902069092,0.059267107397317886,0.13025633990764618
31.45,-2.9837191104888916,0.4040084481239319,-3.1093475818634033,0.12775735557079315,0.5317685604095459,-0.54062819480896
31.5,-0.05482614040374756,0.05135705694556236,-1.9533624649047852,-0.15519317984580994,0.4810689389705658,-0.32805538177490234
31.55,1.671682596206665,0.5717068910598755,-0.21243499219417572,-0.13969482481479645,0.31398260593414307,-0.34433603286743164
31.6,0.7788056135177612,0.585002064704895,0.4706760346889496,-0.007075756788253784,0.22361651062965393,-0.4435693025588989
31.65,0.33239394426345825,-1.31922447681427,-0.6149339079856873,0.14720076322555542,0.1687970608472824,-0.2824443578720093
31.7,0.5314327478408813,0.4336901307106018,-0.11145708709955215,-0.058558929711580276,-0.0665798932313919,-0.2988705039024353
31.75,1.6869500875473022,0.6937153339385986,0.7931129336357117,-0.4122534990310669,-0.5232517123222351,-0.024653630331158638
31.8,1.4152278900146484,-0.9709636569023132,-1.0039414167404175,-0.06204698234796524,-0.5129833817481995,0.037204042077064514
31.85,0.4368361830711365,0.2750883996486664,0.32329463958740234,-0.2664300799369812,-0.5712773203849792,-0.31639164686203003
31.9,1.4475436210632324,-1.1063811779022217,2.659665584564209,-0.5330798625946045,-0.7797728180885315,-0.2646520435810089
31.95,-0.2930838167667389,-1.6524707078933716,1.4241676330566406,-0.2861074209213257,-0.3817216157913208,-0.19484464824199677
32.0,-1.8738421201705933,-2.3019649982452393,0.8524843454360962,-0.38323816657066345,0.011824200861155987,0.22723880410194397
32.05,-0.41403645277023315,-1.7359027862548828,2.232527494430542,-0.5803642272949219,0.39955419301986694,0.7086090445518494
32.1,1.801647424697876,0.9918552041053772,3.2130861282348633,-0.7927259206771851,0.6812798976898193,0.9309677481651306
32.15,3.284348487854004,1.451911449432373,2.0655605792999268,-0.6671382784843445,1.1207395792007446,0.7268779277801514
32.2,2.100956678390503,1.2263157367706299,0.02314528450369835,-0.33991947770118713,1.6437441110610962,0.1208907812833786
32.25,1.3658535480499268,0.6011857986450195,-0.8583815693855286,-0.24680885672569275,2.0489501953125,-0.19578462839126587
32.3,1.5519694089889526,-0.01828763447701931,-0.36749887466430664,-0.21449318528175354,2.401895761489868,-0.3977799713611603
32.35,1.4368879795074463,0.08612829446792603,-0.08772706240415573,0.09266754984855652,2.366338014602661,-0.531618058681488
32.4,1.534078598022461,-0.4270419776439667,0.26711440086364746,0.7202701568603516,2.0055649280548096,-0.6737909317016602
32.45,1.5213011503219604,-1.3681260347366333,-0.5826893448829651,1.6133999824523926,1.3153343200683594,-0.9850019216537476
32.5,0.42102718353271484,-0.47941142320632935,-2.437274217605591,1.9267191886901855,0.5627081990242004,-1.2012938261032104
32.55,-0.30989089608192444,0.5062511563301086,-1.845973014831543,1.2226179838180542,0.7509740591049194,-1.1580106019973755
32.6,-0.9548180103302002,0.20387542247772217,-0.9499683380126953,0.6236955523490906,1.5164340734481812,-0.9026327729225159
32.65,-1.3538074493408203,0.2964410185813904,-0.300655722618103,0.33405953645706177,1.6754710674285889,-0.47339680790901184
32.7,-0.5524000525474548,-0.46072110533714294,-0.05956098064780235,0.2884964942932129,1.41294527053833,-0.065083347260952
32.75,-0.2999167740345001,-0.3450794816017151,-0.09383362531661987,0.41817599534988403,1.1705702543258667,-0.09026500582695007
32.8,-0.41368040442466736,0.3078193664550781,0.01789040118455887,0.6273373961448669,0.9181289672851562,-0.1987505406141281
32.85,-0.3486446142196655,1.0860034227371216,-0.38657987117767334,0.6718933582305908,0.7245317101478577,-0.20332255959510803
32.9,-0.40413132309913635,1.0955867767333984,-0.5937106609344482,0.6207419037818909,0.628692090511322,-0.28165003657341003
32.95,-0.8365967273712158,1.0438834428787231,-0.13182389736175537,0.6385433077812195,0.49553602933883667,-0.4634610414505005
33.0,-0.9102092981338501,1.0968352556228638,0.5311785936355591,0.5512129068374634,0.2748005986213684,-0.5773758888244629
33.05,-0.4132072925567627,0.7799741625785828,0.5268865823745728,0.3861590325832367,-0.012633929960429668,-0.48673129081726074
33.1,-0.0591336265206337,1.050472378730774,-0.08250215649604797,0.41713839769363403,-0.1063309833407402,-0.42097386717796326
33.15,0.12058819085359573,1.0153533220291138,-0.04193245619535446,0.3898988664150238,0.007401194889098406,-0.4501412510871887
33.2,-0.13175976276397705,0.5529375672340393,-0.15049980580806732,0.2671497166156769,0.005303849931806326,-0.4991363286972046
33.25,-0.31448549032211304,0.8432818055152893,-0.1700648069381714,0.23585644364356995,-0.1148441880941391,-0.48615777492523193
33.3,-0.022361064329743385,0.8009892702102661,0.03446824103593826,0.05298341065645218,-0.2318229228258133,-0.2963809669017792
33.35,0.48545485734939575,-0.048321668058633804,0.3823907673358917,-0.1892428696155548,-0.16844502091407776,-0.10047241300344467
33.4,0.7561001777648926,-0.19458284974098206,0.8131858706474304,-0.19943319261074066,0.04328227415680885,-0.11226077377796173
33.45,0.6830391883850098,0.09181417524814606,0.8443423509597778,-0.13776269555091858,0.17584045231342316,-0.1662772297859192
33.5,0.8348702192306519,0.06358159333467484,0.7241714596748352,-0.13538657128810883,0.2644077241420746,-0.10869789123535156
33.55,0.9642758369445801,-0.005583649501204491,0.6485272645950317,-0.1709403544664383,0.37991517782211304,-0.0056854370050132275
33.6,1.1393945217132568,-0.30501165986061096,0.5347685813903809,-0.22455251216888428,0.4861580729484558,0.14125561714172363
33.65,1.6148607730865479,-1.0263910293579102,0.6144664287567139,-0.3179813325405121,0.6052100658416748,0.2639201879501343
33.7,1.4973392486572266,-1.6101371049880981,0.8414539098739624,-0.2132764458656311,0.8938158750534058,0.18923328816890717
33.75,0.6401466727256775,-1.0779905319213867,0.6621285676956177,0.058223940432071686,1.2398087978363037,-0.041203465312719345
33.8,0.09659267216920853,-0.20977400243282318,0.3918039798736572,0.14411628246307373,1.3562654256820679,-0.14749106764793396
33.85,-0.030323341488838196,-0.23720072209835052,0.45266684889793396,0.09547260403633118,1.2166444063186646,-0.07719139009714127
33.9,-0.18393775820732117,-0.3827933967113495,0.9271203875541687,0.12816080451011658,1.030871033668518,0.07219712436199188
33.95,-0.22834837436676025,-0.4140891432762146,1.1636523008346558,0.21864494681358337,0.8545479774475098,0.1750541478395462
34.0,-0.3757534921169281,-0.6657686233520508,0.9220742583274841,0.3280901610851288,0.6253408193588257,0.16895617544651031
34.05,-0.08064454793930054,0.26771846413612366,1.116931438446045,0.4785163104534149,0.5495729446411133,0.061428509652614594
34.1,-0.40565383434295654,1.7174906730651855,1.9563689231872559,0.5192457437515259,0.5715495944023132,0.030646318569779396
34.15,-1.6600226163864136,1.628532886505127,3.0774667263031006,0.380601704120636,0.41201522946357727,0.14908455312252045
34.2,-1.6310195922851562,0.791012167930603,2.9294779300689697,0.4114917516708374,-0.25014886260032654,0.33324724435806274
34.25,-0.1884627342224121,-1.0608701705932617,1.4333148002624512,0.8513685464859009,-1.1065056324005127,0.416306734085083
34.3,2.0651025772094727,-1.3868722915649414,0.7197580337524414,1.6739859580993652,-1.4059860706329346,0.12764759361743927
34.35,4.181595325469971,-0.9080458879470825,-1.6652133464813232,2.063856363296509,-1.3782984018325806,0.31046855449676514
34.4,2.564199447631836,6.4453043937683105,-4.988094329833984,1.7013258934020996,-0.5221078395843506,0.11772030591964722
34.45,1.6895684003829956,7.558091640472412,-3.697138786315918,0.9461346864700317,0.7281326055526733,0.31428641080856323
34.5,2.7560477256774902,3.697544574737549,-2.1284778118133545,0.462173730134964,1.2233903408050537,0.6502028703689575
34.55,-0.11439138650894165,3.248342752456665,-1.3927584886550903,0.13551726937294006,1.202609896659851,0.2276054471731186
34.6,-2.0098068714141846,-0.3464862108230591,-0.026882093399763107,-0.44585180282592773,0.9221876263618469,0.12727320194244385
34.65,-1.3918085098266602,-2.0520379543304443,0.697729766368866,-0.746658205986023,0.708214282989502,0.35938674211502075
34.7,-0.3266860842704773,-3.0212020874023438,-0.229388028383255,-0.8806731700897217,0.4044010043144226,0.9279564619064331
34.75,0.2514980137348175,-2.889734983444214,-0.3739965856075287,-0.878158450126648,0.4364118278026581,0.9986158013343811
34.8,0.784422755241394,-1.8189127445220947,-0.00509814266115427,-0.8024183511734009,0.8486701250076294,0.4910535514354706
34.85,1.252523422241211,-1.6840897798538208,0.47706082463264465,-0.838829755783081,1.1636874675750732,0.03901525214314461
34.9,0.5134571194648743,-1.6417608261108398,1.529057264328003,-0.8614657521247864,1.3537192344665527,-0.16875223815441132
34.95,-0.048859357833862305,-1.3240288496017456,2.3076741695404053,-0.7547946572303772,1.164666771888733,0.2822507917881012
35.0,0.7456138134002686,2.849717855453491,2.9831948280334473,-0.8356135487556458,0.6420429348945618,1.0747485160827637
35.05,-0.18115800619125366,5.4316020011901855,-0.6158391237258911,-1.3128124475479126,0.12629172205924988,1.7033634185791016
35.1,1.6725764274597168,0.5239198207855225,-3.287978410720825,-1.6463453769683838,-0.03601992130279541,1.769791603088379
35.15,2.2333903312683105,0.5165749788284302,-0.11619997024536133,-1.2865415811538696,0.2108718901872635,0.3292330205440521
35.2,1.131247639656067,1.1348774433135986,0.7115389108657837,-0.5890020132064819,0.16748088598251343,-0.278408408164978
35.25,2.302516222000122,-0.9120093584060669,-1.0473278760910034,-0.13123461604118347,0.19715256989002228,0.19049406051635742
35.3,1.9434499740600586,-1.345461130142212,-1.7053782939910889,-0.05203770101070404,0.5438055992126465,0.05944335088133812
35.35,0.5253864526748657,-2.063241720199585,-0.21214111149311066,0.43957629799842834,0.7478703260421753,-0.22425201535224915
35.4,0.2954409718513489,-5.452415943145752,0.3481682538986206,1.7518621683120728,0.4203052222728729,0.524000883102417
35.45,-0.12999428808689117,-8.703030586242676,-0.930064857006073,3.0283281803131104,-0.05845555290579796,1.3233343362808228
35.5,-3.150205373764038,-5.292723655700684,-5.127530097961426,3.6196343898773193,-0.264241486787796,0.728086531162262
35.55,-9.487253189086914,8.775540351867676,-3.567795515060425,2.506603717803955,-0.09689940512180328,-0.44876301288604736
35.6,-8.21291446685791,8.014578819274902,-1.4916024208068848,-0.5138895511627197,0.5397303700447083,-0.6830248832702637
35.65,-4.318210124969482,1.3937270641326904,-1.7465661764144897,-1.1362452507019043,0.3501951992511749,-0.7074173092842102
35.7,0.9884809255599976,-0.3780864179134369,-2.7161242961883545,-0.21982455253601074,-0.26056843996047974,-0.8531175851821899
35.75,7.417593955993652,0.3850201666355133,-4.351562976837158,0.08450166881084442,-0.10148054361343384,-0.5939281582832336
35.8,6.821898460388184,3.975163698196411,-3.82818341255188,0.24215570092201233,-0.6944816708564758,-0.1608571708202362
35.85,5.18825101852417,4.803622722625732,-0.27452948689460754,0.029443884268403053,-1.8853281736373901,0.03341098129749298
35.9,5.433671951293945,2.786141872406006,1.0015546083450317,-0.40549758076667786,-1.8852063417434692,0.12317010760307312
35.95,4.865139007568359,-0.9811781048774719,0.7681891918182373,-0.5648515224456787,-0.49096769094467163,0.06987370550632477
36.0,3.882124423980713,-3.681641101837158,2.8305439949035645,-0.7304551601409912,0.8855832815170288,-0.12392812967300415
36.05,3.5411858558654785,-4.434281826019287,2.2729716300964355,-0.6453368663787842,1.6150610446929932,-0.26402992010116577
36.1,2.7266950607299805,-5.297935485839844,1.6181507110595703,-0.36353516578674316,1.9036134481430054,-0.21544422209262848
36.15,1.248198390007019,-5.498799800872803,1.534002661705017,0.3305591940879822,1.74308443069458,0.29678770899772644
36.2,0.8084807395935059,-6.645398139953613,-1.4861880540847778,1.6386343240737915,1.0181695222854614,1.0625982284545898
36.25,-3.263093948364258,-3.54976749420166,-3.1833136081695557,2.5340824127197266,0.4453335702419281,0.4160490036010742
36.3,-13.726757049560547,7.196724891662598,-3.2670278549194336,2.6214401721954346,-0.2425464391708374,-0.22512111067771912
36.35,-17.17945098876953,6.5728349685668945,-0.5265008807182312,0.2838287651538849,-2.0531463623046875,-0.34503263235092163
36.4,-7.918521404266357,2.595534324645996,1.3037991523742676,-1.0618329048156738,-1.9623302221298218,-0.9926712512969971
36.45,3.7466132640838623,2.419706106185913,2.4202494621276855,-0.8747233748435974,-0.7494903206825256,-1.276816725730896
36.5,9.296215057373047,4.714570999145508,2.3834354877471924,-1.3932030200958252,0.34137895703315735,-1.1593419313430786
36.55,6.463353157043457,4.193973541259766,1.321028232574463,-1.5155532360076904,0.6810445189476013,-0.6602123379707336
36.6,2.226137399673462,-0.5207393169403076,1.6145250797271729,-0.763751745223999,-0.3847021162509918,-0.4717327356338501
36.65,2.8008360862731934,-3.216728448867798,0.8029399514198303,-0.3316241502761841,-1.1705846786499023,-0.03710852190852165
36.7,3.3999826908111572,-2.741016387939453,0.8758514523506165,-0.3468382954597473,-0.4525938928127289,0.15544669330120087
36.75,3.4094486236572266,-1.6932058334350586,0.5387404561042786,-0.584842324256897,0.5790026187896729,-0.19131846725940704
36.8,4.022443771362305,-1.7969768047332764,2.1965630054473877,-1.2568466663360596,1.2439831495285034,-0.291546493768692
36.85,4.25753116607666,-3.442147970199585,4.453102111816406,-1.2231593132019043,1.4067072868347168,0.1425756961107254
36.9,2.4657185077667236,-3.778921127319336,3.6203837394714355,-0.5320809483528137,0.7209985852241516,0.5230315327644348
36.95,1.7641239166259766,-3.5295588970184326,1.1188645362854004,-0.10253551602363586,0.04298711568117142,0.8155717849731445
37.0,-2.883591890335083,-0.45154207944869995,0.03069562278687954,0.12166664004325867,0.4714260697364807,-0.4138769209384918
37.05,-5.017423629760742,2.2998228073120117,-1.0717782974243164,0.08940720558166504,0.48205673694610596,-0.4591529071331024
37.1,-4.497020721435547,0.6441025733947754,-2.8386316299438477,-0.0982968807220459,0.8612899780273438,0.14509829878807068
37.15,-4.051671504974365,-1.5518271923065186,-3.0390584468841553,0.4198678731918335,1.7572523355484009,0.07896459102630615
37.2,-5.958442211151123,-0.1319994479417801,-1.4360885620117188,1.4782390594482422,1.2792881727218628,-0.859822690486908
37.25,-5.375783920288086,1.7434852123260498,-2.6979727745056152,1.5428037643432617,0.001692845136858523,0.05282318592071533
37.3,-3.715851068496704,0.9076182842254639,-1.573223352432251,0.026201725006103516,-0.565859854221344,0.8527860641479492
37.35,-5.133573055267334,1.935750961303711,0.1199488565325737,-1.076781988143921,-1.082718014717102,-0.4798503816127777
37.4,-6.912955284118652,3.634232997894287,-5.080283164978027,-0.29648086428642273,-2.491471290588379,-1.6198608875274658
37.45,4.95833683013916,9.79471492767334,-8.967385292053223,0.38587796688079834,-2.9466450214385986,-1.8928502798080444
37.5,6.073390483856201,8.618343353271484,-3.1139092445373535,-0.9974568486213684,-0.077629454433918,-1.9950183629989624
37.55,0.38034623861312866,4.116653919219971,0.7592172026634216,-1.0983550548553467,0.40530869364738464,-1.3080805540084839
37.6,1.2348201274871826,-1.1656081676483154,3.142861843109131,-0.5208275318145752,-1.1969724893569946,-0.4154858887195587
37.65,1.897240400314331,-4.191340446472168,3.7844059467315674,-0.4784364104270935,-1.066116452217102,-0.23853875696659088
37.7,3.804434299468994,-1.0560314655303955,5.756402492523193,-0.4631032645702362,-0.8876639008522034,0.4850282669067383
37.75,7.723137378692627,3.180933952331543,1.792749285697937,-0.4119318723678589,-1.163175344467163,1.2983258962631226
37.8,3.995743751525879,3.208575963973999,0.09413184970617294,-0.8981265425682068,-0.015024996362626553,0.313190221786499
37.85,2.2360668182373047,-0.30579251050949097,2.098489284515381,-1.4756908416748047,0.4135015308856964,-0.1357654482126236
37.9,3.4177234172821045,-5.428403854370117,3.051574945449829,-1.4220010042190552,0.5282412171363831,0.5353907346725464
37.95,3.59981632232666,-3.0364644527435303,4.301954746246338,-0.9945852756500244,1.0190203189849854,0.9787030816078186
38.0,1.7047021389007568,-3.0275766849517822,1.822157621383667,-0.38178732991218567,1.1231777667999268,1.401075005531311
38.05,0.34335291385650635,-3.1952593326568604,1.1610232591629028,0.15199390053749084,1.0927186012268066,1.5339359045028687
38.1,-1.4753913879394531,-2.4628701210021973,-1.915165901184082,1.4768548011779785,0.5047711730003357,1.5616697072982788
38.15,-2.915822982788086,-2.780697822570801,-5.9757304191589355,2.6292765140533447,-0.16946300864219666,1.5056321620941162
38.2,-3.4293293952941895,-0.6591454148292542,-7.452829837799072,2.7476868629455566,-0.057499613612890244,1.4384218454360962
38.25,-2.7237274646759033,-0.22942914068698883,-6.365796089172363,2.4129676818847656,0.2339968979358673,1.1936063766479492
38.3,-3.6196494102478027,2.076702356338501,-6.2249274253845215,1.921590805053711,0.36716747283935547,0.1553773134946823
38.35,-2.510287046432495,4.789795875549316,-5.353470802307129,0.49176743626594543,-0.7006114721298218,-0.9328444004058838
38.4,-4.467296123504639,10.10280704498291,-3.919071912765503,-0.7189164161682129,-1.1453818082809448,-1.459498405456543
38.45,-2.084855794906616,8.992521286010742,-3.411630153656006,-0.9100151062011719,-0.8794358968734741,-1.7511001825332642
38.5,-1.5455490350723267,7.465859889984131,-3.9219257831573486,-0.49546438455581665,-0.6539614200592041,-2.129610300064087
38.55,-1.1998294591903687,0.5936899781227112,0.3355291187763214,0.02618253231048584,-0.37332332134246826,-2.5341711044311523
38.6,0.1528993844985962,-1.7724378108978271,4.454118251800537,0.06761568784713745,-0.0906667411327362,-2.369201183319092
38.65,-0.7685433626174927,0.6868070960044861,3.485084295272827,-0.04039996862411499,-0.2784423232078552,-1.544790267944336
38.7,0.6740286946296692,3.441518783569336,3.9683408737182617,0.004816651344299316,-0.8302994966506958,-0.8731659650802612
38.75,1.491045355796814,0.09974818676710129,4.0200934410095215,-0.32297319173812866,-0.8494272828102112,-0.28339359164237976
38.8,2.7683324813842773,-1.0869605541229248,1.9441660642623901,-0.35778725147247314,-1.441972255706787,0.1474532037973404
38.85,4.029400825500488,-0.8017456531524658,5.7028374671936035,-0.8331904411315918,-1.673004150390625,0.48110857605934143
38.9,4.360461235046387,-2.748400926589966,6.605006694793701,-1.4240994453430176,-1.1010836362838745,0.5342662930488586
38.95,2.4496405124664307,-2.043708324432373,0.920839786529541,-2.159121513366699,-0.6743934154510498,0.427815705537796
39.0,2.015721321105957,-0.9479674100875854,1.4472824335098267,-2.058530569076538,-0.12685860693454742,0.2788263261318207
39.05,1.1150779724121094,-3.3596086502075195,4.191652297973633,-1.0635138750076294,0.277183473110199,0.7670721411705017
39.1,0.3238101601600647,-7.036530017852783,3.7480931282043457,0.3778976798057556,0.6811919808387756,1.9014396667480469
39.15,1.7891669273376465,-8.098657608032227,0.5014868974685669,1.5927135944366455,0.9627572298049927,2.4025073051452637
39.2,0.06888806819915771,-5.290820121765137,-5.809770107269287,2.1915318965911865,1.501194953918457,1.6298449039459229
39.25,-3.65191650390625,3.3288323879241943,-4.906294345855713,1.3871431350708008,1.2272422313690186,1.3393592834472656
39.3,-1.2342689037322998,7.403580188751221,-10.835506439208984,1.1963591575622559,1.217889428138733,1.395448088645935
39.35,-4.308385372161865,4.2757248878479,-8.16686725616455,-0.18672242760658264,-0.01642397604882717,-0.7621505260467529
39.4,-5.925975799560547,1.202496886253357,-4.457177639007568,-0.15341717004776,-0.3228515386581421,-1.8818318843841553
39.45,0.5533376932144165,3.759219169616699,-5.097164630889893,0.3067725896835327,-0.4351186454296112,-1.6468816995620728
39.5,2.399637222290039,0.8739827871322632,1.377585768699646,0.1299295425415039,-0.7861249446868896,-1.148571252822876
39.55,5.377320289611816,0.5649386644363403,6.936782360076904,0.023574739694595337,-1.0149743556976318,-0.7969416379928589
39.6,5.149795055389404,1.8477195501327515,7.806998252868652,-0.4230063855648041,-0.8193243741989136,-0.6797927618026733
39.65,1.7024048566818237,2.244331121444702,3.561427116394043,-0.1542445421218872,-0.7470415830612183,-0.9116854667663574
39.7,0.3647598624229431,-2.9014384746551514,-0.8879717588424683,-0.5549895763397217,-0.43090009689331055,-1.351186990737915
39.75,-0.4442227780818939,-4.01762580871582,0.8672587871551514,-0.76566082239151,-0.32565614581108093,-1.309125542640686
39.8,0.1022469699382782,-0.39586368203163147,-0.8608465194702148,0.21877720952033997,0.202725350856781,-0.9928427338600159
39.85,1.0330607891082764,0.37183764576911926,-0.5383418202400208,0.5393896102905273,0.06543143093585968,-0.3511129915714264
39.9,1.9620007276535034,-2.8808116912841797,1.253593921661377,0.4359927177429199,0.12405036389827728,-0.020674139261245728
39.95,0.740847110748291,-2.9161415100097656,1.2880052328109741,-0.2258683741092682,0.5326911807060242,0.32774120569229126
40.0,1.3306262493133545,1.708967685699463,1.34950590133667,-0.7561502456665039,0.23961183428764343,0.6051592230796814
40.05,1.8294237852096558,2.072200059890747,-0.551910400390625,-0.9902361035346985,-0.052441298961639404,0.45828670263290405
40.1,1.161487340927124,-2.8214821815490723,1.1674656867980957,-0.9320529699325562,0.16352035105228424,0.12032372504472733
40.15,-0.984017014503479,0.13970208168029785,2.413902759552002,-0.2963674068450928,0.6556612253189087,-0.25892651081085205
40.2,0.5545880794525146,0.6020288467407227,-0.6160716414451599,-0.052224889397621155,0.3387431800365448,-0.07141602039337158
40.25,-1.0779141187667847,-0.9714519381523132,0.06166816130280495,-0.0362214669585228,0.19239091873168945,-0.28304436802864075
40.3,-3.682162046432495,-1.1342021226882935,1.8051108121871948,-0.14938588440418243,0.08662824332714081,-0.429233193397522
40.35,-1.6707098484039307,-0.5596276521682739,0.061417870223522186,-0.3105171024799347,-0.5145503878593445,-0.06666407734155655
40.4,0.05350196361541748,-1.3239489793777466,-0.06138351559638977,-1.2173740863800049,-1.271475911140442,0.803813099861145
40.45,-1.0948519706726074,0.2655468285083771,0.32108229398727417,-0.756858766078949,-0.35456404089927673,0.17920143902301788
40.5,-0.20969676971435547,-0.7151061296463013,-0.6502887606620789,-0.3795977830886841,-0.06575225293636322,0.10253304988145828
40.55,-0.4637429118156433,0.44601520895957947,-1.577722191810608,-0.12114155292510986,-0.36341434717178345,-0.22430133819580078
40.6,-0.893288254737854,-0.16642780601978302,-1.3262169361114502,0.3109886646270752,-1.0245760679244995,-0.5988726019859314
40.65,-1.3653346300125122,0.42666324973106384,-1.2262096405029297,1.195775032043457,-1.9301364421844482,-0.7305282950401306
40.7,-1.925623893737793,0.25052717328071594,-1.437745451927185,1.8098928928375244,-1.9335181713104248,-0.5102670788764954
40.75,-2.4075725078582764,-0.243876650929451,-0.4985574781894684,1.0034711360931396,-1.195804476737976,-0.010051512159407139
40.8,-0.5689870119094849,-0.06608875840902328,-0.4462130665779114,0.09638304263353348,-1.1633964776992798,0.5215480327606201
40.85,0.49817657470703125,-0.6662808060646057,-0.4359185993671417,-0.3983873128890991,-1.3814183473587036,0.48419374227523804
40.9,0.03413248062133789,-0.011280929669737816,0.7514913082122803,-0.5367732048034668,-1.449884057044983,0.36887770891189575
40.95,0.4307447373867035,0.2966671586036682,0.18166053295135498,-0.4413970410823822,-1.3887062072753906,0.44114434719085693
41.0,0.4802786111831665,0.7750911116600037,-1.5384941101074219,-0.7165195345878601,-1.3005837202072144,0.29514414072036743
41.05,1.530794382095337,-1.5686614513397217,3.6427526473999023,-2.3883917331695557,-1.8362760543823242,0.12486263364553452
41.1,-0.6376591324806213,2.1500258445739746,1.8686473369598389,-1.0088520050048828,-0.7596721649169922,-0.1766616404056549
41.15,-0.15462884306907654,1.234569787979126,1.457076907157898,-0.5306065678596497,0.03479522466659546,-0.0008559185662306845
41.2,0.4902235269546509,0.6889384388923645,1.7664605379104614,-0.43096357583999634,0.07714539766311646,-0.15048886835575104
41.25,0.448265016078949,-0.7280797362327576,1.076663613319397,-0.30500954389572144,0.07757443189620972,-0.31872332096099854
41.3,-0.25893163681030273,-0.931526243686676,0.6914916634559631,-0.31714487075805664,-0.09002770483493805,-0.3473016619682312
41.35,-1.6016114950180054,-0.9659367203712463,1.1317739486694336,-0.3669719398021698,-0.013155439868569374,-0.1908828765153885
41.4,-0.7169041037559509,-1.0115156173706055,1.0600509643554688,-0.36559006571769714,0.065898597240448,0.2204246073961258
41.45,0.7688215970993042,-1.248863935470581,2.437293291091919,-0.41885247826576233,0.22649691998958588,0.28092747926712036
41.5,0.028049349784851074,0.3295109272003174,1.8490636348724365,-0.3929542601108551,0.5439188480377197,0.14636331796646118
41.55,-0.27950793504714966,-0.4231584370136261,2.537980318069458,-0.5227504372596741,0.7763750553131104,0.13933265209197998
41.6,-0.2728031277656555,-0.36184102296829224,2.054715394973755,-0.3378778100013733,0.9340741038322449,0.06606387346982956
41.65,-0.3028613328933716,-0.06602748483419418,1.6123532056808472,-0.3000437915325165,1.1481441259384155,-0.15214399993419647
41.7,0.5517630577087402,-1.2834243774414062,0.9240279793739319,-0.2996167540550232,1.591226577758789,-0.32314154505729675
41.75,-0.9569499492645264,-1.2883225679397583,0.2718457281589508,-0.24950148165225983,2.206951856613159,0.09955259412527084
41.8,-0.10790957510471344,-2.121441602706909,-0.49489152431488037,0.06293195486068726,2.427586078643799,1.706664800643921
41.85,1.002321720123291,-3.1883761882781982,-2.343129873275757,0.24212288856506348,1.7935426235198975,2.348245620727539
41.9,-0.1724032163619995,-0.7037809491157532,-6.321182727813721,0.4363783597946167,0.6761272549629211,2.3184709548950195
41.95,2.2514991760253906,2.478743076324463,-7.132493495941162,-0.25205475091934204,-0.5717443227767944,2.6458094120025635
42.0,-1.7269952297210693,6.764709949493408,-13.017677307128906,0.2968754768371582,-1.412790298461914,1.2485648393630981
42.05,3.704899311065674,3.719886064529419,-11.2908296585083,1.185194730758667,-2.185457944869995,-2.39184308052063
42.1,-0.16149330139160156,3.120668888092041,-7.8515214920043945,1.2732875347137451,-1.677945613861084,-3.050536870956421
42.15,3.0062179565429688,0.7575332522392273,-0.5395162105560303,1.2950658798217773,-1.3638653755187988,-1.387199878692627
42.2,5.0779709815979,-3.6600570678710938,2.961857318878174,1.0004019737243652,-1.846035122871399,-0.5169438123703003
42.25,4.983986854553223,0.3662486672401428,2.5339951515197754,0.85341477394104,-1.5552998781204224,-0.7611568570137024
42.3,3.2637627124786377,1.3100099563598633,-2.616021156311035,0.9724681377410889,-0.47662442922592163,-1.0660662651062012
42.35,-1.329955816268921,-0.987433671951294,-0.5759918689727783,0.6852738857269287,-0.8195803165435791,-0.2623229920864105
42.4,-2.531041145324707,0.9894270896911621,4.141903400421143,-0.07184157520532608,-1.9638409614562988,0.12610980868339539
42.45,2.537644624710083,0.9134084582328796,8.16329574584961,-0.6462624073028564,-2.720734119415283,0.31552672386169434
42.5,0.3333144187927246,-4.1323957443237305,6.582339286804199,-0.2342812418937683,-0.9483160972595215,-0.10506092756986618
42.55,-3.92466139793396,-4.023596286773682,3.886667251586914,0.20518085360527039,0.0930650532245636,-0.4255310893058777
42.6,-3.522373914718628,-6.412458896636963,2.0088374614715576,-0.16976860165596008,0.6171767711639404,-0.2688959836959839
42.65,-3.267164945602417,-8.19866943359375,-0.6362358331680298,-0.5965193510055542,0.9078076481819153,-0.041730012744665146
42.7,-0.9016983509063721,-6.376850605010986,-5.2891926765441895,-0.9203268885612488,0.8193224668502808,0.5453664064407349
42.75,2.424417734146118,5.62253999710083,-10.125641822814941,-0.7593411207199097,0.2868034541606903,0.8827621340751648
42.8,7.066122055053711,10.075316429138184,-13.715622901916504,-0.23943164944648743,-1.9139965772628784,1.0587852001190186
42.85,8.984797477722168,7.118330478668213,-1.0893710851669312,0.22416795790195465,-2.838839292526245,1.1149173974990845
42.9,2.709548234939575,3.7212274074554443,1.1385242938995361,1.1329606771469116,-0.8205729126930237,-0.6514340043067932
42.95,-3.9946866035461426,0.9543799161911011,-0.36030638217926025,0.9290919303894043,-0.7506535649299622,-0.6902598142623901
43.0,-3.05958890914917,-1.0352128744125366,-1.0514215230941772,0.13837623596191406,-2.770930051803589,0.15654310584068298
43.05,-1.8376168012619019,-1.0777766704559326,3.7900311946868896,-0.15009164810180664,-3.1669297218322754,0.15313050150871277
43.1,0.6168464422225952,-3.6756222248077393,2.5554771423339844,0.007232740521430969,-1.1311622858047485,0.4180948734283447
43.15,-1.5342854261398315,6.384468078613281,1.1784814596176147,0.15847986936569214,-0.7393869757652283,0.1353265941143036
43.2,-0.6414045095443726,1.7768300771713257,1.5390037298202515,0.01204448938369751,-0.6805205345153809,-0.2657445967197418
43.25,-3.183760166168213,-1.9255428314208984,3.006063461303711,-0.287399023771286,-0.7592761516571045,-0.7982496023178101
43.3,-4.82240104675293,-2.2760720252990723,0.15719839930534363,-0.5960386991500854,-0.3898107409477234,-0.8129429817199707
43.35,-2.8864922523498535,-4.814391613006592,-0.24142764508724213,-1.2686917781829834,0.24843652546405792,-0.65181964635849
43.4,-3.3944294452667236,-7.914496898651123,2.452558994293213,-1.0288290977478027,1.3028340339660645,-0.2747870981693268
43.45,0.5521485805511475,-7.431580066680908,0.23584632575511932,-0.3271307647228241,2.407548427581787,0.4024735689163208
43.5,3.611311674118042,-5.455339431762695,-0.20500952005386353,-0.7869440317153931,2.482135772705078,0.59437495470047
43.55,8.912429809570312,-0.016938313841819763,-4.41500997543335,-1.0539016723632812,1.472792148590088,0.5604112148284912
43.6,10.507115364074707,7.0478715896606445,-10.68529224395752,-2.0479164123535156,0.5141956210136414,1.011289119720459
43.65,6.746547222137451,10.652915954589844,-2.5736658573150635,-1.2331452369689941,-2.635615587234497,1.4065405130386353
43.7,0.07072657346725464,11.192989349365234,1.6381961107254028,2.2262685298919678,-0.1233748272061348,0.29485607147216797
43.75,1.6002553701400757,6.64409065246582,-2.5598814487457275,2.9429545402526855,0.3574199080467224,-0.8188270926475525
43.8,-2.0601301193237305,-3.1822972297668457,0.1255647987127304,1.783138394355774,-0.47816428542137146,-0.30144765973091125
43.85,-5.265171051025391,-1.043338656425476,4.738834381103516,1.127778172492981,-0.3915451765060425,0.020843757316470146
43.9,-3.6469311714172363,-2.7475693225860596,1.0977423191070557,0.6017967462539673,0.13808968663215637,-0.2814611792564392
43.95,-0.8812705278396606,0.866654634475708,1.6448447704315186,-0.13922257721424103,-0.4443356990814209,-0.03926505893468857
44.0,-1.5786348581314087,1.5802643299102783,0.3230436444282532,-0.5187645554542542,-0.9325262308120728,0.030696116387844086
44.05,-1.6063467264175415,2.0182769298553467,-3.5139503479003906,-0.657651960849762,-1.0198103189468384,-0.4396187663078308
44.1,-1.279871940612793,6.722084045410156,1.8884732723236084,-1.5339144468307495,-1.725279688835144,-0.45606064796447754
44.15,1.912426233291626,-0.606884777545929,1.3800302743911743,-0.5688773393630981,-0.7777912616729736,-0.36872920393943787
44.2,-2.1332550048828125,-5.17626953125,-2.9280433654785156,1.2590336799621582,0.4333452582359314,0.06819459050893784
44.25,-1.554105520248413,-11.452654838562012,-4.024770259857178,0.8848502039909363,0.8904523849487305,0.1771538108587265
44.3,3.062314033508301,-8.714183807373047,-3.975468397140503,-0.2531163692474365,0.6202418804168701,0.4631165862083435
44.35,9.568509101867676,-2.137747287750244,-2.162292242050171,-0.7762457132339478,-0.23359496891498566,0.6788088083267212
44.4,7.494168281555176,-1.3111417293548584,-7.782332420349121,-0.3676164448261261,-1.1896394491195679,1.2065958976745605
44.45,-3.2572684288024902,3.7578823566436768,-1.0351202487945557,-0.26296180486679077,-1.352418303489685,1.988519310951233
44.5,-3.7481086254119873,5.099747180938721,-5.4745049476623535,0.44501614570617676,-0.3133179545402527,0.6024478673934937
44.55,3.785604953765869,3.7104830741882324,-0.5101277828216553,-0.217950701713562,-1.2465345859527588,0.1180737093091011
44.6,-0.20482373237609863,3.149127960205078,-3.1592040061950684,0.16309313476085663,-0.8759040236473083,0.39934924244880676
44.65,-1.5799579620361328,1.0661797523498535,-4.957959175109863,0.32178130745887756,-0.2986448109149933,0.23687787353992462
44.7,-4.074756622314453,3.1364855766296387,0.606133759021759,-0.08506423234939575,-1.2802108526229858,-0.1728140264749527
44.75,-3.9284656047821045,4.165347099304199,4.657679080963135,-0.09104947745800018,-1.4160892963409424,-0.6619026064872742
44.8,-3.569308280944824,-2.052785873413086,2.7526252269744873,0.36632150411605835,-0.4126967191696167,-0.8578124642372131
44.85,-0.8261761665344238,-5.475488185882568,1.118944525718689,0.6408371925354004,0.7511470913887024,-0.6467900276184082
44.9,-4.262942790985107,-6.438370227813721,1.3382089138031006,0.5367975234985352,1.2254822254180908,-0.6680701375007629
44.95,-4.399448871612549,-8.657167434692383,2.859600782394409,-0.3148888349533081,1.2560557126998901,-0.36083996295928955
45.0,-1.1024940013885498,-7.522313594818115,1.2549777030944824,-0.7495135068893433,1.7861710786819458,-0.3475876450538635
45.05,7.291473865509033,-3.6516945362091064,-0.7117999196052551,-1.5720950365066528,1.3405073881149292,-0.3949921727180481
45.1,17.101844787597656,5.652958869934082,-2.158308982849121,-2.116004228591919,-1.0291322469711304,0.4640350639820099
45.15,6.383162975311279,9.582387924194336,-16.121719360351562,0.9510275721549988,-0.465037077665329,1.176698923110962
45.2,4.648169040679932,-1.6437374353408813,-5.316213607788086,0.503470242023468,-0.022711673751473427,0.5454797744750977
45.25,6.0516180992126465,2.2468807697296143,-2.0038156509399414,0.8747717142105103,-0.2897762954235077,0.7259299755096436
45.3,0.1099930852651596,8.345590591430664,0.582442581653595,0.6267037391662598,-0.7209637761116028,0.740580141544342
45.35,-2.6619718074798584,3.2882683277130127,-1.1618156433105469,0.606952965259552,-0.5625650882720947,-0.08035459369421005
45.4,-2.2347419261932373,1.47640061378479,2.1460824012756348,-0.04775053262710571,-1.2166789770126343,-0.6934385299682617
45.45,-3.989694356918335,1.6816887855529785,3.355154037475586,0.039088115096092224,-1.3300814628601074,-0.7491958141326904
45.5,-1.7141714096069336,-3.875749111175537,0.8882178068161011,0.8018409609794617,-0.40514615178108215,-0.5594760179519653
45.55,-2.2848682403564453,-6.081115245819092,-1.694324016571045,1.349753737449646,0.49862295389175415,-0.7275981307029724
45.6,-3.2776527404785156,-8.996295928955078,-3.731113910675049,1.3911031484603882,1.225946068763733,-1.2980862855911255
45.65,-3.33467435836792,-6.146677494049072,-2.165898084640503,0.34579166769981384,1.2191015481948853,-1.2050819396972656
45.7,-0.695195734500885,-0.8470214009284973,-1.3689007759094238,-0.5773121118545532,1.0142710208892822,-1.2517305612564087
45.75,2.2411248683929443,-1.4189002513885498,1.8273590803146362,-1.8360363245010376,0.2797514498233795,-0.8563588261604309
45.8,5.901407241821289,-0.8166911602020264,1.1288316249847412,-0.8596888780593872,-0.10316579043865204,-0.08803527057170868
45.85,11.663647651672363,4.205905914306641,0.6872093677520752,-1.1313132047653198,-0.176530122756958,0.9897191524505615
45.9,14.56367301940918,3.5548956394195557,1.261270523071289,-1.5028725862503052,-1.0614267587661743,1.1001440286636353
45.95,5.129688739776611,8.613574028015137,8.112523078918457,-1.920332670211792,-2.597285032272339,1.4473627805709839
46.0,-1.706822156906128,8.653480529785156,1.3781886100769043,-0.15689119696617126,-1.2206649780273438,0.5687333345413208
46.05,-0.725623369216919,3.6164565086364746,0.7214796543121338,0.6657612323760986,-1.4962629079818726,-0.5462237000465393
46.1,1.972054362297058,-0.38080278038978577,2.7594523429870605,0.3452981412410736,-1.5325583219528198,-0.3145935535430908
46.15,-3.956874132156372,-1.539539098739624,-2.7087466716766357,0.9371036291122437,-0.2733023762702942,0.49480289220809937
46.2,-4.616856575012207,-2.9442763328552246,-1.0566341876983643,1.1119004487991333,0.7903052568435669,0.6895886063575745
46.25,-5.261246204376221,-6.527695655822754,-0.2984645962715149,1.1368681192398071,1.2452335357666016,0.007780998479574919
46.3,-0.9704293012619019,-7.177105903625488,-0.6718295216560364,1.0607656240463257,1.9894182682037354,0.18036791682243347
46.35,8.236959457397461,-3.4409329891204834,-0.17067807912826538,0.06188967823982239,1.7759630680084229,0.6185169816017151
46.4,27.067840576171875,12.595998764038086,-3.9053635597229004,-0.9163447618484497,-0.04731055349111557,1.036109447479248
46.45,22.863561630249023,3.2477962970733643,-3.244508743286133,0.471363365650177,-1.4552772045135498,0.7058522701263428
46.5,1.9792516231536865,4.22528600692749,-2.411829710006714,0.6532569527626038,-0.9601787328720093,0.3337872624397278
46.55,-5.880683422088623,5.275570869445801,-0.6533228754997253,0.3255179524421692,-0.9662993550300598,0.3379397392272949
46.6,-8.92246150970459,4.815150260925293,0.03037295490503311,0.3997345268726349,-1.1897886991500854,-0.1596575677394867
46.65,-2.819993734359741,-4.186131000518799,-0.6303340792655945,0.6015278697013855,-1.1444780826568604,-0.7260667085647583
46.7,-0.2457425594329834,-4.844022750854492,-5.0273308753967285,1.0361807346343994,-0.15021100640296936,-0.3085491955280304
46.75,-0.31391942501068115,-3.602369546890259,-5.540737152099609,1.0336642265319824,0.3739766478538513,-0.14266973733901978
46.8,0.7178263664245605,-3.599959373474121,-3.9480419158935547,0.4264659583568573,0.33375275135040283,-0.43011537194252014
46.85,-0.13866281509399414,-2.745849609375,-2.4810197353363037,0.05324426293373108,0.13571351766586304,-0.9260672926902771
46.9,3.385420799255371,-2.900740385055542,-1.9182976484298706,-0.5856279134750366,0.19511786103248596,-0.6637097597122192
46.95,1.570838212966919,-5.027232646942139,-0.7685884237289429,-0.6542297601699829,0.30318483710289,-0.8542962074279785
47.0,3.5622754096984863,-4.33752965927124,0.21868915855884552,-0.7739428877830505,0.8636701107025146,-0.3933704197406769
47.05,13.506370544433594,2.15569806098938,3.7775285243988037,-1.384830117225647,0.6673803925514221,0.7690573334693909
47.1,9.472368240356445,1.9632104635238647,6.487574100494385,-1.5387487411499023,-0.13403789699077606,-0.7857503890991211
47.15,4.465017318725586,4.530467987060547,3.59358549118042,-0.4888702929019928,-0.6457256078720093,0.521700918674469
47.2,3.0575931072235107,2.3182899951934814,-0.21507997810840607,1.1086792945861816,1.5401372909545898,1.0857833623886108
47.25,2.3670191764831543,2.6149470806121826,-4.9082818031311035,0.8610102534294128,0.05822702497243881,0.06750655919313431
47.3,2.1664228439331055,1.17497980594635,-5.557222843170166,0.24742859601974487,-0.8881819844245911,-0.5957364439964294
47.35,-4.233122825622559,-1.9764925241470337,-1.291257381439209,-0.5220072865486145,-1.6475189924240112,-1.0081146955490112
47.4,-4.552931308746338,-2.1869449615478516,0.6034209728240967,-0.13973233103752136,-0.5237197875976562,-0.24583369493484497
47.45,-2.1309401988983154,-4.3504838943481445,3.258269786834717,-0.24534089863300323,0.5052638053894043,-0.15356659889221191
47.5,-2.7062747478485107,-3.0595009326934814,3.253389835357666,-0.06619343161582947,1.3637436628341675,-0.42110008001327515
47.55,-1.994908094406128,0.09565950185060501,2.880115032196045,0.01586674153804779,1.8390456438064575,-0.5849656462669373
47.6,-0.5384344458580017,1.0188134908676147,1.9739409685134888,-0.7648244500160217,1.7572227716445923,-1.1619327068328857
47.65,-0.9556263089179993,-1.4563292264938354,2.8965795040130615,-1.2425014972686768,1.4306001663208008,-1.1834774017333984
47.7,0.944003164768219,-0.13633993268013,1.6753419637680054,-0.6923736333847046,1.954622745513916,-0.994574785232544
47.75,2.959481954574585,-1.3446760177612305,0.03480716422200203,-0.9357214570045471,2.3378589153289795,-0.883457362651825
47.8,7.418252468109131,-3.335670232772827,-1.2188498973846436,-1.4773486852645874,3.280515432357788,1.4658349752426147
47.85,7.647572994232178,-1.8396921157836914,-4.983360290527344,-1.5291802883148193,2.1106274127960205,1.541621208190918
47.9,6.108279705047607,-0.7706844210624695,-2.8397607803344727,-3.462254524230957,-0.20890800654888153,1.2647253274917603
47.95,-33.09702682495117,-26.21769905090332,-3.8865902423858643,0.3245921730995178,-1.7701213359832764,0.18705809116363525
48.0,0.0372883677482605,-5.695258140563965,-2.608107328414917,3.592381477355957,0.9521780610084534,1.4390647411346436
48.05,7.287505149841309,1.4354525804519653,-2.3348329067230225,2.4173507690429688,0.13398563861846924,2.090623617172241
48.1,-3.365421772003174,7.0311970710754395,5.1400299072265625,2.6799213886260986,0.6808089017868042,1.7515138387680054
48.15,-3.2036352157592773,3.9571738243103027,1.3026716709136963,2.7862708568573,1.2467812299728394,0.27964159846305847
48.2,0.3145168423652649,4.923962116241455,1.3400936126708984,2.3519349098205566,-0.32263657450675964,-0.35461825132369995
48.25,0.2319767326116562,-0.9586020708084106,0.16083168983459473,2.1295197010040283,-1.0240627527236938,-0.9407383799552917
48.3,-5.030337333679199,-10.349008560180664,-0.455983430147171,1.5549670457839966,-0.23089095950126648,-1.1942986249923706
48.35,-2.1589200496673584,-2.9483723640441895,-1.2011748552322388,0.4338855445384979,0.08456897735595703,-0.47586703300476074
48.4,9.206355094909668,15.1741361618042,0.053095243871212006,-0.6694645285606384,-0.5747223496437073,-0.644839346408844
48.45,4.6990556716918945,-0.33864492177963257,7.461462497711182,0.46219784021377563,0.13960310816764832,-1.896293044090271
48.5,0.44960784912109375,-1.1904484033584595,-4.715918064117432,2.2520620822906494,1.0212833881378174,-1.2378939390182495
48.55,-4.128859996795654,-6.636695861816406,-0.48254308104515076,0.9402648210525513,0.6640041470527649,-0.9789759516716003
48.6,-1.739711046218872,-3.7875115871429443,2.659170150756836,0.2758389115333557,0.9386982321739197,-0.02571754902601242
