Time [s],Acc_x [m/s^2],Acc_y [m/s^2],Acc_z [m/s^2],Gyro_x [1/s],Gyro_y [1/s],Gyro_z [1/s]
0.0,0.07272455841302872,0.023875229060649872,-0.058731503784656525,0.01282231230288744,0.04286007955670357,0.008646422997117043
0.05,-0.0013620040845125914,0.02673148922622204,-0.007078906055539846,-0.012688973918557167,0.04983643814921379,0.0031613626051694155
0.1,-0.06294195353984833,0.06995009630918503,0.009846486151218414,-0.044690296053886414,0.059811074286699295,0.001906301942653954
0.15,-0.01434997282922268,0.10804270952939987,-0.03078313171863556,-0.04490732029080391,0.05910657346248627,0.0025033208075910807
0.2,-0.027641279622912407,0.06245803460478783,-0.004561992362141609,-0.10295093059539795,0.04939964413642883,-0.03773025795817375
0.25,0.03746959939599037,0.1611318439245224,-0.0509614534676075,-0.20835740864276886,0.03353665769100189,-0.09824860841035843
0.3,0.12533539533615112,0.11545275896787643,0.047447413206100464,-0.37630659341812134,0.03497364744544029,-0.19537010788917542
0.35,-0.05337730050086975,-0.04324338585138321,0.4197576940059662,-0.5344663858413696,0.07530319690704346,-0.2594078481197357
0.4,-0.11163115501403809,0.9286803603172302,0.5378977060317993,-0.495087206363678,0.11941591650247574,-0.11381153017282486
0.45,0.21073424816131592,1.6972931623458862,0.4480915367603302,-0.601604163646698,0.109213687479496,0.16882333159446716
0.5,0.3792998790740967,1.4634302854537964,0.28993818163871765,-0.8659887313842773,0.1447095423936844,0.5353107452392578
0.55,0.11361818015575409,1.4226692914962769,-0.10479284822940826,-1.142914891242981,0.2335074096918106,0.8549630641937256
0.6,-0.002869538962841034,0.5355309844017029,-0.21613776683807373,-1.5139029026031494,0.23106655478477478,1.0155401229858398
0.65,-0.1656024158000946,-0.13046739995479584,-0.3135652244091034,-1.5680744647979736,0.28602561354637146,1.089522361755371
0.7,-0.31148073077201843,-0.26335427165031433,-0.45050176978111267,-1.392741084098816,0.4153674244880676,1.0685443878173828
0.75,-0.2709559500217438,-0.5070790648460388,-0.26385247707366943,-1.2332096099853516,0.46901339292526245,0.9825961589813232
0.8,-0.2941117584705353,-0.5364283919334412,-0.3102495074272156,-1.0282514095306396,0.5535136461257935,0.8872923254966736
0.85,-0.42889606952667236,-0.5095061659812927,-0.24084681272506714,-0.9638044238090515,0.5026440620422363,0.7359106540679932
0.9,-0.16456691920757294,-0.7645577788352966,-0.183499276638031,-0.8936253190040588,0.3922472596168518,0.635948657989502
0.95,-0.2113630473613739,-0.6533660292625427,-0.09270701557397842,-0.8062324523925781,0.276490718126297,0.5200691819190979
1.0,-0.11580213904380798,-0.5361356139183044,-0.02278848923742771,-0.6920545101165771,0.1771393120288849,0.4402211904525757
1.05,0.04013800993561745,-0.37044426798820496,-0.12344363331794739,-0.5536060929298401,0.11620330810546875,0.4005158245563507
1.1,-0.06480233371257782,-0.1582164615392685,-0.15237252414226532,-0.46057724952697754,0.09356538951396942,0.3676982522010803
1.15,-0.17964276671409607,-0.14282511174678802,-0.09921709448099136,-0.42918387055397034,0.05254746973514557,0.35468435287475586
1.2,-0.15222126245498657,-0.13591764867305756,0.011086405254900455,-0.4397520422935486,0.0037229089066386223,0.33728834986686707
1.25,-0.12023133039474487,-0.10396765172481537,-0.03360487148165703,-0.43449121713638306,-0.014779342338442802,0.2974110245704651
1.3,0.02996734157204628,-0.17526625096797943,-0.12418840080499649,-0.3662853240966797,0.03841451555490494,0.2816102206707001
1.35,-0.057952575385570526,-0.1388988345861435,-0.24008800089359283,-0.30652445554733276,0.05825391784310341,0.2641836106777191
1.4,-0.21945104002952576,-0.15805909037590027,0.17941731214523315,-0.27183806896209717,-0.03426400572061539,0.19160571694374084
1.45,-0.20128166675567627,-0.1892671138048172,0.3354191184043884,-0.1580030769109726,-0.04498819261789322,0.06491369009017944
1.5,-0.02536763809621334,-0.20002077519893646,0.06835491210222244,-0.12387353926897049,-0.05010091885924339,0.06258460879325867
1.55,-0.057978417724370956,-0.23484228551387787,0.025778107345104218,-0.15087051689624786,-0.1351115107536316,0.12915998697280884
1.6,0.042103737592697144,-0.1755199283361435,0.026607342064380646,-0.16676829755306244,-0.16388840973377228,0.195897176861763
1.65,0.12144779413938522,-0.07071208953857422,-0.003400984685868025,-0.11215898394584656,-0.12353309988975525,0.22794023156166077
1.7,-0.0005859062075614929,-0.1201028823852539,-0.10508828610181808,-0.026700519025325775,0.0047517381608486176,0.25297868251800537
1.75,-0.08042538166046143,-0.09346770495176315,-0.1254996657371521,-0.02874627709388733,-0.021644338965415955,0.2842472195625305
1.8,-0.1405782252550125,-0.14008234441280365,-0.11930153518915176,0.004117399454116821,0.02900627814233303,0.2727352976799011
1.85,-0.17707310616970062,0.1963949054479599,-0.1363649219274521,0.053113341331481934,0.056949470192193985,0.22181463241577148
1.9,-0.18157966434955597,0.2704009711742401,0.03490042686462402,0.029975179582834244,-0.024318423122167587,0.14402253925800323
1.95,-0.19357511401176453,-0.06573962420225143,-0.19765181839466095,0.015155410394072533,-0.02954251319169998,0.07291538268327713
2.0,-0.06460674107074738,0.06096647307276726,-0.46487879753112793,0.05094820633530617,0.023089898750185966,0.055052340030670166
2.05,-0.13147155940532684,-0.053448665887117386,0.03585541993379593,0.008977573364973068,-0.020089469850063324,0.008247323334217072
2.1,-0.07539045810699463,-0.11542891710996628,-0.07980509847402573,0.02713560126721859,-0.032147880643606186,-0.03334220498800278
2.15,0.022821059450507164,0.0416707918047905,-0.06296463310718536,0.02696206048130989,-0.025806987658143044,-0.054806701838970184
2.2,-0.047110665589571,0.02002238668501377,-0.13953423500061035,0.02518164925277233,-0.013432176783680916,-0.06509286165237427
2.25,0.02379804104566574,-0.05077647045254707,0.23354610800743103,0.006906518712639809,-0.02625187486410141,-0.06825071573257446
2.3,-0.1379195749759674,-0.09584616124629974,-0.0030104832258075476,0.051582932472229004,0.02302015759050846,-0.09165498614311218
2.35,-0.22282402217388153,-0.038469307124614716,-0.1557842642068863,0.007524341344833374,-0.01194299291819334,-0.07306879758834839
2.4,-0.22003552317619324,-0.047286976128816605,-0.05912565812468529,-0.029799172654747963,-0.07235641777515411,-0.03246045112609863
2.45,-0.18830841779708862,-0.0016546195838600397,-0.07134212553501129,-0.015121936798095703,-0.08120887726545334,-0.030427759513258934
2.5,-0.04820564389228821,0.0046968464739620686,-0.03363027051091194,-0.0070254066959023476,-0.06326205283403397,-0.02933717519044876
2.55,-0.06909098476171494,0.02293968014419079,-0.06933295726776123,0.00395241379737854,-0.015795860439538956,-0.033818211406469345
2.6,-0.13631375133991241,0.060434337705373764,-0.11182623356580734,0.0029708966612815857,0.00540687283501029,-0.038743987679481506
2.65,-0.1601906269788742,0.01956653781235218,-0.0827435553073883,0.0031034983694553375,0.01941658928990364,-0.0326920747756958
2.7,-0.1701192557811737,0.039669036865234375,-0.09688687324523926,-0.0026531442999839783,0.011988656595349312,-0.02109723538160324
2.75,-0.12874886393547058,0.017577175050973892,0.018610132858157158,-0.024368004873394966,-0.0024949125945568085,-0.011298305355012417
2.8,-0.06330976635217667,-0.053517334163188934,0.029368245974183083,-0.036271438002586365,-0.052852991968393326,-0.004853435326367617
2.85,-0.07693503797054291,0.01242923829704523,-0.03171725571155548,-0.04433649778366089,-0.08382024616003036,-0.012683331035077572
2.9,-0.07289212197065353,-0.04632091149687767,-0.05999566987156868,-0.060201115906238556,-0.09944584965705872,-0.0006269082659855485
2.95,-0.06631040573120117,0.01210308913141489,0.14697757363319397,-0.05677047371864319,-0.08553758263587952,-0.00995889026671648
3.0,-0.05892060324549675,0.024768834933638573,0.10507684201002121,-0.0009639505296945572,-0.009110955521464348,-0.024301201105117798
3.05,-0.04393971338868141,0.003596310503780842,0.07536803185939789,0.005569138564169407,-0.0034882223699241877,-0.025038478896021843
3.1,-0.06363889575004578,-0.007653231732547283,0.03738255053758621,0.0037100212648510933,-0.016522575169801712,-0.030268361791968346
3.15,-0.06509119272232056,0.0487518273293972,-0.029952682554721832,0.0027802633121609688,-0.01901596412062645,-0.03199492022395134
3.2,-0.03260335326194763,0.004647254012525082,-0.040498021990060806,0.00976658146828413,0.01363789290189743,-0.034616582095623016
3.25,-0.037146881222724915,0.013016700744628906,-0.008027368225157261,0.006634337827563286,0.023369695991277695,-0.04397176206111908
3.3,-0.11123014986515045,0.017527585849165916,0.04647653549909592,-0.002948155626654625,0.013697398826479912,-0.04021165519952774
3.35,-0.1453983187675476,-0.02259158343076706,-0.003665036056190729,0.00803317129611969,0.042886972427368164,-0.03567750006914139
3.4,-0.1674823760986328,0.0007085895631462336,0.05678209662437439,0.009614053182303905,0.037045739591121674,-0.03162606060504913
3.45,-0.08233712613582611,-0.06460283696651459,0.048268530517816544,0.019485142081975937,0.04547632858157158,-0.015124068595468998
3.5,-0.12192441523075104,0.013012890703976154,0.010000432841479778,0.023791451007127762,0.051750022917985916,-0.013108816929161549
3.55,-0.013018719851970673,0.024872783571481705,0.11003413796424866,0.03460262715816498,0.06229877844452858,-0.014814781956374645
3.6,-0.06564174592494965,0.04537678509950638,0.1839449107646942,0.04960094019770622,0.07817048579454422,-0.030652789399027824
3.65,-0.061093561351299286,0.06251049786806107,0.25007620453834534,0.07703572511672974,0.11146625876426697,-0.042751893401145935
3.7,-0.052133601158857346,0.02520466223359108,0.10303076356649399,0.1397104561328888,0.15932703018188477,-0.05238552764058113
3.75,-0.06092095747590065,0.007948880083858967,0.07072637230157852,0.15941327810287476,0.1475568413734436,-0.05038818344473839
3.8,-0.037742264568805695,-0.025032993406057358,0.013489306904375553,0.14892785251140594,0.10553887486457825,-0.049763668328523636
3.85,0.03210524097084999,-0.0677490159869194,0.08181391656398773,0.13766419887542725,0.0836971253156662,-0.05351284518837929
3.9,-0.06782597303390503,-0.03264998272061348,0.14631173014640808,0.14129377901554108,0.07876613736152649,-0.06058115512132645
3.95,-0.04647986218333244,-0.005179396364837885,0.1565769910812378,0.16717195510864258,0.09808596968650818,-0.07088832557201385
4.0,-0.013481911271810532,-0.02013205923140049,0.07045814394950867,0.18374072015285492,0.11163296550512314,-0.08193878084421158
4.05,-0.06318208575248718,-0.028355590999126434,0.06409591436386108,0.17330169677734375,0.08473758399486542,-0.07853863388299942
4.1,-0.08436965942382812,0.011281019076704979,0.07247227430343628,0.16941870748996735,0.04583142697811127,-0.08310025185346603
4.15,-0.0986470952630043,0.037249572575092316,0.17229782044887543,0.1851363629102707,0.054233014583587646,-0.08738331496715546
4.2,-0.1019483134150505,-0.019030563533306122,0.02277972735464573,0.20505130290985107,0.07689867913722992,-0.09424703568220139
4.25,-0.09358274936676025,-0.017939558252692223,0.06765148043632507,0.17718535661697388,0.06461469829082489,-0.0944909080862999
4.3,-0.09252268821001053,0.029869087040424347,0.14250455796718597,0.16020958125591278,0.06227836012840271,-0.09353245794773102
4.35,-0.10876452922821045,0.028855323791503906,-0.0757589042186737,0.1780613511800766,0.10189568251371384,-0.0995427742600441
4.4,-0.06915034353733063,0.0005216605495661497,-0.055488210171461105,0.12221810221672058,0.044652216136455536,-0.08935833722352982
4.45,-0.040658146142959595,0.010477070696651936,0.08470027893781662,0.07036300748586655,-0.013117009773850441,-0.08296111971139908
4.5,-0.08633404225111008,0.04329395666718483,0.11891642212867737,0.07839477807283401,0.007975946180522442,-0.09154872596263885
4.55,-0.0925450250506401,-0.01968478225171566,0.06437715888023376,0.06708908826112747,0.014358315616846085,-0.0861031711101532
4.6,-0.0365658774971962,-0.018736831843852997,0.08923488855361938,0.04872959479689598,0.007256107404828072,-0.07045980542898178
4.65,-0.033574193716049194,0.008856778033077717,0.09723326563835144,0.058037564158439636,0.0007324686157517135,-0.06899821758270264
4.7,-0.006543826311826706,-0.007387157529592514,0.07857412844896317,0.09691233932971954,0.02509809471666813,-0.06598833203315735
4.75,-0.07587185502052307,0.054535869508981705,0.13149257004261017,0.10013949871063232,0.02097986452281475,-0.05676909536123276
4.8,-0.08561013638973236,0.08419512957334518,-0.010754105634987354,0.0995035469532013,0.02198209799826145,-0.054107412695884705
4.85,-0.03358587622642517,0.021933553740382195,-0.019749917089939117,0.06338008493185043,-0.01649538427591324,-0.05221917852759361
4.9,0.03901660814881325,-0.033273689448833466,0.12193998694419861,0.03926145285367966,-0.05036371573805809,-0.0465380921959877
4.95,0.09824752062559128,-0.1547050178050995,0.29160642623901367,0.04609810188412666,-0.07043435424566269,-0.061019930988550186
5.0,-0.27350789308547974,-0.15462777018547058,0.09221994876861572,0.06796849519014359,-0.04968024417757988,-0.08306257426738739
5.05,-0.309371680021286,-0.11453531682491302,-0.06259531527757645,0.05686604231595993,-0.0365932360291481,-0.04969591647386551
5.1,-0.10909775644540787,0.010014544241130352,0.15798985958099365,0.019960273057222366,-0.06854353100061417,-0.00898406095802784
5.15,-0.3391912281513214,0.1574697643518448,0.3131529986858368,0.031811729073524475,-0.08539175242185593,-0.012121492065489292
5.2,-0.5092242360115051,0.22459031641483307,0.20854762196540833,0.07039101421833038,-0.16038158535957336,0.027963697910308838
5.25,-0.34478655457496643,0.09274007380008698,0.15209941565990448,0.0743204653263092,-0.3517794907093048,0.060734495520591736
5.3,-0.4084881842136383,-0.1331738978624344,0.1581144481897354,0.11768437922000885,-0.5152446627616882,-0.02095237374305725
5.35,0.010845093987882137,-0.4211291968822479,-0.015631042420864105,0.1799212247133255,-0.5474449992179871,-0.15498875081539154
5.4,-0.20025497674942017,-0.0863761454820633,0.6356765627861023,0.21125538647174835,-0.6040602326393127,-0.3302111029624939
5.45,-0.3694804906845093,0.133058562874794,0.23219610750675201,0.49309444427490234,-0.3557988107204437,-0.31905752420425415
5.5,-0.5345040559768677,0.15622805058956146,-0.7078784108161926,0.6272428035736084,-0.27416184544563293,-0.1350017488002777
5.55,-0.3156268000602722,-0.3390798270702362,-0.5459898114204407,0.39167648553848267,-0.49951839447021484,0.04681888222694397
5.6,-0.3683934509754181,-0.349845826625824,0.3099651634693146,0.2553938925266266,-0.6079581379890442,0.12660326063632965
5.65,-0.5911580324172974,-0.7597063779830933,0.15748640894889832,0.29583147168159485,-0.6877745985984802,0.1901066154241562
5.7,-0.7694091796875,-1.604446291923523,-0.6634442806243896,0.44403037428855896,-0.7431440949440002,0.2530736029148102
5.75,-0.7914443016052246,-2.1335160732269287,-0.9766908288002014,0.4958174228668213,-1.0639516115188599,0.1336081326007843
5.8,-0.15800604224205017,-1.8916748762130737,-0.6141610145568848,0.6221769452095032,-1.4307034015655518,-0.13204582035541534
5.85,-0.021236419677734375,-0.8646115660667419,-0.4094619154930115,0.9491243362426758,-1.2086386680603027,-0.3780587315559387
5.9,-0.282347172498703,0.3334636688232422,0.35093453526496887,1.252540111541748,-0.7784005999565125,-0.6130502820014954
5.95,0.21296390891075134,0.8404378890991211,1.1274890899658203,1.5197697877883911,-0.4604639410972595,-0.6573366522789001
6.0,0.22571468353271484,1.485237956047058,1.1812973022460938,1.5810242891311646,-0.32667869329452515,-0.634765088558197
6.05,0.6261932253837585,1.4170349836349487,1.0998202562332153,1.3930484056472778,-0.3096495568752289,-0.5271137356758118
6.1,0.8521757125854492,1.6751011610031128,1.244786024093628,1.2340019941329956,-0.05815690755844116,-0.2564317584037781
6.15,1.072727918624878,0.9141663908958435,1.6609928607940674,0.8632713556289673,-0.020227866247296333,-0.246709406375885
6.2,0.8555418252944946,0.33321473002433777,1.069526195526123,0.5883141756057739,-0.08821745216846466,-0.24450211226940155
6.25,0.4251455068588257,0.22040079534053802,0.6335476636886597,0.28016602993011475,-0.20482797920703888,-0.42000144720077515
6.3,0.3759206235408783,0.6186169981956482,-0.1816980242729187,0.2960147559642792,-0.17023693025112152,-0.3248099386692047
6.35,-0.350871741771698,0.28249165415763855,-0.11230269074440002,0.32912546396255493,-0.06647372245788574,-0.23783376812934875
6.4,0.5165315270423889,-0.5908823013305664,-0.49068549275398254,0.5874852538108826,0.3171651363372803,0.49867382645606995
6.45,-0.29965677857398987,-0.13078877329826355,0.055690184235572815,0.5482027530670166,0.3954565227031708,0.4326798617839813
6.5,0.4393042325973511,0.3460492789745331,0.2277718484401703,0.567872941493988,0.2651385962963104,0.49320802092552185
6.55,0.3423212468624115,0.156736359000206,0.4511246085166931,0.4019327163696289,0.16646000742912292,0.31066811084747314
6.6,-0.18562383949756622,0.03659345954656601,0.4519430696964264,0.3269898593425751,0.144426628947258,0.2309473305940628
6.65,-0.006887776777148247,0.10159682482481003,0.05201968550682068,0.39012065529823303,0.12825173139572144,0.22350546717643738
6.7,0.16246508061885834,0.24723051488399506,0.12718647718429565,0.3367376923561096,0.07939258217811584,0.24215100705623627
6.75,-0.06208709627389908,0.05791187658905983,0.07793942093849182,0.26683309674263,0.15424875915050507,0.26746082305908203
6.8,-0.09329919517040253,-0.018330560997128487,0.1573379635810852,0.2157004475593567,0.17758329212665558,0.3616980314254761
6.85,-0.06505793333053589,0.10743141174316406,0.1099926307797432,0.17003796994686127,0.11405707150697708,0.3794896602630615
6.9,-0.1437043696641922,0.01995754987001419,0.09784167259931564,0.07928730547428131,0.07513021677732468,0.33780616521835327
6.95,-0.04275254160165787,0.07489491254091263,0.2735733389854431,0.014567181468009949,0.06842830032110214,0.3341202139854431
7.0,0.005974411964416504,0.16315364837646484,0.30680587887763977,0.03374875336885452,0.05925948917865753,0.2802885174751282
7.05,-0.007128775119781494,0.04956722632050514,0.19381892681121826,0.01762593537569046,0.059360865503549576,0.16254931688308716
7.1,-0.03625905513763428,0.005835537798702717,0.08779823780059814,-0.010466746985912323,0.05121537670493126,0.15992450714111328
7.15,-0.04536093771457672,0.1459359973669052,0.10265355557203293,-0.020476289093494415,-0.018784264102578163,0.17193198204040527
7.2,-0.027417831122875214,0.1598358005285263,0.1251790076494217,-0.019014157354831696,-0.06356055289506912,0.11957625299692154
7.25,0.030116915702819824,0.0673971176147461,0.15586668252944946,-0.03493931144475937,-0.05822322890162468,0.06730979681015015
7.3,-0.14640453457832336,0.04715252295136452,-0.0062645478174090385,-0.07006101310253143,-0.07651450484991074,0.04517718032002449
7.35,-0.07328705489635468,0.1393604278564453,0.18861474096775055,-0.10032308846712112,-0.11625917255878448,0.06150086969137192
7.4,0.012034490704536438,0.029877666383981705,0.1638408899307251,-0.15320530533790588,-0.11777553707361221,0.011797308921813965
7.45,-0.07870936393737793,0.08440113067626953,0.09259714931249619,-0.20509479939937592,-0.10465619713068008,-0.03612247109413147
7.5,-0.057013899087905884,0.12187766283750534,-0.0035144740249961615,-0.2449900209903717,-0.13386249542236328,-0.06974820792675018
7.55,-0.09203337132930756,-0.016174305230379105,0.14321547746658325,-0.22983187437057495,-0.15162725746631622,-0.08180224150419235
7.6,-0.1863275170326233,-0.028640732169151306,0.109550841152668,-0.1324840933084488,-0.15568754076957703,-0.1518411487340927
7.65,-0.13050001859664917,-0.023922909051179886,0.06802719086408615,-0.09088029712438583,-0.16302020847797394,-0.23919861018657684
7.7,0.2330821305513382,0.37860962748527527,0.13974407315254211,-0.11037217825651169,-0.1556425839662552,-0.28791874647140503
7.75,0.4610538184642792,0.3755168616771698,0.1980864256620407,-0.09175671637058258,-0.15818794071674347,-0.27548933029174805
7.8,0.18133048713207245,0.2170410007238388,0.23218365013599396,-0.01663515716791153,-0.1525440663099289,-0.1459973305463791
7.85,-0.163804292678833,-0.018362982198596,0.1864069402217865,-0.008182164281606674,-0.13753367960453033,-0.10503703355789185
7.9,-0.04690448194742203,0.04743576422333717,0.1120021790266037,-0.016231033951044083,-0.07226979732513428,-0.05026896670460701
7.95,-0.05516011640429497,0.01829719915986061,0.0750167965888977,-0.07451801747083664,-0.03902387619018555,-0.06437861174345016
8.0,-0.11163091659545898,0.11446093767881393,-0.08792369812726974,-0.08038409054279327,-0.07428529858589172,-0.044375646859407425
8.05,-0.08644566684961319,0.1546907275915146,0.04473771154880524,-0.10222946107387543,-0.06938458979129791,-0.025725118815898895
8.1,0.04069577530026436,0.0037536669988185167,0.16661718487739563,-0.11932840943336487,0.0028406737837940454,0.018491752445697784
8.15,0.06494230031967163,0.052039146423339844,0.19664230942726135,-0.053320206701755524,0.06839783489704132,0.1045648604631424
8.2,0.10937929153442383,0.3664235472679138,-0.37147316336631775,0.06632409244775772,0.07189086824655533,0.1630600243806839
8.25,0.41173988580703735,1.0867451429367065,-0.8389739394187927,0.0032007358968257904,-0.018752945587038994,0.10704636573791504
8.3,0.9895353317260742,2.365760564804077,-0.5172731876373291,-0.32231414318084717,-0.14548233151435852,0.15231691300868988
8.35,0.8476729393005371,1.7001389265060425,-0.0389966182410717,-1.1250066757202148,-0.3157444894313812,0.3644205331802368
8.4,0.7356380820274353,0.5004777312278748,0.3850152790546417,-1.5389583110809326,-0.3050808906555176,0.7228620052337646
8.45,0.660209596157074,0.19087311625480652,0.4671141803264618,-1.6797759532928467,-0.15033358335494995,0.619745671749115
8.5,0.2582968473434448,-0.5190019011497498,0.4715554416179657,-1.7137383222579956,0.05278291553258896,0.2725106477737427
8.55,0.6152161955833435,-0.6709279417991638,0.31105950474739075,-1.648101568222046,0.24545174837112427,0.08894400298595428
8.6,-0.1074066162109375,-0.4233655631542206,-0.414389044046402,-1.4575161933898926,0.2885325849056244,0.01364193670451641
8.65,-0.5526113510131836,-0.7195033431053162,-0.4215184152126312,-1.2169748544692993,0.23614124953746796,0.01976291835308075
8.7,-0.5138787031173706,-0.823753297328949,-0.7491082549095154,-0.8879163265228271,0.3154183328151703,0.038851749151945114
8.75,0.44714927673339844,-1.444003939628601,0.02917398139834404,-0.8003813624382019,0.2621917724609375,-0.19601799547672272
8.8,-0.95999675989151,-0.6518868207931519,-0.24344615638256073,-0.49332910776138306,0.6108993887901306,-0.2713271677494049
8.85,-0.9031689167022705,-0.09708879142999649,-0.5232451558113098,-0.26005515456199646,0.6632722020149231,-0.23770864307880402
8.9,-0.7723884582519531,-0.34322065114974976,-0.06544453650712967,-0.19419434666633606,0.4648462235927582,-0.1419891119003296
8.95,-0.5360047817230225,-0.07241054624319077,0.13529562950134277,-0.19159750640392303,0.32560622692108154,-0.014905300922691822
9.0,-0.25544071197509766,0.16358087956905365,-0.15285073220729828,-0.16244283318519592,0.34528812766075134,0.08331699669361115
9.05,-0.3596447706222534,0.277126282453537,-0.2826482355594635,-0.2017020285129547,0.3866939842700958,0.1505829244852066
9.1,-0.5622366666793823,0.510103166103363,-0.5849558711051941,-0.20419296622276306,0.4890940487384796,0.2794593274593353
9.15,-0.40318650007247925,0.18203450739383698,0.3573105037212372,-0.36879241466522217,0.2849215865135193,0.2697988450527191
9.2,-0.1747840791940689,0.3161134421825409,-0.20630602538585663,-0.38105422258377075,0.36428406834602356,0.2563007175922394
9.25,-0.07116398215293884,-0.15730951726436615,-0.12229448556900024,-0.4735822081565857,0.36704206466674805,0.23475274443626404
9.3,0.14859192073345184,-0.2820548713207245,0.1390005648136139,-0.4978805184364319,0.3081316351890564,0.18901991844177246
9.35,0.3150085210800171,-0.20051002502441406,-0.019464466720819473,-0.40573030710220337,0.2682035565376282,0.15170833468437195
9.4,0.08924239873886108,-0.39043232798576355,0.07112808525562286,-0.31979262828826904,0.24220699071884155,0.13575312495231628
9.45,0.015835076570510864,-0.2904471755027771,0.3903276026248932,-0.3096846342086792,0.03777889907360077,0.11591052263975143
9.5,0.044221118092536926,-0.05634688958525658,0.022833755239844322,-0.15641659498214722,0.07048596441745758,0.10607315599918365
9.55,-0.24888671934604645,0.03864765539765358,-0.08991891890764236,-0.09759508073329926,0.09612297266721725,0.08635777980089188
9.6,-0.09502539038658142,-0.061955444514751434,0.021563779562711716,-0.14507588744163513,-0.05890720710158348,0.09035026282072067
9.65,0.1028488501906395,-0.028737075626850128,-0.107791967689991,-0.08735601603984833,-0.0009448023047298193,0.048197343945503235
9.7,0.008966386318206787,-0.037180908024311066,-0.25109532475471497,-0.06501486152410507,-0.02243254892528057,-0.012365973554551601
9.75,-0.22161456942558289,-0.060277942568063736,-0.3809325695037842,-0.058126382529735565,-0.049261175096035004,-0.013932076282799244
9.8,-0.23334284126758575,-0.15169142186641693,-0.27867475152015686,-0.03679364174604416,-0.10876937955617905,0.002133614383637905
9.85,-0.08997979015111923,-0.3808440864086151,0.03743163123726845,0.04165887087583542,-0.11820496618747711,-0.004313957411795855
9.9,-0.3339041471481323,-0.3806457221508026,-0.1379849761724472,0.15339967608451843,-0.08147001266479492,-0.07675787806510925
9.95,-0.20548100769519806,-0.7149791121482849,-0.060533467680215836,0.3305988609790802,-0.023021092638373375,-0.1775800883769989
10.0,0.013036265969276428,-1.0835989713668823,0.09588781744241714,0.617415726184845,0.1970287561416626,-0.30824726819992065
10.05,0.4661298394203186,-1.5158690214157104,-0.16848044097423553,0.9971468448638916,0.6229471564292908,-0.5218135714530945
10.1,0.17276765406131744,-0.6495665907859802,-0.3744010329246521,1.3784171342849731,1.0257089138031006,-0.8365006446838379
10.15,-0.3598264455795288,-0.6776427626609802,0.11092571914196014,1.6815544366836548,1.3142918348312378,-0.9748751521110535
10.2,-0.26277151703834534,-0.3919476866722107,0.6114070415496826,1.9663349390029907,1.525200366973877,-1.0105620622634888
10.25,0.26440203189849854,-1.2468308210372925,0.7404540181159973,2.6558685302734375,1.9717016220092773,-0.9233373999595642
10.3,-0.874055802822113,-1.2411412000656128,0.4805217385292053,3.5085506439208984,2.234785795211792,-0.7551451921463013
10.35,-0.02618229389190674,-0.5739945769309998,-0.2577612102031708,3.453153371810913,1.8796273469924927,-0.7063146829605103
10.4,0.8562704920768738,0.48085013031959534,-0.6973492503166199,2.6952478885650635,1.344116449356079,-0.826565146446228
10.45,0.41800934076309204,1.0895546674728394,-0.9574306011199951,1.7659777402877808,1.1211646795272827,-1.1187657117843628
10.5,0.007322818040847778,0.9454745650291443,0.7188350558280945,0.8310123682022095,1.0588490962982178,-1.2313262224197388
10.55,0.2058267891407013,0.3782024085521698,0.3282461166381836,0.10817348957061768,0.7634533643722534,-1.2775155305862427
10.6,0.5895874500274658,0.18976210057735443,0.6230705976486206,-0.5936073660850525,0.569365382194519,-1.287288784980774
10.65,0.10155430436134338,2.907691717147827,-0.4140121340751648,-1.5583207607269287,0.40238943696022034,-1.1638699769973755
10.7,0.6406362056732178,-1.8695229291915894,0.9590345621109009,-3.463040828704834,0.23532211780548096,-1.1309455633163452
10.75,0.2458762228488922,-0.7215794920921326,0.6084775924682617,-2.7616519927978516,0.15940260887145996,-1.131286382675171
10.8,-0.13655900955200195,1.9303635358810425,-0.7518512010574341,-3.2118074893951416,0.04690257087349892,-1.0547904968261719
10.85,0.493915319442749,-2.415717363357544,2.3197615146636963,-4.179798126220703,0.010066721588373184,-0.6910645961761475
10.9,1.0327602624893188,-0.9284629225730896,1.4806574583053589,-2.4136369228363037,-0.08172357082366943,-0.6002681255340576
10.95,0.14213258028030396,0.14196301996707916,1.0163110494613647,-2.42869234085083,-0.3811643719673157,-0.7265394926071167
11.0,0.1850355863571167,-0.37681859731674194,1.0471699237823486,-1.7913286685943604,-0.5733696222305298,-0.6030992865562439
11.05,-0.40268102288246155,2.1895434856414795,0.13417159020900726,-1.088795781135559,-0.6588515043258667,-0.4639817476272583
11.1,0.0794554129242897,-0.005791659001260996,0.20396193861961365,-0.5373678207397461,-0.6506120562553406,-0.03237219899892807
11.15,-0.035285599529743195,-0.615205705165863,0.1111893430352211,-0.297166645526886,-0.6040135025978088,-0.08227098733186722
11.2,-0.6731234788894653,0.7510938048362732,-0.7390841245651245,-0.33887335658073425,-0.47701016068458557,-0.25203511118888855
11.25,-0.7141862511634827,-0.3292865455150604,-0.4599820077419281,-0.060149457305669785,-0.2933309078216553,-0.10703388601541519
11.3,-0.47873932123184204,-0.3974580764770508,-1.088883399963379,0.34948959946632385,-0.15152288973331451,-0.09446946531534195
11.35,-0.32778555154800415,0.7284707427024841,-0.7473965287208557,0.33679428696632385,0.06301107257604599,-0.1935959756374359
11.4,0.008992224931716919,0.4008665084838867,0.51844322681427,0.12521958351135254,0.08060094714164734,-0.15065300464630127
11.45,0.5111309885978699,0.24689194560050964,0.05080500245094299,0.29018718004226685,-0.10185384750366211,0.0021985829807817936
11.5,0.6021839380264282,0.26870816946029663,0.05332411825656891,0.17947576940059662,-0.10752464830875397,-0.0031854072585701942
11.55,0.28519487380981445,0.17233656346797943,0.3034456670284271,0.10122742503881454,-0.03830111399292946,-0.029539646580815315
11.6,0.2652379274368286,0.04965589940547943,0.05331144854426384,0.11605668067932129,-0.04556131362915039,0.0010851313127204776
11.65,0.18065832555294037,0.01792144402861595,0.14508943259716034,0.07651330530643463,-0.02153489552438259,0.0024428009055554867
11.7,0.12862525880336761,0.047245971858501434,0.07882669568061829,0.05139591544866562,-0.0019102960359305143,0.006903382018208504
11.75,0.1839953362941742,0.0836171954870224,-0.035058263689279556,0.06365984678268433,0.022840023040771484,0.003695728722959757
11.8,0.3919563889503479,0.12905022501945496,0.18163149058818817,0.06016772985458374,0.06908709555864334,-0.005839854944497347
11.85,0.40002700686454773,0.10272501409053802,0.243127703666687,0.055581752210855484,0.07125110179185867,-0.0059411064721643925
11.9,0.2463737577199936,0.09400175511837006,0.012249233201146126,0.10621022433042526,0.025437671691179276,0.012964190915226936
11.95,0.17793458700180054,0.0197591632604599,-0.11969777196645737,0.1330547034740448,-0.004199211951345205,0.045807261019945145
12.0,0.1751302182674408,0.154842346906662,-0.05275709554553032,0.1050654724240303,0.00406204629689455,0.05488640069961548
12.05,0.25726398825645447,0.1895751804113388,0.11351785063743591,0.10811278223991394,0.008153476752340794,0.06373203545808792
12.1,0.27957937121391296,0.09592531621456146,0.16265562176704407,0.10228206217288971,-0.006628035567700863,0.07199854403734207
12.15,0.1425672322511673,0.2405366748571396,0.006052755285054445,0.10309046506881714,-0.020041953772306442,0.0669834315776825
12.2,0.23334598541259766,0.08561132848262787,0.006375017110258341,0.07704590260982513,-0.01839684322476387,0.04506682604551315
12.25,0.2735087275505066,0.0015020297141745687,0.11328110098838806,0.07249238342046738,-0.008029328659176826,0.02369108237326145
12.3,0.19057393074035645,-0.0633993074297905,0.1409788727760315,0.10115395486354828,-0.01624368317425251,0.027298005297780037
12.35,0.21347805857658386,0.06357954442501068,-0.029273469001054764,0.15617786347866058,-0.09859320521354675,0.04482365399599075
12.4,0.4224960505962372,0.1450337916612625,-0.23633398115634918,0.2346164435148239,-0.187404066324234,0.06437196582555771
12.45,0.21821142733097076,0.12405776232481003,0.2153235226869583,0.1506585031747818,-0.1351926326751709,0.038340143859386444
12.5,0.16523931920528412,0.06348799914121628,0.21756502985954285,0.1013922467827797,-0.10362845659255981,0.05213535204529762
12.55,0.12942832708358765,0.1276368945837021,0.10520870983600616,0.0882762223482132,-0.06578797847032547,0.04040750488638878
12.6,0.14620928466320038,0.12836168706417084,0.152005136013031,0.05163455754518509,-0.013441468589007854,0.0069625480100512505
12.65,0.2674313485622406,0.16732117533683777,-0.04014027491211891,0.05412738025188446,-0.012760871089994907,-0.0005437444779090583
12.7,0.1935300976037979,0.08464716374874115,-0.033943790942430496,0.043451473116874695,-0.011870884336531162,-0.005867836065590382
12.75,0.14883914589881897,-0.012383464723825455,0.05573931336402893,0.0707310140132904,-0.043324146419763565,0.0020887802820652723
12.8,0.14944368600845337,0.10838411748409271,0.018855201080441475,0.07889489084482193,-0.05924645811319351,0.01564129814505577
12.85,0.20250608026981354,0.151119202375412,0.021471796557307243,0.03958063945174217,-0.035970646888017654,0.00774702662602067
12.9,0.19073322415351868,0.11162661015987396,0.005692639388144016,0.03539252281188965,-0.017926746979355812,0.003326810197904706
12.95,0.2536110281944275,0.1544046252965927,0.12472713738679886,0.019771095365285873,-0.0025424619670957327,-0.021755211055278778
13.0,0.3300701081752777,0.20284077525138855,0.08593004196882248,0.0004978682845830917,-0.0012391058262437582,-0.04198538511991501
13.05,0.18941730260849,0.09965036809444427,0.026835957542061806,-0.01653982326388359,0.00042040730477310717,-0.04155579209327698
13.1,0.10308906435966492,0.08383272588253021,-0.08101920038461685,0.004813138395547867,-0.005927503574639559,-0.023387815803289413
13.15,0.1905483454465866,0.04303930699825287,-0.05834945663809776,0.03984696418046951,-0.0053768218494951725,0.0024111850652843714
13.2,0.16071917116641998,0.30861279368400574,0.14423087239265442,0.10894939303398132,-0.010157196782529354,0.032116807997226715
13.25,0.09694444388151169,0.07419871538877487,0.12945863604545593,0.07910379022359848,-0.02374492958188057,0.008221859112381935
13.3,0.13993802666664124,0.0328512080013752,0.009182391688227654,0.05172085016965866,-0.025942664593458176,-0.0016782976454123855
13.35,0.21982786059379578,0.1452169120311737,-0.014608734287321568,0.034459635615348816,-0.023972410708665848,0.006182204466313124
13.4,0.29990243911743164,0.2017183005809784,-0.022147830575704575,0.01976630464196205,-0.026841258630156517,-0.0020538365934044123
13.45,0.19877907633781433,0.0484008714556694,0.15157726407051086,-0.008089606650173664,-0.008933359757065773,-0.016638990491628647
13.5,0.13479828834533691,0.051350586116313934,0.0652376264333725,0.007665828336030245,-0.004509658552706242,-0.008745450526475906
13.55,0.14054179191589355,0.06864546239376068,0.01489591971039772,0.013062077574431896,0.007639623247087002,-0.003145513590425253
13.6,0.23940014839172363,0.3175477683544159,0.019582320004701614,0.053258173167705536,0.005229300819337368,0.003189872717484832
13.65,0.25683915615081787,0.11294172704219818,0.02392645925283432,0.03374780714511871,0.00338659156113863,0.0025262197013944387
13.7,0.09054761379957199,0.13486669957637787,-0.03914308547973633,0.013708548620343208,0.0011737114982679486,-0.013196597807109356
13.75,0.0880046933889389,0.1201171800494194,0.0176103413105011,-0.005082299001514912,0.0019886230584234,-0.0186855997890234
13.8,0.1528855860233307,0.13208292424678802,-0.009010396897792816,0.003545723855495453,-0.000298733968520537,-0.01199469342827797
13.85,0.202987939119339,0.09488771855831146,0.06784157454967499,-0.0014034616760909557,-0.006919226609170437,-0.011668190360069275
13.9,0.25937265157699585,0.09658525884151459,0.08929140865802765,0.008790362626314163,-0.013387724757194519,-0.020136740058660507
13.95,0.23807252943515778,0.08185671269893646,0.003269920824095607,0.0027520712465047836,-0.0017848321003839374,-0.021090656518936157
14.0,0.07849365472793579,0.12974070012569427,0.046841099858284,0.00046374741941690445,0.01919681951403618,-0.024311015382409096
14.05,0.14738942682743073,0.10526083409786224,0.06430403143167496,0.0011147069744765759,0.02176315151154995,-0.01598609983921051
14.1,0.1251445859670639,0.14066599309444427,0.057270269840955734,0.0035237884148955345,0.012668656185269356,-0.017870089039206505
14.15,0.0914512425661087,-0.018740655854344368,-0.006605374626815319,-0.022590413689613342,-5.7071581977652386e-05,-0.016070596873760223
14.2,0.18911272287368774,0.21240518987178802,0.03557531163096428,-0.022226249799132347,-0.007299513090401888,0.0020977542735636234
14.25,0.1301383376121521,0.06254290044307709,-0.05072307214140892,-0.036192525178194046,-0.01842551864683628,0.012868288904428482
14.3,0.11376582086086273,0.07578085362911224,-0.0563584603369236,-0.05449782311916351,-0.02705436758697033,0.005754453595727682
14.35,0.10881222039461136,0.10706614702939987,0.17299917340278625,-0.03602099046111107,-0.017975302413105965,0.0062898872420191765
14.4,0.049594342708587646,0.1820220798254013,0.1991295963525772,0.008491900749504566,-0.02493005245923996,0.015901854261755943
14.45,0.012536473572254181,-0.07105158269405365,0.1184215173125267,-0.004476858768612146,-0.02657870016992092,0.010894948616623878
14.5,0.1997772753238678,0.151699036359787,0.006159862969070673,0.012541321106255054,-0.023138288408517838,0.014261607080698013
14.55,0.29921892285346985,0.15984246134757996,0.07112409174442291,0.02034425176680088,0.001285756123252213,0.015818150714039803
14.6,0.16508284211158752,0.07706163823604584,-0.03396999463438988,0.025157738476991653,0.021298615261912346,0.02270694635808468
14.65,0.06586074829101562,0.09893129765987396,-0.08108816295862198,0.013710454106330872,0.030925365164875984,0.024215664714574814
14.7,0.04507441818714142,0.10473155230283737,0.00819400791078806,0.0014707180671393871,0.01115740928798914,0.013583225198090076
14.75,0.11464514583349228,0.107542984187603,0.07995571941137314,0.007118876092135906,-0.01536710187792778,0.008547334000468254
14.8,0.13719895482063293,0.1080465167760849,0.05472756549715996,0.010159265249967575,-0.01885991357266903,0.008662189356982708
14.85,0.21374791860580444,0.22437188029289246,0.03704991191625595,0.007783354260027409,-0.00630192318931222,0.005153796635568142
14.9,0.19256040453910828,0.03735445812344551,0.029715394601225853,-0.020630063489079475,0.01686648093163967,-0.011450114659965038
14.95,0.08571101725101471,0.12746618688106537,-0.03609883040189743,0.005857656244188547,0.020655373111367226,-0.005902534816414118
15.0,0.06891719996929169,0.03635501116514206,-0.005942183081060648,-0.00012594950385391712,0.00872714351862669,-0.004387191962450743
15.05,0.09168687462806702,0.122129425406456,-0.018977433443069458,0.003475547768175602,-0.006010169163346291,-0.005701696965843439
15.1,0.15115974843502045,0.05403231829404831,0.05555266514420509,0.005912804044783115,-0.011480539105832577,0.005989911034703255
15.15,0.19431117177009583,0.07386492192745209,0.04463634267449379,0.013246908783912659,-0.017015594989061356,0.005891893990337849
15.2,0.07959187775850296,0.15003488957881927,0.030917182564735413,-0.0010385769419372082,0.0038806821685284376,-0.012594668194651604
15.25,0.04447535052895546,0.12344168871641159,0.05604450777173042,-0.00867576152086258,0.015737641602754593,-0.014605536125600338
15.3,0.13310495018959045,0.07065103948116302,-0.024723276495933533,0.01815561018884182,0.0045738196931779385,-0.0027714285533875227
15.35,0.17939752340316772,0.10654352605342865,0.07359770685434341,0.004035923629999161,-0.0018961405148729682,-0.0059221284464001656
15.4,0.12362940609455109,0.1815461963415146,0.006520353723317385,-0.0031038238666951656,-0.010026132687926292,-0.0068738521076738834
15.45,0.12799984216690063,0.0680084154009819,0.05923294275999069,-0.00847848691046238,0.0014531855704262853,-0.01005545724183321
15.5,0.1461515575647354,0.2083434909582138,0.022725345566868782,0.0138824712485075,0.002948906971141696,0.0015375225339084864
15.55,0.13178053498268127,0.09835909307003021,0.022437961772084236,0.0009151708800345659,0.007902855984866619,0.0027032075449824333
15.6,0.16277487576007843,0.06542395055294037,-0.03079492226243019,-0.0010033842409029603,0.005301092751324177,-0.00480392063036561
15.65,0.12039989233016968,0.07767103612422943,0.025282207876443863,0.00730674434453249,0.0008315962622873485,-0.0012210742570459843
15.7,0.09873193502426147,0.1367320865392685,-0.01568528264760971,0.004339891020208597,-0.0022525961976498365,-0.003967680037021637
15.75,0.13059811294078827,0.10790824145078659,0.07334839552640915,0.000449388287961483,0.0021301640663295984,-0.01236042845994234
15.8,0.13007310032844543,0.04039096087217331,0.04221019893884659,0.006538857705891132,-0.003754827892407775,-0.013596918433904648
15.85,0.179877370595932,0.14409540593624115,0.08624748140573502,0.009378718212246895,0.0010382230393588543,-0.020028727129101753
15.9,0.1466204822063446,0.08118532598018646,-0.038180284202098846,0.010631267912685871,0.0057271793484687805,-0.012142478488385677
15.95,0.07131887972354889,0.20068739354610443,0.07242521643638611,-0.0058102114126086235,0.013905907981097698,-0.024755533784627914
16.0,0.13344845175743103,-0.009528166614472866,-0.04833322763442993,0.0035315975546836853,-0.006709708366543055,-0.013686079531908035
16.05,0.11179761588573456,0.06470584124326706,0.10186158865690231,0.00639908853918314,-0.015883546322584152,-0.005783475935459137
16.1,0.11602452397346497,0.11980150640010834,0.012319587171077728,0.022090209648013115,-0.025629637762904167,0.015500856563448906
16.15,0.1317928582429886,0.09816072881221771,0.009815094992518425,0.021591398864984512,-0.01996508054435253,0.011110897175967693
16.2,0.11319763213396072,0.06879901140928268,0.07067128270864487,0.017093228176236153,-0.0047514308243989944,0.002231821184977889
16.25,0.14391016960144043,0.14306925237178802,0.059956781566143036,0.019975295290350914,0.0033514942042529583,0.0050524212419986725
16.3,0.0770190954208374,0.093993179500103,0.059522826224565506,0.0070702191442251205,0.008552041836082935,0.0023674932308495045
16.35,0.11511574685573578,0.10347174853086472,0.048622749745845795,0.028201274573802948,0.0010025023948401213,0.005493077449500561
16.4,0.05154896154999733,0.10575579851865768,0.002189231337979436,0.022832749411463737,0.004662804305553436,0.00526064308360219
16.45,0.14445357024669647,0.09251116216182709,0.05116983503103256,0.0304604172706604,-0.010167447850108147,0.007561196107417345
16.5,0.149953231215477,0.05943106859922409,0.06253419816493988,0.030300892889499664,-0.005511451978236437,0.009089533239603043
16.55,0.08546634018421173,0.07289885729551315,0.009177680127322674,0.052734941244125366,0.004333235323429108,0.018775789067149162
16.6,0.08588142693042755,0.20728205144405365,0.07535266876220703,0.03325142711400986,0.016261273995041847,0.008175713010132313
16.65,0.05964559316635132,0.0027933104429394007,0.029389789327979088,0.024889741092920303,0.00624177698045969,0.0040308390744030476
16.7,0.04507596045732498,0.16722582280635834,0.05866684764623642,0.043292149901390076,0.0014298871392384171,0.00599118135869503
16.75,0.12103869020938873,0.07938764989376068,0.03523439168930054,0.036819640547037125,0.001437528058886528,0.009001699276268482
16.8,0.05718982592225075,0.116362564265728,0.026281507685780525,0.024471886456012726,0.002693731337785721,0.002106868429109454
16.85,0.049803800880908966,0.06786631792783737,0.046954963356256485,0.033209048211574554,-0.0013462136266753078,0.009307751432061195
16.9,0.12733784317970276,0.16771124303340912,-0.0248709823936224,0.034101344645023346,0.0016920422203838825,0.005793983116745949
16.95,0.09350220859050751,0.07096671313047409,0.019434362649917603,0.024943597614765167,0.014207929372787476,0.007174734026193619
17.0,0.12273532152175903,0.11065386235713959,0.03483161702752113,0.027089187875390053,0.006303771864622831,0.004495664965361357
17.05,0.12582138180732727,0.05750846117734909,0.04743184149265289,0.03362440690398216,-0.0013352412497624755,0.013317558914422989
17.1,0.06379622220993042,0.12053202837705612,0.031183380633592606,0.04490233212709427,-0.0016693880315870047,0.015634547919034958
17.15,0.17327727377414703,0.1730031818151474,0.07706879079341888,0.038578636944293976,0.012736556120216846,0.008408058434724808
17.2,0.08241744339466095,0.028222080320119858,0.020108746364712715,0.007881330326199532,0.029410159215331078,-0.0056826649233698845
17.25,0.07772547006607056,0.07932661473751068,-0.040540795773267746,0.012729117646813393,0.0216981228441,-0.0016267778119072318
17.3,0.13856936991214752,0.11452768743038177,0.04812518507242203,0.017974670976400375,0.007608628366142511,0.001370240468531847
17.35,0.07453146576881409,0.16534803807735443,0.04166501387953758,0.023491360247135162,0.0014258798910304904,0.00030367905856110156
17.4,0.08392253518104553,0.10766313970088959,-0.012511602602899075,0.008876292034983635,0.007035877555608749,-0.005804628599435091
17.45,0.08103007823228836,0.11349200457334518,0.04596602916717529,0.010671792551875114,0.004714324604719877,0.0014250071253627539
17.5,0.1290074586868286,0.06686209887266159,0.06850156933069229,0.019507966935634613,-0.000114289483462926,0.0018725106492638588
17.55,0.0560927540063858,0.08297442644834518,0.04042006656527519,0.016525132581591606,-0.006903568282723427,0.004513534251600504
17.6,0.038321007043123245,0.1152486726641655,0.009447045624256134,0.0067499917931854725,-0.00827813521027565,0.005578497890383005
17.65,0.10255643725395203,0.14717577397823334,0.02358485572040081,0.01669987291097641,-0.010335160419344902,0.005534615833312273
17.7,0.06985527276992798,0.1309976428747177,0.09047209471464157,0.006708767265081406,-0.012247158214449883,-0.003710914170369506
17.75,0.053981222212314606,0.0713643953204155,-0.03299301117658615,0.004663853906095028,-0.017416834831237793,0.00833187997341156
17.8,0.05996735021471977,0.14417074620723724,0.06740790605545044,-0.014674246311187744,-0.007362679112702608,0.006125588435679674
17.85,0.1112372875213623,-0.02103900909423828,0.09189233183860779,-0.010144442319869995,-0.0032420612405985594,-0.00012279189832042903
17.9,0.12615996599197388,0.1372518390417099,0.03888550028204918,-0.003229405265301466,-0.006014679092913866,-0.0074643464758992195
17.95,0.03859115019440651,0.13325785100460052,0.04974094405770302,-0.026227638125419617,-0.017498191446065903,-0.022713955491781235
18.0,0.082247793674469,0.07896899431943893,0.005805022083222866,0.0108376145362854,-0.027390196919441223,-0.006727058440446854
18.05,0.13956210017204285,0.111784927546978,0.0578521266579628,0.01823517121374607,-0.014573159627616405,0.0012108766240999103
18.1,0.04885879158973694,0.09114741533994675,0.12557446956634521,-0.00523926317691803,-0.007491950877010822,-0.004235627129673958
18.15,0.07306309044361115,0.09521960467100143,0.13193853199481964,0.006546990014612675,-0.008119330741465092,0.009534833021461964
18.2,0.10300691425800323,0.09045695513486862,0.07306547462940216,0.021379919722676277,-0.012138811871409416,0.017204290255904198
18.25,0.07435359805822372,0.13196657598018646,0.04590536281466484,0.025795960798859596,-0.011425688862800598,0.008784046396613121
18.3,0.06594031304121017,0.06309984624385834,-0.03121398203074932,0.015116916969418526,-0.01097303070127964,0.0033722149673849344
18.35,0.1469431221485138,0.17460153996944427,0.04534950107336044,-0.009077686816453934,0.006157283205538988,-0.010391365736722946
18.4,0.08417663723230362,0.022027011960744858,0.0505712628364563,-0.01164504699409008,0.01240734662860632,-0.02019655704498291
18.45,0.11254030466079712,0.04024886339902878,-0.002563586924225092,0.011858642101287842,0.012259271927177906,-0.00574423186480999
18.5,0.07028498500585556,0.17778681218624115,-0.021138841286301613,0.02350078523159027,-0.00011550569615792483,0.018167367205023766
18.55,0.07489722222089767,0.09077166765928268,0.0935453474521637,0.01562280673533678,-0.019455647096037865,0.01630439981818199
18.6,0.08042306452989578,0.089812271296978,0.07537822425365448,0.01704741269350052,-0.01828601397573948,0.015071418136358261
18.65,0.06551684439182281,0.03140067681670189,0.036505602300167084,0.013103689067065716,0.003750768955796957,0.011715867556631565
18.7,0.11634513735771179,0.09956644475460052,-0.08495783060789108,0.018518546596169472,0.004496143665164709,0.02277515083551407
18.75,0.010328281670808792,0.07389067858457565,0.0559241957962513,0.005568627268075943,0.0026350778061896563,0.016313038766384125
18.8,0.10169121623039246,0.12100505083799362,0.04662603139877319,0.02494562603533268,-0.0021684644743800163,0.01829897053539753
18.85,0.02738504856824875,0.1388826221227646,0.12284421175718307,-0.0049888561479747295,0.011026921682059765,0.002117572817951441
18.9,0.1188822090625763,0.10994432866573334,-0.013644042424857616,0.02056816592812538,-1.9603710825322196e-05,0.01444974634796381
18.95,0.05963565409183502,0.09948062151670456,0.057000093162059784,0.002551876939833164,0.005550088826566935,0.007565099745988846
19.0,0.13329105079174042,0.06025503948330879,-0.02650630846619606,0.016290923580527306,-0.01271775458008051,0.02964753285050392
19.05,0.09948913007974625,0.12073802202939987,0.14930908381938934,0.0041719041764736176,-0.013312965631484985,0.0329427532851696
19.1,0.11389801651239395,0.07780741900205612,0.04907732084393501,0.00673360750079155,-0.03791261091828346,0.04387112334370613
19.15,-0.027713069692254066,0.06107043847441673,-0.06183931604027748,0.005224468186497688,-0.04208645597100258,0.050130996853113174
19.2,0.011528519913554192,0.2430581897497177,-3.0162331313476898e-05,0.01554340310394764,-0.038803353905677795,0.05046528950333595
19.25,0.027249936014413834,0.0803995132446289,0.12406735122203827,-0.016628174111247063,-0.018197856843471527,0.029754796996712685
19.3,0.08624811470508575,0.02734661102294922,0.1307447999715805,-3.926921635866165e-05,-0.019629644230008125,0.03057430312037468
19.35,0.11290334910154343,0.10321330279111862,0.16068029403686523,-0.0036149946972727776,-0.026375092566013336,0.02086976356804371
19.4,0.20486856997013092,0.14055916666984558,-0.08120549470186234,0.017459996044635773,-0.02994696982204914,0.025722386315464973
19.45,0.12194956839084625,0.021732322871685028,-0.02108435519039631,0.0011981269344687462,-0.008722830563783646,0.02158660814166069
19.5,0.08038303256034851,0.1660585254430771,0.00467546796426177,0.012812871485948563,-0.010816369205713272,0.030845042318105698
19.55,-0.031732961535453796,0.10167216509580612,0.012499737553298473,-0.003477581776678562,-0.007990860380232334,0.023807521909475327
19.6,0.05539514496922493,0.09255503863096237,-0.004923272877931595,0.02019997127354145,-0.02446562610566616,0.0220598466694355
19.65,0.07968729734420776,0.15158842504024506,0.2001194953918457,0.005466872826218605,-0.006184076890349388,-0.005148257594555616
19.7,0.13980787992477417,0.0352315753698349,-0.09095313400030136,0.004903902765363455,-0.005701309535652399,0.001856815884821117
19.75,0.08377022296190262,0.11437606066465378,0.09621961414813995,-0.009524831548333168,-0.010349691845476627,-0.001130571006797254
19.8,0.26120269298553467,0.019169794395565987,-0.01578577049076557,0.0246120635420084,-0.02500217966735363,0.01968192309141159
19.85,0.12366163730621338,0.12319754809141159,0.13502462208271027,0.014511934481561184,0.0012037071865051985,0.012204229831695557
