Time [s],Acc_x [m/s^2],Acc_y [m/s^2],Acc_z [m/s^2],Gyro_x [1/s],Gyro_y [1/s],Gyro_z [1/s]
0.0,0.06071757525205612,0.09698866307735443,-0.068628691136837,0.0007075925823301077,0.0005191854434087873,0.00635359063744545
0.05,0.03918718919157982,0.048921577632427216,-0.02498828060925007,-0.015296350233256817,0.010091006755828857,0.009735754691064358
0.1,-0.006083327811211348,-0.012478828430175781,-0.019042693078517914,-0.04027258977293968,0.0262584425508976,0.012698098085820675
0.15,-0.03800734505057335,-0.0019283309811726213,-0.07903685420751572,-0.038205333054065704,0.02688395045697689,0.0161402877420187
0.2,-0.06228756904602051,0.03292655572295189,-0.10832557827234268,-0.024657731875777245,0.008371924981474876,0.02100929617881775
0.25,0.013513438403606415,0.07489965856075287,-0.15913864970207214,-0.02739572525024414,-0.021538512781262398,0.01980988122522831
0.3,0.06432895362377167,0.1281718909740448,-0.1729036271572113,-0.04829567298293114,-0.01676923967897892,0.021359873935580254
0.35,-0.06055830419063568,0.2152242511510849,-0.153809055685997,-0.08503366261720657,0.012497282586991787,0.027126966044306755
0.4,-0.09099628031253815,0.1694154590368271,-0.17474773526191711,-0.16183942556381226,0.004110557958483696,0.04697650671005249
0.45,0.011066757142543793,0.04060458019375801,-0.17139798402786255,-0.21001604199409485,-0.015089327469468117,0.05344732850790024
0.5,0.006111793220043182,0.06362532824277878,-0.07022195309400558,-0.20704242587089539,0.015039374120533466,0.04657706618309021
0.55,-0.13631880283355713,0.1114654541015625,0.0385439358651638,-0.22817674279212952,0.05898604914546013,0.0340677835047245
0.6,-0.09791378676891327,0.08561992645263672,0.14243784546852112,-0.27322861552238464,0.029450053349137306,0.028809262439608574
0.65,0.05448932200670242,0.057920459657907486,0.25301846861839294,-0.306368887424469,-0.0069468021392822266,0.014722838997840881
0.7,0.08783246576786041,0.018364911898970604,0.2667885422706604,-0.3276113271713257,-0.005126243457198143,0.005785465706139803
0.75,0.018272072076797485,0.023638734593987465,0.2725038528442383,-0.3273848593235016,0.004847502801567316,0.018375948071479797
0.8,0.04134011268615723,0.03885078802704811,0.21409985423088074,-0.31683382391929626,-0.012055596336722374,0.058596864342689514
0.85,0.12017866224050522,-0.026921268552541733,0.1915881633758545,-0.32144108414649963,-0.041360680013895035,0.06478162109851837
0.9,0.08451530337333679,-0.008158678188920021,0.2079986333847046,-0.320771723985672,-0.052074190229177475,0.04635770991444588
0.95,0.012011773884296417,-0.03807734325528145,0.16431592404842377,-0.3085961937904358,-0.06169664114713669,0.034557897597551346
1.0,0.02072795107960701,-0.022640224546194077,0.09033205360174179,-0.2774643003940582,-0.07733840495347977,0.01479071844369173
1.05,0.06002946197986603,-0.015230179764330387,0.02486325055360794,-0.2439282387495041,-0.08559077978134155,-0.007746452931314707
1.1,0.08372384309768677,0.04100321978330612,0.016085444018244743,-0.22871243953704834,-0.08803094178438187,-0.011005142703652382
1.15,0.07966151833534241,0.045987121760845184,0.0023817503824830055,-0.242205411195755,-0.08409390598535538,-0.020111212506890297
1.2,0.016461782157421112,-0.0045080180279910564,0.014715653844177723,-0.25311577320098877,-0.06962233036756516,-0.04516231641173363
1.25,-0.06893713027238846,0.02067280001938343,0.01105282362550497,-0.2179209440946579,-0.06089964881539345,-0.05319061502814293
1.3,-0.08767034113407135,0.0642852708697319,-0.027809476479887962,-0.17872588336467743,-0.06439654529094696,-0.03571328893303871
1.35,-0.09021518379449844,0.036620136350393295,-0.07672788947820663,-0.16188625991344452,-0.09305141866207123,-0.01924828626215458
1.4,0.008690528571605682,0.016712183132767677,-0.06019396334886551,-0.17121177911758423,-0.1536075472831726,-0.028699932619929314
1.45,0.17752601206302643,0.07303903996944427,-0.009800736792385578,-0.1711779534816742,-0.17890195548534393,-0.06639555096626282
1.5,0.16600491106510162,-0.03287888318300247,-0.07357887178659439,-0.11807944625616074,-0.10072573274374008,-0.0639023706316948
1.55,0.04088572412729263,0.1042480394244194,-0.030665671452879906,-0.06774845719337463,-0.0035678225103765726,-0.039469048380851746
1.6,-0.07555969804525375,-0.027438156306743622,0.06504587829113007,-0.062084466218948364,0.04128209874033928,-0.046662475913763046
1.65,-0.11344488710165024,-0.10739706456661224,0.10505790263414383,-0.00027525611221790314,0.03801505267620087,-0.04608582332730293
1.7,-0.05325428396463394,-0.10078810155391693,0.11371070891618729,0.08459556847810745,0.02499510534107685,-0.018394609913229942
1.75,0.04062896966934204,-0.049292560666799545,0.06846428662538528,0.15728238224983215,0.037893783301115036,0.0024538314901292324
1.8,-0.0008076438680291176,-0.08371066302061081,0.022321762517094612,0.2030525505542755,0.07391667366027832,0.011355767957866192
1.85,-0.08222799003124237,0.014872553758323193,0.0048265038058161736,0.25525468587875366,0.06309318542480469,0.012811657041311264
1.9,0.04478026553988457,0.04749011620879173,0.01903485506772995,0.26999762654304504,0.03039034642279148,-0.002897249534726143
1.95,0.06908097863197327,0.0934886783361435,-0.06258091330528259,0.232810840010643,0.04776565358042717,-0.016455594450235367
2.0,-0.02519996650516987,0.12850092351436615,-0.04926115274429321,0.1950734555721283,0.05854540690779686,-0.0062689888291060925
2.05,0.022762782871723175,0.17222021520137787,-0.005217432044446468,0.16734372079372406,0.018654998391866684,-0.032565779983997345
2.1,0.03733976557850838,0.1743469089269638,-0.0842321515083313,0.12593974173069,-0.016931042075157166,-0.088029645383358
2.15,-0.04268668591976166,0.23395441472530365,-0.09958702325820923,0.0815606638789177,-0.0026198732666671276,-0.08825603872537613
2.2,-0.1291925311088562,0.13492964208126068,-0.021429359912872314,0.04135693237185478,0.01151358149945736,-0.06330414861440659
2.25,-0.15373456478118896,0.08106613159179688,-0.03791273012757301,0.03118652105331421,-0.024096105247735977,-0.03281807154417038
2.3,-0.007060674484819174,0.03501510247588158,-0.007659905590116978,0.029045723378658295,-0.08150191605091095,-0.040852140635252
2.35,0.04962741583585739,-0.043541908264160156,-0.012340926565229893,0.03838120773434639,-0.07384257018566132,-0.03934406116604805
2.4,-0.06557446718215942,0.17105577886104584,-0.040811702609062195,0.06866773217916489,-0.03056219033896923,-0.01875857077538967
2.45,-0.11945421993732452,0.10771560668945312,-0.018524469807744026,0.039275966584682465,-0.027700275182724,-0.02201998047530651
2.5,-0.07664907723665237,0.10902690142393112,-0.02613382786512375,0.024783609434962273,-0.050813402980566025,-0.03333677724003792
2.55,-0.04628405719995499,0.17407988011837006,-0.049987539649009705,0.016781875863671303,-0.03652973473072052,-0.018470728769898415
2.6,-0.059188369661569595,0.1075134202837944,0.017586760222911835,-0.009179684333503246,0.007266244385391474,-0.0038096981588751078
2.65,-0.03812249377369881,0.13222597539424896,0.0475667305290699,-0.018065962940454483,0.021343916654586792,0.001193141215480864
2.7,-0.03917719051241875,0.17213724553585052,-0.04281860962510109,-0.03460099548101425,0.01444183848798275,-0.0030170222744345665
2.75,-0.027004634961485863,0.2425079196691513,-0.06042269244790077,-0.08226670324802399,0.007679609581828117,-0.0055497256107628345
2.8,0.04453218728303909,0.09350299090147018,0.027336029335856438,-0.1449999213218689,-0.0012309713056311011,-0.007342197000980377
2.85,0.023257611319422722,0.10874747484922409,0.03889356926083565,-0.17464394867420197,0.001502122962847352,-0.017010778188705444
2.9,-0.01679972931742668,0.002567293820902705,0.05222754552960396,-0.20144298672676086,0.0026342272758483887,-0.02630411833524704
2.95,0.020465942099690437,0.0079231271520257,0.0725170150399208,-0.19205346703529358,-0.015273148193955421,-0.028084561228752136
3.0,0.005618277937173843,0.03093433380126953,0.0434240959584713,-0.171395942568779,-0.016751671209931374,-0.016110731288790703
3.05,-0.0038678059354424477,0.0371551476418972,0.005624802317470312,-0.1624765694141388,-0.016759643331170082,-0.00752656813710928
3.1,0.032466594129800797,0.0553283654153347,0.030246002599596977,-0.16481924057006836,-0.023542707785964012,-0.014586223289370537
3.15,-0.01587521657347679,0.06635855883359909,0.045027751475572586,-0.1661292016506195,-0.031217683106660843,-0.024363672360777855
3.2,-0.03583311662077904,0.040663715451955795,-0.023600013926625252,-0.15934927761554718,-0.03926364704966545,-0.01873134635388851
3.25,-0.025786196812987328,0.07053851336240768,0.0006624008528888226,-0.1428591012954712,-0.02947525680065155,-0.00880218856036663
3.3,-0.011345399543642998,0.06317233294248581,0.05891165882349014,-0.11681737005710602,-0.012253216467797756,0.010405418463051319
3.35,-0.011501376517117023,0.06596469134092331,-0.0020696388091892004,-0.10273972153663635,-0.0030050044879317284,0.006809178739786148
3.4,-0.06788261979818344,0.05075359344482422,0.04639526456594467,-0.09705691784620285,0.011047642678022385,0.0041418964974582195
3.45,-0.013443168252706528,0.08853626251220703,0.1114586815237999,-0.07806851714849472,-0.003041391260921955,0.013282030820846558
3.5,0.002193354070186615,0.07201861590147018,0.03029242902994156,-0.06276567280292511,-0.017778519541025162,0.008596970699727535
3.55,0.060830049216747284,0.1194000095129013,-0.030384480953216553,-0.04176195338368416,-0.020599212497472763,0.01771792583167553
3.6,0.01993725448846817,0.05750369653105736,0.004528973717242479,-0.022973787039518356,-7.273507071658969e-05,0.016638314351439476
3.65,-0.036265335977077484,0.08461665362119675,0.04415623098611832,0.0028034402057528496,0.010932094417512417,0.02015974186360836
3.7,-0.023987874388694763,0.1297149509191513,0.0025890094693750143,0.021382872015237808,0.010591253638267517,0.02657731994986534
3.75,-0.06655791401863098,0.16297052800655365,-0.04276281222701073,0.018527662381529808,0.01367573719471693,0.023734964430332184
3.8,-0.05716446414589882,0.11192988604307175,-0.03552429378032684,-0.0044893622398376465,0.006152032874524593,0.023141998797655106
3.85,-0.05326882004737854,0.08612441271543503,-0.018999023362994194,-0.011022605933248997,0.004887192044407129,0.023748327046632767
3.9,-0.03487611934542656,0.14273642003536224,0.04240056872367859,-0.014880280941724777,0.014276223257184029,0.03232603520154953
3.95,-0.011310463771224022,0.02214813232421875,0.030401600524783134,-0.022028181701898575,0.01518853660672903,0.034081004559993744
4.0,-0.019704502075910568,0.04591083526611328,0.08123894035816193,-0.0077914465218782425,0.00908377394080162,0.023851284757256508
4.05,-0.018539894372224808,0.07409858703613281,0.11887966096401215,-0.0027613770216703415,0.010463373735547066,0.023472100496292114
4.1,-0.011663170531392097,0.07992171496152878,0.059416528791189194,0.012288007885217667,0.012090127915143967,0.020430825650691986
4.15,-0.060571860522031784,0.12108325958251953,0.05210025981068611,0.026389867067337036,0.021342530846595764,0.027115289121866226
4.2,-0.024039562791585922,0.07299517840147018,0.024688491597771645,0.018148768693208694,0.022062765434384346,0.03558173030614853
4.25,-0.02814396843314171,0.046050067991018295,0.008640016429126263,0.007948228158056736,0.01732802949845791,0.03301047161221504
4.3,0.05534462630748749,0.08721732348203659,0.06098277494311333,-0.00034085847437381744,0.0112233841791749,0.03316217288374901
4.35,0.022722488269209862,0.14185617864131927,0.05667361617088318,-0.0022978447377681732,0.023622825741767883,0.0263030007481575
4.4,0.017992638051509857,0.052329059690237045,0.040099117904901505,-0.008910594508051872,0.046543143689632416,0.0187463890761137
4.45,-0.047500770539045334,0.102202408015728,0.004471010994166136,0.007113149855285883,0.0647481307387352,0.01756429672241211
4.5,-0.04551849141716957,0.06595992296934128,0.027385609224438667,0.016065455973148346,0.06107450649142265,0.03216845914721489
4.55,-0.03132808208465576,0.027468683198094368,0.06902721524238586,0.029336942359805107,0.0352831706404686,0.022268902510404587
4.6,-0.037262652069330215,0.04923820495605469,0.05649011954665184,0.05926419049501419,0.0068402658216655254,0.010304488241672516
4.65,0.006253563798964024,0.1292857974767685,0.007665663957595825,0.0838976502418518,-0.012955326586961746,0.006084212101995945
4.7,0.03128563612699509,0.17773912847042084,-0.030965164303779602,0.06470043212175369,-0.009176854975521564,-0.015724822878837585
4.75,-0.03734144568443298,0.2039947360754013,0.014933699741959572,0.022888271138072014,0.007870703935623169,-0.028450632467865944
4.8,-0.14802226424217224,0.148344025015831,0.01817108504474163,-0.01687042787671089,0.013051883317530155,-0.03144725412130356
4.85,-0.1593276858329773,0.019160272553563118,-0.08994866907596588,-0.033292584121227264,0.009274713695049286,0.006778951268643141
4.9,0.02088736742734909,0.102292999625206,-0.12469843775033951,-0.019312744960188866,-0.012875991873443127,0.07148237526416779
4.95,-0.0035886517725884914,0.02294921688735485,-0.017833534628152847,-0.033659763634204865,-0.02264556474983692,0.048926740884780884
5.0,-0.06173418089747429,0.02790069580078125,-0.0067633967846632,-0.023793131113052368,-0.028572238981723785,0.028271742165088654
5.05,-0.11541224271059036,0.05699920654296875,-0.03609189763665199,-0.007997514680027962,-0.060106147080659866,0.01920451782643795
5.1,-0.12144973129034042,0.06902884691953659,-0.08149179816246033,-0.008268759585916996,-0.10863256454467773,0.016415709629654884
5.15,-0.21419350802898407,0.1971597522497177,-0.14592070877552032,-0.004098024684935808,-0.14805062115192413,0.015492054633796215
5.2,-0.16561919450759888,0.2905835807323456,-0.17483167350292206,-0.05634564161300659,-0.18589460849761963,0.03726700320839882
5.25,-0.07947982102632523,0.11088084429502487,-0.0517294816672802,-0.17208649218082428,-0.2434803545475006,0.07126430422067642
5.3,0.10889410227537155,0.09255217015743256,-0.04902768135070801,-0.2060086876153946,-0.3439542353153229,0.06672236323356628
5.35,0.21934156119823456,-0.10785771161317825,-0.04978504776954651,-0.1822960376739502,-0.42187267541885376,-0.06366469711065292
5.4,0.31201979517936707,-0.3081817626953125,-0.05818900093436241,-0.0638175904750824,-0.46177008748054504,-0.28553858399391174
5.45,0.13781806826591492,-0.1845989227294922,-0.16924504935741425,0.16427311301231384,-0.4043691158294678,-0.4801763594150543
5.5,-0.3878808319568634,0.3331756293773651,-0.3567366600036621,0.3464786410331726,-0.2150944322347641,-0.5117440223693848
5.55,-0.29482775926589966,0.40579506754875183,-0.162663072347641,0.21810486912727356,-0.08062470704317093,-0.4157712757587433
5.6,-0.41409608721733093,0.0253620445728302,0.31254342198371887,0.0018877089023590088,-0.14447182416915894,-0.5399585962295532
5.65,-1.0578703880310059,0.1412220448255539,0.5032756924629211,-0.023925960063934326,-0.4209781289100647,-0.6358394622802734
5.7,-1.3811542987823486,0.19652658700942993,0.3191680312156677,-0.015526771545410156,-0.6812407374382019,-0.3707244098186493
5.75,-0.21951764822006226,0.28812313079833984,0.44938376545906067,-0.11506453156471252,-0.7441036105155945,0.06265784054994583
5.8,0.13592538237571716,0.2949475944042206,0.5015816688537598,-0.20782257616519928,-0.5880885124206543,0.16270673274993896
5.85,0.23018236458301544,-0.01873873360455036,0.5406311750411987,-0.25761282444000244,-0.4805576503276825,0.049189478158950806
5.9,0.22184988856315613,0.11904621124267578,0.339664489030838,-0.24876835942268372,-0.3559322953224182,-0.07744661718606949
5.95,0.20225560665130615,0.30354973673820496,0.1613440215587616,-0.2683366537094116,-0.23545226454734802,-0.14728571474552155
6.0,0.6378878355026245,0.14314648509025574,0.1760443150997162,-0.3392629325389862,-0.21200184524059296,-0.19229380786418915
6.05,0.7381492853164673,0.12828917801380157,0.0879540964961052,-0.364175409078598,-0.086012102663517,-0.3471704125404358
6.1,0.16020774841308594,0.10724733769893646,0.023993881419301033,-0.43318304419517517,0.11345980316400528,-0.49202001094818115
6.15,0.028210952877998352,0.03937435895204544,0.3208492398262024,-0.4969620108604431,0.13355784118175507,-0.4385974705219269
6.2,-0.02960352599620819,-0.11284062266349792,0.42714717984199524,-0.45365116000175476,0.14719949662685394,-0.3205435276031494
6.25,0.25214534997940063,0.017334941774606705,0.39202842116355896,-0.3105121850967407,0.29615306854248047,-0.16659535467624664
6.3,-0.1656695157289505,0.14508819580078125,0.14986374974250793,-0.21349219977855682,0.4922631084918976,-0.06513822078704834
6.35,-0.1102413684129715,0.3025912940502167,-0.021637123078107834,-0.16674432158470154,0.4584598243236542,0.013531084172427654
6.4,0.12977410852909088,0.21262070536613464,-0.14391084015369415,-0.16969454288482666,0.3352157175540924,0.0634051039814949
6.45,0.211137056350708,0.13414952158927917,-0.16914629936218262,-0.18499299883842468,0.26118090748786926,0.14217253029346466
6.5,0.41317155957221985,-0.0502939410507679,-0.07549791038036346,-0.14931491017341614,0.273735374212265,0.24040864408016205
6.55,0.20109519362449646,-0.0730123519897461,-0.05813511833548546,-0.062468573451042175,0.2918179929256439,0.21805976331233978
6.6,0.0013258829712867737,-0.05224609375,-0.1327144205570221,0.011168792843818665,0.2277826964855194,0.15246878564357758
6.65,0.22739508748054504,-0.053611770272254944,-0.23755013942718506,0.08535692095756531,0.08906073123216629,0.13484033942222595
6.7,0.2917085289955139,-0.08615972846746445,-0.392860472202301,0.12349829077720642,0.020787954330444336,0.04124651849269867
6.75,0.013596221804618835,0.11503884196281433,-0.4899834394454956,0.1603197604417801,0.029157405719161034,-0.003280417760834098
6.8,0.05212651193141937,0.15490242838859558,-0.4801039695739746,0.1219315230846405,-0.004182892851531506,0.008736226707696915
6.85,0.025789722800254822,0.2842521071434021,-0.39556053280830383,0.062351420521736145,-0.0031831192318350077,0.03337140753865242
6.9,0.03591403365135193,0.2828340232372284,-0.23870395123958588,0.018517380580306053,0.012836210429668427,0.04709918424487114
6.95,0.14504367113113403,0.17018792033195496,-0.10162001848220825,0.008644767105579376,0.029314778745174408,0.08274629712104797
7.0,0.2687923014163971,0.20384976267814636,-0.1754056066274643,0.018885556608438492,0.00712035084143281,0.08893817663192749
7.05,0.22431232035160065,0.3459472060203552,-0.19091176986694336,-0.0072950273752212524,-0.012012667022645473,0.03895530104637146
7.1,0.04054639860987663,0.15996836125850677,0.011033665388822556,-0.06782873719930649,-0.004232649225741625,-0.006242043804377317
7.15,-0.08532489091157913,0.05353069677948952,0.11280007660388947,-0.052080318331718445,0.005195199977606535,0.014033757150173187
7.2,0.09423699975013733,0.10039710253477097,0.14859698712825775,-0.005831606686115265,-0.006087942514568567,0.06627807766199112
7.25,0.16285750269889832,0.2637633979320526,0.1640503853559494,0.02955007739365101,0.013818730600178242,0.07822086662054062
7.3,-0.019440341740846634,0.2375955432653427,0.06095941364765167,0.04469310864806175,0.048719096928834915,0.022163648158311844
7.35,-0.19918712973594666,0.06876277923583984,0.0443311370909214,0.02469870075583458,0.059505827724933624,-0.01095555629581213
7.4,-0.30479174852371216,0.18349647521972656,0.04368174448609352,0.0274493470788002,0.06190180778503418,-0.00024358645896427333
7.45,0.033455416560173035,0.22166059911251068,-0.0069055818021297455,0.021090419963002205,0.060068730264902115,0.062168024480342865
7.5,-0.026938464492559433,0.19948290288448334,0.10104280710220337,-0.03821045905351639,0.08258507400751114,0.03465629741549492
7.55,0.03846237063407898,0.06666851043701172,0.21028293669223785,-0.04647413268685341,0.09365557134151459,0.032462943345308304
7.6,-0.01877015084028244,0.17070673406124115,0.14028088748455048,0.022398367524147034,0.1073855385184288,0.049112334847450256
7.65,0.16757848858833313,0.13518331944942474,0.08406146615743637,0.03693125396966934,0.07984273135662079,0.060928672552108765
7.7,0.21463152766227722,0.10084818303585052,0.010983342304825783,0.06259418278932571,0.08963219821453094,0.04510187730193138
7.75,0.09349045157432556,0.13776394724845886,-0.13400307297706604,0.13767807185649872,0.12654444575309753,0.014181133359670639
7.8,0.003655634820461273,0.15123745799064636,-0.19042594730854034,0.11789870262145996,0.16642947494983673,0.037626251578330994
7.85,0.019136391580104828,0.3045797049999237,-0.19285641610622406,0.13794568181037903,0.1861066073179245,0.10222642868757248
7.9,0.10554913431406021,0.05181025341153145,-0.06290924549102783,0.1478525996208191,0.19177402555942535,0.16917423903942108
7.95,0.1707831174135208,-0.07069683074951172,0.07792513817548752,0.1771838515996933,0.1856856495141983,0.19431747496128082
8.0,0.292939692735672,0.12711235880851746,-0.02473839372396469,0.2834361791610718,0.20207417011260986,0.17475704848766327
8.05,0.26363712549209595,0.19722840189933777,-0.027040954679250717,0.31331509351730347,0.28415724635124207,0.17032040655612946
8.1,0.09342120587825775,-0.044638630002737045,0.0719190463423729,0.25768396258354187,0.39656585454940796,0.208100363612175
8.15,-0.04429146274924278,0.12275123596191406,0.13920798897743225,0.26530230045318604,0.392482727766037,0.1738617718219757
8.2,-0.019451722502708435,0.180084228515625,0.29503440856933594,0.2424013912677765,0.34699758887290955,0.10724157094955444
8.25,-0.10095340013504028,-0.012013412080705166,0.42987051606178284,0.16561780869960785,0.36855292320251465,0.07884332537651062
8.3,-0.31229764223098755,-0.1092948466539383,0.6142345666885376,0.14626365900039673,0.3882327079772949,-0.01581510156393051
8.35,-0.36457812786102295,0.05098060145974159,0.5122260451316833,0.31875234842300415,0.38363415002822876,0.06783313304185867
8.4,-0.2567914128303528,0.08484651893377304,0.3754226565361023,0.5060909390449524,0.31018033623695374,0.24529455602169037
8.45,-0.015248022973537445,0.19240568578243256,0.12349268794059753,0.5083600282669067,0.1679946482181549,0.25217947363853455
8.5,0.017388563603162766,0.331147164106369,0.08945804089307785,0.39271900057792664,0.13515853881835938,0.19966204464435577
8.55,-0.07411109656095505,0.5632428526878357,0.22953420877456665,0.2631765305995941,0.16435061395168304,0.13996009528636932
8.6,-0.27515551447868347,0.2280149608850479,0.3634997606277466,0.11716749519109726,0.1615072339773178,0.07015639543533325
8.65,-0.3845706582069397,-0.028250660747289658,0.3817906379699707,0.09525686502456665,0.13184504210948944,0.07122519612312317
8.7,-0.302734911441803,-0.014294598251581192,0.29358595609664917,0.1363830268383026,0.09995279461145401,0.08120273053646088
8.75,-0.4658890962600708,0.11073591560125351,0.2940525412559509,0.14726659655570984,0.10435163229703903,0.06966914236545563
8.8,-0.3939632177352905,-0.038357701152563095,0.31228309869766235,0.13781724870204926,0.06879494339227676,0.07283701002597809
8.85,-0.3773419260978699,-0.018569914624094963,0.3373369872570038,0.1699727177619934,0.02680453285574913,0.028652293607592583
8.9,-0.3400595188140869,0.020600344985723495,0.32253095507621765,0.18245337903499603,-0.005238773301243782,0.050569258630275726
8.95,-0.233714759349823,-0.1345624476671219,0.3010801672935486,0.19836938381195068,-0.018792977556586266,0.02552747167646885
9.0,-0.27775031328201294,-0.0972432792186737,0.2442014515399933,0.2629508376121521,-0.04326522722840309,-0.04832423850893974
9.05,-0.20978204905986786,-0.20241352915763855,0.15348851680755615,0.3433791399002075,-0.07119534909725189,-0.03749005123972893
9.1,-0.09701211005449295,-0.06338213384151459,0.03484339639544487,0.4649255871772766,-0.060463327914476395,0.009513217955827713
9.15,-0.14822810888290405,0.1568450778722763,-0.06305363774299622,0.5094208717346191,-0.03317399322986603,0.013276325538754463
9.2,-0.15575551986694336,0.33728405833244324,-0.12716548144817352,0.4473199248313904,-0.026749230921268463,-0.045100659132003784
9.25,-0.1580001562833786,0.4140271842479706,-0.14802519977092743,0.32870614528656006,-0.04051493480801582,-0.12185298651456833
9.3,-0.025128759443759918,0.28744885325431824,-0.10969431698322296,0.20195603370666504,-0.04353072866797447,-0.1505996584892273
9.35,-0.045752450823783875,0.39658257365226746,-0.20553267002105713,0.08741629123687744,-0.012730496004223824,-0.16226226091384888
9.4,-0.01370738074183464,0.19188497960567474,-0.11781848967075348,-0.04227054864168167,0.023690195754170418,-0.12531858682632446
9.45,-0.13706408441066742,0.12491321563720703,-0.051766395568847656,-0.10999826341867447,0.003644993295893073,-0.11668441444635391
9.5,0.034346625208854675,0.09998702257871628,-0.00030009858892299235,-0.13136540353298187,-0.041788436472415924,-0.11503493785858154
9.55,0.0037095099687576294,-0.07211112231016159,-0.04938853532075882,-0.13971804082393646,-0.00028094855952076614,-0.06291694194078445
9.6,-0.03463124483823776,-0.12822435796260834,0.10359157621860504,-0.10059268772602081,0.02096247859299183,-0.03436092659831047
9.65,0.020596124231815338,-0.08966349810361862,0.09086417406797409,-0.03660120442509651,-0.0131632499396801,-0.04707122594118118
9.7,0.11448702961206436,-0.012281416915357113,0.13134057819843292,0.00039179064333438873,-0.024710573256015778,-0.0422094352543354
9.75,0.10128997266292572,0.0719146654009819,0.1837913691997528,0.016088489443063736,0.012834925204515457,-0.011393117718398571
9.8,0.0986843928694725,0.0565338097512722,0.12946347892284393,0.022668978199362755,0.028805652633309364,-0.009186437353491783
9.85,0.04037625342607498,0.06074714660644531,0.13338282704353333,0.014986509457230568,0.03420761972665787,-0.012190484441816807
9.9,-0.07519349455833435,0.08310413360595703,0.12935642898082733,0.015821224078536034,0.031382057815790176,-0.005468492396175861
9.95,0.031001929193735123,0.029264451935887337,0.11015134304761887,0.02082192897796631,0.014085773378610611,0.01070631667971611
10.0,0.1316002905368805,0.09400462359189987,0.07247062027454376,0.04338189214468002,0.027182286605238914,0.012099722400307655
10.05,0.274466872215271,0.1513204425573349,0.19555318355560303,-0.011115684174001217,0.08694113045930862,0.030661126598715782
10.1,-0.0831998810172081,-0.011977183632552624,0.19005517661571503,-0.06555844098329544,0.21756990253925323,0.007575817406177521
10.15,-0.08402568846940994,-0.02767752669751644,0.09584672749042511,-0.058601390570402145,0.24948327243328094,0.018741875886917114
10.2,-0.25459954142570496,-0.10168645530939102,0.104424849152565,-0.04266716167330742,0.22251448035240173,-0.01510503701865673
10.25,0.17924237251281738,-0.016215328127145767,0.0374787300825119,-0.0011466257274150848,0.1072792187333107,-0.039917878806591034
10.3,0.13620337843894958,-0.012919428758323193,0.05503299832344055,0.045986030250787735,0.1312878578901291,-0.05251473933458328
10.35,0.035361625254154205,0.11799048632383347,0.08370420336723328,0.08833710849285126,0.1647396832704544,-0.033665981143713
10.4,-0.15263433754444122,0.29863831400871277,0.02385188266634941,0.05530375614762306,0.16267578303813934,-0.02146894298493862
10.45,0.024212276563048363,0.16788862645626068,0.05669514834880829,-0.016913969069719315,0.12908624112606049,0.023192360997200012
10.5,0.20107018947601318,-0.05484485998749733,0.0015058997087180614,-0.0408552885055542,0.09674020856618881,-0.028230946511030197
10.55,0.2320806086063385,-0.020253190770745277,-0.011263451538980007,-0.014788549393415451,0.13211394846439362,-0.04689576476812363
10.6,0.07091186195611954,0.18229292333126068,-0.04143897816538811,0.008111171424388885,0.20702259242534637,-0.0404420904815197
10.65,-0.17476816475391388,0.18099592626094818,-0.061091579496860504,-0.02512173354625702,0.23657718300819397,-0.02431553229689598
10.7,-0.033823177218437195,0.19462202489376068,0.031104592606425285,-0.06909901648759842,0.19054338335990906,0.004121486097574234
10.75,0.14432621002197266,0.107633575797081,0.03550643473863602,-0.1140502542257309,0.15513114631175995,0.059296004474163055
10.8,-0.06596201658248901,0.054022789001464844,0.025935111567378044,-0.13867494463920593,0.15547963976860046,0.0897134393453598
10.85,0.08620519191026688,-0.07307719439268112,0.009611678309738636,-0.12026037275791168,0.06311193108558655,0.14629311859607697
10.9,0.486270546913147,0.07659051567316055,0.0783996656537056,-0.12305651605129242,0.0528893880546093,0.0551191046833992
10.95,-0.03166081756353378,0.0699005126953125,0.18231309950351715,-0.12598730623722076,0.18320271372795105,-0.0016877723392099142
11.0,-0.02853061631321907,0.37424275279045105,0.12435128539800644,-0.09831776469945908,0.13468801975250244,-0.008548506535589695
11.05,0.10133890807628632,0.026761049404740334,0.022650593891739845,-0.13976606726646423,0.08569595962762833,0.057280100882053375
11.1,0.20948028564453125,-0.06673336029052734,0.06781874597072601,-0.09649652242660522,0.10027532279491425,0.1022331491112709
11.15,0.26746729016304016,0.028943052515387535,0.09103647619485855,-0.06017192453145981,0.12573453783988953,0.08929095417261124
11.2,0.19770470261573792,0.07297132909297943,0.10392271727323532,-0.073641337454319,0.1333293318748474,0.06747232377529144
11.25,0.15461494028568268,-0.012049677781760693,0.06370820105075836,-0.07261016219854355,0.1632477194070816,0.06100192293524742
11.3,0.15247371792793274,0.06201647222042084,-0.07249514758586884,-0.04166862368583679,0.24028438329696655,0.05207449197769165
11.35,-0.036826241761446,0.2820253074169159,-0.0815284326672554,-0.05046823248267174,0.337039589881897,0.08164923638105392
11.4,-0.21872447431087494,-0.30246540904045105,0.09324802458286285,-0.08303311467170715,0.332467645406723,0.14904721081256866
11.45,-0.03196398913860321,-0.14660261571407318,0.0075772306881845,0.06829588115215302,0.2592426538467407,0.1452898234128952
11.5,0.1141640692949295,-0.026940349489450455,-0.012895779684185982,0.1561404913663864,0.2824289798736572,0.11987850815057755
11.55,0.12828944623470306,0.08802508562803268,0.16556930541992188,0.13899032771587372,0.3508754074573517,0.0970829650759697
11.6,0.25365889072418213,-0.5927771925926208,0.35981640219688416,-0.055727653205394745,0.344433456659317,-0.023753510788083076
11.65,-0.03459087759256363,-0.4171237647533417,-0.023448791354894638,0.2594119608402252,0.35057690739631653,-0.14446035027503967
11.7,-0.28265008330345154,0.787956178188324,-0.2980929911136627,0.5789704322814941,0.38284337520599365,-0.12480249255895615
11.75,0.27450716495513916,0.7187918424606323,-0.5308560132980347,0.3347724378108978,0.4416143596172333,0.05614951625466347
11.8,0.622104823589325,0.6436728239059448,-0.6724237203598022,0.11323976516723633,0.686872661113739,0.1443079262971878
11.85,0.048303768038749695,0.42835134267807007,-0.3264269232749939,-0.04805457592010498,1.0505870580673218,0.21490484476089478
11.9,-0.028936825692653656,0.14498327672481537,-0.16288679838180542,-0.13859474658966064,1.2326960563659668,0.3178214728832245
11.95,-0.12719494104385376,0.0006752082263119519,0.0328480489552021,-0.16626600921154022,1.2555360794067383,0.33600372076034546
12.0,-0.3040798306465149,-0.22666354477405548,0.3710584044456482,-0.1692783087491989,1.1350775957107544,0.24772492051124573
12.05,-0.22160618007183075,-0.282524049282074,0.2941738963127136,-0.151408851146698,0.8986173272132874,0.08149940520524979
12.1,-0.16331696510314941,0.18151092529296875,0.284875750541687,-0.11108218133449554,0.6548718214035034,-0.011905578896403313
12.15,0.2549125850200653,0.18276211619377136,-0.16199690103530884,-0.12018141150474548,0.4725218713283539,0.0016219483222812414
12.2,0.17611712217330933,0.07600591331720352,-0.1422223150730133,-0.15232037007808685,0.5314574837684631,0.03295760601758957
12.25,0.021787244826555252,0.02775096334517002,-0.08513091504573822,-0.1666722297668457,0.6215236783027649,0.03939254954457283
12.3,-0.1864498257637024,0.2001495361328125,0.1894918978214264,-0.13114210963249207,0.5721784234046936,0.035410791635513306
12.35,-0.08454098552465439,-0.003660190850496292,0.17924430966377258,-0.1208278089761734,0.35041987895965576,0.046215783804655075
12.4,0.1406112015247345,0.03368663042783737,0.07833421975374222,-0.16726616024971008,0.1722877025604248,-0.03637789562344551
12.45,0.11661072075366974,0.0557851679623127,-0.04369998350739479,-0.1887894570827484,0.07833415269851685,-0.08190394192934036
12.5,-0.013950208202004433,0.09370135515928268,0.04733148589730263,-0.1580819934606552,0.04823724925518036,-0.05356369540095329
12.55,0.013547427952289581,0.1371736377477646,0.09214190393686295,-0.09807048738002777,-0.015182963572442532,-0.014330579899251461
12.6,-0.0025590546429157257,0.04782581329345703,0.10137927532196045,-0.07728567719459534,-0.13342861831188202,-0.00719995005056262
12.65,0.13077913224697113,-0.027794843539595604,-0.05276770889759064,-0.07106457650661469,-0.2360965460538864,-0.04102129489183426
12.7,0.1561747044324875,-0.15120981633663177,0.1113872155547142,-0.03994223102927208,-0.2848075330257416,-0.08075042068958282
12.75,0.22146931290626526,-0.19973276555538177,0.160893514752388,0.07056495547294617,-0.35986024141311646,-0.10274062305688858
12.8,0.11064357310533524,0.10657022893428802,-0.04616193473339081,0.14070241153240204,-0.42158833146095276,-0.15253740549087524
12.85,-0.019476979970932007,0.40370652079582214,-0.3003661334514618,0.10898689180612564,-0.459042489528656,-0.11696100234985352
12.9,0.162291020154953,0.4616517424583435,-0.6165820360183716,-0.01174136996269226,-0.4500890076160431,-0.004940018057823181
12.95,0.2869146466255188,-0.037533778697252274,-0.284728080034256,-0.09490938484668732,-0.33062538504600525,0.012564328499138355
13.0,0.23616009950637817,-0.005377787631005049,-0.20887444913387299,-0.052496712654829025,-0.24292121827602386,-0.05109551548957825
13.05,0.1771942526102066,-0.04555226117372513,-0.08537916839122772,-0.03319399803876877,-0.19294698536396027,-0.07510335743427277
13.1,0.04604460299015045,-0.2596244513988495,0.27599504590034485,0.03195555880665779,-0.1946108490228653,-0.10121608525514603
13.15,0.14142382144927979,-0.08054541796445847,0.15005987882614136,0.1903570592403412,-0.3147149682044983,-0.09062463045120239
13.2,-0.02278969995677471,0.3132009208202362,-0.0692797377705574,0.3067377209663391,-0.334039568901062,-0.08881819248199463
13.25,-0.0399467796087265,0.36972329020500183,-0.22863434255123138,0.21883437037467957,-0.37319108843803406,-0.048461027443408966
13.3,0.17463281750679016,0.13617512583732605,-0.2553027272224426,0.05584345757961273,-0.42729732394218445,-0.016992168501019478
13.35,0.23907847702503204,-0.034532561898231506,-0.20704622566699982,0.03622812777757645,-0.3900478184223175,-0.029809392988681793
13.4,0.27544495463371277,0.02205655537545681,-0.23378640413284302,0.048940543085336685,-0.3140980005264282,-0.05053694173693657
13.45,0.17598913609981537,0.10645387321710587,-0.13617946207523346,0.017530862241983414,-0.24896378815174103,-0.0677529126405716
13.5,0.12201006710529327,-0.25455471873283386,0.024214763194322586,0.020033318549394608,-0.2282208651304245,-0.0331292487680912
13.55,0.1943274736404419,-0.4019603431224823,0.003806518157944083,0.14227700233459473,-0.24809733033180237,-0.058812811970710754
13.6,0.3093082308769226,-0.46905991435050964,-0.005761714652180672,0.3500817120075226,-0.25013798475265503,-0.12279494106769562
13.65,0.269589900970459,-0.03870582953095436,0.06727787852287292,0.5333263278007507,-0.23150576651096344,-0.2507624626159668
13.7,0.16389867663383484,0.14745518565177917,-0.03590504080057144,0.5756760835647583,-0.23089216649532318,-0.29456108808517456
13.75,0.07397900521755219,0.7705163359642029,-0.10808894783258438,0.4493236243724823,-0.2448507845401764,-0.2844159007072449
13.8,0.036599092185497284,0.43680474162101746,-0.10164064913988113,0.20907798409461975,-0.2664763331413269,-0.1804913580417633
13.85,0.15555807948112488,0.24528977274894714,-0.0995246022939682,0.088852658867836,-0.294575959444046,-0.1331752985715866
13.9,0.22509177029132843,0.16004082560539246,-0.06911799311637878,0.022712290287017822,-0.2751166522502899,-0.12002293765544891
13.95,0.10548379272222519,0.06863783299922943,-0.072181336581707,-0.01947852596640587,-0.22271797060966492,-0.10874761641025543
14.0,0.09830506891012192,0.09398935735225677,-0.0831538513302803,-0.017954491078853607,-0.2030150145292282,-0.10791380703449249
14.05,-0.06476471573114395,0.1306924670934677,0.026812994852662086,-0.01862531527876854,-0.2008931189775467,-0.09919923543930054
14.1,-0.3653591573238373,0.08001995831727982,0.04417320713400841,-0.054906606674194336,-0.26582953333854675,-0.0901196151971817
14.15,0.5299819111824036,-0.042485274374485016,-0.41864851117134094,-0.08064261823892593,-0.34257784485816956,-0.03381102532148361
14.2,0.03786711022257805,-0.002438551979139447,-0.13094434142112732,-0.03990277647972107,-0.10533822327852249,0.016089795157313347
14.25,-0.11355851590633392,0.25572869181632996,-0.03549279645085335,-0.03950472176074982,-0.08391081541776657,0.014791109599173069
14.3,0.0574016347527504,0.052052486687898636,-0.08402285724878311,-0.09800064563751221,-0.176252543926239,0.03589111194014549
14.35,0.4101576507091522,0.18614384531974792,-0.0760561153292656,-0.08440391719341278,-0.19793197512626648,0.06500107049942017
14.4,0.31793105602264404,0.08160588890314102,-0.11269409209489822,-0.13535518944263458,-0.09875472635030746,0.12393641471862793
14.45,0.3081384003162384,-0.07601643353700638,-0.07143441587686539,-0.13732439279556274,-0.03718842938542366,0.101534903049469
14.5,0.16242852807044983,-0.13128376007080078,-0.04997747763991356,-0.09966058284044266,0.0168867539614439,0.05922703072428703
14.55,0.02895849570631981,-0.10217379778623581,0.00990109983831644,-0.051005590707063675,0.02628280036151409,-0.006099059712141752
14.6,0.07581441104412079,0.04882429912686348,-0.0716528668999672,-0.00421870406717062,-0.020648853853344917,-0.03040073625743389
14.65,0.07475201785564423,0.0069456035271286964,-0.06742679327726364,0.01047362107783556,-0.02201828733086586,0.010130987502634525
14.7,0.09584936499595642,0.08725832402706146,-0.035962317138910294,0.02635779045522213,-0.028637822717428207,0.025280924513936043
14.75,0.1366073042154312,0.1779947131872177,0.003166493494063616,0.02013411745429039,-0.041057176887989044,0.009902813471853733
14.8,0.17969347536563873,0.056701645255088806,-0.06372204422950745,0.016431929543614388,-0.030018553137779236,0.008852904662489891
14.85,-0.017151903361082077,0.1112975999712944,-0.04756901040673256,0.027064021676778793,-0.02678588777780533,0.028431175276637077
14.9,0.09404918551445007,0.253540962934494,-0.10145163536071777,0.01577644608914852,-0.06829044967889786,0.04295295849442482
14.95,0.08261573314666748,0.07421015202999115,-0.06119410693645477,-0.03506152331829071,-0.07158252596855164,0.07182193547487259
15.0,0.08566080778837204,-0.031200412660837173,-0.04894501715898514,-0.06579484045505524,-0.08094212412834167,0.058719657361507416
15.05,0.04025990515947342,0.15912340581417084,-0.02497905120253563,-0.07259643077850342,-0.09724190086126328,0.03536166995763779
15.1,0.1047983318567276,-8.488215098623186e-05,-0.014421634376049042,-0.08467627316713333,-0.1279606819152832,0.04722651466727257
15.15,0.20122693479061127,0.07886598259210587,-0.06875979900360107,-0.0764906108379364,-0.11022349447011948,0.04399604722857475
15.2,0.15719455480575562,0.03373907506465912,-0.09974681586027145,-0.09293819963932037,-0.05931474640965462,0.04190882667899132
15.25,0.11223169416189194,0.05379771068692207,-0.04616304114460945,-0.0959804356098175,-0.017640067264437675,0.024819573387503624
15.3,0.05706693232059479,0.18937014043331146,-0.003665586933493614,-0.10652406513690948,-0.022649522870779037,0.021727172657847404
15.35,0.10901913046836853,0.07900141179561615,-0.09867861866950989,-0.12893936038017273,-0.03200944885611534,0.042440712451934814
15.4,0.02632928639650345,-0.02041912078857422,-0.010051012970507145,-0.11881603300571442,-0.0121911084279418,0.05054622143507004
15.45,0.052314393222332,0.005292889662086964,-0.005412530619651079,-0.09097537398338318,-0.02998819760978222,0.030033109709620476
15.5,0.13391491770744324,0.08366106450557709,-0.06892719119787216,-0.0840948075056076,-0.049161653965711594,0.0242158193141222
15.55,-0.1356043517589569,0.07152462005615234,0.017950385808944702,-0.096255823969841,-0.06983315944671631,0.05932624638080597
15.6,-0.3480044901371002,0.26016902923583984,0.046457439661026,-0.14685554802417755,-0.1743379533290863,0.060214921832084656
15.65,0.12798252701759338,0.16657540202140808,-0.16949200630187988,-0.26741713285446167,-0.3194885551929474,0.06212197616696358
15.7,0.12279665470123291,0.006431571673601866,-0.05167822539806366,-0.2839322090148926,-0.352493554353714,0.0735405683517456
15.75,0.4137893617153168,-0.06763745844364166,-0.15734294056892395,-0.2500215768814087,-0.47459203004837036,0.057978421449661255
15.8,-0.11054416745901108,0.026384351775050163,-0.11263228952884674,-0.24192968010902405,-0.5122321248054504,-0.011712892912328243
15.85,0.19734367728233337,0.010250079445540905,-0.05531763285398483,-0.24155193567276,-0.5746904611587524,-0.08832403272390366
15.9,0.10237167775630951,0.15297791361808777,-0.08193566650152206,-0.24082738161087036,-0.4587669372558594,-0.0388185940682888
15.95,0.1915905475616455,-0.05687142536044121,-0.13721449673175812,-0.26143690943717957,-0.3809370696544647,0.008635886013507843
16.0,0.14503493905067444,0.07100771367549896,-0.06767771393060684,-0.23420247435569763,-0.32349660992622375,-0.05372733250260353
16.05,0.054980870336294174,-0.03873443603515625,0.0021141734905540943,-0.2308180332183838,-0.2477477639913559,-0.06533167511224747
16.1,0.06309686601161957,-0.11131953448057175,0.007593485526740551,-0.22542500495910645,-0.2285557985305786,-0.061999328434467316
16.15,0.12897194921970367,-0.12810705602169037,0.04180563613772392,-0.1683811992406845,-0.21310481429100037,-0.06543539464473724
16.2,0.09913545846939087,0.03844832256436348,-0.11522010713815689,-0.08713910728693008,-0.1804032176733017,-0.08164438605308533
16.25,-0.22345583140850067,0.10782241821289062,-0.07622849196195602,-0.06869477033615112,-0.19241689145565033,-0.07537849992513657
16.3,-0.10160811245441437,0.24384592473506927,-0.11710301041603088,-0.08154904097318649,-0.2996213734149933,-0.08206947892904282
16.35,0.12086991965770721,0.13532063364982605,-0.13800685107707977,-0.10920383036136627,-0.3475135564804077,-0.08551549911499023
16.4,0.15304099023342133,0.19112297892570496,-0.12225215137004852,-0.10097407549619675,-0.30796098709106445,-0.06354334950447083
16.45,0.15720412135124207,-0.03760243207216263,-0.10409323126077652,-0.10701258480548859,-0.24442900717258453,-0.04650186374783516
16.5,0.011348139494657516,0.09108637273311615,-0.10169292241334915,-0.08252623677253723,-0.18774746358394623,-0.042463380843400955
16.55,0.024080881848931313,0.06938455998897552,-0.07939433306455612,-0.0706104189157486,-0.1580175757408142,-0.009086532518267632
16.6,-0.00820545107126236,0.08684157580137253,-0.08151207119226456,-0.043767496943473816,-0.15181641280651093,0.012524757534265518
16.65,0.16296422481536865,0.07252214848995209,-0.01976567879319191,-0.046304404735565186,-0.15826617181301117,0.028344975784420967
16.7,0.12765343487262726,0.12315462529659271,-0.0275406651198864,-0.046866871416568756,-0.11013437062501907,0.005442759953439236
16.75,0.03490187227725983,0.04801177233457565,-0.052065182477235794,-0.04882404953241348,-0.09467005729675293,-0.02229674533009529
16.8,-0.0008846297860145569,0.0785980150103569,-0.05673869326710701,-0.025537099689245224,-0.10740332305431366,-0.053157296031713486
16.85,-0.04927155375480652,0.08343791216611862,-0.1332780122756958,-0.0005093934014439583,-0.09070039540529251,-0.028769323602318764
16.9,0.018849018961191177,0.06619451940059662,-0.0962013378739357,0.013006560504436493,-0.05851725861430168,0.011353706941008568
16.95,-0.0020747948437929153,0.11478327959775925,-0.04648188501596451,0.013954631984233856,-0.020124610513448715,0.016520874574780464
17.0,0.05599404498934746,0.08331964910030365,-0.04137440398335457,0.016907572746276855,-0.01146842073649168,0.007360435090959072
17.05,0.060819145292043686,-0.01658058725297451,-0.09796451777219772,0.037204377353191376,0.005050238221883774,0.003058479866012931
17.1,0.05192265659570694,0.15140435099601746,-0.15837924182415009,0.06573508679866791,0.0035754500422626734,-0.016066187992691994
17.15,-0.07053644210100174,0.123960480093956,-0.18360111117362976,0.05601847544312477,0.017923522740602493,-0.02604679949581623
17.2,0.005828205496072769,0.12395094335079193,-0.10832952708005905,0.032457102090120316,0.014077495783567429,-0.022901881486177444
17.25,-0.13285225629806519,0.1045989990234375,-0.013580582104623318,0.020531199872493744,0.012802746146917343,-0.011165046133100986
17.3,-0.019321292638778687,0.04549502953886986,-0.04099154844880104,0.007811928633600473,-0.011457234621047974,0.02392488718032837
17.35,-0.03373749926686287,0.06899737566709518,-0.002381198573857546,0.01396668329834938,-0.020907310768961906,0.015495860949158669
17.4,0.012459361925721169,0.09537791460752487,-0.005334544461220503,0.02539702132344246,-0.02738151140511036,0.00409206748008728
17.45,0.0638192892074585,0.08036135137081146,-0.04209332540631294,0.032488033175468445,-0.02959601767361164,0.0004265586903784424
17.5,0.37717360258102417,-0.019304292276501656,-0.046443015336990356,0.05521325021982193,0.01595613919198513,0.012703035958111286
17.55,0.94303297996521,-0.43070316314697266,0.0399380587041378,0.14096671342849731,0.28277891874313354,0.06918191909790039
17.6,1.0398515462875366,-0.5719614028930664,-0.03101428970694542,0.43217945098876953,0.8432993292808533,0.14630314707756042
17.65,0.38506585359573364,-0.2561817169189453,-0.1512315720319748,0.8139570951461792,1.427431583404541,0.14386549592018127
17.7,-0.8094265460968018,0.6051130294799805,-0.025028293952345848,0.953702449798584,1.5614932775497437,0.14957168698310852
17.75,-0.813229501247406,0.5520420074462891,0.005994018632918596,0.7146332859992981,1.2046266794204712,0.14014126360416412
17.8,-0.7703858613967896,0.5287065505981445,0.07888561487197876,0.4783139228820801,0.8198087215423584,0.1623603105545044
17.85,-0.4073900282382965,0.21368791162967682,0.2503588795661926,0.2849779725074768,0.4876604676246643,0.1624581664800644
17.9,-0.162927508354187,-0.01833818294107914,0.267141193151474,0.19111889600753784,0.27525168657302856,0.0930451974272728
17.95,-0.17896294593811035,0.10980702936649323,0.2965007424354553,0.17929738759994507,0.15079265832901,0.030566735193133354
18.0,0.015544384717941284,0.26877400279045105,0.2819664776325226,0.13929887115955353,0.04997912794351578,0.01971883326768875
18.05,-0.007720001041889191,0.07999706268310547,0.14324600994586945,0.045606665313243866,0.01116720400750637,0.019210241734981537
18.1,0.09419472515583038,0.020252222195267677,0.02584180049598217,0.010814912617206573,0.013794925063848495,0.01076036598533392
18.15,0.07430454343557358,0.0543212853372097,0.11665690690279007,-0.00020925747230648994,0.028944937512278557,0.009128046222031116
18.2,0.0014390982687473297,-0.0418548509478569,0.07362662255764008,-0.004621712490916252,0.022805383428931236,0.006524690892547369
18.25,-0.010649537667632103,-0.004267689771950245,0.04187208041548729,0.025322988629341125,-0.0014396058395504951,0.002384948544204235
18.3,0.09106805175542831,0.1190490648150444,0.007382590789347887,0.05506473034620285,-0.02112405374646187,0.00199177791364491
18.35,0.058935582637786865,0.07190894335508347,0.07356755435466766,0.046206340193748474,-0.022878289222717285,-0.013536055572330952
18.4,0.051167670637369156,0.19812773168087006,0.1265430599451065,0.053688354790210724,-0.04001308232545853,-0.0368240624666214
18.45,0.06256821006536484,0.026582716032862663,0.07473266124725342,0.02752688154578209,-0.05567797273397446,-0.028481803834438324
18.5,0.10057951509952545,0.027731891721487045,0.042642030864953995,0.03275686129927635,-0.0593104250729084,-0.028913965448737144
18.55,0.09199149906635284,0.23467253148555756,0.04441210627555847,0.04052222520112991,-0.031717561185359955,0.0019533671438694
18.6,0.023556886240839958,-0.05487823113799095,0.032457135617733,-0.00955260545015335,-0.008735276758670807,0.018145408481359482
18.65,0.11079809069633484,0.15811918675899506,0.02571035362780094,0.004614601843059063,-0.011230288073420525,-0.01993725821375847
18.7,0.0522720143198967,0.02074527181684971,-0.033148348331451416,-0.00357876718044281,0.006032225210219622,0.0065404861234128475
18.75,0.050077173858881,0.1412658542394638,-0.010879839770495892,0.01322078425437212,0.020040694624185562,0.009268922731280327
18.8,0.14613662660121918,0.04645823314785957,0.01265001017600298,-0.0001384839415550232,0.0262905340641737,0.017321670427918434
18.85,0.20261575281620026,0.189083069562912,-0.06527078151702881,-0.0065328506752848625,0.04115720093250275,0.015340256504714489
18.9,0.13390658795833588,0.2359924018383026,-0.15210701525211334,-0.04420560970902443,0.1387198120355606,0.03355271369218826
18.95,0.0466143935918808,0.2448873221874237,-0.1991528421640396,-0.09613235294818878,0.2532184422016144,0.039593301713466644
19.0,-0.20024724304676056,0.24869917333126068,-0.08782533556222916,-0.13885261118412018,0.32907596230506897,0.0670546442270279
19.05,-0.137370765209198,0.05678081884980202,0.011160198599100113,-0.18548671901226044,0.267792671918869,0.09849290549755096
19.1,-0.054902855306863785,-0.001781459548510611,0.03945473954081535,-0.21113118529319763,0.1762447953224182,0.06376885622739792
19.15,0.14708933234214783,0.02443026378750801,-0.05380258709192276,-0.1916445940732956,0.09801490604877472,0.06367803364992142
19.2,0.1896263062953949,0.008796680718660355,-0.0580955371260643,-0.18287771940231323,0.11489933729171753,0.06695466488599777
19.25,0.0673806220293045,0.05169295147061348,-0.07066216319799423,-0.1724371612071991,0.13297715783119202,0.06892836838960648
19.3,0.09635112434625626,0.07170675694942474,-0.10003133863210678,-0.1798357516527176,0.12776502966880798,0.04835887253284454
19.35,-0.004719684831798077,0.1667146533727646,-0.027438534423708916,-0.2064151167869568,0.13188999891281128,0.027711108326911926
19.4,-0.043663181364536285,0.013545991852879524,0.021538283675909042,-0.24385450780391693,0.09947595745325089,0.04186886548995972
19.45,0.08752766996622086,0.2422647327184677,-0.07977254688739777,-0.28517240285873413,0.059582918882369995,0.06621436029672623
19.5,0.00798639003187418,0.17279909551143646,-0.0070414310321211815,-0.36939895153045654,0.06040492281317711,0.11884475499391556
19.55,0.09184379875659943,-0.18694399297237396,0.015623245388269424,-0.37758147716522217,0.0087314173579216,0.13281917572021484
19.6,0.19141700863838196,-0.05948543921113014,0.03236480429768562,-0.3069089651107788,-0.0723002552986145,0.11902014166116714
19.65,0.1730380654335022,0.0513915941119194,0.07776382565498352,-0.2988778352737427,-0.11658751219511032,0.049804121255874634
19.7,0.04391830787062645,0.20772264897823334,0.052474260330200195,-0.3112031817436218,-0.16330860555171967,0.05900396779179573
19.75,-0.08166701346635818,0.16098879277706146,0.046361979097127914,-0.36424773931503296,-0.21142469346523285,0.08279284834861755
19.8,0.0891491025686264,-0.04408645257353783,0.11102721095085144,-0.36714303493499756,-0.26932647824287415,0.15249775350093842
19.85,0.1695937067270279,-0.22743414342403412,0.12844160199165344,-0.3224095404148102,-0.31803086400032043,0.1627095639705658
