Time [s],Acc_x [m/s^2],Acc_y [m/s^2],Acc_z [m/s^2],Gyro_x [1/s],Gyro_y [1/s],Gyro_z [1/s]
0.0,-0.7194799184799194,4.280921459197998,-1.8233639001846313,-2.572352886199951,1.6686798334121704,0.8704850673675537
0.05,-8.543757438659668,-1.179534673690796,-1.4645220041275024,-1.441902995109558,0.7367302179336548,1.128778338432312
0.1,-9.738988876342773,-3.473802089691162,-2.394418478012085,-0.7133209109306335,-0.15139394998550415,0.7526558041572571
0.15,-7.70199728012085,-3.1699531078338623,-1.7704378366470337,-0.2561282515525818,-0.47804754972457886,0.6465195417404175
0.2,-8.14937973022461,-3.7559549808502197,-0.4572034776210785,0.2472844421863556,-0.5866038203239441,0.7452372908592224
0.25,-7.4265947341918945,-4.210781574249268,1.6866968870162964,0.8619402050971985,-0.919654369354248,0.812175989151001
0.3,-6.742204666137695,-4.5685343742370605,3.0780251026153564,1.0617467164993286,-1.093063235282898,0.9915565848350525
0.35,-7.3431854248046875,-5.083690166473389,3.145972967147827,0.7059905529022217,-0.9898014068603516,1.1714626550674438
0.4,-10.228090286254883,-6.928020000457764,2.617414712905884,0.15333127975463867,-0.8813421726226807,1.250157117843628
0.45,-14.721053123474121,-9.209455490112305,4.607689380645752,-0.02430155873298645,-1.199669599533081,0.8873240351676941
0.5,-15.27911376953125,-7.499333381652832,2.952983856201172,-0.5156807899475098,-1.518968939781189,-0.24033497273921967
0.55,-13.536678314208984,-3.5411312580108643,-2.256232261657715,-0.33145710825920105,-1.207831621170044,-1.4343957901000977
0.6,-11.083638191223145,0.04928181320428848,-1.0651668310165405,1.1045781373977661,-1.4271717071533203,-2.1095073223114014
0.65,-8.834892272949219,2.5035922527313232,-1.954660177230835,1.4402241706848145,-1.0372464656829834,-2.286560297012329
0.7,-6.16037130355835,3.830653667449951,-1.286014199256897,1.7843596935272217,-0.5135725140571594,-2.500159502029419
0.75,-1.7335755825042725,2.8072686195373535,1.0140135288238525,2.3512914180755615,-0.6184950470924377,-2.7533986568450928
0.8,1.9634897708892822,-1.4503722190856934,3.0392024517059326,2.6226072311401367,-1.2663286924362183,-2.8588151931762695
0.85,3.122523069381714,-6.005464553833008,4.571231365203857,2.6512491703033447,-1.9459706544876099,-2.7415263652801514
0.9,1.1276432275772095,-8.505158424377441,5.445597171783447,2.246342182159424,-1.8974562883377075,-2.246269941329956
0.95,-2.8259153366088867,-9.898072242736816,4.841892719268799,1.6489813327789307,-1.416503667831421,-1.2661064863204956
1.0,-7.076933860778809,-6.323728084564209,2.091527223587036,0.9604936242103577,-1.1459534168243408,-0.11433159559965134
1.05,-8.1453857421875,-2.846548080444336,-2.2310969829559326,0.8216338753700256,-0.6846163868904114,0.337510347366333
1.1,-10.660319328308105,-3.739314317703247,-4.357588768005371,0.9626481533050537,-1.279517650604248,0.1698829084634781
1.15,-16.615055084228516,9.516263008117676,-4.461076259613037,0.9568691253662109,-0.7135566473007202,1.2930779457092285
1.2,-12.382448196411133,0.07055220752954483,13.362051010131836,0.6926521062850952,-1.0469850301742554,1.2921665906906128
1.25,-1.7630305290222168,1.3969839811325073,13.08191967010498,-0.18277862668037415,0.02504132315516472,0.9745838046073914
1.3,-2.0109283924102783,1.3586617708206177,7.563598155975342,-0.5752703547477722,0.259530246257782,1.0945905447006226
1.35,-3.4451398849487305,-0.696936309337616,3.3292455673217773,-0.8786909580230713,-0.20389005541801453,1.1497939825057983
1.4,-3.8727009296417236,-1.5927588939666748,1.4672937393188477,-0.9408658742904663,-0.5926250219345093,1.0845599174499512
1.45,-5.202254295349121,-2.643003463745117,1.6619476079940796,-0.8183014988899231,-0.9261505603790283,1.0513211488723755
1.5,-5.865102767944336,-3.485154390335083,0.96713787317276,-0.8096757531166077,-0.9983587861061096,1.010943055152893
1.55,-7.9503302574157715,-3.5024683475494385,-0.6495508551597595,-0.9636597037315369,-0.8846161961555481,1.0500223636627197
1.6,-8.483566284179688,-3.5656588077545166,-2.322643756866455,-1.1705036163330078,-0.9748075604438782,1.0179961919784546
1.65,-9.176704406738281,-0.8498855829238892,-3.215219736099243,-1.2274175882339478,-0.9387130737304688,0.7920377254486084
1.7,-12.16082763671875,-2.6380808353424072,-1.7261638641357422,-0.49043604731559753,-0.7199628949165344,0.10887173563241959
1.75,-12.247973442077637,0.2466563731431961,-1.8911755084991455,-0.12947185337543488,-0.0010905279777944088,-1.0510139465332031
1.8,-5.719751358032227,4.39274263381958,0.8943443894386292,0.21772150695323944,0.8120441436767578,-1.5827558040618896
1.85,-2.195338249206543,5.043606281280518,2.9223146438598633,1.3293132781982422,0.34207257628440857,-1.2918081283569336
1.9,-1.15648353099823,2.0848429203033447,4.135014533996582,2.4023070335388184,-0.514390766620636,-1.4628709554672241
1.95,-0.7878356575965881,-0.7569115161895752,5.416748523712158,2.6496307849884033,-0.7220667600631714,-1.3784815073013306
2.0,-1.778174638748169,-2.80853009223938,5.543977737426758,2.673888921737671,-0.7067841291427612,-1.1465870141983032
2.05,-2.857407331466675,-3.8296735286712646,4.55643367767334,2.5639638900756836,-0.5767834782600403,-1.010546088218689
2.1,-3.7989284992218018,-5.177588939666748,3.276428461074829,2.1575000286102295,-0.5604099631309509,-0.6127328276634216
2.15,-4.274868488311768,-6.584811210632324,1.9836082458496094,1.4865102767944336,-0.6214258670806885,-0.2656305134296417
2.2,-3.8464767932891846,-5.9816412925720215,0.9415956139564514,0.5764866471290588,-0.5128006339073181,0.18966685235500336
2.25,-2.849482774734497,-3.082789421081543,0.6477542519569397,-0.006371207535266876,-0.7505309581756592,0.43268829584121704
2.3,-4.546980857849121,3.0533363819122314,0.2885821759700775,0.04319792985916138,-1.146572232246399,0.09213849157094955
2.35,-7.415454864501953,3.7331910133361816,3.91428279876709,0.601643443107605,-1.4219353199005127,-0.004468801897019148
2.4,-6.387630462646484,-5.192902565002441,8.082334518432617,0.7412431240081787,-1.293200135231018,-0.21079012751579285
2.45,-2.4010839462280273,-0.5084324479103088,9.081984519958496,-0.966260552406311,0.0274899210780859,0.4361279606819153
2.5,-4.865378379821777,-0.08756397664546967,5.35601806640625,-1.4444360733032227,-0.4740769863128662,0.3847559988498688
2.55,-5.314911842346191,-1.9416166543960571,2.9944143295288086,-1.2420213222503662,-0.8094423413276672,0.15120059251785278
2.6,-4.376315593719482,-1.0605074167251587,2.7051854133605957,-1.4777402877807617,-0.5512211322784424,0.15507450699806213
2.65,-3.829456329345703,-0.7913128137588501,1.8910199403762817,-1.4942412376403809,-0.6131588816642761,-0.013235243037343025
2.7,-4.8026041984558105,-1.1519197225570679,0.377937376499176,-1.2787041664123535,-0.8417248129844666,-0.2306288480758667
2.75,-5.097640514373779,-1.3692229986190796,-0.7101329565048218,-1.3851436376571655,-0.5945077538490295,-0.2817523777484894
2.8,-4.002651691436768,-1.018470287322998,-0.9182904958724976,-1.7402942180633545,-0.1356126368045807,-0.2959817349910736
2.85,-3.381373643875122,-0.5344433784484863,-1.7465198040008545,-1.64967679977417,-0.1381986141204834,-0.3993517756462097
2.9,-3.5679359436035156,-0.488822340965271,-3.9873132705688477,-1.105445146560669,-0.5803435444831848,-0.5055090188980103
2.95,-4.625733375549316,2.057121515274048,-8.671631813049316,-0.36930012702941895,-0.7736635804176331,-0.51125168800354
3.0,-9.333077430725098,3.173135995864868,-7.08577299118042,1.247991919517517,-0.6992049217224121,-0.4207965135574341
3.05,-9.974812507629395,3.635417938232422,2.6710901260375977,2.0646514892578125,0.3130958676338196,-0.6111889481544495
3.1,-3.8267698287963867,4.923622131347656,7.457009315490723,1.5803191661834717,1.1759655475616455,-0.2756260633468628
3.15,-1.2687797546386719,2.6332876682281494,6.194955348968506,2.099910020828247,0.6026367545127869,-0.08667972683906555
3.2,-2.241473913192749,-1.4182825088500977,5.996711730957031,2.577650547027588,-0.16947147250175476,-0.03022119030356407
3.25,-3.197754383087158,-4.726380348205566,5.1520915031433105,2.432817220687866,-0.501839816570282,-0.17005981504917145
3.3,-3.9137840270996094,-6.859675884246826,3.8818552494049072,2.013312578201294,-0.5148587226867676,-0.383675217628479
3.35,-3.6825239658355713,-7.786599636077881,3.6379685401916504,1.4425934553146362,-0.28187990188598633,-0.361701637506485
3.4,-3.777820110321045,-8.15796184539795,3.2679483890533447,0.620699942111969,-0.30117496848106384,-0.3073790669441223
3.45,-3.668032646179199,-5.461021423339844,2.145496129989624,-0.3512876331806183,-0.32861438393592834,-0.3054838478565216
3.5,-3.264666795730591,0.7073255181312561,-0.6241058111190796,-0.6529950499534607,-0.7188339829444885,-0.5755701065063477
3.55,-3.706447124481201,1.3020837306976318,-2.6798489093780518,-0.6109386086463928,-0.5850643515586853,-0.14208757877349854
3.6,-3.7954463958740234,-0.6355223655700684,-0.38966646790504456,-0.904996395111084,0.4694007933139801,0.7251515984535217
3.65,-3.5823278427124023,4.654633522033691,4.017873287200928,-1.1006181240081787,0.8789594173431396,1.3469561338424683
3.7,-11.81286334991455,-1.5395599603652954,3.1604056358337402,-0.2798536419868469,-0.9569665193557739,0.9082276821136475
3.75,-6.949686527252197,-2.606266498565674,5.612834930419922,-0.4772350788116455,-0.2875886857509613,0.47649940848350525
3.8,-4.101659297943115,-0.5106245875358582,6.0050764083862305,-0.6642851233482361,-0.13908956944942474,0.09560396522283554
3.85,-4.7809271812438965,-0.42945531010627747,5.0067291259765625,-0.620929479598999,-0.2599629759788513,0.03581256419420242
3.9,-3.4617927074432373,-0.48918887972831726,4.456539630889893,-0.9657988548278809,-0.04437348619103432,-0.16212505102157593
3.95,-3.514664649963379,-1.3762738704681396,2.4458773136138916,-1.0973438024520874,-0.24408277869224548,-0.4382028579711914
4.0,-3.104738473892212,-2.1318366527557373,0.9762669205665588,-1.0795023441314697,-0.2797575294971466,-0.5082045197486877
4.05,-2.225831985473633,-1.720057487487793,0.6104804277420044,-1.1151365041732788,-0.11715788394212723,-0.47426626086235046
4.1,-1.6940109729766846,-0.19094441831111908,-1.0079206228256226,-1.0357807874679565,-0.24608370661735535,-0.429134339094162
4.15,-1.6946830749511719,0.1740649789571762,-2.3853416442871094,-0.6493896842002869,-0.6662302613258362,-0.3902629315853119
4.2,-1.9263514280319214,-0.11045616865158081,-0.8505439758300781,-0.5057998299598694,-0.54741370677948,-0.35723355412483215
4.25,-2.536670207977295,-0.5089794993400574,0.3341483175754547,-0.6420040726661682,-0.24669529497623444,-0.4099864065647125
4.3,-1.5412395000457764,0.10365034639835358,-0.3846166431903839,-0.6963211297988892,-0.2615145146846771,-0.6151159405708313
4.35,-0.1434246301651001,2.3860926628112793,-4.747494220733643,-0.2880209684371948,-0.7005463242530823,-0.5635263919830322
4.4,1.4089566469192505,4.807155132293701,-9.852280616760254,0.8307785987854004,-1.2928673028945923,-0.2608908414840698
4.45,0.6747518181800842,7.030979156494141,-0.3295721709728241,2.242905855178833,-0.8516425490379333,0.20794276893138885
4.5,-3.3331716060638428,4.329043865203857,8.67763614654541,2.353196859359741,-1.222702145576477,1.0314161777496338
4.55,-4.84169864654541,1.617174744606018,8.966425895690918,2.442871570587158,-2.039616346359253,1.4832669496536255
4.6,-6.16956901550293,-1.610507607460022,7.515501022338867,2.546473979949951,-2.3362388610839844,1.5840152502059937
4.65,-6.364821434020996,-4.99874210357666,6.892826557159424,2.025193214416504,-2.2544898986816406,1.642936110496521
4.7,-7.405013561248779,-7.314406871795654,5.1589531898498535,1.6431995630264282,-2.4808850288391113,1.412979006767273
4.75,-7.7985453605651855,-8.556571006774902,1.8309935331344604,1.5659337043762207,-2.6167428493499756,0.927033007144928
4.8,-6.956454753875732,-8.648258209228516,-1.4538534879684448,1.517777442932129,-2.4557790756225586,0.5066525936126709
4.85,-5.276074409484863,-6.616537094116211,-4.057589530944824,1.3124091625213623,-2.1797969341278076,-0.06666460633277893
4.9,-2.2285594940185547,-0.5815912485122681,-3.1198954582214355,1.5569826364517212,-2.07544207572937,-0.5306130051612854
4.95,-1.1234710216522217,9.596967697143555,2.0099472999572754,1.6243571043014526,-2.242314100265503,-0.4654187262058258
5.0,0.5448946952819824,4.687319278717041,-6.234391689300537,-0.12539401650428772,-1.5635459423065186,0.6155247688293457
5.05,-3.0714004039764404,-4.501883506774902,-7.614713668823242,-1.0141358375549316,-0.147765651345253,0.5504338145256042
5.1,-8.903310775756836,-1.0605885982513428,-1.1434133052825928,-0.7448252439498901,-0.05217422917485237,0.7879835963249207
5.15,-4.125962734222412,-0.5673965811729431,0.20837631821632385,-0.19247838854789734,-0.27854862809181213,0.7956680655479431
5.2,-2.4398343563079834,-2.0896873474121094,3.0486762523651123,-0.3967263698577881,0.1300692856311798,0.5496978163719177
5.25,-3.7702999114990234,-1.5891273021697998,3.0132038593292236,-0.3134210705757141,-0.017606159672141075,0.5013404488563538
5.3,-3.5764522552490234,-0.8098112344741821,0.5689506530761719,-0.2554030120372772,-0.1345774531364441,0.5727421641349792
5.35,-3.5362391471862793,-0.7430930733680725,0.8814921975135803,-0.4006751477718353,0.06532634794712067,0.6064749956130981
5.4,-3.9774272441864014,-0.6491389870643616,2.6795053482055664,-0.41901344060897827,0.11969711631536484,0.5674629807472229
5.45,-4.315376281738281,-0.33091115951538086,3.068706512451172,-0.3419678211212158,-0.07032522559165955,0.4151640832424164
5.5,-4.782101154327393,0.033342014998197556,2.2578558921813965,-0.19660355150699615,-0.288483202457428,0.12676683068275452
5.55,-4.634802341461182,0.03750481456518173,1.4165388345718384,-0.08419850468635559,-0.352108895778656,-0.1442323625087738
5.6,-4.165729522705078,-0.1570248007774353,1.1938302516937256,0.015192940831184387,-0.31654927134513855,-0.3155546486377716
5.65,-3.6430158615112305,-0.3277001678943634,0.9330689311027527,0.13687965273857117,-0.32407328486442566,-0.4070587456226349
5.7,-2.8808043003082275,-0.576027512550354,0.47556617856025696,0.29033350944519043,-0.40992337465286255,-0.42932385206222534
5.75,-2.6004467010498047,-0.6270119547843933,0.026051368564367294,0.3726804852485657,-0.4631056487560272,-0.4091451168060303
5.8,-2.0684971809387207,-0.30763787031173706,-0.7514957785606384,0.4119693636894226,-0.4370822608470917,-0.4327594041824341
5.85,-1.835208773612976,-0.15163679420948029,-1.048166036605835,0.3329467177391052,-0.2678121328353882,-0.4845910370349884
5.9,-2.3168725967407227,-0.2141214907169342,-0.7224879264831543,0.2418004274368286,0.01851288229227066,-0.5641430020332336
5.95,-2.5126662254333496,-0.1612936407327652,0.06615141779184341,0.18112064898014069,0.2399643212556839,-0.634600818157196
6.0,-2.3128976821899414,0.09110863506793976,0.7649549245834351,0.1623341292142868,0.29749056696891785,-0.6615723371505737
6.05,-1.5190160274505615,0.3097068965435028,0.9668759703636169,0.20335093140602112,0.23162762820720673,-0.6047340035438538
6.1,-1.5079150199890137,0.30133551359176636,1.7568613290786743,0.30806365609169006,-0.025695156306028366,-0.40755629539489746
6.15,-1.8171629905700684,-1.0391539335250854,1.6187591552734375,0.5763814449310303,-0.679997980594635,-0.20511877536773682
6.2,-3.5567831993103027,-3.0284276008605957,-1.1536709070205688,1.0848942995071411,-1.43367600440979,-0.3836316764354706
6.25,-4.551528453826904,-4.453124523162842,-4.239771842956543,1.5482988357543945,-1.8126013278961182,-0.839166522026062
6.3,-4.56103515625,-1.4302256107330322,-5.02109432220459,1.5075095891952515,-1.3450868129730225,-1.483278751373291
6.35,-1.782583236694336,5.495573997497559,-0.4428173899650574,0.9508741497993469,-1.2154868841171265,-1.378921389579773
6.4,0.12085944414138794,1.1506434679031372,-0.6361530423164368,0.24393419921398163,-0.7749466896057129,-0.9055951833724976
6.45,-4.348658561706543,-0.7195382118225098,1.6388903856277466,0.2789057195186615,-0.21819134056568146,-0.5199838280677795
6.5,-3.7571449279785156,0.2271895706653595,1.8223378658294678,0.5926065444946289,-0.9143878817558289,-0.37919050455093384
6.55,-1.7042746543884277,-0.3136184513568878,0.322383850812912,0.6769362688064575,-1.2907459735870361,-0.2795599102973938
6.6,-1.7834798097610474,-0.5698040127754211,0.9118304252624512,0.7919636368751526,-0.96216881275177,-0.2151501476764679
6.65,-2.3579065799713135,-0.6051127910614014,1.39557683467865,0.8350610136985779,-0.901778519153595,-0.08883264660835266
6.7,-2.4215331077575684,-0.5381143093109131,1.2307552099227905,0.8293928503990173,-1.037104845046997,0.032623615115880966
6.75,-2.8901355266571045,-0.6879259943962097,0.9998873472213745,0.8839865922927856,-0.9958053827285767,0.1275644749403
6.8,-3.13161563873291,-0.6796489953994751,0.7765397429466248,0.9377617835998535,-1.0167572498321533,0.2648414969444275
6.85,-2.4727389812469482,-0.13999906182289124,0.45134636759757996,0.800165057182312,-1.1243960857391357,0.4536117911338806
6.9,-0.15709516406059265,0.8761255145072937,-0.4885670244693756,0.43610212206840515,-0.9040069580078125,0.5478670597076416
6.95,-0.6605791449546814,0.7886526584625244,-0.9613552689552307,0.03793291747570038,-0.08867998421192169,0.6825147867202759
7.0,-2.936457633972168,-0.05354265868663788,-0.45620498061180115,-0.10496076196432114,0.5433303713798523,0.762499988079071
7.05,-2.394129991531372,0.34408894181251526,0.034787826240062714,-0.055830568075180054,0.06951744854450226,0.6052111983299255
7.1,-1.3081657886505127,0.38411447405815125,0.8391073942184448,0.002571284770965576,-0.2995583713054657,0.4770399034023285
7.15,-1.8295389413833618,-0.8785542845726013,2.414382219314575,0.07630996406078339,-0.2832849323749542,0.5503219962120056
7.2,-2.72156023979187,-0.9603527784347534,4.802809715270996,0.17068850994110107,-0.44433555006980896,0.5735514760017395
7.25,-3.8132681846618652,-0.3679863512516022,4.7540507316589355,-0.12452170252799988,-0.8531731963157654,0.3116963803768158
7.3,-5.610973834991455,-0.28568002581596375,1.0575162172317505,-0.2857198417186737,-0.7432723045349121,-0.21400733292102814
7.35,-5.126497268676758,-0.1295892596244812,-1.3190207481384277,0.015380173921585083,-0.9240996837615967,-0.7608773708343506
7.4,-3.8287813663482666,0.920480489730835,-1.896588683128357,0.15811391174793243,-1.6089979410171509,-1.1742275953292847
7.45,-2.2962074279785156,1.707146406173706,-2.2923943996429443,-0.12184247374534607,-2.135270357131958,-1.4425054788589478
7.5,0.051743388175964355,2.225083589553833,-2.0980491638183594,-0.42916128039360046,-2.300886392593384,-1.5093475580215454
7.55,2.1037607192993164,1.4123228788375854,-0.5808244943618774,-0.6852326393127441,-2.1592204570770264,-1.3884028196334839
7.6,2.228789806365967,-0.08691921830177307,1.5426567792892456,-0.9464382529258728,-1.6317687034606934,-1.2041131258010864
7.65,1.235687494277954,-1.4782050848007202,1.6416245698928833,-0.9305983781814575,-0.8095346093177795,-1.1087177991867065
7.7,1.1551533937454224,-2.866084098815918,0.4110035300254822,-0.6555780172348022,-0.31617820262908936,-0.965487539768219
7.75,0.9692304134368896,-3.957470655441284,-0.5292288661003113,-0.42735806107521057,0.07920195907354355,-0.6622251868247986
7.8,-0.3877265453338623,-4.662380695343018,-2.261611223220825,-0.05436592549085617,0.8122027516365051,-0.4870412349700928
7.85,-1.607316493988037,-4.69984769821167,-3.248675584793091,0.923927903175354,2.1357955932617188,-0.330493688583374
7.9,-1.8147919178009033,1.2657626867294312,-0.5953955054283142,1.5372580289840698,1.5466177463531494,0.7261224985122681
7.95,-2.152695655822754,5.342477321624756,5.897624492645264,1.8569526672363281,-0.6893744468688965,1.3318921327590942
8.0,-0.9489954710006714,4.434437274932861,9.084856033325195,1.5480667352676392,0.8974974751472473,0.6918391585350037
8.05,-2.501739025115967,-1.114471197128296,0.9997051358222961,0.655384361743927,0.9926738142967224,0.33366942405700684
8.1,-0.9572927951812744,-1.1827439069747925,-1.3695513010025024,0.5464382767677307,0.32351112365722656,0.3669614791870117
8.15,-0.9220278263092041,0.7325612902641296,-0.15727131068706512,0.4893091022968292,0.09347859025001526,0.3895178437232971
8.2,-3.5266318321228027,0.8506304621696472,-0.3740977644920349,0.3309497535228729,0.28470778465270996,0.44465985894203186
8.25,-2.8311336040496826,-0.002715636044740677,-0.5452728867530823,0.19039998948574066,0.28189557790756226,0.27401986718177795
8.3,-1.8744118213653564,-0.36105895042419434,0.263746976852417,0.13429449498653412,0.47119054198265076,0.16821660101413727
8.35,-2.1715049743652344,-0.4878518581390381,0.6180961728096008,0.10274259746074677,0.6017542481422424,0.13190875947475433
8.4,-2.2646427154541016,-0.5059249401092529,-0.022527769207954407,0.04100634902715683,0.2905932366847992,0.06448739767074585
8.45,-1.9539706707000732,-0.08241529762744904,-0.33466383814811707,0.07439322769641876,-0.04072773456573486,0.04987998679280281
8.5,-1.8050754070281982,0.04417446628212929,-0.1651500165462494,0.15891945362091064,-0.09306029230356216,0.12677514553070068
8.55,-2.3982348442077637,-0.32567375898361206,0.34873104095458984,0.24034203588962555,-0.13484683632850647,0.21738393604755402
8.6,-2.8798465728759766,-0.4276358187198639,0.9539701342582703,0.2625579833984375,-0.28005561232566833,0.23581893742084503
8.65,-2.580077648162842,-0.3973814845085144,0.6702827215194702,0.259367972612381,-0.33385396003723145,0.24963630735874176
8.7,-2.6434836387634277,-0.20568908751010895,0.33152642846107483,0.31427785754203796,-0.3100864589214325,0.3187873363494873
8.75,-2.9828906059265137,-0.29170283675193787,0.33680084347724915,0.32222166657447815,-0.45127129554748535,0.3267393410205841
8.8,-2.989449977874756,-0.42936956882476807,0.5398175120353699,0.2933434545993805,-0.584443211555481,0.316651850938797
8.85,-2.6529061794281006,-0.5693737864494324,1.3951324224472046,0.2177290916442871,-0.6515457630157471,0.3170522451400757
8.9,-3.0825252532958984,0.0032047464046627283,1.168712854385376,0.04966834932565689,-0.38369208574295044,0.3612437844276428
8.95,-3.247826099395752,0.3405899703502655,1.0693027973175049,-0.09795157611370087,-0.494131863117218,0.24376028776168823
9.0,-3.4113311767578125,0.6119475364685059,1.81918466091156,-0.2260151207447052,-0.8341932892799377,0.12182695418596268
9.05,-3.8781943321228027,0.9160037636756897,3.2977240085601807,-0.48409631848335266,-1.105363130569458,0.03064994513988495
9.1,-5.544106960296631,1.2812107801437378,2.9866764545440674,-0.8492130041122437,-1.4755892753601074,-0.31568941473960876
9.15,-7.1102423667907715,1.0733864307403564,-1.1801973581314087,-1.0481358766555786,-1.0778937339782715,-0.801970899105072
9.2,-4.497855186462402,0.5512884855270386,-3.479668617248535,-0.7274155616760254,-1.7546395063400269,-1.2833061218261719
9.25,-1.490017294883728,1.3934807777404785,-3.4807803630828857,-0.5242503881454468,-2.4007813930511475,-1.328039288520813
9.3,0.2570430040359497,1.1953537464141846,-2.9966208934783936,-0.41430628299713135,-2.5022976398468018,-1.3272050619125366
9.35,1.4459037780761719,0.013594499789178371,-2.0885090827941895,-0.30000993609428406,-2.1576199531555176,-1.5535937547683716
9.4,2.444147825241089,-1.4631952047348022,-1.549967885017395,-0.12404483556747437,-1.637477993965149,-1.6437366008758545
9.45,3.5738701820373535,-3.7799859046936035,-0.26668474078178406,-0.1406160295009613,-1.642117977142334,-1.4353461265563965
9.5,4.376670837402344,-6.745083808898926,0.8572898507118225,-0.19514895975589752,-1.3399633169174194,-0.9935137033462524
9.55,3.118237257003784,-6.2515082359313965,0.5808808207511902,0.3574444651603699,-0.28737857937812805,-0.10668239742517471
9.6,-24.349193572998047,24.202136993408203,-1.3168566226959229,0.7099119424819946,-0.3298880159854889,0.42339813709259033
9.65,-11.443650245666504,9.083122253417969,-0.311133474111557,0.44810953736305237,-0.3728485405445099,0.11391251534223557
9.7,-0.33203327655792236,3.1158130168914795,-4.287441730499268,0.7343822717666626,0.956866979598999,0.7315678000450134
9.75,-2.7930684089660645,3.454357147216797,-0.8308268189430237,0.5129528045654297,-0.30340808629989624,1.048736810684204
9.8,-1.8057407140731812,-0.2528303563594818,2.166800022125244,0.36629968881607056,-0.9061758518218994,0.7497367262840271
9.85,-1.4133586883544922,0.03421616926789284,-0.9391789436340332,0.32806822657585144,-0.12637849152088165,0.7625920176506042
9.9,-1.4920949935913086,0.15937642753124237,-1.329481840133667,0.2186945676803589,-0.1576363444328308,0.8275663256645203
9.95,-1.6574442386627197,0.03163548558950424,1.0653244256973267,0.204693004488945,-0.5616021156311035,0.8045851588249207
10.0,-2.0810539722442627,-0.42217522859573364,1.379857063293457,0.10980415344238281,-0.4787587523460388,0.8068135380744934
10.05,-2.416175127029419,-0.4463478922843933,0.07828342169523239,0.04869361221790314,-0.1769549697637558,0.8134905099868774
10.1,-2.6066789627075195,-0.33222734928131104,-0.33590391278266907,0.03321310877799988,-0.1103956550359726,0.7543509006500244
10.15,-2.625441312789917,-0.4884115755558014,-0.23447369039058685,-0.01995822787284851,-0.19202537834644318,0.6858908534049988
10.2,-2.943340301513672,-0.6795049905776978,-0.2389603704214096,-0.055585913360118866,-0.2659110724925995,0.6313027143478394
10.25,-3.5865702629089355,-0.9640498757362366,-0.16037866473197937,-0.0956280380487442,-0.31186652183532715,0.5897932648658752
10.3,-3.0792465209960938,-0.913185715675354,-0.24506451189517975,-0.1778353601694107,-0.2681945860385895,0.5761699080467224
10.35,-1.527434229850769,-0.24468591809272766,-0.5866180062294006,-0.23351448774337769,-0.15897326171398163,0.5799713730812073
10.4,-1.3088792562484741,0.25952932238578796,0.03866157680749893,-0.2372530847787857,-0.16550001502037048,0.627103328704834
10.45,-2.8604602813720703,0.26411959528923035,-0.21954213082790375,-0.435951828956604,0.19109128415584564,0.7060449123382568
10.5,-5.073420524597168,0.42236408591270447,-0.49970489740371704,-0.7114028334617615,0.5269677042961121,0.5743142366409302
10.55,-7.934340000152588,0.48956990242004395,0.6609372496604919,-0.6457272171974182,0.14023061096668243,0.11294370144605637
10.6,-8.780241966247559,0.4120296835899353,-0.9281883835792542,-0.6357867121696472,-0.1698537915945053,-0.6114696860313416
10.65,-5.503197193145752,2.6183922290802,-4.040812015533447,-0.39760640263557434,-0.6352670788764954,-1.3425657749176025
10.7,-1.3622069358825684,3.6726491451263428,-2.7361018657684326,0.4506639838218689,-1.5491443872451782,-1.5627638101577759
10.75,0.26778459548950195,2.2953217029571533,0.5578704476356506,0.9475388526916504,-1.707446575164795,-1.619886875152588
10.8,0.6859549283981323,1.2816143035888672,1.3416907787322998,1.0860214233398438,-1.167701005935669,-1.553146481513977
10.85,0.8361042737960815,0.271170437335968,2.3854899406433105,1.247318983078003,-0.8607490658760071,-1.522370457649231
10.9,0.9085766077041626,-1.927201271057129,3.6381402015686035,1.093109369277954,-0.7007592916488647,-1.504968523979187
10.95,0.8209547996520996,-4.061399936676025,3.9294626712799072,0.6624815464019775,-0.520134687423706,-1.3994513750076294
11.0,0.7078887820243835,-4.830615520477295,3.8485443592071533,0.2553984224796295,-0.24039529263973236,-1.2449226379394531
11.05,0.35756605863571167,-5.3966593742370605,3.0206501483917236,0.0739448070526123,0.341445654630661,-0.8721053004264832
11.1,-0.8893412351608276,-5.197375297546387,1.9137349128723145,0.007368776947259903,0.8614077568054199,-0.17510667443275452
11.15,-1.8643252849578857,-3.0234458446502686,-0.46224310994148254,0.161579892039299,1.3468204736709595,0.429251104593277
11.2,-3.5852811336517334,-0.6297315955162048,-1.9422788619995117,0.14398089051246643,1.0312663316726685,0.13315090537071228
11.25,-4.4687180519104,-0.7522205114364624,-1.7111546993255615,-0.1992764174938202,0.47153240442276,0.03395457565784454
11.3,-3.9648141860961914,-0.9611124992370605,-0.10995998233556747,-0.5192010998725891,-0.15379543602466583,0.12816593050956726
11.35,-1.062401533126831,-4.149347305297852,2.7144341468811035,-0.3407975435256958,-0.19360333681106567,0.03605293482542038
11.4,-9.90883731842041,13.103495597839355,-10.638815879821777,1.044987678527832,0.6900239586830139,1.0187253952026367
11.45,3.892144203186035,8.425827980041504,1.8368052244186401,0.7426666021347046,-1.37790846824646,0.14211894571781158
11.5,11.634204864501953,8.410959243774414,0.8831885457038879,0.34064981341362,0.24281193315982819,0.6033346652984619
11.55,4.439600467681885,7.819373607635498,-3.654296875,0.28506264090538025,0.7897796034812927,1.2517597675323486
11.6,0.6046997904777527,1.8994524478912354,-0.8138138651847839,0.1198095977306366,0.04341026395559311,1.3755749464035034
11.65,-1.8778434991836548,0.39693766832351685,0.5902801156044006,-0.10431456565856934,0.10278916358947754,1.4575916528701782
11.7,-2.86592173576355,-0.5534358620643616,-1.5595747232437134,-0.24600458145141602,0.5899341106414795,1.366802453994751
11.75,-2.3423972129821777,-0.8328415751457214,-2.3466379642486572,-0.3488291800022125,1.224204421043396,1.2974551916122437
11.8,-2.915761709213257,-1.3755813837051392,-1.2845098972320557,-0.30812516808509827,1.040922999382019,1.2565072774887085
11.85,-4.468038558959961,-0.9179443717002869,-0.055073756724596024,-0.192123681306839,0.5124292373657227,1.4514394998550415
11.9,-5.783308029174805,-0.48578283190727234,1.1578320264816284,-0.07676118612289429,0.16702331602573395,1.3532440662384033
11.95,-9.456474304199219,0.47310587763786316,0.4766157269477844,-0.0727759301662445,0.052501507103443146,0.8358970880508423
12.0,-13.848098754882812,0.8994455337524414,5.760812759399414,-0.16360771656036377,-1.0110327005386353,-0.5861294865608215
12.05,-7.446573257446289,4.161806583404541,5.856396675109863,-1.1393463611602783,-0.47980013489723206,-2.06488037109375
12.1,0.2542324662208557,5.295582294464111,-2.8769161701202393,-1.0396287441253662,1.9159499406814575,-2.324925422668457
12.15,1.6921634674072266,3.8449387550354004,-4.7325215339660645,-0.30904585123062134,0.8700475692749023,-2.7423977851867676
12.2,3.51698637008667,1.170296311378479,-2.1538197994232178,-0.3293219804763794,-1.1957957744598389,-2.9203579425811768
12.25,4.522483825683594,-2.67366361618042,-1.2661378383636475,-0.37146449089050293,-1.5801037549972534,-2.747210741043091
12.3,4.082058429718018,-6.111237049102783,1.1369420289993286,-0.8759239912033081,-1.9001389741897583,-2.2202565670013428
12.35,2.4369008541107178,-6.468245983123779,2.9379491806030273,-1.1702125072479248,-1.5644714832305908,-1.4880863428115845
12.4,0.3169153034687042,-5.233735084533691,1.9330427646636963,-0.744721531867981,-0.7088668942451477,-0.9972551465034485
12.45,-2.749539375305176,-2.211204767227173,0.6447842717170715,-0.3100295960903168,-0.2561832368373871,-0.489470511674881
12.5,-6.560478687286377,4.077596187591553,-1.156733512878418,-0.2655527889728546,-0.3322288691997528,-0.173879012465477
12.55,-2.393871545791626,2.8444342613220215,-0.05330013483762741,-0.4351249933242798,-0.9967758059501648,-0.2842237055301666
12.6,0.603681206703186,-2.495607852935791,1.94159996509552,0.005324454978108406,-0.7897415161132812,-0.11691762506961823
12.65,1.165210485458374,-2.9637045860290527,-0.1154809221625328,1.0582880973815918,0.7903944849967957,0.18563535809516907
12.7,1.743969202041626,0.757916271686554,0.6427035331726074,1.0057411193847656,1.5705698728561401,0.7283132672309875
12.75,1.6454007625579834,1.117252230644226,0.4057413339614868,0.5476059317588806,1.6308410167694092,1.2212733030319214
12.8,0.15052713453769684,0.036575350910425186,-1.3736735582351685,0.3781503438949585,1.5796258449554443,1.3675000667572021
12.85,-1.1647107601165771,0.38589605689048767,-2.8709073066711426,0.396634578704834,1.4502394199371338,1.4048607349395752
12.9,-2.216057538986206,0.5013861656188965,-3.369225025177002,0.3561440706253052,1.0028668642044067,1.3577814102172852
12.95,-2.1081061363220215,-0.6198031306266785,-0.6856672763824463,0.281652569770813,0.28145089745521545,1.2162420749664307
13.0,-1.4171044826507568,-0.46786201000213623,0.7219133973121643,0.2650817036628723,-0.04598190262913704,1.2005943059921265
13.05,-1.719880223274231,-0.03248286247253418,0.17262080311775208,0.22808367013931274,-0.10778201371431351,1.2133781909942627
13.1,-1.9247820377349854,-0.21066352725028992,-0.4376333951950073,0.14019101858139038,-0.19067387282848358,1.1123865842819214
13.15,-1.7151157855987549,-0.03698227182030678,-0.5170626044273376,0.07851780951023102,-0.32160893082618713,0.9679135680198669
13.2,-1.6380747556686401,0.23819948732852936,0.25064632296562195,0.0293901264667511,-0.4138404130935669,0.8995571136474609
13.25,-2.085033416748047,0.07544929534196854,0.0965813547372818,-0.009471863508224487,-0.2509138584136963,0.9213896989822388
13.3,-2.6592941284179688,-0.34111273288726807,-0.4714026153087616,-0.06035152077674866,-0.17756912112236023,0.8907765746116638
13.35,-2.746798038482666,-0.43664419651031494,-0.35869914293289185,-0.13759933412075043,-0.25284337997436523,0.8056817650794983
13.4,-2.838710308074951,-0.4259744882583618,-0.49803152680397034,-0.2057257890701294,-0.22642269730567932,0.7920669317245483
13.45,-2.815943479537964,-0.5173240900039673,-0.8717960715293884,-0.2606247365474701,-0.320183128118515,0.7751733064651489
13.5,-2.190232753753662,-0.3428627550601959,-1.1161866188049316,-0.33101826906204224,-0.46161043643951416,0.7183980941772461
13.55,-1.752530574798584,-0.1651751548051834,-1.0655301809310913,-0.43475696444511414,-0.5281474590301514,0.6874852776527405
13.6,-2.3324666023254395,0.5764622092247009,-0.5091906189918518,-0.5509231090545654,-0.5568518042564392,0.6320233345031738
13.65,-4.889690399169922,0.3879879117012024,-0.35712140798568726,-0.5834689736366272,-0.4973280429840088,0.3679516017436981
13.7,-9.025836944580078,0.5183721780776978,-4.261592864990234,-0.6406689286231995,-0.3071228861808777,-0.09369942545890808
13.75,-8.428658485412598,1.8380430936813354,-7.663869857788086,-0.17523004114627838,-0.5454633235931396,-0.762479841709137
13.8,-1.0141279697418213,3.9613332748413086,-5.6944050788879395,1.0766079425811768,-1.9027162790298462,-1.1766828298568726
13.85,2.7451045513153076,2.2605273723602295,0.9855530858039856,1.9532583951950073,-3.0944511890411377,-1.1932106018066406
13.9,2.0448055267333984,0.22651439905166626,3.9018664360046387,1.9226723909378052,-2.7210330963134766,-1.230308175086975
13.95,2.5218586921691895,-1.5016810894012451,4.085031032562256,1.7364234924316406,-1.4548779726028442,-1.1029722690582275
14.0,3.520463466644287,-3.5636980533599854,4.57510232925415,1.4655553102493286,-0.5798061490058899,-0.700202465057373
14.05,2.6607842445373535,-5.989710807800293,7.428439617156982,0.8393135666847229,-0.6699713468551636,-0.47840043902397156
14.1,0.22151124477386475,-3.9319827556610107,5.258464813232422,0.050397515296936035,-0.20959649980068207,0.3980881869792938
14.15,-12.664246559143066,9.00979995727539,-14.178048133850098,-0.12213803827762604,0.02183043770492077,0.685926616191864
14.2,-7.699618816375732,6.775062084197998,-11.25529956817627,-0.1264767348766327,0.166251078248024,0.8955821394920349
14.25,-1.3772432804107666,1.6509376764297485,-2.8904201984405518,-0.23799839615821838,-0.5581327676773071,0.6562331914901733
14.3,-3.791274070739746,0.9140974879264832,-0.2589437663555145,-0.25398433208465576,-1.234928846359253,0.4478534162044525
14.35,-1.081424355506897,0.17044083774089813,0.025183703750371933,-0.6357325315475464,-0.3311035633087158,0.6048679947853088
14.4,-0.21367579698562622,-0.35600563883781433,-1.0054584741592407,-0.8508601784706116,0.050620581954717636,0.559747040271759
14.45,-2.4777414798736572,-0.8438870310783386,-1.1698342561721802,-0.6971027255058289,-0.5085330009460449,0.37213441729545593
14.5,-4.005124092102051,-1.1310696601867676,-2.0371291637420654,-0.683390736579895,-0.648252010345459,0.3890555500984192
14.55,-3.239751100540161,-1.1812635660171509,-1.730197787284851,-0.7582538723945618,-0.1782309114933014,0.4204716384410858
14.6,-1.6251128911972046,0.3714717924594879,-3.3373818397521973,-0.8541760444641113,0.33314940333366394,0.2437303066253662
14.65,-5.345884799957275,0.9428701400756836,-2.3681910037994385,-0.4258127212524414,0.16290345788002014,-0.11326484382152557
14.7,-8.540740013122559,2.144090414047241,-4.6537322998046875,0.24520501494407654,0.41938406229019165,-0.7409727573394775
14.75,-5.715513229370117,5.597167491912842,-2.27986216545105,0.9115571975708008,1.1130661964416504,-1.5339840650558472
14.8,-0.7705743312835693,6.642904281616211,1.6551463603973389,1.6350966691970825,0.6587873101234436,-1.6250355243682861
14.85,0.857869029045105,3.627612352371216,3.464043378829956,2.0996766090393066,-0.3025195300579071,-1.6077091693878174
14.9,0.19292616844177246,0.32316285371780396,4.612421989440918,2.0320417881011963,-0.3878350555896759,-1.6030908823013306
14.95,0.21576714515686035,-1.8035902976989746,4.765984535217285,1.8517879247665405,0.2597529888153076,-1.2645515203475952
15.0,0.3650437593460083,-3.491986036300659,4.474911689758301,1.5594106912612915,0.31497469544410706,-1.1663360595703125
15.05,-1.1188570261001587,-5.362153053283691,5.221083164215088,0.842076301574707,-0.08499728888273239,-1.4715962409973145
15.1,-1.5499589443206787,-5.9462571144104,4.875060558319092,0.10058906674385071,0.09850671142339706,-1.421589970588684
15.15,-0.613285481929779,-4.812479496002197,3.252983808517456,-0.24967575073242188,0.8088149428367615,-0.7930026054382324
15.2,0.011679533869028091,-2.9488842487335205,0.1208714172244072,-0.1764865219593048,1.4862829446792603,-0.02871289663016796
15.25,-0.8905720114707947,-1.3845949172973633,-0.6781085729598999,-0.25787919759750366,1.5540132522583008,0.4686327278614044
15.3,-2.55883526802063,0.6088127493858337,-0.28710031509399414,-0.4706418514251709,1.231858253479004,0.15869693458080292
15.35,-3.3639445304870605,0.11761996150016785,1.3883850574493408,-0.6389193534851074,0.6964566111564636,-0.3631715774536133
15.4,-2.8567280769348145,-0.7802236080169678,0.6710339188575745,-0.6398190259933472,0.7803013324737549,-0.07744371145963669
15.45,-2.3016510009765625,-1.2106225490570068,-0.7427930235862732,-0.5001692771911621,0.9902364611625671,0.2857707738876343
15.5,-2.2958929538726807,-1.6125859022140503,-0.2775421440601349,-0.2715442180633545,0.9799640774726868,0.5384323596954346
15.55,-2.083199977874756,-2.23638916015625,-0.5269290208816528,0.13123475015163422,1.3009878396987915,0.943446934223175
15.6,-3.409330368041992,2.1585960388183594,-7.5137939453125,0.5960887670516968,2.1929609775543213,1.6286650896072388
15.65,-12.004392623901367,19.274906158447266,-4.597444534301758,0.735884428024292,0.30265721678733826,1.7891497611999512
15.7,3.5786900520324707,3.4390647411346436,6.683284282684326,0.33146363496780396,-0.7744165062904358,0.44871121644973755
15.75,11.820340156555176,3.3498990535736084,-3.896557331085205,0.4411863088607788,1.9536316394805908,1.094090461730957
15.8,2.4689230918884277,6.259065628051758,-4.847667217254639,0.20374703407287598,1.0502569675445557,1.1570831537246704
15.85,-0.5807995796203613,0.7396537661552429,-1.7252789735794067,-0.1111510843038559,0.32532957196235657,0.8800813555717468
15.9,-2.21687650680542,0.5603365302085876,-1.569965124130249,-0.2061268389225006,0.7046688199043274,0.9773440957069397
15.95,-3.095264434814453,-0.7475143671035767,0.9073296785354614,-0.25756552815437317,0.8126291036605835,0.814527690410614
16.0,-2.3204097747802734,-1.124511480331421,0.7413545250892639,-0.3063986301422119,1.360830307006836,0.870112955570221
16.05,-1.294443130493164,-0.5632055997848511,-0.41891029477119446,-0.31566423177719116,1.4735910892486572,0.8272640705108643
16.1,-1.225411295890808,-0.8229789137840271,-0.4790399670600891,-0.29028087854385376,1.1398391723632812,0.6926652193069458
16.15,-1.5683575868606567,-0.901779055595398,-0.004704818595200777,-0.26602256298065186,0.8037119507789612,0.6403805613517761
16.2,-1.5628225803375244,-0.6464479565620422,0.3971044421195984,-0.28905561566352844,0.5618969202041626,0.6295497417449951
16.25,-1.340781569480896,-0.8529080748558044,0.3809238374233246,-0.3442314863204956,0.44553491473197937,0.6436466574668884
16.3,-1.1319446563720703,-0.8941296935081482,-0.12299539148807526,-0.3934095501899719,0.5092187523841858,0.7115857601165771
16.35,-1.2261319160461426,-0.6931103467941284,-0.6811116933822632,-0.41522255539894104,0.5077444911003113,0.8401907086372375
16.4,-0.9406262636184692,-0.30839240550994873,-0.3536469042301178,-0.3882179260253906,0.41626524925231934,0.8968385457992554
16.45,-0.9094288945198059,-0.03286636993288994,0.5486412048339844,-0.38565152883529663,0.49938756227493286,0.9030326008796692
16.5,-1.6874897480010986,1.2022794485092163,0.3104318082332611,-0.6094712615013123,0.8476759791374207,0.8301109075546265
16.55,-2.487058639526367,3.307516098022461,-2.9697885513305664,-0.864333987236023,1.0060495138168335,0.594856321811676
16.6,-1.1150658130645752,2.232433795928955,-2.2897791862487793,-0.6008102297782898,0.5695887804031372,0.32344165444374084
16.65,-1.704295039176941,2.2452425956726074,0.6714956760406494,-0.48986271023750305,0.6180899143218994,0.4041149318218231
16.7,-2.535519599914551,2.1903510093688965,1.9983688592910767,-0.6319136619567871,0.6790618896484375,0.252479612827301
16.75,-3.93220591545105,-0.4842667281627655,0.2795202136039734,-0.8666002750396729,0.4911123514175415,0.054541245102882385
16.8,-5.79530668258667,-2.557176113128662,0.36384066939353943,-0.7285528779029846,-0.022463668137788773,0.15095502138137817
16.85,-7.5061354637146,-2.494277238845825,1.818570852279663,-0.4670264720916748,-0.35677415132522583,-0.0040365541353821754
16.9,-5.9281005859375,0.19136039912700653,0.2498472034931183,-0.5963841676712036,-0.3882278501987457,-0.6225500106811523
16.95,-1.395346999168396,2.1427693367004395,-1.266649603843689,-0.5606387853622437,-0.6783658266067505,-1.1218661069869995
17.0,1.0628554821014404,2.714083671569824,0.11790020763874054,-0.059061527252197266,-1.026950716972351,-1.527340292930603
17.05,2.2049102783203125,2.8078181743621826,1.403529405593872,0.0288715660572052,-0.7272799015045166,-2.000464677810669
17.1,3.3632867336273193,2.02551531791687,1.4028418064117432,-0.19675272703170776,-0.057285621762275696,-2.2306747436523438
17.15,3.759417772293091,1.6744810342788696,0.7630866169929504,-0.3385413587093353,0.4597700238227844,-2.092947244644165
17.2,3.3939454555511475,1.5508382320404053,0.8653072714805603,-0.5287008285522461,0.5867759585380554,-1.7863490581512451
17.25,2.4190268516540527,0.7592732906341553,0.7200827598571777,-0.7969373464584351,0.5748443603515625,-1.486356496810913
17.3,1.0092172622680664,-0.33055227994918823,-0.15424124896526337,-1.0678489208221436,0.4615285396575928,-1.1863527297973633
17.35,0.16263079643249512,-1.5138294696807861,-0.8260114192962646,-1.2992846965789795,0.1950875073671341,-0.7793208360671997
17.4,-0.5684958696365356,-2.4858884811401367,-1.1964354515075684,-1.3988261222839355,0.12149947136640549,-0.4625284969806671
17.45,-1.5935227870941162,-3.287363290786743,-0.885302722454071,-1.2397594451904297,0.28903698921203613,-0.46335476636886597
17.5,-2.4384379386901855,-3.8596534729003906,-0.5911036133766174,-0.8743111491203308,0.3005545735359192,-0.3864656090736389
17.55,-2.4200916290283203,-3.3154172897338867,-1.2184202671051025,-0.40547317266464233,0.21130403876304626,-0.04670795798301697
17.6,-1.2818241119384766,-2.664672374725342,-1.4210940599441528,0.1478949785232544,0.28511983156204224,0.12598682940006256
17.65,0.10510613024234772,-2.0299456119537354,-0.9550182223320007,0.5322485566139221,0.4602808952331543,0.11691354960203171
17.7,-0.5572040677070618,0.026488395407795906,-0.20208074152469635,0.7822188138961792,0.7265843749046326,0.008987907320261002
17.75,-2.1072864532470703,3.6267898082733154,-0.12138982862234116,0.794297993183136,0.822740912437439,-0.20954129099845886
17.8,-1.875971794128418,3.706224203109741,1.2843904495239258,0.5213935375213623,0.41740307211875916,-0.2007146179676056
17.85,-1.319333791732788,1.6221708059310913,1.8052444458007812,0.2382657378911972,-0.006659729406237602,0.0552101731300354
17.9,-0.9391037225723267,0.8253271579742432,0.4597874581813812,0.10540735721588135,-0.13543176651000977,0.22849349677562714
17.95,-0.3727969527244568,0.11105068027973175,-0.18662184476852417,0.08072040975093842,-0.09641753137111664,0.15504848957061768
18.0,-0.6519357562065125,-0.8040952682495117,0.0241793692111969,0.15513643622398376,0.07921265065670013,-0.020145371556282043
18.05,-1.2321990728378296,-0.8121766448020935,0.12699636816978455,0.22307723760604858,0.24482308328151703,-0.10849567502737045
18.1,-0.9349632263183594,-1.8892580270767212,0.14568133652210236,0.2279324233531952,0.2226843535900116,-0.0387360043823719
18.15,-0.3059704005718231,-2.444972276687622,-0.6523221731185913,0.32623258233070374,0.4492028057575226,-0.22215941548347473
18.2,-0.945236086845398,-1.636684536933899,-0.4131777882575989,0.38877880573272705,0.6917176246643066,-0.4690578281879425
18.25,0.06018900126218796,0.9103566408157349,-0.24617645144462585,0.20309707522392273,0.6433422565460205,-0.47678059339523315
18.3,0.3980184495449066,2.8419315814971924,-2.6532232761383057,0.13442227244377136,0.8612935543060303,-0.44671720266342163
18.35,-0.978554368019104,2.3844799995422363,-4.726893901824951,0.2192058563232422,0.9932922124862671,-0.3502700626850128
18.4,-2.2296791076660156,0.39072951674461365,-5.018628120422363,0.27875545620918274,0.7160468697547913,-0.07827550172805786
18.45,-3.011178493499756,-0.31607577204704285,-2.3380393981933594,0.3982953429222107,0.16401097178459167,0.2598232328891754
18.5,-1.5974292755126953,0.761254608631134,1.9515327215194702,0.3416042625904083,-0.431122362613678,0.4679551422595978
18.55,-1.3259758949279785,2.2160446643829346,3.9849753379821777,-0.13144654035568237,-0.7673380374908447,0.4338313639163971
18.6,-0.6605812311172485,0.6465044617652893,2.032043218612671,-0.6284776926040649,-0.9358769655227661,0.3354508578777313
18.65,0.10334964096546173,-1.8195106983184814,-0.10870400071144104,-0.5923750996589661,-0.7147529125213623,0.13355125486850739
18.7,-0.1905699223279953,-1.5061542987823486,-0.13418106734752655,-0.3299950361251831,-0.5078848600387573,0.028438536450266838
18.75,-0.7353327870368958,-0.20027443766593933,1.1777150630950928,-0.040269725024700165,-0.5037199854850769,0.09666796028614044
18.8,-1.5160508155822754,1.0450184345245361,2.5805695056915283,0.18738344311714172,-0.42342063784599304,0.1959839165210724
18.85,-1.9648511409759521,1.517438292503357,3.5266778469085693,-0.07542168349027634,-0.3482738137245178,0.14427892863750458
18.9,-1.8060829639434814,0.8622620105743408,3.0082783699035645,-0.276920884847641,-0.3072546422481537,0.040540121495723724
18.95,-1.8346434831619263,-1.010440707206726,0.9161352515220642,-0.19957388937473297,-0.04050397872924805,0.0073209828697144985
19.0,-1.3925353288650513,-2.0060462951660156,-0.11532112956047058,-0.03878161311149597,0.11475083231925964,0.02047690376639366
19.05,-1.3009085655212402,-0.7504939436912537,0.18676844239234924,0.09180282801389694,-0.0320940725505352,0.09212958812713623
19.1,-0.7457029819488525,1.0665276050567627,1.222995638847351,0.10352854430675507,-0.26388466358184814,0.16425475478172302
19.15,0.8397289514541626,0.6649482846260071,2.6744773387908936,-0.10064409673213959,-0.310799241065979,0.10081475973129272
19.2,0.7998289465904236,-3.5367140769958496,0.046711813658475876,0.024082854390144348,0.5729367733001709,-0.5482377409934998
19.25,-2.317671775817871,-3.3826828002929688,-6.270182132720947,0.3243978023529053,1.7152708768844604,-0.9375956058502197
19.3,-2.872742176055908,3.2314321994781494,-6.960456371307373,0.5933944582939148,1.1492969989776611,-0.40467342734336853
19.35,0.9731845259666443,4.836925029754639,-3.268481731414795,0.5648950934410095,-0.11600858718156815,0.009223786182701588
19.4,0.6465885043144226,1.1880675554275513,-0.9905263781547546,0.32312527298927307,-0.3201029598712921,0.2793255150318146
19.45,-2.6793997287750244,-1.4871413707733154,-0.38783547282218933,0.1835556924343109,-0.1813471019268036,0.41692307591438293
19.5,-3.0586254596710205,-1.5298736095428467,0.48941099643707275,-0.11591822654008865,-0.742681622505188,0.45500579476356506
19.55,-0.7969520688056946,0.15937907993793488,1.5040159225463867,-0.5192119479179382,-1.2894033193588257,0.4601230323314667
19.6,0.2756401300430298,0.9205589294433594,1.454016923904419,-0.5176082849502563,-0.8632442951202393,0.2224932461977005
19.65,-0.6694200038909912,0.28486451506614685,0.8457528352737427,-0.22611570358276367,-0.27837103605270386,-0.05080549046397209
19.7,-1.0599173307418823,-0.14891517162322998,0.5442991256713867,-0.06946171075105667,-0.3635152578353882,-0.011025650426745415
19.75,-0.7809687852859497,-0.2547139823436737,1.0752825736999512,0.03459770977497101,-0.5110568404197693,0.11342645436525345
19.8,-0.8620733022689819,0.09745891392230988,1.8060622215270996,0.2285420149564743,-0.21929588913917542,0.08229447901248932
19.85,-1.5546607971191406,0.6136839389801025,1.8802988529205322,0.33940377831459045,0.16970974206924438,-0.03149950131773949
19.9,-2.111032009124756,0.6757519841194153,1.531760573387146,0.22592371702194214,0.2678986191749573,-0.10050486028194427
19.95,-2.2588493824005127,0.40224015712738037,0.9674666523933411,0.05851559340953827,0.15411457419395447,-0.10344944894313812
20.0,-1.687781572341919,-0.07491664588451385,1.1399739980697632,-0.07865118980407715,-0.0655340626835823,-0.0418432280421257
20.05,-1.8742707967758179,0.4327404499053955,2.49924373626709,-0.3252699673175812,-0.3133489489555359,0.06406807899475098
20.1,-0.7137606143951416,-2.1667444705963135,-0.17309288680553436,-0.2814544141292572,-0.027745289728045464,-0.08720619976520538
20.15,-0.9743605852127075,-1.5963934659957886,-5.640021800994873,0.15792174637317657,1.1100407838821411,-0.49945658445358276
20.2,-0.6914330720901489,2.4711766242980957,-5.799386501312256,0.47174906730651855,0.9044930338859558,-0.23304052650928497
20.25,1.5073018074035645,2.7506284713745117,-2.549229145050049,0.48882049322128296,-0.04944680258631706,0.14880499243736267
20.3,-0.5416104793548584,1.2164146900177002,-0.795550525188446,0.32155394554138184,-0.20634207129478455,0.296453058719635
20.35,-3.006732940673828,0.5091948509216309,0.830181896686554,-0.029178857803344727,-0.5095909237861633,0.4932575523853302
20.4,-3.376671314239502,1.4420275688171387,2.6111109256744385,-0.4214317202568054,-1.2165590524673462,0.6998620629310608
20.45,-1.5805983543395996,1.3852951526641846,2.4131133556365967,-0.6786896586418152,-1.3319123983383179,0.7886620163917542
20.5,0.008970767259597778,-0.4094410836696625,1.0920312404632568,-0.7767050266265869,-0.8890998363494873,0.5670870542526245
20.55,-0.561093270778656,-1.5746108293533325,0.12283804267644882,-0.7096858024597168,-0.7731044292449951,0.32405155897140503
20.6,0.2023661583662033,-3.2391748428344727,-0.678146481513977,-0.43247953057289124,-0.7789716124534607,0.33743929862976074
20.65,-0.15823236107826233,-3.558140277862549,-1.1169028282165527,-0.046916455030441284,-0.5494419932365417,0.5015682578086853
20.7,-1.0830607414245605,-1.8599491119384766,-0.9662659168243408,0.25356540083885193,-0.5662710666656494,0.6486005187034607
20.75,-0.6730029582977295,0.8136150240898132,0.3915548622608185,0.4894048869609833,-0.7756641507148743,0.7151262164115906
20.8,-1.8251266479492188,3.1825215816497803,2.3280367851257324,0.5421366691589355,-0.7213775515556335,0.6110524535179138
20.85,-1.578932762145996,1.7016767263412476,2.0855822563171387,0.4079400300979614,-0.032798681408166885,0.23025532066822052
20.9,-1.2044734954833984,-0.4644526541233063,0.40967196226119995,0.22244879603385925,0.3106960952281952,0.04666518047451973
20.95,-2.0175764560699463,-0.23345251381397247,-0.3899206519126892,0.22252948582172394,0.10875362902879715,0.13616164028644562
21.0,-2.4970505237579346,1.0373215675354004,-0.02801528014242649,0.27187204360961914,-0.16047391295433044,0.1842498928308487
21.05,-2.406682252883911,1.1015477180480957,0.8181721568107605,0.2225220501422882,-0.3341626226902008,0.11578493565320969
21.1,-2.2138760089874268,0.2599061131477356,1.06099271774292,0.07292396575212479,-0.37876230478286743,-0.031054669991135597
21.15,-1.9260783195495605,0.3226206600666046,0.7412687540054321,-0.11332569271326065,-0.5143507719039917,-0.21693962812423706
21.2,-0.8780262470245361,0.28895390033721924,0.621433675289154,-0.13615888357162476,-0.6638719439506531,-0.32975465059280396
21.25,0.19656383991241455,-0.17693431675434113,0.9565460085868835,-0.007269524037837982,-0.5610532760620117,-0.34631943702697754
21.3,-0.0666920393705368,-0.41812998056411743,0.05632922053337097,0.158505380153656,-0.026181386783719063,-0.46621984243392944
21.35,-1.043603777885437,-0.28228554129600525,-1.0869898796081543,0.27446502447128296,0.30045199394226074,-0.46765825152397156
21.4,-1.5428872108459473,-0.08527445793151855,-0.6462475061416626,0.27007466554641724,0.14826981723308563,-0.2754190266132355
21.45,-1.5176341533660889,-0.011434334330260754,-0.07790571451187134,0.2668445110321045,0.06892517954111099,-0.17254427075386047
21.5,-1.4728871583938599,0.009674296714365482,-0.29772457480430603,0.26428526639938354,0.10473320633172989,-0.13035690784454346
21.55,-1.430907130241394,0.11869550496339798,-0.5862596035003662,0.23477888107299805,0.115777388215065,-0.06439366191625595
21.6,-1.1925197839736938,0.10836049169301987,-0.36623671650886536,0.20226949453353882,0.10457327216863632,-0.011563352309167385
21.65,-1.058829665184021,0.045854728668928146,-0.12199697643518448,0.1541920304298401,0.09080462902784348,0.020913800224661827
21.7,-1.042104721069336,0.06874673813581467,-0.29600679874420166,0.10402647405862808,0.11253207921981812,0.018253358080983162
21.75,-1.0822631120681763,0.28475305438041687,-0.4829627573490143,0.0764765664935112,0.1172531321644783,-0.006353340111672878
21.8,-0.8384122848510742,0.27377429604530334,-0.26645177602767944,0.06295657157897949,0.07548552006483078,-0.02758246660232544
21.85,-0.6212472915649414,0.15977297723293304,-0.15672567486763,0.048718880861997604,0.07524893432855606,-0.030932635068893433
21.9,-0.6261837482452393,0.0920487567782402,-0.4085842967033386,0.02967764437198639,0.14086216688156128,-0.045463331043720245
21.95,-0.601584792137146,-0.11196698993444443,-0.6440541744232178,0.0060915881767869,0.2007078230381012,-0.04764542356133461
22.0,-0.6697942018508911,-0.20644274353981018,-0.7011406421661377,-0.0067075444385409355,0.22490903735160828,0.0024789718445390463
22.05,-0.7899619340896606,-0.14118468761444092,-0.5264729261398315,0.005055012181401253,0.23419730365276337,0.08970684558153152
22.1,-0.9214839339256287,-0.21467579901218414,-0.17672209441661835,0.013156183063983917,0.2497074156999588,0.17348286509513855
22.15,-1.014811396598816,-0.11237990111112595,0.07797093689441681,0.004995722323656082,0.32934606075286865,0.21435944736003876
22.2,-0.9372484683990479,0.027290480211377144,0.08123751729726791,-0.009874317795038223,0.4634683430194855,0.19982151687145233
22.25,-0.7743442058563232,0.05018913745880127,-0.011282019317150116,-0.043651070445775986,0.5826748609542847,0.16028104722499847
22.3,-0.7142298817634583,0.15804588794708252,-0.18467502295970917,-0.08026367425918579,0.6529964208602905,0.13360533118247986
22.35,-0.8042203187942505,0.07242503017187119,-0.4925067126750946,-0.06608183681964874,0.6291651725769043,0.11807109415531158
22.4,-0.9240747690200806,0.31552428007125854,-0.6404221653938293,-0.045697253197431564,0.5015913844108582,0.14256055653095245
22.45,-1.0845754146575928,0.4455845057964325,0.00016141617379616946,-0.03157993406057358,0.4099651277065277,0.2110450565814972
22.5,-1.2684602737426758,0.09401911497116089,0.5293610692024231,-0.005948871374130249,0.4031626582145691,0.23995187878608704
22.55,-1.2069330215454102,0.02346055582165718,0.2522391974925995,0.028736982494592667,0.34620586037635803,0.25012877583503723
22.6,-0.8252767324447632,0.1988326609134674,0.17877261340618134,0.005111567676067352,0.18621213734149933,0.2541954517364502
22.65,-0.7159221172332764,0.08477793633937836,0.07655580341815948,-0.009334512054920197,0.1816609650850296,0.22827479243278503
22.7,-0.854484498500824,0.004316453356295824,0.002059132559224963,0.003101937472820282,0.26620423793792725,0.207941472530365
22.75,-0.837993323802948,0.018797989934682846,0.16547143459320068,-0.007705304771661758,0.2607010304927826,0.20836769044399261
22.8,-0.8463924527168274,0.031926270574331284,0.3183057904243469,0.02901531383395195,0.27409183979034424,0.23230785131454468
22.85,-1.0524739027023315,0.13663020730018616,0.4070437252521515,0.06005110219120979,0.2846370339393616,0.24986903369426727
22.9,-1.1206554174423218,0.2098361849784851,0.27513396739959717,0.024888794869184494,0.2282572239637375,0.21528875827789307
22.95,-0.9071524739265442,0.1104060560464859,0.24322763085365295,-0.01281716302037239,0.11110355705022812,0.15917834639549255
23.0,-0.6460250020027161,0.11966238170862198,0.24872460961341858,-0.03322344645857811,0.0844435840845108,0.11081354320049286
23.05,-0.5292173624038696,0.17173203825950623,0.16787467896938324,-0.0491570383310318,0.14758092164993286,0.07475600391626358
23.1,-0.6496028304100037,-0.0495862141251564,0.0836254432797432,-0.062204089015722275,0.2488211840391159,0.042990900576114655
23.15,-1.049997329711914,0.07208172231912613,0.11440975219011307,-0.05493671074509621,0.31322282552719116,0.03445885330438614
23.2,-1.459810495376587,0.28655552864074707,0.36220017075538635,-0.08615407347679138,0.33804041147232056,-0.02646549977362156
23.25,-1.7118202447891235,0.5143349766731262,0.18975000083446503,-0.17786116898059845,0.3872906267642975,-0.1422175168991089
23.3,-1.5188381671905518,0.37766388058662415,0.33418819308280945,-0.23402121663093567,0.4177984595298767,-0.27882909774780273
23.35,-1.138706088066101,0.16357724368572235,0.40925002098083496,-0.22597506642341614,0.5512017011642456,-0.3537360429763794
23.4,-0.8176518678665161,0.018516654148697853,0.17884793877601624,-0.1939353197813034,0.6608425974845886,-0.3504429757595062
23.45,-0.6595609188079834,-0.15841762721538544,0.19216014444828033,-0.15609073638916016,0.5862138867378235,-0.2941705286502838
23.5,-0.7477047443389893,-0.04487122967839241,0.11382406204938889,-0.13244782388210297,0.4375402331352234,-0.19747307896614075
23.55,-0.9032292366027832,0.06025519222021103,-0.08072762936353683,-0.12425759434700012,0.3536125123500824,-0.1121639832854271
23.6,-0.8488743305206299,-0.012805807404220104,-0.27622705698013306,-0.10151108354330063,0.3517349362373352,-0.07147079706192017
23.65,-0.8076763153076172,-0.06321418285369873,-0.3451192080974579,-0.052725549787282944,0.3977314829826355,-0.052721619606018066
23.7,-0.8608158826828003,0.042600762099027634,-0.0432773157954216,-0.02475515939295292,0.3486509323120117,0.00047090163570828736
23.75,-0.8708741068840027,0.17147745192050934,0.2992137670516968,-0.017976190894842148,0.2766540050506592,0.04950268194079399
23.8,-0.8749812841415405,0.19684138894081116,0.36025139689445496,-0.013274346478283405,0.27450868487358093,0.05402003973722458
23.85,-0.9003353714942932,0.10426916927099228,0.14863087236881256,-0.009231937117874622,0.27903127670288086,0.04270588606595993
23.9,-0.7881467938423157,0.14468397200107574,-0.11668179929256439,-0.015815114602446556,0.23133429884910583,0.04528592899441719
23.95,-0.4828295409679413,0.08781728148460388,-0.308343768119812,-0.026032406836748123,0.19979827105998993,0.038002245128154755
24.0,-0.4558417499065399,-0.003274841234087944,-0.29393208026885986,-0.020798848941922188,0.22189652919769287,0.025984851643443108
24.05,-0.7255702614784241,0.10513031482696533,-0.058268845081329346,-0.010167705826461315,0.20405569672584534,0.04121540114283562
24.1,-0.8458306789398193,0.20789065957069397,0.02394735999405384,0.003620265983045101,0.1519836038351059,0.04847847297787666
24.15,-0.73748379945755,0.18395626544952393,0.014653650112450123,0.00372011074796319,0.09165764600038528,0.029877934604883194
24.2,-0.5905070900917053,0.11901197582483292,0.010993349365890026,0.006812915205955505,0.04287810996174812,0.011648629792034626
24.25,-0.5479176640510559,0.08986672759056091,-0.08465680480003357,0.003952409606426954,0.0026764541398733854,0.012417678721249104
24.3,-0.615661084651947,0.005141356494277716,-0.23969276249408722,-0.0013542626984417439,-0.017815137282013893,0.02684737928211689
24.35,-0.8990362286567688,-0.004220824223011732,-0.2373965084552765,0.01296035386621952,-0.06612380594015121,0.06879846006631851
24.4,-1.0504494905471802,0.1708013266324997,0.09029646962881088,0.03710891306400299,-0.18236197531223297,0.10845846682786942
24.45,-0.9398433566093445,0.17984023690223694,0.19904902577400208,0.046487294137477875,-0.2859666049480438,0.11368609964847565
24.5,-0.7955763936042786,0.07717525959014893,0.006065439898520708,0.05378081649541855,-0.35390225052833557,0.10647733509540558
24.55,-0.7245331406593323,0.08505164831876755,-0.028795825317502022,0.09243610501289368,-0.41993626952171326,0.12114027142524719
24.6,-0.6915804743766785,0.11523257941007614,0.07252417504787445,0.12427305430173874,-0.5147275924682617,0.15859971940517426
24.65,-0.8058246374130249,0.1718999147415161,0.19050461053848267,0.11833658814430237,-0.5515437722206116,0.14396895468235016
24.7,-1.0473089218139648,0.1573592871427536,0.12724748253822327,0.1384795755147934,-0.5279564261436462,0.08410552889108658
24.75,-1.2538865804672241,0.14525528252124786,0.11172317713499069,0.16502836346626282,-0.6268395781517029,0.04812588170170784
24.8,-1.3246687650680542,0.12230225652456284,0.1930861622095108,0.16685751080513,-0.8678330183029175,0.03994133695960045
24.85,-1.0633951425552368,-0.01045879628509283,0.053914785385131836,0.1935848891735077,-1.0847322940826416,0.03358210250735283
24.9,-0.8383992910385132,-0.20321740210056305,-0.18410541117191315,0.24793732166290283,-1.262913703918457,0.04979531094431877
24.95,-0.7648225426673889,-0.12973012030124664,-0.3670135736465454,0.3106057941913605,-1.4766849279403687,0.11923400312662125
25.0,-0.6199074983596802,0.1783524602651596,-0.0278501994907856,0.3389267921447754,-1.7168828248977661,0.19709326326847076
25.05,-0.7399645447731018,0.45918384194374084,0.5395930409431458,0.33500221371650696,-1.7970119714736938,0.20745477080345154
25.1,-0.8832244873046875,0.4875594675540924,1.0398941040039062,0.33505943417549133,-1.6277488470077515,0.12184064090251923
25.15,-1.1090630292892456,0.19855418801307678,0.9505350589752197,0.3214778006076813,-1.199365496635437,0.02490607276558876
25.2,-1.3414915800094604,0.09041424840688705,-0.08483587205410004,0.24745194613933563,-0.7849982976913452,-0.03620193898677826
25.25,-1.5045325756072998,0.17081955075263977,-0.8440337181091309,0.15118077397346497,-0.6080852746963501,-0.09484580904245377
25.3,-1.35811448097229,-0.025768987834453583,-1.4360756874084473,0.14169909060001373,-0.48403283953666687,-0.10379848629236221
25.35,-0.6784250736236572,-0.05654224753379822,-1.5283311605453491,0.17016802728176117,-0.4929288327693939,-0.029159581288695335
25.4,-0.28074759244918823,-0.22263427078723907,-0.8033483624458313,0.11863197386264801,-0.6470240354537964,0.04181639477610588
25.45,-0.6357620358467102,0.0915137454867363,-0.3101462423801422,0.038903843611478806,-0.7184308171272278,0.06318698823451996
25.5,-0.8265936970710754,0.29280582070350647,-0.10339348018169403,-0.003857359755784273,-0.6452394723892212,0.03803788125514984
25.55,-0.9262850284576416,0.155498668551445,-0.4649713635444641,-0.0367446206510067,-0.5062428116798401,0.04437445476651192
25.6,-0.939329981803894,-0.00426084827631712,-0.891636312007904,-0.11239214986562729,-0.5894562602043152,0.06844404339790344
25.65,-0.7704493999481201,-0.18775738775730133,-0.5049498081207275,-0.1951783150434494,-0.8558611869812012,0.09332717955112457
25.7,-0.9748740792274475,-0.08457552641630173,0.14038002490997314,-0.256687194108963,-0.9967626929283142,0.12473683059215546
25.75,-1.0833570957183838,-0.07634340226650238,0.2967807650566101,-0.32108771800994873,-0.8986752033233643,0.10945450514554977
25.8,-1.0824395418167114,-0.12806783616542816,0.05466170236468315,-0.34479209780693054,-0.6792910099029541,0.005295972805470228
25.85,-0.9084300994873047,0.11617772281169891,-0.49108031392097473,-0.2765197157859802,-0.4889020025730133,-0.15071915090084076
25.9,-0.4713268578052521,0.17085754871368408,-0.9840678572654724,-0.18898390233516693,-0.447186142206192,-0.22401869297027588
25.95,-0.35399386286735535,-0.011523180641233921,-0.41957661509513855,-0.15706779062747955,-0.5239145755767822,-0.2593556344509125
26.0,-0.474587619304657,0.4056750535964966,0.49407482147216797,-0.06116614490747452,-0.44213810563087463,-0.3016528785228729
26.05,-0.28337907791137695,0.6727438569068909,0.8595570921897888,0.031069058924913406,-0.24127162992954254,-0.3556932508945465
26.1,-0.01436343789100647,0.5537891983985901,0.6457622051239014,0.06413735449314117,-0.05363499000668526,-0.401764452457428
26.15,-0.18877577781677246,0.4655333161354065,0.5473097562789917,0.09478759765625,0.12418990582227707,-0.4147596061229706
26.2,-0.8226664066314697,0.3449355363845825,0.47330474853515625,0.09436705708503723,0.3076891303062439,-0.4279859960079193
26.25,-1.3073053359985352,0.021053511649370193,-0.17315666377544403,0.04899243265390396,0.4084906280040741,-0.41988277435302734
26.3,-1.1019008159637451,-0.01883963868021965,-1.0943210124969482,0.009098544716835022,0.35461536049842834,-0.38008397817611694
26.35,-0.6532468199729919,0.2793886065483093,-1.243625283241272,-0.026128850877285004,0.15430551767349243,-0.2665582299232483
26.4,-0.36444199085235596,0.5518666505813599,-0.45167115330696106,-0.039596136659383774,0.011057846248149872,-0.07237062603235245
26.45,-0.3696369528770447,0.5705119371414185,0.34364190697669983,-0.04609628766775131,0.02487528882920742,0.09503893554210663
26.5,-0.7346119284629822,0.31167328357696533,0.46186137199401855,-0.0800531655550003,0.1456887573003769,0.1723480522632599
26.55,-1.1285340785980225,-0.06162912771105766,-0.28847360610961914,-0.0774942934513092,0.31790292263031006,0.17821642756462097
26.6,-1.3309199810028076,-0.4511154592037201,-0.8088679909706116,-0.05191170051693916,0.4226611256599426,0.15036270022392273
26.65,-1.264125943183899,-0.4878014028072357,-0.556826651096344,-0.045745331794023514,0.426359087228775,0.1472969949245453
26.7,-0.8578975200653076,-0.12014377862215042,-0.012735205702483654,-0.04933029040694237,0.4400697946548462,0.19915655255317688
26.75,-0.5135912895202637,0.16875846683979034,0.4767007529735565,-0.07684169709682465,0.4479001760482788,0.28480803966522217
26.8,-0.299297034740448,0.1772642582654953,0.4951404929161072,-0.08502757549285889,0.5598527193069458,0.35375720262527466
26.85,-0.2288433313369751,0.21708208322525024,0.15568807721138,-0.060034047812223434,0.7986202836036682,0.3972594439983368
26.9,-0.24459734559059143,0.2287169247865677,-0.323892205953598,-0.04979950189590454,0.9813457727432251,0.4257577955722809
26.95,-0.19515414535999298,0.015727093443274498,-0.523013710975647,-0.01557379961013794,1.0993249416351318,0.4372398257255554
27.0,-0.41053664684295654,-0.08953087776899338,-0.38827070593833923,0.03252745419740677,1.168837547302246,0.4447525143623352
27.05,-0.748771607875824,-0.0851077064871788,0.11386710405349731,0.052080750465393066,1.1730377674102783,0.41139060258865356
27.1,-1.045558214187622,-0.20008936524391174,0.71735680103302,0.06841117143630981,1.2214152812957764,0.34746891260147095
27.15,-1.1613190174102783,-0.03011118620634079,0.9567804336547852,0.05556069314479828,1.3150371313095093,0.25138258934020996
27.2,-1.2689207792282104,0.06440560519695282,0.6498305797576904,0.00025290437042713165,1.4290183782577515,0.08384232968091965
27.25,-1.4758096933364868,-0.013662132434546947,0.13650289177894592,-0.03586777672171593,1.5087110996246338,-0.06684107333421707
27.3,-1.2910466194152832,0.03618259355425835,0.0010036283638328314,-0.041937679052352905,1.3037992715835571,-0.12602782249450684
27.35,-0.9939377307891846,0.13458171486854553,0.11616430431604385,-0.05857951194047928,0.923086404800415,-0.1376621425151825
27.4,-0.8578975200653076,0.12245478481054306,-0.04493406042456627,-0.07503501325845718,0.7366187572479248,-0.14705225825309753
27.45,-0.9101896286010742,-0.07397446781396866,-0.39659014344215393,-0.05914852395653725,0.7366932034492493,-0.13793319463729858
27.5,-1.0193842649459839,-0.12060245871543884,-0.4576227366924286,-0.03793417662382126,0.5196983814239502,-0.06309666484594345
27.55,-1.0381115674972534,-0.043377719819545746,-0.2669662535190582,-0.03426723554730415,0.15202245116233826,0.034178879112005234
27.6,-1.0642893314361572,0.019306344911456108,-0.2031760811805725,-0.014056127518415451,0.021143747493624687,0.0725000873208046
27.65,-0.9738503694534302,0.06390395760536194,-0.07674821466207504,0.02341197431087494,-0.008291257545351982,0.08205720782279968
27.7,-0.7488048076629639,0.0689917728304863,0.07744082063436508,0.036710627377033234,-0.12311062216758728,0.10774625092744827
27.75,-0.47726625204086304,0.11154755204916,0.05593711882829666,0.023705795407295227,-0.17189820110797882,0.10726971179246902
27.8,-0.3332887887954712,0.21273525059223175,0.015931742265820503,0.02059897780418396,-0.02259897068142891,0.05335972085595131
27.85,-0.3636815547943115,0.16922004520893097,-0.027407970279455185,0.02276407554745674,0.14919224381446838,-0.003029843559488654
27.9,-0.3809027671813965,0.08242613822221756,-0.05616019666194916,0.008911454118788242,0.207100510597229,-0.03695948049426079
27.95,-0.42070573568344116,0.02637774683535099,-0.09945255517959595,-0.0034558363258838654,0.24253998696804047,-0.06117509678006172
28.0,-0.6598626375198364,-0.01782217249274254,-0.0110408840700984,0.00235087051987648,0.2569393813610077,-0.07343322783708572
28.05,-0.8952422738075256,0.12054266780614853,0.14236067235469818,0.01468794047832489,0.18498699367046356,-0.07492372393608093
28.1,-0.9146783947944641,0.2320682257413864,0.08413403481245041,0.017907312139868736,0.07997005432844162,-0.0869847908616066
28.15,-0.7018591165542603,0.1804419755935669,-0.05355513468384743,0.009358800947666168,0.02491188608109951,-0.11743590235710144
28.2,-0.4683528542518616,0.07446106523275375,-0.23601330816745758,-0.009243760257959366,0.06840352714061737,-0.15603749454021454
28.25,-0.4896332621574402,-0.00116721133235842,-0.41230344772338867,-0.026812326163053513,0.15917254984378815,-0.17174237966537476
28.3,-0.781091570854187,0.04744065925478935,-0.3065633177757263,-0.029497068375349045,0.1825518012046814,-0.1481783390045166
28.35,-0.9805651903152466,0.105021633207798,-0.014309852384030819,-0.01778540201485157,0.12733520567417145,-0.10352092236280441
28.4,-0.9013379812240601,0.09105981886386871,0.07085418701171875,-0.013565333560109138,0.09072092175483704,-0.08492981642484665
28.45,-0.6896982192993164,0.12543976306915283,-0.006316866725683212,-0.019536098465323448,0.11478780210018158,-0.11104583740234375
28.5,-0.5614888668060303,0.04525861144065857,-0.14401666820049286,-0.02303963713347912,0.12135010957717896,-0.12775610387325287
28.55,-0.6883150935173035,0.005684005096554756,-0.1753132939338684,-0.020755557343363762,0.08635067939758301,-0.10182729363441467
28.6,-0.7730792760848999,0.06843674182891846,-0.06829375773668289,-0.022525005042552948,0.05830521136522293,-0.08109734952449799
28.65,-0.7839230895042419,0.04363358020782471,-0.038199372589588165,-0.029393918812274933,0.07191437482833862,-0.09212926775217056
28.7,-0.839061975479126,0.02637208253145218,-0.03188535198569298,-0.023346586152911186,0.07028884440660477,-0.08244572579860687
28.75,-0.9645153880119324,0.054085876792669296,0.02365516871213913,-0.00443488173186779,0.01819107122719288,-0.042165420949459076
28.8,-0.9846233129501343,0.0666143000125885,0.025183940306305885,0.0038557194638997316,-0.04572715610265732,-0.00921084824949503
28.85,-0.8599855303764343,0.05857671797275543,-0.0542590394616127,0.0033365734852850437,-0.09072310477495193,0.0091402567923069
28.9,-0.8120021820068359,0.07847226411104202,-0.10021805763244629,0.005273941904306412,-0.1053256094455719,0.019741931930184364
28.95,-0.7657009363174438,0.07225143909454346,-0.0909017026424408,0.003881406504660845,-0.1038898378610611,0.028215840458869934
29.0,-0.6313087344169617,0.07822810113430023,-0.07552499324083328,0.0019606510177254677,-0.10345259308815002,0.035003550350666046
29.05,-0.5358088612556458,0.08143243193626404,-0.1184457391500473,-0.001437353901565075,-0.09887254983186722,0.037605393677949905
29.1,-0.5889995694160461,0.08738241344690323,-0.14702636003494263,0.0024548303335905075,-0.09250794351100922,0.04984652251005173
29.15,-0.6700146198272705,0.11829959601163864,-0.07146911323070526,0.009670235216617584,-0.09879396855831146,0.06436903774738312
29.2,-0.6646043062210083,0.10366737097501755,0.011867494322359562,0.013577500358223915,-0.10402202606201172,0.06847725808620453
29.25,-0.6307260394096375,0.08068571239709854,-0.0029119132086634636,0.017031526193022728,-0.09213695675134659,0.0681787058711052
29.3,-0.6715691089630127,0.15149889886379242,0.033508025109767914,0.017077818512916565,-0.05756983906030655,0.05234269052743912
29.35,-0.7323621511459351,0.14243900775909424,0.029085373505949974,0.018267927691340446,-0.024294987320899963,0.027743099257349968
29.4,-0.7235251665115356,-0.00012005169992335141,-0.18500231206417084,0.026036366820335388,-0.05060723051428795,0.03517068922519684
29.45,-0.6939060091972351,0.013901821337640285,-0.2428441047668457,0.04611729085445404,-0.1542671173810959,0.08510314673185349
29.5,-0.594081461429596,0.13194285333156586,-0.06333599984645844,0.06079082936048508,-0.2640790343284607,0.12649089097976685
29.55,-0.5372860431671143,0.15554150938987732,0.07018577307462692,0.06329517811536789,-0.2781904637813568,0.11942782998085022
29.6,-0.5981909036636353,0.11410627514123917,0.0645248293876648,0.06183427944779396,-0.2053971141576767,0.08789540082216263
29.65,-0.6715366840362549,0.05838213860988617,0.006171131040900946,0.06087145209312439,-0.13527320325374603,0.060930754989385605
29.7,-0.7735504508018494,0.07880795001983643,-0.10097196698188782,0.06336233764886856,-0.10635337978601456,0.06193295121192932
29.75,-0.8608214259147644,0.029197826981544495,-0.16215761005878448,0.06998267769813538,-0.09778100997209549,0.10360386222600937
29.8,-0.9259889125823975,-0.006422863341867924,-0.02199813909828663,0.07517977058887482,-0.08189866691827774,0.14110228419303894
29.85,-0.8818818926811218,0.1701289564371109,0.07205208390951157,0.0653923973441124,-0.06584367901086807,0.12805572152137756
29.9,-0.5037660598754883,0.2170468419790268,0.018745319917798042,0.038272324949502945,-0.04283902421593666,0.052605316042900085
29.95,-0.16624100506305695,0.1265421360731125,-0.06920814514160156,0.014569437131285667,0.014503302983939648,-0.04265369474887848
30.0,-0.2038547843694687,0.11142449080944061,-0.0936616063117981,0.011833555996418,0.10111269354820251,-0.08898825943470001
30.05,-0.5510894656181335,0.052690595388412476,-0.09971287101507187,0.013008414767682552,0.18255458772182465,-0.08983706682920456
30.1,-1.081937313079834,-0.050193630158901215,-0.17852434515953064,0.007549179717898369,0.19183969497680664,-0.0675443559885025
30.15,-1.3458082675933838,0.07601186633110046,-0.17215445637702942,0.004575768485665321,0.056565042585134506,-0.017373036593198776
30.2,-1.0893325805664062,0.1811496615409851,-0.0804169774055481,0.002415637020021677,-0.09930755943059921,0.013470707461237907
30.25,-0.5964057445526123,0.07939443737268448,-0.05987114831805229,-0.0029087865259498358,-0.09569746255874634,-0.01206787396222353
30.3,-0.4381912052631378,0.03266627714037895,-0.15185722708702087,-0.008608590811491013,-0.019121330231428146,-0.03494725003838539
30.35,-0.6061535477638245,0.08829221874475479,-0.09567341208457947,-0.007636602967977524,-0.007228109985589981,-0.01781526394188404
30.4,-0.7925121188163757,0.1427994966506958,0.10888396948575974,-3.2871379517018795e-05,-0.01673399843275547,0.003129187971353531
30.45,-0.9753933548927307,0.08938708156347275,0.16288873553276062,0.002142039593309164,0.010476283729076385,0.0032009927090257406
30.5,-1.0913118124008179,0.10799043625593185,0.07141374051570892,0.0061770956963300705,0.015147022902965546,-0.0071549564599990845
30.55,-0.9214887022972107,0.15144363045692444,-0.039101384580135345,0.022781558334827423,-0.045048054307699203,-0.01174554880708456
30.6,-0.7564892768859863,0.08907711505889893,-0.09672506153583527,0.048687342554330826,-0.11454332619905472,0.02260647341609001
30.65,-0.8562319874763489,0.11308398842811584,-0.2024955451488495,0.05909327417612076,-0.17909331619739532,0.07244551181793213
30.7,-0.7614282369613647,0.18835940957069397,-0.25870075821876526,0.049083560705184937,-0.2579047381877899,0.09581365436315536
30.75,-0.3149169683456421,0.2719651162624359,-0.2157502919435501,0.02240181900560856,-0.28955698013305664,0.0708170011639595
30.8,-0.014003429561853409,0.22968105971813202,-0.1453724503517151,-0.0009539742022752762,-0.18172676861286163,0.0004118500801268965
30.85,-0.09288924932479858,0.0022163556423038244,-0.07770029455423355,0.009002507664263248,-0.02212143875658512,-0.0403577946126461
30.9,-0.5446256399154663,-0.043916624039411545,-0.08872301131486893,0.04123392328619957,-0.09147221595048904,0.025154823437333107
30.95,-0.9690604209899902,0.12443176656961441,0.037435758858919144,0.07651495188474655,-0.38007065653800964,0.16254326701164246
31.0,-0.9670666456222534,0.0773564800620079,0.2255859225988388,0.10700802505016327,-0.5919231176376343,0.24231937527656555
31.05,-0.9024003744125366,0.06873907148838043,0.123115174472332,0.12597715854644775,-0.5863558053970337,0.23184143006801605
31.1,-0.9020882844924927,0.12464824318885803,-0.03411201760172844,0.11435964703559875,-0.4560803771018982,0.17949914932250977
31.15,-0.8751389384269714,0.014176500029861927,-0.07577739655971527,0.0979185402393341,-0.35174116492271423,0.1409657597541809
31.2,-0.819059431552887,0.11069311946630478,-0.13649503886699677,0.08365481346845627,-0.3178810477256775,0.1415359079837799
31.25,-0.6625192761421204,0.1632443517446518,-0.032216522842645645,0.07645674794912338,-0.29937031865119934,0.14881382882595062
31.3,-0.4800289273262024,0.14306268095970154,-0.06500821560621262,0.07181325554847717,-0.19437649846076965,0.11538749933242798
31.35,-0.3227996230125427,0.19439801573753357,-0.3112877607345581,0.05560491234064102,-0.09845142066478729,0.07884350419044495
31.4,-0.18307527899742126,0.12139134854078293,-0.2579053044319153,0.050113141536712646,-0.07944458723068237,0.07215377688407898
31.45,-0.39991745352745056,0.11184128373861313,-0.2281460464000702,0.04015633091330528,-0.03659532591700554,0.05718696117401123
31.5,-0.6695792078971863,0.12621605396270752,-0.11484040319919586,0.023597054183483124,-0.013603294268250465,0.013181380927562714
31.55,-0.5464237332344055,0.09933958202600479,0.005278721451759338,0.011931262910366058,0.03747392073273659,-0.05283533036708832
31.6,-0.2966442406177521,0.14147764444351196,-0.1525510996580124,0.0013317875564098358,0.11923294514417648,-0.09536310285329819
31.65,-0.2910236418247223,0.004794171545654535,-0.22001586854457855,-0.006163759157061577,0.16091018915176392,-0.09911973774433136
31.7,-0.5416207313537598,0.029246419668197632,-0.2250206023454666,-0.006535736843943596,0.17190325260162354,-0.10069150477647781
31.75,-0.8280472755432129,0.10733332484960556,-0.17539285123348236,-0.012698067352175713,0.14771689474582672,-0.1230728030204773
31.8,-0.9530526399612427,0.09380451589822769,-0.07789787650108337,-0.029694464057683945,0.09904394298791885,-0.14262090623378754
31.85,-0.7731750011444092,0.12182057648897171,0.04198688641190529,-0.04181640222668648,0.07215201109647751,-0.14376457035541534
31.9,-0.6295186877250671,0.0809536948800087,0.06416244804859161,-0.03906650096178055,0.1210060864686966,-0.13155701756477356
31.95,-0.6765097975730896,0.08513937890529633,-0.03567219153046608,-0.03026210330426693,0.190289705991745,-0.10945427417755127
32.0,-0.7690591216087341,0.05821526050567627,-0.06033911556005478,-0.024967409670352936,0.21349787712097168,-0.08936858922243118
32.05,-0.9730249047279358,0.04741397500038147,-0.0701277032494545,-0.024252874776721,0.2216353714466095,-0.085795097053051
32.1,-0.8772128224372864,0.09233774989843369,-0.11003744602203369,-0.02530422993004322,0.20880275964736938,-0.09446178376674652
32.15,-0.5177981853485107,0.0038739044684916735,-0.11437986046075821,-0.02390776015818119,0.18889406323432922,-0.08385588973760605
32.2,-0.6051955223083496,0.02823648415505886,-0.09028849750757217,-0.016133245080709457,0.17460408806800842,-0.06121290102601051
32.25,-0.7995505928993225,0.13706792891025543,-0.029082903638482094,-0.012997766025364399,0.14984042942523956,-0.059318795800209045
32.3,-0.7571874856948853,-0.004616629332304001,0.011806710623204708,-0.014029759913682938,0.15935373306274414,-0.05724569782614708
32.35,-0.7836784720420837,0.11510194092988968,-0.02735493890941143,-0.011145087890326977,0.1618741899728775,-0.045063745230436325
32.4,-0.6897274851799011,0.09611141681671143,-0.1915326863527298,-0.008602015674114227,0.14522098004817963,-0.031691260635852814
32.45,-0.5999674201011658,-0.07017794251441956,-0.35799288749694824,0.0002589058130979538,0.11551632732152939,0.016435248777270317
32.5,-0.7839285731315613,-0.019883034750819206,-0.28371620178222656,0.011270949617028236,0.03404584527015686,0.09084009379148483
32.55,-0.924050509929657,0.08906760066747665,-0.08496560156345367,0.011140003800392151,-0.04870922118425369,0.12671610713005066
32.6,-0.7579226493835449,0.18023598194122314,-0.0016153781907632947,-0.0026161856949329376,-0.05665680021047592,0.09375941008329391
32.65,-0.3364587128162384,0.13205629587173462,-0.015316369943320751,-0.015796517953276634,-0.013111522421240807,0.03303544595837593
32.7,-0.14435216784477234,0.060214076191186905,-0.12703700363636017,-0.019321899861097336,0.026206014677882195,0.0050058187916874886
32.75,-0.3027922213077545,0.11708933860063553,-0.1843787580728531,-0.008714813739061356,0.00337861105799675,0.023828715085983276
32.8,-0.4863169193267822,0.1592303216457367,0.0005520298145711422,0.006326553411781788,-0.03530002385377884,0.05934389308094978
32.85,-0.6244620680809021,0.11086378991603851,0.057473376393318176,0.007315423339605331,0.009679984301328659,0.07042571902275085
32.9,-0.8069577813148499,0.13404764235019684,-0.12152047455310822,-0.000912797637283802,0.07152780890464783,0.05884551629424095
32.95,-0.7210647463798523,0.14895451068878174,-0.10179662704467773,-0.01657373644411564,0.05286017060279846,0.020859582349658012
33.0,-0.4227411448955536,0.1536474972963333,-0.10459395498037338,-0.029904574155807495,0.04415633901953697,-0.03815554827451706
33.05,-0.2902582287788391,0.1301613450050354,-0.2055351585149765,-0.035108357667922974,0.07373091578483582,-0.07415659725666046
33.1,-0.35349318385124207,0.05192858353257179,-0.10767600685358047,-0.032840318977832794,0.08815570920705795,-0.0689934492111206
33.15,-0.5754923224449158,0.04311760887503624,-0.006745048798620701,-0.02629447728395462,0.09379497170448303,-0.0567842572927475
33.2,-0.8550419211387634,0.11137880384922028,0.02196289785206318,-0.022000383585691452,0.10387647151947021,-0.05313728377223015
33.25,-1.0183079242706299,0.04513183608651161,-0.05817735940217972,-0.014231318607926369,0.12642213702201843,-0.039050016552209854
33.3,-0.9889184236526489,0.03968540206551552,-0.13661041855812073,-0.010011294856667519,0.06927084177732468,-0.0090382294729352
33.35,-0.631472647190094,0.10524093359708786,-0.08509885519742966,-0.0138815026730299,-0.04953894019126892,-0.00765847647562623
33.4,-0.2048874944448471,0.1243019551038742,-0.04909967631101608,-0.01592838391661644,-0.07246190309524536,-0.04380323737859726
33.45,-0.12251152843236923,0.1329536736011505,-0.09145728498697281,-0.010221735574305058,-0.024103885516524315,-0.06369858235120773
33.5,-0.38332515954971313,0.06905371695756912,-0.09639160335063934,0.0024193450808525085,0.004593994468450546,-0.050829678773880005
33.55,-0.7594248652458191,0.0838538408279419,-0.007012518588453531,0.012293605133891106,0.0028696509543806314,-0.023028410971164703
33.6,-1.0279768705368042,0.17380540072917938,0.007157500833272934,0.016101380810141563,0.0023847634438425303,-0.011985035613179207
33.65,-0.909513533115387,0.10890784859657288,-0.07801559567451477,0.01357896625995636,0.005966761615127325,-0.03426968678832054
33.7,-0.6250512003898621,0.01829538680613041,-0.19856254756450653,0.006646836642175913,-0.009408332407474518,-0.04906202852725983
33.75,-0.5457969307899475,0.07932863384485245,-0.20204569399356842,0.002572811208665371,-0.030280813574790955,-0.035739343613386154
33.8,-0.5209339261054993,0.09199437499046326,-0.1379152089357376,-0.0003087064251303673,-0.03208347037434578,-0.026128463447093964
33.85,-0.4815122187137604,0.0870257243514061,-0.13615265488624573,-0.0035247360356152058,-0.01448381319642067,-0.029887795448303223
33.9,-0.49744006991386414,0.0728360041975975,-0.1532825380563736,-0.006480996496975422,0.01100111473351717,-0.03500784933567047
33.95,-0.6162842512130737,0.055646996945142746,-0.14099223911762238,-0.009159192442893982,0.01865953579545021,-0.03230145946145058
34.0,-0.6661869883537292,0.0826340764760971,-0.1151052713394165,-0.01278811413794756,0.0016297681722790003,-0.02673884853720665
34.05,-0.6384245157241821,0.10325919836759567,-0.10468943417072296,-0.016173778101801872,-0.007418266963213682,-0.02574261464178562
34.1,-0.6321657299995422,0.08915053308010101,-0.09348296374082565,-0.01663537696003914,-0.006764800753444433,-0.026661928743124008
34.15,-0.5953986644744873,0.057213880121707916,-0.07125142216682434,-0.01821202039718628,-0.015476581640541553,-0.02699282206594944
34.2,-0.5625489354133606,0.06606969237327576,-0.08818481117486954,-0.0181552916765213,-0.019259242340922356,-0.02906819060444832
34.25,-0.5555556416511536,0.08809003233909607,-0.1185123473405838,-0.014330345205962658,-0.01595635898411274,-0.02551611326634884
34.3,-0.6180756092071533,0.09316358715295792,-0.058675192296504974,-0.011055493727326393,-0.02144567109644413,-0.016883471980690956
34.35,-0.6464086174964905,0.10853110998868942,-0.0433938130736351,-0.007377099711447954,-0.021654056385159492,-0.011823030188679695
34.4,-0.5925331711769104,0.08150205761194229,-0.14467811584472656,-0.005026066675782204,-0.011799978092312813,-0.011076457798480988
34.45,-0.5130665302276611,0.04366692528128624,-0.1683460772037506,-0.007181721739470959,-0.012255486100912094,-0.01189771480858326
34.5,-0.49907687306404114,0.08669289201498032,-0.10300397127866745,-0.008881852962076664,-0.01947587914764881,-0.011151839978992939
34.55,-0.5814747214317322,0.12058936059474945,-0.054292481392621994,-0.006432561203837395,-0.01258079707622528,-0.010776163078844547
34.6,-0.6128714084625244,0.09682570397853851,-0.0590461865067482,-0.005579613149166107,0.008173579350113869,-0.018619896844029427
34.65,-0.616295576095581,0.07385264337062836,-0.11466752737760544,-0.0050337654538452625,0.019090784713625908,-0.024426836520433426
34.7,-0.6302865147590637,0.09301577508449554,-0.12389478087425232,-0.0028621454257518053,0.0006877636769786477,-0.015377157367765903
34.75,-0.6231227517127991,0.09895430505275726,-0.07573605328798294,0.0013144775293767452,-0.007785678841173649,-0.004127152264118195
34.8,-0.6171900033950806,0.09858904778957367,-0.03589531034231186,0.003960525617003441,0.010876033455133438,-0.003169522387906909
34.85,-0.5952790975570679,0.12528620660305023,-0.0465102456510067,0.004073397256433964,0.031619440764188766,-0.009987035766243935
34.9,-0.5299429297447205,0.12987813353538513,-0.14226804673671722,0.008434552699327469,0.044593412429094315,-0.01698228344321251
34.95,-0.49301090836524963,0.09862527251243591,-0.15999966859817505,0.008244223892688751,0.03621670976281166,-0.015948835760354996
35.0,-0.558578372001648,0.10580644756555557,-0.0942881777882576,0.006977950222790241,0.022576546296477318,-0.004211630206555128
35.05,-0.6067981123924255,0.1026526540517807,-0.10103050619363785,0.007912673056125641,0.028347507119178772,-0.0015230701537802815
35.1,-0.6751118898391724,0.07769977301359177,-0.1370261162519455,0.008575026877224445,0.03350629657506943,-0.0011338851181790233
35.15,-0.6546980142593384,0.04649077355861664,-0.15211474895477295,0.007147378753870726,0.011394265107810497,0.01035323552787304
35.2,-0.5295730233192444,0.07429131865501404,-0.09832920879125595,0.0038695125840604305,-0.018245788291096687,0.02435349114239216
35.25,-0.5037785768508911,0.11103257536888123,-0.04506494849920273,0.003323125187307596,-0.014114398509263992,0.02754071354866028
35.3,-0.6127951741218567,0.1294633001089096,-0.05807824805378914,0.00475379079580307,0.02342807687819004,0.016916701570153236
35.35,-0.6369314789772034,0.19171728193759918,-0.16772760450839996,0.00021181243937462568,0.03762366622686386,0.00650258781388402
35.4,-0.5161044597625732,0.1544705331325531,-0.1863027811050415,-0.007498165126889944,0.02183256298303604,0.004522472154349089
35.45,-0.3679811656475067,0.0921211913228035,-0.09098071604967117,-0.008732669055461884,0.001712669851258397,0.011773298494517803
35.5,-0.3774779736995697,0.10702426731586456,-0.041992560029029846,-0.002714779693633318,0.02180720865726471,0.014637875370681286
35.55,-0.707146942615509,0.08982478827238083,0.009440449997782707,0.002740383381024003,0.08839431405067444,0.004603846464306116
35.6,-0.973815381526947,0.06870570778846741,0.0039841486141085625,-0.0009262764360755682,0.13934259116649628,-0.009588591754436493
35.65,-0.9922187924385071,0.06390777975320816,-0.07374908775091171,-0.004639817867428064,0.1493029147386551,-0.007787067908793688
35.7,-0.76315838098526,0.05939209461212158,-0.04966522008180618,-0.008208646439015865,0.10524813830852509,0.006638715043663979
35.75,-0.5412304997444153,0.05015191435813904,-0.10215909034013748,-0.011608153581619263,0.06441319733858109,0.013942618854343891
35.8,-0.4449138641357422,0.043203432112932205,-0.22980831563472748,-0.01461104303598404,0.025299007073044777,0.012837959453463554
35.85,-0.4111432135105133,0.06782539188861847,-0.17479664087295532,-0.009784111753106117,-0.031229468062520027,0.024375619366765022
35.9,-0.43805932998657227,0.10811146348714828,-0.07859160006046295,-0.0037913243286311626,-0.07354425638914108,0.04593877121806145
35.95,-0.48115697503089905,0.10163697600364685,-0.11851552873849869,-0.006110177841037512,-0.08377160131931305,0.05251244455575943
36.0,-0.516986608505249,0.09373864531517029,-0.20813532173633575,-0.007380611263215542,-0.06943437457084656,0.050442375242710114
36.05,-0.4881706237792969,0.1517086923122406,-0.17981818318367004,-0.010776606388390064,-0.06375755369663239,0.054032426327466965
36.1,-0.44925856590270996,0.15786752104759216,-0.15789654850959778,-0.017851488664746284,-0.041069310158491135,0.050040677189826965
36.15,-0.4965599775314331,0.09692582488059998,-0.1471884846687317,-0.02308899536728859,-0.0074791982769966125,0.04009075090289116
36.2,-0.5848304629325867,0.10410891473293304,-0.10826592147350311,-0.026468582451343536,-0.018816016614437103,0.03922811523079872
36.25,-0.439162939786911,0.10884293168783188,-0.07842324674129486,-0.03263235092163086,-0.0443156436085701,0.03313983604311943
36.3,-0.3388403356075287,0.11842638999223709,-0.059263069182634354,-0.029298368841409683,-0.013950296677649021,0.025200113654136658
36.35,-0.5018365979194641,0.1088152825832367,-0.03650807589292526,-0.019345566630363464,0.032205935567617416,0.01655399613082409
36.4,-0.630604088306427,0.11950217187404633,-0.029818277806043625,-0.01691419817507267,0.03704720735549927,0.0034034503623843193
36.45,-0.6132368445396423,0.11215220391750336,-0.029392359778285027,-0.015448723919689655,0.02413087897002697,-0.004884112626314163
36.5,-0.6199363470077515,0.1312333196401596,-0.05440421774983406,-0.011332884430885315,0.014504194259643555,-0.0026665315963327885
36.55,-0.5834747552871704,0.1535874456167221,-0.11812867224216461,-0.008123630657792091,-0.005346307996660471,0.0008400857914239168
36.6,-0.5102542042732239,0.0702124536037445,-0.1333937644958496,-0.007085052784532309,-0.016590097919106483,0.0008871032623574138
36.65,-0.5558314919471741,0.0728827491402626,-0.1914786398410797,-0.0063110762275755405,-0.022044174373149872,0.00251973164267838
36.7,-0.6106781363487244,0.0860501378774643,-0.19066932797431946,-0.0069618201814591885,-0.044970978051424026,0.012706005945801735
36.75,-0.6035977005958557,0.10345183312892914,-0.10277360677719116,-0.00991728249937296,-0.07427369803190231,0.026788538321852684
36.8,-0.4515136778354645,0.10472973436117172,-0.07981063425540924,-0.01366204209625721,-0.0681314468383789,0.026156434789299965
36.85,-0.36935460567474365,0.06252295523881912,-0.1552198976278305,-0.01766218990087509,-0.02312385104596615,0.009225099347531796
36.9,-0.4047868251800537,0.05266483128070831,-0.25697529315948486,-0.018765738233923912,0.006396864540874958,0.0006812266074120998
36.95,-0.46984949707984924,0.06103428453207016,-0.16397854685783386,-0.018521375954151154,-4.9377427785657346e-05,0.011544359847903252
37.0,-0.5574211478233337,0.1332293450832367,0.05789472535252571,-0.016484610736370087,0.010639640502631664,0.014183443039655685
37.05,-0.6576423645019531,0.1642085164785385,0.13486844301223755,-0.015534548088908195,0.05531821772456169,-2.676984149729833e-05
37.1,-0.7002306580543518,0.1414252519607544,0.05774209648370743,-0.020800914615392685,0.1016412228345871,-0.02881218120455742
37.15,-0.5564843416213989,0.10721979290246964,-0.06233379244804382,-0.017683379352092743,0.12786482274532318,-0.04900949075818062
37.2,-0.4378319978713989,0.07259757816791534,-0.07586327940225601,-0.010867979377508163,0.1226898729801178,-0.04715947434306145
37.25,-0.4861537516117096,0.07910832017660141,-0.0444757379591465,-0.009198267012834549,0.10957524925470352,-0.04126816987991333
37.3,-0.5439164638519287,0.09505472332239151,-0.08724380284547806,-0.010741760022938251,0.10971519351005554,-0.0435553640127182
37.35,-0.518566370010376,0.08355149626731873,-0.1395024210214615,-0.01240332517772913,0.11208711564540863,-0.04864932596683502
37.4,-0.5508695244789124,0.13061724603176117,-0.13334982097148895,-0.008291592821478844,0.09710492938756943,-0.04708514362573624
37.45,-0.5340154767036438,0.15272530913352966,-0.06436602026224136,-0.0058905621990561485,0.0702010840177536,-0.049014389514923096
37.5,-0.44796931743621826,0.1428099423646927,-0.048354439437389374,-0.006301592104136944,0.06787311285734177,-0.0600285567343235
37.55,-0.393244206905365,0.11866386234760284,-0.11678095161914825,-0.004282325506210327,0.08495602011680603,-0.0705999881029129
37.6,-0.4800715148448944,0.05329235643148422,-0.14645254611968994,-0.002451373264193535,0.07967785745859146,-0.07121210545301437
37.65,-0.5652983784675598,0.04853830114006996,-0.12417382001876831,0.0013866489753127098,0.03889549523591995,-0.058605924248695374
37.7,-0.5426880121231079,0.08152303099632263,-0.0693572610616684,0.00631353072822094,-0.006948085501790047,-0.0461142398416996
37.75,-0.5319032669067383,0.09049519896507263,-0.08556114137172699,0.0073638129979372025,-0.03215876221656799,-0.04130871221423149
37.8,-0.46174338459968567,0.07811077684164047,-0.1866186410188675,0.005427703261375427,-0.03798059746623039,-0.03793255239725113
37.85,-0.3951666057109833,0.0782976821064949,-0.16710858047008514,0.004065823275595903,-0.03961028903722763,-0.031694915145635605
37.9,-0.4547047019004822,0.13705167174339294,-0.059957489371299744,-0.002326413057744503,-0.031421493738889694,-0.03833913803100586
37.95,-0.5502457022666931,0.19815170764923096,-0.07286593317985535,-0.012464972212910652,0.006281575653702021,-0.06924260407686234
38.0,-0.5640972256660461,0.18258105218410492,-0.09038163721561432,-0.0163122471421957,0.0327010378241539,-0.09069797396659851
38.05,-0.5629374980926514,0.16615208983421326,0.005626226309686899,-0.011975796893239021,0.04382692277431488,-0.08241967856884003
38.1,-0.6566556096076965,0.10870563238859177,0.02856391854584217,-0.0052768513560295105,0.07777626067399979,-0.06640253216028214
38.15,-0.8228446245193481,0.045083172619342804,-0.13628441095352173,-0.0027640946209430695,0.09710131585597992,-0.056919753551483154
38.2,-0.8466769456863403,0.038568634539842606,-0.28934815526008606,-0.0028279218822717667,0.057432617992162704,-0.04540526494383812
38.25,-0.7630724906921387,0.03206456080079079,-0.29104524850845337,-0.001881089759990573,-0.03819312900304794,-0.005683920346200466
38.3,-0.7317906618118286,0.030452847480773926,-0.2734740376472473,-0.007754798047244549,-0.15930615365505219,0.060715168714523315
38.35,-0.5842793583869934,0.09218989312648773,-0.2597725987434387,-0.020279090851545334,-0.2663079500198364,0.11621188372373581
38.4,-0.345730721950531,0.08192069083452225,-0.23762013018131256,-0.03158852458000183,-0.3064326345920563,0.14054419100284576
38.45,-0.18968899548053741,0.05877022445201874,-0.21326948702335358,-0.0349503830075264,-0.26014024019241333,0.133830264210701
38.5,-0.18723376095294952,0.12610630691051483,-0.14753179252147675,-0.029406368732452393,-0.1765221357345581,0.10485319793224335
38.55,-0.21789205074310303,0.19744974374771118,-0.09071849286556244,-0.022261518985033035,-0.11224530637264252,0.07881523668766022
38.6,-0.14386285841464996,0.21522240340709686,0.04403851553797722,-0.017122704535722733,-0.0761910080909729,0.06677325814962387
38.65,-0.18622998893260956,0.24530796706676483,0.19111645221710205,-0.0028460072353482246,0.013571294955909252,0.041896991431713104
38.7,-0.4427175521850586,0.19610890746116638,0.07761700451374054,0.015914486721158028,0.1556563526391983,0.004204361699521542
38.75,-0.6565263867378235,0.1628962755203247,-0.11016283184289932,0.021715933457016945,0.21159568428993225,-0.015366727486252785
38.8,-0.6519091129302979,0.12459193915128708,-0.14372104406356812,0.0157117061316967,0.1701722890138626,-0.021642571315169334
38.85,-0.46806466579437256,0.06518181413412094,-0.1641542762517929,0.01501173060387373,0.11874064803123474,-0.0215627271682024
38.9,-0.33087942004203796,0.10008818656206131,-0.13139770925045013,0.020078908652067184,0.09712524712085724,-0.018554411828517914
38.95,-0.38720959424972534,0.12547214329242706,0.004478145390748978,0.021763937547802925,0.1090976670384407,-0.017052164301276207
39.0,-0.690423846244812,0.06684886664152145,-0.03711758926510811,0.017594167962670326,0.1382441371679306,-0.02142282761633396
39.05,-0.8540194630622864,0.10260596126317978,-0.08110623061656952,0.013034171424806118,0.11485137790441513,-0.02381354570388794
39.1,-0.607016921043396,0.06812009960412979,-0.0053110914304852486,0.013506732881069183,0.05553818121552467,-0.029610997065901756
39.15,-0.45768624544143677,0.07598884403705597,-0.01769990101456642,0.022221188992261887,0.04666591435670853,-0.02733365260064602
39.2,-0.5214528441429138,0.12386999279260635,-0.10402316600084305,0.0264890193939209,0.043264519423246384,-0.011970714665949345
39.25,-0.514330267906189,0.1104041039943695,-0.07148166000843048,0.02642996422946453,0.02484813705086708,-0.006398413795977831
39.3,-0.47100701928138733,0.10292347520589828,-0.05111323297023773,0.031224746257066727,0.01853201910853386,-0.0015184259973466396
39.35,-0.5173348188400269,0.08530721068382263,-0.12274714559316635,0.029608750715851784,-0.004252192098647356,0.008850200101733208
39.4,-0.4894193112850189,0.105017751455307,-0.15498225390911102,0.022825296968221664,-0.028054893016815186,0.007201117929071188
39.45,-0.4244212806224823,0.07246597111225128,-0.15621210634708405,0.015926212072372437,-0.024866556748747826,-0.0029360817279666662
39.5,-0.42052292823791504,0.04742629826068878,-0.18979933857917786,0.01114374678581953,-0.023100687190890312,-0.0007289968780241907
39.55,-0.4392005503177643,0.09204967319965363,-0.1516762226819992,0.010376851074397564,-0.039906226098537445,0.01174236461520195
39.6,-0.5027045011520386,0.07650097459554672,-0.09056201577186584,0.006024925969541073,-0.03867555409669876,0.012247799895703793
39.65,-0.5242535471916199,0.08912381529808044,-0.12329523265361786,-0.00032470558653585613,-0.013335185125470161,0.0031729438342154026
39.7,-0.5228868722915649,0.10974321514368057,-0.13082194328308105,-0.005113065708428621,0.0001591834588907659,5.069678081781603e-06
39.75,-0.48398613929748535,0.14331921935081482,-0.05908287316560745,-0.007676164619624615,0.0022416841238737106,0.0013780421577394009
39.8,-0.4049629867076874,0.16674335300922394,-0.005967011209577322,-0.007990442216396332,0.01575515978038311,-0.0014684139750897884
39.85,-0.4426080584526062,0.1676836758852005,-0.024223854765295982,-0.007236215751618147,0.04742017388343811,-0.009499045088887215
39.9,-0.500824511051178,0.17878159880638123,-0.0488874651491642,-0.008590416982769966,0.07061804831027985,-0.014494330622255802
39.95,-0.4530411660671234,0.13409718871116638,-0.07935311645269394,-0.010384990833699703,0.0703284814953804,-0.009313814342021942
40.0,-0.3716248571872711,0.07884031534194946,-0.059860505163669586,-0.009294316172599792,0.07360540330410004,-0.005060429684817791
40.05,-0.4403868615627289,0.1438656598329544,-0.03388211876153946,-0.008382655680179596,0.09662454575300217,-0.011069163680076599
40.1,-0.5100876688957214,0.14095696806907654,-0.12323885411024094,-0.011000744998455048,0.11899077147245407,-0.023932142183184624
40.15,-0.49946129322052,0.09437570720911026,-0.19251182675361633,-0.012514237314462662,0.11095428466796875,-0.03459601849317551
40.2,-0.422728031873703,0.08785636723041534,-0.15806950628757477,-0.011400096118450165,0.07762494683265686,-0.036360353231430054
40.25,-0.3624560236930847,0.10677725821733475,-0.07972922176122665,-0.01034880056977272,0.05458896607160568,-0.030034633353352547
40.3,-0.4085703492164612,0.12089641392230988,-0.032258290797472,-0.007313473615795374,0.05701636150479317,-0.019380103796720505
40.35,-0.5729386806488037,0.06381234526634216,-0.017319953069090843,-0.005834238138049841,0.06038810312747955,-0.02174246869981289
40.4,-0.7347058653831482,0.10052216053009033,-0.030920952558517456,-0.006364079192280769,0.041919536888599396,-0.03127732872962952
40.45,-0.5818437933921814,0.13177596032619476,-0.08042363822460175,-0.0067375423386693,0.01227953378111124,-0.0388239361345768
40.5,-0.41987520456314087,0.11417397111654282,-0.10718120634555817,-0.003211677074432373,-0.006769374944269657,-0.03365126997232437
40.55,-0.47311604022979736,0.0829525738954544,-0.055372703820466995,0.0013527078554034233,-0.0348215252161026,-0.01619361899793148
40.6,-0.4941965639591217,0.10490044951438904,-0.014220408163964748,0.002973224502056837,-0.04720250889658928,-0.013486315496265888
40.65,-0.43696334958076477,0.128789022564888,-0.09852472692728043,0.0011279759928584099,-0.026579290628433228,-0.028252121061086655
40.7,-0.45031026005744934,0.11935338377952576,-0.160312220454216,-0.0033300993964076042,-0.017291609197854996,-0.036513298749923706
40.75,-0.42920568585395813,0.12401970475912094,-0.16130957007408142,-0.0061555542051792145,-0.03486146032810211,-0.03189129754900932
40.8,-0.37140318751335144,0.1285439282655716,-0.13059723377227783,-0.007913945242762566,-0.03946975618600845,-0.025674166157841682
40.85,-0.4401574432849884,0.13296325504779816,-0.05109507218003273,-0.00606572674587369,-0.00955765601247549,-0.024534529075026512
40.9,-0.5423892736434937,0.13694390654563904,-0.017461324110627174,-0.002700685989111662,0.01254494208842516,-0.026122670620679855
40.95,-0.5715847015380859,0.11625108867883682,-0.06755337119102478,-0.002743436023592949,0.01090015284717083,-0.024313921108841896
41.0,-0.5885804295539856,0.11321745812892914,-0.054055508226156235,-0.004159544128924608,0.004579242318868637,-0.017287300899624825
41.05,-0.5742166042327881,0.08759412914514542,-0.08159483224153519,-0.005183628760278225,0.011216925457119942,-0.016656357795000076
41.1,-0.5132679343223572,0.06583890318870544,-0.15908105671405792,-0.006247504614293575,0.010399550199508667,-0.01185455359518528
41.15,-0.4427735507488251,0.1406613290309906,-0.09838461130857468,-0.003794284537434578,-0.005624148994684219,0.006339274346828461
41.2,-0.42534664273262024,0.14020545780658722,-0.005790711846202612,-0.004211755003780127,0.008446985855698586,0.011534258723258972
41.25,-0.4692048132419586,0.14013585448265076,-0.11042321473360062,-0.0033975427504628897,0.044225458055734634,0.00010561478848103434
41.3,-0.38067013025283813,0.12989242374897003,-0.1393243819475174,-0.0033308942802250385,0.05295034497976303,-0.0035948380827903748
41.35,-0.3420431613922119,0.08712202310562134,-0.08710140734910965,-0.0008619349682703614,0.053459301590919495,0.010611471720039845
41.4,-0.4637550115585327,0.07367333024740219,-0.12141730636358261,0.0030834670178592205,0.04001438617706299,0.027299949899315834
41.45,-0.510468602180481,0.0947943702340126,-0.15689511597156525,0.002549142576754093,0.0222739540040493,0.036368682980537415
41.5,-0.5331299304962158,0.10832700878381729,-0.10578775405883789,0.0058259060606360435,0.037829987704753876,0.04369644448161125
41.55,-0.5451172590255737,0.15424737334251404,-0.06777069717645645,0.004911215044558048,0.03534720093011856,0.03329145908355713
41.6,-0.43527987599372864,0.12948235869407654,-0.17880506813526154,0.002888026647269726,0.004385364707559347,0.01865837536752224
41.65,-0.3352065086364746,0.08271605521440506,-0.2564586400985718,0.005011494271457195,-0.03020314872264862,0.04063970968127251
41.7,-0.2562449276447296,0.1299486756324768,-0.036405228078365326,0.009992767125368118,-0.04416687786579132,0.060298796743154526
41.75,-0.3183019459247589,0.04587845876812935,0.012299864552915096,0.012586960569024086,0.002431343775242567,0.04337224364280701
41.8,-0.5148879885673523,0.05488308519124985,-0.042801663279533386,0.012018019333481789,0.0405111089348793,0.03004971519112587
41.85,-0.6169679164886475,0.14973460137844086,-0.010907880961894989,0.008000742644071579,0.042052485048770905,0.021918611600995064
41.9,-0.5748656392097473,0.13200102746486664,-0.02665397711098194,0.004986641462892294,0.0406341627240181,0.005352450534701347
41.95,-0.5858075022697449,0.11220751702785492,-0.06727983802556992,0.009111696854233742,0.028442276641726494,0.008564157411456108
42.0,-0.5414732098579407,0.10096082836389542,-0.0386040136218071,0.007498046383261681,0.012748310342431068,0.006875996477901936
42.05,-0.40655821561813354,0.09301955252885818,-0.05597914382815361,0.008321138098835945,0.02775336615741253,-0.00686136819422245
42.1,-0.3610062301158905,0.12258441001176834,-0.0815267264842987,0.013865486718714237,0.04081210121512413,-0.006068089511245489
42.15,-0.32360702753067017,0.19844157993793488,-0.025183141231536865,0.016254449263215065,0.04351998120546341,-0.006667500361800194
42.2,-0.36381563544273376,0.09642607718706131,-0.0826391875743866,0.024273980408906937,0.06503370404243469,-0.012244472280144691
42.25,-0.5813329815864563,0.027669046074151993,-0.15559066832065582,0.03149217739701271,0.06080124154686928,0.002210918115451932
42.3,-0.6680399179458618,0.08375655114650726,-0.08785206079483032,0.03251947462558746,0.014457647688686848,0.02410176955163479
42.35,-0.5994204878807068,0.1497126668691635,-0.033623263239860535,0.032755374908447266,-0.012486235238611698,0.022614294663071632
42.4,-0.6243435740470886,0.15480147302150726,-0.13395702838897705,0.025173502042889595,-0.030140111222863197,0.005561593919992447
42.45,-0.4885460138320923,0.21931181848049164,-0.18343311548233032,0.016291242092847824,-0.06726016104221344,0.00419212831184268
42.5,-0.017569582909345627,0.12954522669315338,-0.03772865608334541,0.007248369976878166,-0.02667848952114582,-0.018252497538924217
42.55,-0.031101752072572708,0.06246568262577057,-0.12070516496896744,0.016611644998192787,0.13878905773162842,-0.04758698120713234
42.6,-0.5452843308448792,0.1322375386953354,-0.19277416169643402,0.012851524166762829,0.21276137232780457,-0.05905499681830406
42.65,-0.7842017412185669,0.015385748818516731,-0.16262008249759674,-0.00792904943227768,0.11790373921394348,-0.05549822002649307
42.7,-0.8647904992103577,-0.015828954055905342,-0.27136269211769104,-0.011497629806399345,-0.03297267109155655,-0.01823708973824978
42.75,-0.6565870642662048,0.07158862799406052,-0.27681005001068115,-0.012425076216459274,-0.23208202421665192,0.0237050149589777
42.8,-0.2453940361738205,0.1349983811378479,-0.1602785736322403,-0.018689051270484924,-0.3628295361995697,0.03569018468260765
42.85,0.03555849567055702,0.15163327753543854,-0.13402636349201202,-0.014721081592142582,-0.31807759404182434,0.04019824042916298
42.9,-0.10503470152616501,0.09129621833562851,-0.08221437782049179,-0.014786981046199799,-0.15646813809871674,0.02959108166396618
42.95,-0.4255955219268799,0.16667182743549347,-0.12311197817325592,-0.02051854133605957,-0.009666833095252514,-0.008644552901387215
43.0,-0.3685791790485382,0.18059737980365753,-0.12089884281158447,-0.026375073939561844,0.031514231115579605,-0.039560992270708084
43.05,-0.27600494027137756,0.0690794438123703,-0.027096617966890335,-0.03308602795004845,0.06415827572345734,-0.04169405996799469
43.1,-0.43857768177986145,0.1348915845155716,0.0042479983530938625,-0.029410427436232567,0.12954376637935638,-0.03728754073381424
43.15,-0.4224531650543213,0.1490679532289505,-0.03953171521425247,-0.02458512783050537,0.1345600187778473,-0.04348563775420189
43.2,-0.3976707458496094,0.13691814243793488,0.07599176466464996,-0.016425978392362595,0.11008113622665405,-0.047575511038303375
43.25,-0.4950518012046814,0.19098767638206482,0.21104833483695984,-0.006370401009917259,0.13502264022827148,-0.05927211418747902
43.3,-0.5762231349945068,0.13725575804710388,0.043052200227975845,-0.006979364901781082,0.1692083328962326,-0.07541801780462265
43.35,-0.614277184009552,0.061781033873558044,-0.19862620532512665,-0.005524505861103535,0.14436356723308563,-0.06390050798654556
43.4,-0.5065343976020813,0.002829635748639703,-0.28659701347351074,0.005346531048417091,0.07794518768787384,-0.0251328032463789
43.45,-0.4127747118473053,0.0806475430727005,-0.1703357696533203,0.010632478632032871,0.01861756667494774,0.008547656238079071
43.5,-0.25513744354248047,0.19509130716323853,0.08226607739925385,0.010922976769506931,0.03801260516047478,-0.008037121966481209
43.55,-0.22558251023292542,0.1865559071302414,0.13985209167003632,0.011829753406345844,0.14051403105258942,-0.06277238577604294
43.6,-0.23278723657131195,0.1316090077161789,-0.0837535485625267,0.001991633325815201,0.21882730722427368,-0.09347882121801376
43.65,-0.2672538459300995,-0.0004167050065007061,-0.32306036353111267,-0.0056856535375118256,0.2093331664800644,-0.08832084387540817
43.7,-0.40310561656951904,-0.019367150962352753,-0.2844809293746948,-0.00784710980951786,0.12656952440738678,-0.07214891910552979
43.75,-0.5490328073501587,0.05666932836174965,-0.1463012546300888,-0.005822773091495037,0.07347048074007034,-0.05644305422902107
43.8,-0.6611886024475098,0.003184414468705654,-0.006711363326758146,-0.0022351099178195,0.07611103355884552,-0.0521053746342659
43.85,-0.7323784828186035,0.0276633407920599,-0.0065841334871947765,0.002335558645427227,0.07633227854967117,-0.05057189241051674
43.9,-0.619849443435669,0.09413348883390427,-0.1297798454761505,0.008798995986580849,0.005881098099052906,-0.0350772961974144
43.95,-0.3151218891143799,0.15717895328998566,-0.23489762842655182,0.013380344025790691,-0.09639231860637665,-0.007351517211645842
44.0,0.04247375950217247,0.1578817516565323,-0.08194874972105026,0.01565260998904705,-0.12893496453762054,0.012032382190227509
44.05,0.0022282674908638,0.20279601216316223,0.06014122813940048,0.018651187419891357,-0.05804694443941116,-0.005236013326793909
44.1,-0.517948567867279,0.026827892288565636,-0.06825007498264313,0.01864313706755638,0.06903514266014099,-0.0363021045923233
44.15,-1.0094079971313477,-0.016435474157333374,-0.13309353590011597,0.019597938284277916,0.11535435914993286,-0.026225408539175987
44.2,-1.0869554281234741,0.24066658318042755,-0.2688036561012268,0.006468668580055237,0.05341142416000366,-0.013985739089548588
44.25,-0.43445223569869995,-0.11348622292280197,-0.4939891993999481,-0.020833469927310944,-0.02288222126662731,-0.021632801741361618
44.3,-0.08328235894441605,-0.03926942124962807,-0.5031588673591614,-0.04469582438468933,-0.1045798659324646,-0.01015808992087841
44.35,0.24456670880317688,0.16238021850585938,-0.37038514018058777,-0.07278545945882797,-0.14842742681503296,-0.0409102588891983
44.4,0.6585447788238525,0.1342410445213318,-0.42184072732925415,-0.09920141100883484,-0.04630760848522186,-0.09955835342407227
44.45,0.47256433963775635,-0.04865556210279465,-0.6317164897918701,-0.09938885271549225,0.07489225268363953,-0.09283556789159775
44.5,0.0717322826385498,-0.07192039489746094,-0.42071065306663513,-0.091975636780262,-0.04345002770423889,-0.0034420071169734
44.55,-0.07014152407646179,-0.0600891150534153,0.14190231263637543,-0.0793408453464508,-0.23377598822116852,0.08950953185558319
44.6,-0.4174102544784546,0.0623503178358078,0.5652021169662476,-0.05971793830394745,-0.3117707371711731,0.1255090981721878
44.65,-0.7396393418312073,0.2882806062698364,0.48437008261680603,-0.04909481108188629,-0.3225013315677643,0.07347226142883301
44.7,-0.8746118545532227,0.17469991743564606,0.20689557492733002,-0.040698301047086716,-0.34730780124664307,-0.0010545855620875955
44.75,-0.993602454662323,0.2883855700492859,0.14483071863651276,-0.01917421817779541,-0.3886886537075043,0.007923800498247147
44.8,-1.0662211179733276,0.3678571581840515,0.32577085494995117,-0.024168245494365692,-0.38770198822021484,-0.03224589675664902
44.85,-1.286866545677185,0.27406617999076843,0.3938450217247009,-0.06979422271251678,-0.3645351231098175,-0.18875756859779358
44.9,-1.5139954090118408,0.38414791226387024,0.37252235412597656,-0.09254669398069382,-0.3782648742198944,-0.3058323562145233
44.95,-1.3174195289611816,0.2940332591533661,0.3884323537349701,-0.054294683039188385,-0.3241385519504547,-0.3594158887863159
45.0,-0.5608943700790405,-0.030462196096777916,0.19845804572105408,0.0037344470620155334,-0.24826903641223907,-0.3199745714664459
45.05,0.08987925201654434,0.015782341361045837,0.1113319993019104,0.04532478377223015,-0.24643300473690033,-0.207911878824234
45.1,0.30017510056495667,0.13470551371574402,0.06880462914705276,0.10228684544563293,-0.14709138870239258,-0.17172332108020782
45.15,0.4321470856666565,0.2648467719554901,0.1706722527742386,0.14447614550590515,0.04532647132873535,-0.21780788898468018
45.2,0.686545729637146,0.07077398896217346,-0.10328660160303116,0.17366290092468262,0.2862913906574249,-0.2913738787174225
45.25,0.5740330815315247,-0.04262835904955864,-0.43842387199401855,0.188189297914505,0.4235953688621521,-0.3024841547012329
45.3,0.1473872810602188,0.006529792211949825,-0.11297956109046936,0.11842694878578186,0.35030338168144226,-0.2785021960735321
45.35,-0.7856367230415344,-0.13346374034881592,-0.4185481369495392,0.037288375198841095,0.3043399751186371,-0.26439183950424194
45.4,-1.8560470342636108,-0.19694776833057404,-1.212859869003296,0.00622190535068512,0.16928523778915405,-0.19679541885852814
45.45,-2.0130395889282227,0.10306200385093689,-0.6872039437294006,-0.05388885363936424,-0.2249893844127655,-0.08053117245435715
45.5,-1.428955078125,0.3518402576446533,0.12079661339521408,-0.12649418413639069,-0.4551452696323395,-0.04251251369714737
45.55,-0.8657535314559937,0.10967937111854553,-0.16540996730327606,-0.10781630873680115,-0.33197247982025146,-0.0854465588927269
45.6,-0.6677249670028687,0.11422552168369293,-0.5140689611434937,-0.0888630673289299,-0.22992992401123047,-0.05067089572548866
45.65,-0.38170433044433594,0.36315831542015076,0.13583222031593323,-0.17224499583244324,-0.3063642978668213,0.00036285349051468074
45.7,0.14605481922626495,0.32036304473876953,0.3821365237236023,-0.18542692065238953,-0.22315135598182678,-0.04370824247598648
45.75,0.14525552093982697,-0.0769367516040802,-0.05237497761845589,-0.0773334801197052,-0.04501194506883621,-0.07945626974105835
45.8,-0.4200630187988281,-0.12434858828783035,-0.12330324947834015,0.010852712206542492,-0.04324055463075638,-0.00785115733742714
45.85,-0.8266234397888184,0.056510113179683685,-0.4107113480567932,0.1121048629283905,-0.01819249801337719,0.06464208662509918
45.9,-0.7084171175956726,0.28139030933380127,0.198162242770195,0.0900430977344513,-0.08128999173641205,0.12261401861906052
45.95,-0.2827579379081726,0.1321001499891281,0.16301026940345764,0.07599469274282455,0.029450466856360435,0.10694225877523422
46.0,-0.08044062554836273,-0.21802043914794922,-0.6455943584442139,0.09411414712667465,0.1478564739227295,0.0996188148856163
46.05,-0.35442036390304565,0.008213109336793423,-0.3794645667076111,0.08007960021495819,0.08048778772354126,0.14385201036930084
46.1,-0.8443307280540466,0.18504346907138824,-0.021267222240567207,0.05781074985861778,0.049944158643484116,0.1686715930700302
46.15,-1.0965983867645264,0.1494428515434265,-0.21976323425769806,0.04808986932039261,0.1234235167503357,0.14690543711185455
46.2,-0.5483359098434448,0.07630644738674164,-0.4015904664993286,0.022040359675884247,0.17313013970851898,0.12459823489189148
46.25,0.47127389907836914,-0.08665186166763306,-0.43508854508399963,-0.0013710930943489075,0.16007398068904877,0.1584322154521942
46.3,0.5023705363273621,0.030510831624269485,0.06673257797956467,-0.0019668638706207275,0.10066529363393784,0.214622363448143
46.35,-0.2815150022506714,0.19587618112564087,0.4234251081943512,0.015726737678050995,0.14161710441112518,0.24171598255634308
46.4,-0.7752638459205627,0.16320335865020752,0.20287464559078217,0.028892334550619125,0.33526697754859924,0.21765926480293274
46.45,-0.7650846838951111,0.038425568491220474,-0.1935412585735321,0.02474820613861084,0.5506989359855652,0.15725480020046234
46.5,-0.3821756839752197,0.0785571038722992,-0.6778651475906372,-0.009127320721745491,0.6394914984703064,0.10378512740135193
46.55,0.06935186684131622,0.11986353993415833,-0.6061277389526367,-0.06530886143445969,0.5731029510498047,0.04569171369075775
46.6,-0.5673389434814453,0.7094556093215942,0.2975468039512634,-0.11379824578762054,0.4369071424007416,-0.030781349167227745
46.65,-1.5651710033416748,2.0580782890319824,2.3323299884796143,-0.28505074977874756,0.19067026674747467,-0.24898189306259155
46.7,0.024860739707946777,1.1029787063598633,2.4513020515441895,-0.537993848323822,0.27067723870277405,-0.6122177839279175
46.75,1.6526280641555786,-1.5605149269104004,-0.8339918851852417,-0.5345427989959717,0.6924719214439392,-0.6902679800987244
46.8,1.6030889749526978,-2.066988468170166,-1.9273844957351685,-0.342303067445755,0.573318600654602,-0.37667080760002136
46.85,0.9269106388092041,-2.493116617202759,-1.6610080003738403,-0.053311411291360855,0.21910446882247925,-0.043851207941770554
46.9,0.10719117522239685,-1.8995110988616943,-0.9221258759498596,0.19833341240882874,-0.08231573551893234,0.22969616949558258
46.95,-1.8542399406433105,1.92564058303833,0.7201699614524841,0.321542888879776,-0.3641241788864136,0.39412808418273926
47.0,-2.632336378097534,4.355274200439453,2.4139132499694824,0.15508729219436646,-0.5531591773033142,0.14994090795516968
47.05,-1.7002979516983032,0.891646683216095,2.17618465423584,-0.24616655707359314,-0.28658658266067505,-0.3540933132171631
47.1,-2.3125603199005127,-0.430103063583374,0.5716018676757812,-0.3854220509529114,-0.3850643038749695,-0.4401133060455322
47.15,-2.250422477722168,-0.10623425245285034,0.24171899259090424,-0.3130113482475281,-0.8718830943107605,-0.371703565120697
47.2,-1.3413912057876587,-0.10064297914505005,0.02732934057712555,-0.14348098635673523,-0.9111563563346863,-0.33331382274627686
47.25,0.04026727378368378,-0.32346922159194946,0.783297598361969,0.10916008055210114,-0.8207520246505737,-0.3585827946662903
47.3,0.018158376216888428,0.03170294687151909,1.267167091369629,0.21659588813781738,-0.5546306371688843,-0.4404948651790619
47.35,-0.5449192523956299,-0.4091215133666992,0.6811206936836243,0.20850703120231628,-0.3517272174358368,-0.4665004014968872
47.4,-0.7599419951438904,-0.46190348267555237,-1.044776201248169,0.26856911182403564,-0.214389830827713,-0.4804956316947937
47.45,-0.52378910779953,-0.04928864911198616,-0.8239948153495789,0.27979087829589844,-0.354515016078949,-0.2963957190513611
47.5,-0.27458152174949646,0.25873860716819763,-0.6040269732475281,0.31043457984924316,-0.3365665078163147,-0.1420409232378006
47.55,-0.2039600908756256,0.16285142302513123,-1.040242314338684,0.32304897904396057,-0.18584808707237244,-0.06941984593868256
47.6,-0.23184429109096527,0.17522916197776794,-0.9472881555557251,0.2898450493812561,-0.11068108677864075,-0.0055443658493459225
47.65,-0.054800838232040405,0.22042852640151978,-0.6372557282447815,0.2593039572238922,-0.042521510273218155,0.024833323433995247
