Time [s],Acc_x [m/s^2],Acc_y [m/s^2],Acc_z [m/s^2],Gyro_x [1/s],Gyro_y [1/s],Gyro_z [1/s]
0.0,0.7646925449371338,0.0037575303576886654,0.4448818862438202,-0.10958170145750046,-0.15997609496116638,0.011371011845767498
0.025,0.39237168431282043,0.044590067118406296,0.558351993560791,-0.04503125324845314,0.12181131541728973,-0.03665279597043991
0.05,0.12354522943496704,0.12678727507591248,0.5783792734146118,-0.005227912217378616,0.17623654007911682,-0.06381550431251526
0.075,-0.02960021048784256,0.1850453019142151,0.43202340602874756,0.017443252727389336,0.1086793914437294,-0.06691328436136246
0.1,-0.04040245711803436,0.2024574726819992,0.18166448175907135,0.008508939296007156,-0.04052247107028961,-0.05131286755204201
0.125,0.06260691583156586,0.2194538414478302,-0.0036970661021769047,0.005151296500116587,-0.08608432114124298,-0.030280154198408127
0.15,0.0008495303336530924,0.22175315022468567,-0.002380762016400695,0.008837491273880005,0.03319951146841049,-0.017776163294911385
0.175,-0.0725865364074707,0.11534883081912994,0.019896695390343666,-0.046788133680820465,0.020300284028053284,0.0029460019432008266
0.2,-0.08941862732172012,0.15803052484989166,0.05610038712620735,-0.059729862958192825,0.10117219388484955,0.03141589090228081
0.225,-0.19375008344650269,0.32976725697517395,0.10022146254777908,-0.07142969965934753,0.13400451838970184,0.05977490544319153
0.25,-0.20952355861663818,0.4098854660987854,-0.06201223284006119,-0.1135656088590622,0.01878920942544937,0.07875531911849976
0.275,-0.10642465949058533,0.35543060302734375,-0.3356670141220093,-0.1396714746952057,-0.025450212880969048,0.10722028464078903
0.3,-0.09629276394844055,0.3090667724609375,-0.31210625171661377,-0.2076881378889084,-0.07890695333480835,0.14188352227210999
0.325,-0.012624520808458328,0.334598571062088,0.1235637292265892,-0.2952413558959961,-0.25166505575180054,0.18779915571212769
0.35,0.36917343735694885,0.251807302236557,0.45409080386161804,-0.3741205036640167,-0.6401339173316956,0.25532230734825134
0.375,0.8826114535331726,0.09359654784202576,0.6604262590408325,-0.32803502678871155,-0.6955792903900146,0.26100239157676697
0.4,1.0246225595474243,-0.010812662541866302,0.8220577239990234,-0.1923033446073532,-0.3669614791870117,0.19068825244903564
0.425,0.9514346122741699,-0.038585588335990906,0.6656082272529602,-0.048626936972141266,-0.12886258959770203,0.10617242008447647
0.45,1.0471477508544922,-0.06889434903860092,0.40463986992836,0.07818097621202469,0.008549599908292294,0.02789159305393696
0.475,0.8357530236244202,-0.04042528197169304,0.19585822522640228,0.1551971584558487,0.28269049525260925,-0.06759954988956451
0.5,0.2103097140789032,0.06475640833377838,0.03556131199002266,0.1781608760356903,0.5250442028045654,-0.13351145386695862
0.525,-0.4849606454372406,0.13764670491218567,0.08351356536149979,0.13243228197097778,0.6225273609161377,-0.13660793006420135
0.55,-0.7666290402412415,0.16489510238170624,0.1954970508813858,0.025871125981211662,0.5712099671363831,-0.08947648853063583
0.575,-0.5950547456741333,0.2299080193042755,0.057989101856946945,-0.08471329510211945,0.3666228950023651,-0.014643142931163311
0.6,-0.6696971654891968,0.35970020294189453,-0.17041584849357605,-0.19497843086719513,0.3388075530529022,0.07015621662139893
0.625,-0.81219881772995,0.46464064717292786,-0.31406107544898987,-0.2667311131954193,0.31997933983802795,0.16850270330905914
0.65,-0.5539304614067078,0.3824424743652344,-0.42477601766586304,-0.2802596092224121,0.17007939517498016,0.2698539197444916
0.675,-0.3749164044857025,0.23985669016838074,-0.4577546715736389,-0.2852126657962799,0.23432372510433197,0.3312346041202545
0.7,-0.37335139513015747,0.19059085845947266,-0.2967815697193146,-0.3030087649822235,0.4223916828632355,0.37025123834609985
0.725,-0.07606183737516403,0.17375758290290833,0.06715356558561325,-0.29451438784599304,0.4274066984653473,0.4231055676937103
0.75,0.3249225616455078,0.050430379807949066,0.6244726777076721,-0.2621072828769684,0.38174712657928467,0.45592114329338074
0.775,0.36010217666625977,-0.05193600431084633,1.2855007648468018,-0.22431032359600067,0.41407352685928345,0.44429269433021545
0.8,-0.13064540922641754,0.05983371287584305,1.4976105690002441,-0.1593940109014511,0.3723883330821991,0.41769203543663025
0.825,-0.5696204900741577,0.22476306557655334,0.9803914427757263,-0.06561961024999619,0.008702944964170456,0.4138568043708801
0.85,-0.5161557793617249,0.22842130064964294,0.4491293132305145,0.02673236094415188,-0.33778709173202515,0.4404993951320648
0.875,-0.804847776889801,0.3261805474758148,0.39094266295433044,0.10084218531847,-0.2575337588787079,0.4276998043060303
0.9,-1.5553374290466309,0.5558491945266724,0.4473739564418793,0.19283853471279144,-0.24718117713928223,0.37393441796302795
0.925,-1.8717862367630005,0.5127745270729065,0.23861931264400482,0.26244238018989563,-0.5380359292030334,0.31469103693962097
0.95,-0.9486521482467651,0.0878419503569603,-0.37858137488365173,0.19545240700244904,-1.0490622520446777,0.3299255967140198
0.975,1.3632261753082275,-0.2682191729545593,-1.1949183940887451,0.04345669224858284,-1.6424509286880493,0.382120281457901
1.0,3.1825430393218994,-0.3026868999004364,-1.4447919130325317,-0.11120233684778214,-1.4168580770492554,0.32514020800590515
1.025,3.1448795795440674,-0.3095341920852661,-0.8039342164993286,-0.2726069390773773,-0.47352591156959534,0.22646501660346985
1.05,2.651637554168701,-0.3562183678150177,0.10103806108236313,-0.40568020939826965,-0.08831456303596497,0.23888732492923737
1.075,3.091590166091919,-0.231413796544075,0.6218260526657104,-0.477613627910614,-0.43021419644355774,0.33519357442855835
1.1,3.770927667617798,0.11334050446748734,0.9520540237426758,-0.4744293689727783,-0.32607951760292053,0.27143558859825134
1.125,2.663348913192749,0.24124452471733093,1.4906426668167114,-0.38306573033332825,0.7088764309883118,-0.0882996916770935
1.15,-0.21588033437728882,0.08825136721134186,2.037230968475342,-0.2826263904571533,1.9065111875534058,-0.5967982411384583
1.175,-1.5794659852981567,0.02973390370607376,2.034633159637451,-0.1341562122106552,1.9390391111373901,-0.9179866313934326
1.2,-0.639668345451355,0.2069179266691208,1.0746296644210815,0.03401597589254379,1.2821216583251953,-0.9554107785224915
1.225,0.05868760496377945,0.5988550782203674,-0.0986369177699089,0.28568845987319946,0.8044452667236328,-0.8194406628608704
1.25,-0.004249061457812786,0.4213857352733612,-0.7350211143493652,0.4521961808204651,0.01974005438387394,-0.6234635710716248
1.275,0.20736463367938995,0.0015801088884472847,-1.0882172584533691,0.3931517004966736,-0.7882118821144104,-0.5449928045272827
1.3,0.10966650396585464,0.02217758633196354,-0.943256139755249,0.2635633945465088,-0.6412492990493774,-0.597981333732605
1.325,-1.0337278842926025,0.21904470026493073,-0.06675060093402863,0.16785003244876862,0.13237842917442322,-0.6356761455535889
1.35,-1.4407671689987183,0.3324824273586273,0.5243636965751648,0.16031435132026672,0.03613048419356346,-0.523481547832489
1.375,-0.5057336688041687,0.20536716282367706,0.34565043449401855,0.18542589247226715,-0.4934777021408081,-0.3749293386936188
1.4,-0.2669667601585388,0.12123110890388489,0.11820674687623978,0.22416776418685913,-0.27321451902389526,-0.33322420716285706
1.425,-0.6756430268287659,0.24692824482917786,0.01429020520299673,0.2524924576282501,-0.06772053241729736,-0.2908271551132202
1.45,-0.6983086466789246,0.379153311252594,-0.06938476115465164,0.23629288375377655,-0.2506651282310486,-0.19971944391727448
1.475,-0.6163332462310791,0.38813692331314087,-0.06158289313316345,0.19474273920059204,-0.3182162642478943,-0.12090595811605453
1.5,-0.3367089629173279,0.24573804438114166,-0.08907303959131241,0.16358059644699097,-0.3510119915008545,-0.04335394501686096
1.525,0.22752682864665985,0.05680655315518379,-0.16568224132061005,0.14648650586605072,-0.3515911102294922,0.014888777397572994
1.55,0.5399731397628784,0.12028121948242188,-0.09649577736854553,0.1518685519695282,-0.21371708810329437,0.010494232177734375
1.575,0.2594086825847626,0.5169878602027893,0.0331280380487442,0.1501457840204239,-0.1353389322757721,-0.023191101849079132
1.6,-0.30344998836517334,0.6380415558815002,-0.058393318206071854,0.10250307619571686,-0.2029128223657608,-0.0375262014567852
1.625,-0.18041513860225677,0.2748565375804901,-0.4219115972518921,0.0394156388938427,-0.17282947897911072,-0.04310525953769684
1.65,1.184812068939209,-0.1365300416946411,-0.8840557336807251,-0.07385922968387604,0.07890230417251587,-0.2536100745201111
1.675,0.8110848665237427,0.01759231649339199,-0.9718887805938721,-0.07024934887886047,1.0108684301376343,-0.30226725339889526
1.7,-0.4938504099845886,0.6326522827148438,-0.6868557929992676,-0.040777333080768585,0.7568378448486328,0.0809725970029831
1.725,0.8681064248085022,0.4959583282470703,-0.5395862460136414,-0.20509524643421173,-0.8623542785644531,0.34067094326019287
1.75,1.1574466228485107,0.07854557037353516,-0.05513094365596771,-0.21792876720428467,-0.2630769908428192,0.24737431108951569
1.775,-0.4021837115287781,0.13949114084243774,0.4053388833999634,-0.1352875977754593,0.7403056025505066,0.14385801553726196
1.8,-0.41272425651550293,0.166965514421463,0.17375004291534424,-0.1557416468858719,0.08186288923025131,0.24865669012069702
1.825,-0.026856061071157455,0.05135725438594818,-0.19739045202732086,-0.17327852547168732,-0.10070507228374481,0.3024587035179138
1.85,-0.2639331519603729,-0.019866986200213432,-0.3505070209503174,-0.19365498423576355,0.18666982650756836,0.2913585901260376
1.875,-0.1978769600391388,0.03997034579515457,-0.4568566679954529,-0.2441241443157196,0.1257649064064026,0.33683812618255615
1.9,-0.02488139644265175,0.1436585932970047,-0.4422753155231476,-0.29170089960098267,0.16237743198871613,0.36975499987602234
1.925,-0.06119954586029053,0.18624018132686615,-0.18933866918087006,-0.3351297378540039,0.28382188081741333,0.39805668592453003
1.95,-0.01435630489140749,0.18058304488658905,0.22310088574886322,-0.36796319484710693,0.2752125859260559,0.4379310607910156
1.975,-0.09784387797117233,0.19059477746486664,0.6298851370811462,-0.37659695744514465,0.3542088568210602,0.42412590980529785
2.0,-0.35900765657424927,0.08825216442346573,0.7238198518753052,-0.346584677696228,0.3763459622859955,0.41194283962249756
2.025,-0.48439615964889526,-0.036519940942525864,0.5573936700820923,-0.2935431897640228,0.30917593836784363,0.4461299777030945
2.05,-0.8109325170516968,0.10579021275043488,0.49076545238494873,-0.2520613968372345,0.42044439911842346,0.45256105065345764
2.075,-1.2092900276184082,0.226782888174057,0.46935853362083435,-0.2276819795370102,0.3941517472267151,0.5105461478233337
2.1,-0.8712090253829956,0.1960497349500656,0.16863450407981873,-0.20284704864025116,0.07207083702087402,0.666897177696228
2.125,-0.3555346727371216,0.16615483164787292,-0.397286057472229,-0.20295388996601105,-0.11402157694101334,0.7899168729782104
2.15,-0.848322331905365,0.15603914856910706,-0.8548915982246399,-0.25047144293785095,-0.039316706359386444,0.8306289315223694
2.175,-2.172736883163452,0.01680266670882702,-1.031262755393982,-0.3347286880016327,0.0036047527100890875,0.9166812896728516
2.2,-3.0276129245758057,-0.19288554787635803,-1.042677402496338,-0.46228912472724915,-0.17523132264614105,1.1406232118606567
2.225,-2.3238136768341064,-0.2969028353691101,-1.2874679565429688,-0.6472705602645874,-0.7135512828826904,1.4747238159179688
2.25,-0.2558879852294922,-0.06292178481817245,-2.1413612365722656,-0.7655431628227234,-1.4345394372940063,1.7704370021820068
2.275,1.802901268005371,0.5909897685050964,-3.174091100692749,-0.7323839664459229,-1.578836441040039,1.7466117143630981
2.3,3.229945182800293,1.3146893978118896,-3.469977378845215,-0.6878132820129395,-0.8762134909629822,1.2968064546585083
2.325,4.646158695220947,1.5238407850265503,-2.67386794090271,-0.7144367694854736,0.042571213096380234,0.6825153827667236
2.35,4.795788764953613,1.2045191526412964,-1.5777887105941772,-0.7302088141441345,0.8904461860656738,0.16335943341255188
2.375,3.0390572547912598,1.0106744766235352,-0.7504987716674805,-0.43687790632247925,1.5446494817733765,-0.44923073053359985
2.4,1.6631501913070679,1.0323200225830078,-0.7699083089828491,0.30979788303375244,1.7281923294067383,-0.9863203763961792
2.425,0.21522444486618042,0.5550755262374878,-1.376416802406311,0.8696465492248535,2.442319631576538,-1.591469168663025
2.45,-2.0798723697662354,-0.29816362261772156,-1.5743225812911987,1.3531761169433594,2.8653197288513184,-2.129119634628296
2.475,-3.0688390731811523,-0.680986762046814,-2.4166135787963867,2.2518322467803955,1.4669491052627563,-2.1158368587493896
2.5,-2.109344005584717,-0.8530317544937134,-3.928332567214966,3.0147945880889893,-0.18807898461818695,-2.0859642028808594
2.525,-0.304709255695343,-0.9070755839347839,-4.729500770568848,3.405245304107666,-0.9971933364868164,-2.1142470836639404
2.55,1.0654090642929077,-0.9543349146842957,-4.38836669921875,3.5293757915496826,-0.8311798572540283,-2.057954788208008
2.575,1.2974721193313599,-0.9329543709754944,-3.6394870281219482,3.6621131896972656,-0.2807103097438812,-1.8597773313522339
2.6,1.0414390563964844,-0.6281847357749939,-2.8794944286346436,3.806521415710449,-0.016880705952644348,-1.6106843948364258
2.625,0.9903835654258728,-0.22387628257274628,-2.1458935737609863,3.8565850257873535,-0.2539457380771637,-1.4159711599349976
2.65,1.1768490076065063,0.02218133956193924,-1.4456548690795898,3.7506325244903564,-0.6989393830299377,-1.3220592737197876
2.675,1.545625925064087,0.1735324263572693,-0.6506885886192322,3.507281541824341,-1.1141626834869385,-1.2838741540908813
2.7,1.9778425693511963,0.2396135926246643,0.2781355381011963,3.1546437740325928,-1.4543800354003906,-1.2169743776321411
2.725,2.096505641937256,0.19693678617477417,1.2867614030838013,2.695343017578125,-1.6353442668914795,-1.0692862272262573
2.75,1.7762722969055176,-0.09713240712881088,2.4247162342071533,2.1577506065368652,-1.6276146173477173,-0.8652435541152954
2.775,1.3774049282073975,-0.7594448924064636,3.4812867641448975,1.5376871824264526,-1.5570610761642456,-0.6076708436012268
2.8,1.5052155256271362,-1.5633056163787842,4.179697513580322,0.8243818283081055,-1.6807525157928467,-0.472355455160141
2.825,1.9395827054977417,-2.486957311630249,4.520069122314453,0.05709164962172508,-1.7818026542663574,-0.4553503692150116
2.85,0.6583844423294067,-3.521355628967285,3.59401535987854,-0.7232535481452942,-1.469211220741272,-0.24279382824897766
2.875,-3.6352806091308594,-3.609755754470825,1.2406110763549805,-1.3189599514007568,-1.1680512428283691,-0.25795868039131165
2.9,-5.791961193084717,-1.9994306564331055,2.3968372344970703,-1.2573984861373901,-1.428707242012024,-1.19914710521698
2.925,-2.158491611480713,-0.9475730657577515,5.852001190185547,-1.2045058012008667,-1.6949760913848877,-2.4877641201019287
2.95,1.541690468788147,-0.9186299443244934,6.340540885925293,-1.539589762687683,-0.4737924337387085,-2.0075535774230957
2.975,1.6258125305175781,0.470208078622818,6.648674011230469,-1.353312373161316,1.864999771118164,0.26019614934921265
3.0,0.4953381419181824,1.7208585739135742,6.293021202087402,-1.0930814743041992,1.963338017463684,0.5589196085929871
3.025,0.15557453036308289,2.3733558654785156,5.267789363861084,-0.8197885155677795,-0.055489763617515564,-0.7980521321296692
3.05,-0.09365745633840561,1.912753701210022,2.656111717224121,-0.6441069841384888,-1.2148113250732422,-1.3125287294387817
3.075,-0.4127214252948761,1.0571956634521484,-0.5126643180847168,-0.5689436197280884,-0.8340769410133362,-0.822359025478363
3.1,-0.9799244403839111,0.8482159972190857,-1.5061767101287842,-0.685481071472168,-0.07805509865283966,-0.18632028996944427
3.125,-1.9025052785873413,1.5944921970367432,-0.19907331466674805,-0.9000784158706665,0.009220157749950886,0.09359142184257507
3.15,-1.1438801288604736,2.255662202835083,0.9215596318244934,-1.0665433406829834,-0.8924330472946167,-0.3433794379234314
3.175,0.5007449984550476,1.601111650466919,0.28728270530700684,-1.1482954025268555,-1.2081456184387207,-0.4798506796360016
3.2,0.7927864193916321,0.6689491271972656,-0.4425901472568512,-1.207288384437561,-0.5132324695587158,0.053834281861782074
3.225,0.8036002516746521,0.1299419403076172,-0.09472887963056564,-1.3396352529525757,-0.30023613572120667,0.20342065393924713
3.25,0.9868537783622742,-0.34939661622047424,0.9743741750717163,-1.4031636714935303,-0.273440420627594,0.20730069279670715
3.275,0.7061511874198914,-0.981892466545105,1.9402198791503906,-1.3239256143569946,-0.004130199551582336,0.2549685835838318
3.3,0.26737916469573975,-1.640532374382019,2.6038920879364014,-1.1474189758300781,0.17423687875270844,0.22477233409881592
3.325,0.05965913087129593,-1.9474653005599976,3.0245134830474854,-0.947321355342865,0.18606387078762054,0.19957996904850006
3.35,-0.11646855622529984,-1.618057131767273,3.0097875595092773,-0.6673434376716614,0.15604747831821442,0.1602979302406311
3.375,-0.26674407720565796,-0.9449700117111206,2.1944057941436768,-0.39013099670410156,-0.026926837861537933,0.09207963198423386
3.4,0.07030270993709564,-0.24056710302829742,1.15719473361969,-0.211689755320549,-0.3465380072593689,-0.008470923639833927
3.425,0.3041110038757324,0.15772543847560883,0.7408257126808167,-0.1361680030822754,-0.2434258759021759,0.05612485483288765
3.45,-0.10594936460256577,0.2195979207754135,0.6369031071662903,-0.11177386343479156,0.08453051000833511,0.20223814249038696
3.475,-0.2974271774291992,0.17755326628684998,0.6063581109046936,-0.11517804861068726,-0.02259506657719612,0.19563564658164978
3.5,0.019312836229801178,0.037981148809194565,0.9274531602859497,-0.12213057279586792,-0.22333694994449615,0.16421058773994446
3.525,-0.028817158192396164,-0.11494052410125732,1.140485405921936,-0.08875330537557602,-0.06057874485850334,0.2568133473396301
3.55,-0.20683640241622925,-0.0729302242398262,1.0005286931991577,-0.02087324485182762,0.11758363246917725,0.35111716389656067
3.575,-0.03494257107377052,0.07480631023645401,0.7426133751869202,0.019194375723600388,0.12553907930850983,0.3755002021789551
3.6,0.05791955068707466,0.28332147002220154,0.4782484471797943,0.017071865499019623,0.15215277671813965,0.42092612385749817
3.625,0.27644750475883484,0.4021855294704437,0.2959839105606079,-0.019958170130848885,0.07438764721155167,0.40608322620391846
3.65,0.6709607839584351,0.39192304015159607,0.28526321053504944,-0.08345772325992584,0.030342165380716324,0.3724711835384369
3.675,0.7369400858879089,0.33775052428245544,0.4694196283817291,-0.15139293670654297,0.1924581229686737,0.4100477397441864
3.7,0.5381679534912109,0.210882306098938,0.7013629674911499,-0.19527891278266907,0.3153269588947296,0.42741358280181885
3.725,0.41185247898101807,0.05323518067598343,1.0053859949111938,-0.20545519888401031,0.34839847683906555,0.41355305910110474
3.75,0.30870071053504944,0.03923814743757248,1.4064687490463257,-0.1823391169309616,0.4362357556819916,0.4156281054019928
3.775,0.1814216524362564,0.19346165657043457,1.7221429347991943,-0.11349689960479736,0.44567957520484924,0.3613182604312897
3.8,0.2871873080730438,0.36667370796203613,1.7447288036346436,-0.04530103877186775,0.20130181312561035,0.22245243191719055
3.825,0.5690755248069763,0.2867433428764343,1.188576102256775,-0.008156937547028065,-0.03204471617937088,0.15455077588558197
3.85,0.7022419571876526,-0.1197967603802681,0.08016448467969894,0.03884965553879738,-0.11958874017000198,0.16013216972351074
3.875,0.41126999258995056,-0.4128190577030182,-0.8296645879745483,0.10239659249782562,-0.023508591577410698,0.17517036199569702
3.9,-0.5547497868537903,-0.35240092873573303,-1.0242520570755005,0.1853387951850891,0.2046385109424591,0.2488081008195877
3.925,-1.7477630376815796,-0.4694339334964752,-0.7594379186630249,0.3772508203983307,0.07596294581890106,0.1926387995481491
3.95,-2.0821917057037354,-1.0586636066436768,-0.6492379903793335,0.7417113780975342,-0.6151199340820312,-0.11712930351495743
3.975,-0.42414069175720215,-1.5052692890167236,-0.17063568532466888,1.0915838479995728,-1.641163945198059,-0.6084544062614441
4.0,2.0172035694122314,-1.3296564817428589,2.0688397884368896,1.1916543245315552,-1.6177104711532593,-0.6928051114082336
4.025,2.2996344566345215,-1.063693642616272,3.5356764793395996,0.5629002451896667,-0.28848862648010254,-0.0743241235613823
4.05,0.7259919047355652,-0.7122943997383118,1.8681938648223877,-0.38664525747299194,0.34848496317863464,0.29290613532066345
4.075,0.39018484950065613,-0.06874167174100876,1.1069499254226685,-0.312133252620697,-0.4815469980239868,-0.11345221102237701
4.1,1.8922258615493774,0.8423515558242798,3.978452444076538,0.41434380412101746,-1.5801022052764893,-0.5911061763763428
4.125,1.6568251848220825,1.2152955532073975,4.683832168579102,0.5141352415084839,-1.101760983467102,-0.3190758228302002
4.15,0.4693727195262909,1.012097716331482,1.7609869241714478,0.6805242896080017,-0.48258739709854126,-0.13956576585769653
4.175,0.42163950204849243,0.535855233669281,-0.8410286903381348,0.7076904773712158,-0.43320930004119873,-0.2402348667383194
4.2,0.8938666582107544,0.8861855864524841,-1.3292440176010132,0.5250837206840515,-0.40285927057266235,-0.1957610845565796
4.225,0.41279008984565735,1.2112609148025513,-0.42173850536346436,0.24032871425151825,-0.008930143900215626,-0.0033341937232762575
4.25,-0.6838895082473755,0.9283782243728638,0.1570025086402893,0.020732976496219635,0.1824718415737152,0.13188552856445312
4.275,-0.4432568848133087,0.46269047260284424,0.4945286214351654,-0.02129940502345562,-0.31787165999412537,-0.0859377384185791
4.3,0.10819903761148453,0.17033590376377106,0.9422842264175415,-0.05069589614868164,-0.3682497441768646,-0.045027054846286774
4.325,-0.08064969629049301,0.03662121295928955,0.9610491991043091,-0.1057383120059967,-0.12720128893852234,0.14063535630702972
4.35,-0.3082844913005829,-0.017773523926734924,0.8898354768753052,-0.10195775330066681,-0.21737326681613922,0.11875613033771515
4.375,-0.2603759467601776,-0.1867302656173706,1.1574405431747437,-0.1241588369011879,-0.3146677315235138,0.1135392040014267
4.4,-0.29828670620918274,-0.5626581907272339,1.6268450021743774,-0.14199939370155334,-0.15648697316646576,0.2880634665489197
4.425,-0.19647662341594696,-0.8811005353927612,1.95795476436615,-0.05342313274741173,-0.1463715136051178,0.37528347969055176
4.45,0.22787010669708252,-0.8794430494308472,2.1026220321655273,0.1282293200492859,-0.2728186249732971,0.3578702509403229
4.475,0.28321850299835205,-0.6192300915718079,2.08668851852417,0.2915491461753845,-0.09218878298997879,0.49908247590065
4.5,-0.11669020354747772,-0.27883416414260864,1.8640546798706055,0.4208325445652008,0.23095090687274933,0.7250454425811768
4.525,-0.15852764248847961,0.40188339352607727,1.702470302581787,0.5572835206985474,0.22959928214550018,0.7680239081382751
4.55,0.067095085978508,1.5203852653503418,2.2098782062530518,0.6322711110115051,0.24736644327640533,0.8069734573364258
4.575,-0.04407446086406708,2.5346648693084717,3.2229058742523193,0.6275867819786072,0.42542827129364014,0.9443798065185547
4.6,-0.4731276035308838,3.0603466033935547,4.208386421203613,0.6608319878578186,0.423849880695343,1.038217306137085
4.625,-0.604780912399292,2.5695016384124756,4.60828971862793,0.7798048257827759,0.1309569925069809,0.9904279112815857
4.65,-0.7848367094993591,1.36565363407135,4.143110275268555,0.8652832508087158,-0.07728450745344162,0.8512040376663208
4.675,-0.9400585293769836,0.3192600905895233,3.6056649684906006,0.9325951933860779,-0.08402487635612488,0.688888430595398
4.7,-0.6994469165802002,-0.6605994701385498,2.599583387374878,0.9039293527603149,-0.13159146904945374,0.3433037996292114
4.725,-0.02356002852320671,-1.310654640197754,1.1560206413269043,0.866121768951416,-0.3215307891368866,-0.20302070677280426
4.75,0.8978824615478516,-1.641947865486145,1.083643913269043,0.698710024356842,-0.24287497997283936,-0.4027060568332672
4.775,1.201501727104187,-1.9951266050338745,2.598010301589966,0.272621214389801,0.412183552980423,-0.06880518049001694
4.8,0.71587735414505,-2.107574462890625,2.972757577896118,-0.4417661130428314,0.9290364980697632,0.11423975229263306
4.825,0.5664817690849304,-1.9650028944015503,2.7136383056640625,-0.9675647020339966,0.7682532072067261,-0.24764756858348846
4.85,1.1934623718261719,-1.1743056774139404,2.7484641075134277,-1.3892817497253418,0.5500332117080688,-0.6385109424591064
4.875,2.0644032955169678,-0.3443391025066376,2.555901527404785,-1.837704062461853,0.5103119015693665,-0.7939770221710205
4.9,2.239773988723755,0.2700846493244171,2.0959081649780273,-2.30291748046875,0.7998477220535278,-0.6295775175094604
4.925,1.5362170934677124,0.8385117650032043,1.3477863073349,-2.6822092533111572,1.0219736099243164,-0.391408771276474
4.95,0.8797301650047302,1.0881903171539307,0.5835225582122803,-2.8591597080230713,0.7378215193748474,-0.33993926644325256
4.975,0.8179289102554321,0.8765593767166138,0.05958503857254982,-2.840484142303467,0.11741426587104797,-0.3657988905906677
5.0,1.3336513042449951,0.3366203308105469,-0.2580364942550659,-2.7280421257019043,-0.48037490248680115,-0.37843310832977295
5.025,1.7071378231048584,-0.29520806670188904,-0.5042797923088074,-2.549217700958252,-0.7772300839424133,-0.3687933385372162
5.05,1.2277146577835083,-0.8796637058258057,-1.138165831565857,-2.217005968093872,-0.6658498644828796,-0.33285221457481384
5.075,0.7263250946998596,-1.4636539220809937,-2.025601387023926,-1.7078927755355835,-0.699076771736145,-0.23034629225730896
5.1,0.7766721844673157,-2.0393097400665283,-3.082974672317505,-1.0479809045791626,-1.0104155540466309,-0.11121197044849396
5.125,0.9195117950439453,-2.1643526554107666,-4.101969242095947,-0.3274330496788025,-1.1486908197402954,-0.08726971596479416
5.15,0.8621767163276672,-1.3635145425796509,-3.6669933795928955,0.394622266292572,-1.2373701333999634,-0.036909982562065125
5.175,0.7052667737007141,0.8838253617286682,-0.7041879892349243,0.9174246788024902,-1.0004245042800903,0.022417299449443817
5.2,1.093424916267395,2.2857604026794434,1.0150501728057861,1.0005054473876953,-0.2944440543651581,-0.12978923320770264
5.225,2.249293327331543,1.1295758485794067,-0.2952529489994049,1.0922625064849854,-0.10356039553880692,-0.5484781265258789
5.25,2.084012031555176,0.29113951325416565,-0.9671159982681274,0.9477954506874084,0.3746125400066376,-0.322798490524292
5.275,-0.5897171497344971,0.20588763058185577,-1.6048740148544312,0.7670592069625854,0.9102370142936707,-0.04775715991854668
5.3,-0.37156200408935547,0.49826228618621826,-1.381074070930481,0.7234562635421753,-1.0106929540634155,-0.5668781399726868
5.325,1.2015864849090576,0.7683717012405396,0.02172418311238289,0.6136413812637329,-1.7377687692642212,-0.7838821411132812
5.35,0.7858924269676208,0.5885249376296997,0.4615275263786316,0.26217254996299744,-0.5478569269180298,-0.47411811351776123
5.375,-0.44699156284332275,0.4765721261501312,0.13576486706733704,0.06145137548446655,0.1753060221672058,-0.26113560795783997
5.4,-0.006901065818965435,0.5287972688674927,0.45725715160369873,0.024143734946846962,-0.5044091939926147,-0.4396195411682129
5.425,1.244301676750183,0.4140923023223877,1.4595354795455933,-0.03999717906117439,-0.9606218934059143,-0.5731506943702698
5.45,1.2460967302322388,0.11968731880187988,1.8846765756607056,-0.1213664636015892,-0.30459490418434143,-0.4275926649570465
5.475,0.1582884043455124,-0.01682167500257492,1.5727819204330444,-0.1617414653301239,0.4008732736110687,-0.24039669334888458
5.5,-0.450434148311615,0.1434585303068161,1.2735880613327026,-0.12029090523719788,0.35325729846954346,-0.23269519209861755
5.525,-0.20399926602840424,0.18199363350868225,1.143136978149414,-0.10318108648061752,0.16031672060489655,-0.2116086333990097
5.55,0.1792212724685669,0.007870831526815891,1.309173345565796,-0.11775466799736023,0.1822487860918045,-0.1352192610502243
5.575,-0.01060175709426403,-0.10209260135889053,1.3428043127059937,-0.12132851034402847,0.33823782205581665,-0.06899461895227432
5.6,-0.37294647097587585,-0.08796294033527374,1.4196697473526,-0.1111670434474945,0.27413275837898254,-0.05438127741217613
5.625,-0.4274159073829651,-0.009357265196740627,1.5773990154266357,-0.06749903410673141,0.1328442096710205,-0.02819012477993965
5.65,-0.12317589670419693,0.018888650462031364,1.4720615148544312,-0.013236460275948048,-0.04468075558543205,-0.015993712469935417
5.675,0.26865559816360474,-0.1168716549873352,1.6337854862213135,0.012933285906910896,-0.20568417012691498,-0.014176852069795132
5.7,0.024248462170362473,-0.22793178260326385,1.9202535152435303,0.05763908475637436,0.01217891275882721,0.08541399985551834
5.725,-0.5163772702217102,-0.202957883477211,2.1729023456573486,0.12393754720687866,0.17079100012779236,0.1716277152299881
5.75,-0.5114974975585938,-0.12123268842697144,2.6004505157470703,0.21902385354042053,0.14255103468894958,0.2650037705898285
5.775,-0.17096461355686188,-0.2181364744901657,2.8656837940216064,0.33492887020111084,0.12996584177017212,0.3543567359447479
5.8,-0.34434154629707336,-0.3165900409221649,2.5490880012512207,0.48556140065193176,0.36914852261543274,0.46979379653930664
5.825,-0.3799331486225128,-0.11429192870855331,1.916085958480835,0.6058884263038635,0.35809656977653503,0.5486854314804077
5.85,0.8191762566566467,0.22838424146175385,1.5698764324188232,0.6899799704551697,-0.1325639933347702,0.44624820351600647
5.875,1.5746303796768188,0.4178316593170166,1.5034769773483276,0.7375876903533936,0.1984468251466751,0.534948468208313
5.9,0.6462289690971375,0.227765291929245,1.4891074895858765,0.6884979605674744,0.9042092561721802,0.74366295337677
5.925,-0.49915415048599243,-0.19692878425121307,1.9039825201034546,0.7106788754463196,0.8768136501312256,0.7568793892860413
5.95,-0.5719270706176758,-0.4940183162689209,2.6071441173553467,0.844901978969574,0.32117563486099243,0.5935425758361816
5.975,0.22993478178977966,-0.3321157395839691,3.4019100666046143,1.0739535093307495,-0.11791422963142395,0.47365429997444153
6.0,0.7577437162399292,0.12877319753170013,3.7985785007476807,1.3074489831924438,-0.10298371315002441,0.5194247961044312
6.025,0.12277024984359741,0.5526252388954163,4.064894199371338,1.429316759109497,0.056288428604602814,0.7197043299674988
6.05,-1.0520856380462646,0.5531353950500488,3.699967384338379,1.47186279296875,-0.3702126145362854,0.610680103302002
6.075,-1.3975943326950073,0.43513524532318115,2.579763889312744,1.4901989698410034,-1.413096308708191,0.18350902199745178
6.1,-0.12002507597208023,-0.19857077300548553,3.843569755554199,1.4153848886489868,-2.1208817958831787,-0.16037386655807495
6.125,0.947167158126831,-1.3270171880722046,6.456606864929199,0.6431166529655457,-2.080897808074951,-0.49961382150650024
6.15,-0.014221292920410633,-0.9863848090171814,5.59127950668335,-1.1029688119888306,-0.9656210541725159,-0.4430762231349945
6.175,-2.212435007095337,0.4456629157066345,2.9230668544769287,-2.7105958461761475,-0.3712480664253235,-0.6652820706367493
6.2,-3.0103607177734375,1.596455693244934,-0.5288537740707397,-3.3627312183380127,-1.1581695079803467,-1.397848129272461
6.225,-0.3718129098415375,0.5861916542053223,-4.469909191131592,-3.3064920902252197,-2.942164421081543,-2.162688732147217
6.25,5.546594619750977,-2.454493284225464,-8.937274932861328,-2.6323304176330566,-4.502365589141846,-2.357815742492676
6.275,9.668257713317871,-4.782375335693359,-9.789963722229004,-1.0659009218215942,-3.7838997840881348,-1.3233635425567627
6.3,5.625730037689209,-3.479933738708496,-4.111419200897217,1.1363461017608643,-1.3237788677215576,-0.02990848198533058
6.325,0.07442931085824966,-0.841245174407959,-3.117950439453125,0.42834916710853577,2.1588799953460693,0.046743154525756836
6.35,0.33493995666503906,2.8782434463500977,-2.6007182598114014,0.25241875648498535,1.3829176425933838,0.0757308155298233
6.375,2.8530800342559814,1.9446080923080444,1.0873929262161255,0.32118964195251465,-2.568936824798584,-0.6136603951454163
6.4,2.5884482860565186,-0.11751336604356766,2.5314712524414062,0.06095064431428909,-1.9678069353103638,-0.7704607844352722
6.425,0.2416766881942749,-0.043913833796978,0.0783177837729454,-0.0808873102068901,0.9353218674659729,-0.2701379060745239
6.45,-0.796665608882904,0.2218293845653534,-0.48176059126853943,-0.1263796091079712,0.8351985216140747,-0.28552260994911194
6.475,-0.29068174958229065,-0.06253810226917267,0.4627555310726166,-0.17645858228206635,-0.0022009979002177715,-0.3308852016925812
6.5,0.30443745851516724,-0.1756666600704193,1.4060533046722412,-0.14203712344169617,-0.2818816900253296,-0.3311120867729187
6.525,0.1989602893590927,-0.10527021437883377,1.5455418825149536,-0.11332367360591888,0.20219139754772186,-0.18171313405036926
6.55,-0.03460817411541939,-0.052022792398929596,1.254015326499939,-0.08333615213632584,0.3418259918689728,-0.08445529639720917
6.575,-0.10180339962244034,0.04508413374423981,1.082839012145996,-0.05846728757023811,0.15837769210338593,-0.04200148954987526
6.6,-0.02450188808143139,0.19559112191200256,1.0047475099563599,-0.05185249447822571,0.1080908328294754,0.0191168412566185
6.625,0.3639172613620758,0.21004118025302887,0.8557847142219543,-0.0691109299659729,0.09819210320711136,0.060669511556625366
6.65,0.9846010804176331,0.05748474597930908,0.9220330119132996,-0.08512447774410248,-0.09594979137182236,0.02304360829293728
6.675,0.9998891949653625,-0.04555404931306839,0.9747030735015869,-0.11413289606571198,0.024973353371024132,0.03583972901105881
6.7,0.7000311613082886,-0.022708771750330925,1.0367666482925415,-0.13121384382247925,0.13844682276248932,0.0356546975672245
6.725,0.6116844415664673,-0.002267691073939204,1.2300673723220825,-0.13837215304374695,0.06094411388039589,0.016143547371029854
6.75,0.8418267965316772,-0.051546890288591385,1.392108678817749,-0.13428103923797607,-0.030476156622171402,-0.002014861209318042
6.775,1.1344537734985352,-0.04238682985305786,1.5177828073501587,-0.1251627653837204,-0.01369023323059082,0.003461538814008236
6.8,0.96681809425354,-0.02190382406115532,1.4148526191711426,-0.1339835822582245,0.2540479898452759,0.050422295928001404
6.825,0.5510305762290955,0.014483604580163956,1.2630360126495361,-0.14601729810237885,0.5214563608169556,0.09590626507997513
6.85,0.4280693531036377,-0.044111087918281555,1.4134262800216675,-0.12597393989562988,0.5331865549087524,0.09622348845005035
6.875,0.3692942261695862,-0.1385982781648636,1.5332756042480469,-0.10027817636728287,0.47490617632865906,0.11206835508346558
6.9,0.34913817048072815,-0.1549432873725891,1.5711696147918701,-0.05940040573477745,0.33490344882011414,0.12248754501342773
6.925,0.5318601727485657,-0.11100371181964874,1.4801846742630005,-0.013183828443288803,0.15401700139045715,0.12353703379631042
6.95,0.7674033641815186,0.008059650659561157,1.2423975467681885,0.018597468733787537,0.06852760165929794,0.12653377652168274
6.975,0.9357956647872925,0.08980383723974228,1.140063762664795,0.022358322516083717,-0.038244862109422684,0.0998581200838089
7.0,1.0344356298446655,0.17628684639930725,1.0872544050216675,0.0028593328315764666,-0.09542194753885269,0.07227029651403427
7.025,1.1459342241287231,0.1775018274784088,1.1328519582748413,-0.020650284364819527,-0.14555174112319946,0.03004351258277893
7.05,1.0466915369033813,0.13370053470134735,1.1933174133300781,-0.056210555136203766,-0.06447494029998779,0.004542613867670298
7.075,0.742577314376831,0.047369156032800674,1.2260613441467285,-0.07931578159332275,0.015087700448930264,-0.009830443188548088
7.1,0.5102185010910034,-0.05940040946006775,1.3162466287612915,-0.08507678657770157,-0.03877983242273331,-0.025926820933818817
7.125,0.3720211982727051,0.03472249209880829,1.3387161493301392,-0.07098396867513657,-0.054570943117141724,-0.02109246701002121
7.15,0.35838714241981506,0.17482390999794006,1.1834466457366943,-0.06429406255483627,-0.003123469417914748,-0.0016089665004983544
7.175,0.5993262529373169,0.20031660795211792,1.2170259952545166,-0.07148974388837814,-0.07738418132066727,-0.014228004030883312
7.2,0.7876718044281006,0.054568469524383545,1.430389642715454,-0.09661591053009033,-0.0763375386595726,-0.02596350759267807
7.225,0.662125825881958,-0.03988724946975708,1.5160788297653198,-0.12479517608880997,0.12736226618289948,0.002756261033937335
7.25,0.42640984058380127,-0.03027137741446495,1.309350848197937,-0.12807296216487885,0.33482375741004944,0.04279942065477371
7.275,0.4503960609436035,-0.10331043601036072,1.3970105648040771,-0.12145191431045532,0.186959370970726,0.03933553397655487
7.3,0.4913570284843445,-0.1079767569899559,1.4315389394760132,-0.10794223845005035,0.24149742722511292,0.06499184668064117
7.325,0.5140341520309448,-0.06281932443380356,1.3531581163406372,-0.09218838810920715,0.3074967563152313,0.0909523293375969
7.35,0.6619014739990234,-0.06114847585558891,1.4613171815872192,-0.0781392976641655,0.2316417545080185,0.0943896546959877
7.375,0.705775797367096,-0.044088177382946014,1.5841870307922363,-0.05985543131828308,0.23251141607761383,0.09977404028177261
7.4,0.5627329349517822,0.10577982664108276,1.3440808057785034,-0.052598342299461365,0.36997488141059875,0.12110351771116257
7.425,0.584631085395813,0.19025248289108276,1.193587064743042,-0.05160980671644211,0.19367234408855438,0.08498669415712357
7.45,0.6648547649383545,0.10150925815105438,1.2720330953598022,-0.06811653822660446,0.01762998290359974,0.04164935648441315
7.475,0.5873126983642578,0.02952589839696884,1.159998893737793,-0.08317996561527252,0.16061022877693176,0.03703119233250618
7.5,0.5571936368942261,0.0038072122260928154,1.2075918912887573,-0.08871921896934509,0.08896967768669128,0.01787438429892063
7.525,0.5092600584030151,0.05752293020486832,1.2395594120025635,-0.09220235049724579,0.08255750685930252,0.007559959776699543
7.55,0.5566643476486206,0.03852766007184982,1.420235276222229,-0.08916912972927094,0.037193283438682556,-0.005239494144916534
7.575,0.5565601587295532,-0.01170236337929964,1.4684115648269653,-0.09470969438552856,0.14353398978710175,0.009320894256234169
7.6,0.46476876735687256,0.003299867268651724,1.2882362604141235,-0.10032443702220917,0.3132895529270172,0.03458422049880028
7.625,0.485914409160614,-0.018626058474183083,1.3191653490066528,-0.09812475740909576,0.2506527006626129,0.03593306615948677
7.65,0.4806517958641052,-0.022930944338440895,1.3138002157211304,-0.09402846544981003,0.2298056185245514,0.045062366873025894
7.675,0.40701159834861755,0.07357040047645569,1.190342664718628,-0.09421277791261673,0.25093740224838257,0.04998127371072769
7.7,0.409044086933136,0.0918532982468605,1.2271736860275269,-0.08785197138786316,0.1634390652179718,0.03285593166947365
7.725,0.37654441595077515,0.01841464266180992,1.2042551040649414,-0.08901950716972351,0.1729128509759903,0.03430652990937233
7.75,0.3504188358783722,0.04081358388066292,1.1329165697097778,-0.0880347192287445,0.20389974117279053,0.038714613765478134
7.775,0.4871077537536621,0.12169091403484344,1.2251077890396118,-0.08569734543561935,0.1548057198524475,0.04413759708404541
7.8,0.5998757481575012,0.12724129855632782,1.3009639978408813,-0.09127596765756607,0.1778283417224884,0.04460863396525383
7.825,0.5311844348907471,0.07589737325906754,1.2490122318267822,-0.0965677946805954,0.23360471427440643,0.03146440535783768
7.85,0.4310968816280365,0.049999386072158813,1.1758434772491455,-0.09162433445453644,0.18611359596252441,0.009911872446537018
7.875,0.429251492023468,0.024475257843732834,1.3061386346817017,-0.07926090061664581,0.04475231096148491,-0.01327794324606657
7.9,0.3948913812637329,-0.0021141329780220985,1.3699284791946411,-0.07667134702205658,0.018499169498682022,-0.019364427775144577
7.925,0.31471091508865356,0.0324498750269413,1.2592359781265259,-0.07295067608356476,0.06282740086317062,-0.014912162907421589
7.95,0.3065432012081146,0.07904639095067978,1.14814293384552,-0.06794485449790955,0.05640731751918793,-0.009166115894913673
7.975,0.4289354383945465,0.07636847347021103,1.1479988098144531,-0.061715587973594666,-0.008040704764425755,-0.012693389318883419
8.0,0.5210163593292236,0.053556591272354126,1.1925934553146362,-0.058953043073415756,-0.024297451600432396,-0.022245172411203384
8.025,0.4514864385128021,0.031645920127630234,1.1899479627609253,-0.06532074511051178,0.011138790287077427,-0.02875230647623539
8.05,0.3692266643047333,0.022881649434566498,1.172370433807373,-0.06139193847775459,-0.005809905473142862,-0.0376906655728817
8.075,0.3279659152030945,0.029661327600479126,1.2141257524490356,-0.058898765593767166,-0.05712303891777992,-0.04019561782479286
8.1,0.24968595802783966,0.02970900759100914,1.1913727521896362,-0.05565260723233223,-0.03268808871507645,-0.039250895380973816
8.125,0.26262545585632324,-0.02055058255791664,1.24007248878479,-0.04454786702990532,-0.08737222850322723,-0.04004295915365219
8.15,0.3139408826828003,-0.04641232267022133,1.25782310962677,-0.033857639878988266,-0.10272831469774246,-0.03175332769751549
8.175,0.33242160081863403,-0.00403866171836853,1.2523741722106934,-0.02084987983107567,-0.13069577515125275,-0.021505147218704224
8.2,0.2903198301792145,0.056865841150283813,1.1750140190124512,-0.014904583804309368,-0.09888678044080734,-0.005392256658524275
8.225,0.33088043332099915,0.09957518428564072,1.0692721605300903,-0.005521821323782206,-0.11368873715400696,-0.005589649546891451
8.25,0.46325889229774475,0.10935035347938538,1.1190522909164429,-0.010276391170918941,-0.17866811156272888,-0.008635233156383038
8.275,0.48063114285469055,0.09111227840185165,1.103671669960022,-0.01987340860068798,-0.09245241433382034,-0.011808334849774837
8.3,0.44134238362312317,0.07322993129491806,1.1323033571243286,-0.028072549030184746,-0.05368175357580185,-0.01442573219537735
8.325,0.3810942769050598,0.08471217751502991,1.2163251638412476,-0.029503747820854187,-0.018422413617372513,-0.016200313344597816
8.35,0.3009747266769409,0.0711928978562355,1.2341949939727783,-0.027738502249121666,0.0010312844533473253,-0.015769340097904205
8.375,0.2442900687456131,0.0010434641735628247,1.2106244564056396,-0.020137155428528786,-0.03336752951145172,-0.011889956891536713
8.4,0.2339186817407608,-0.014336436986923218,1.2670830488204956,-0.006434946320950985,-0.06647835671901703,0.00038004523958079517
8.425,0.21648705005645752,-0.000739896553568542,1.2987474203109741,0.008265811018645763,-0.03148191422224045,0.017152855172753334
8.45,0.15197618305683136,0.011263036169111729,1.1887956857681274,0.017458904534578323,0.04604239761829376,0.03802161291241646
8.475,0.20642472803592682,0.053681522607803345,1.1813608407974243,0.032531190663576126,-0.026158548891544342,0.05613496154546738
8.5,0.30241647362709045,0.040228985249996185,1.1597771644592285,0.03908824175596237,-0.05599155277013779,0.07565546035766602
8.525,0.32608553767204285,0.09234536439180374,0.9876540899276733,0.03463199734687805,0.05401408299803734,0.0874844640493393
8.55,0.37912002205848694,0.1258956342935562,0.9676719307899475,0.017246458679437637,0.04748573899269104,0.08511804044246674
8.575,0.3782106339931488,0.04519951716065407,1.0085264444351196,0.002740125870332122,0.029565345495939255,0.06548197567462921
8.6,0.3336201012134552,-0.019884934648871422,1.089459776878357,0.004392503295093775,-0.034187089651823044,0.0606173574924469
8.625,0.32461053133010864,-0.004071090370416641,1.2228792905807495,0.016411852091550827,-0.11253219097852707,0.06491680443286896
8.65,0.2742480933666229,0.028950832784175873,1.1632070541381836,0.016296153888106346,0.014282377436757088,0.07663299143314362
8.675,0.3095284402370453,0.036704208701848984,1.1859582662582397,0.02831234037876129,-0.00954285729676485,0.08104660362005234
8.7,0.3523065447807312,0.027477415278553963,1.2286970615386963,0.0360785573720932,-0.04843125119805336,0.08546989411115646
8.725,0.3511355221271515,0.04398931935429573,1.1225005388259888,0.042061034590005875,-0.018973302096128464,0.09121186286211014
8.75,0.4348513185977936,0.08687223494052887,1.038230299949646,0.04659010469913483,-0.05632021650671959,0.08856318891048431
8.775,0.5494247674942017,0.07832254469394684,1.0716534852981567,0.0440775603055954,-0.09200355410575867,0.07244564592838287
8.8,0.5365784764289856,0.07121289521455765,1.0174288749694824,0.020242061465978622,0.004386036191135645,0.05343370512127876
8.825,0.47502437233924866,0.10381235182285309,0.9703724980354309,0.002539062639698386,0.048882607370615005,0.028492869809269905
8.85,0.4642414152622223,0.1086665615439415,1.042157530784607,-0.006714596878737211,-0.0032737990841269493,0.003034990280866623
8.875,0.3833900988101959,0.06811060756444931,1.0937739610671997,-0.01760161854326725,0.023406891152262688,-0.017834611237049103
8.9,0.26242247223854065,0.0677272230386734,1.0894395112991333,-0.02337237074971199,0.039406031370162964,-0.03172026574611664
8.925,0.26283779740333557,0.072397381067276,1.187912106513977,-0.011979863047599792,-0.06319448351860046,-0.041892897337675095
8.95,0.25885918736457825,0.04751123860478401,1.0921708345413208,-0.018740791827440262,0.0055599333718419075,-0.038927048444747925
8.975,0.22497126460075378,0.07514775544404984,1.0306147336959839,-0.023097295314073563,-0.010542361065745354,-0.04458408057689667
9.0,0.1660269796848297,0.1165400967001915,1.0518898963928223,-0.03333072364330292,0.010564716532826424,-0.0515337735414505
9.025,0.1821240931749344,0.07579246163368225,1.1857280731201172,-0.028128521516919136,-0.03594762831926346,-0.0645783394575119
9.05,0.1686687022447586,0.06824889034032822,1.1417032480239868,-0.024876350536942482,-0.0409376360476017,-0.06186065450310707
9.075,0.08379588276147842,0.09469426423311234,0.9563225507736206,-0.023166121914982796,-0.0258968323469162,-0.06213806942105293
9.1,0.07572021335363388,0.06439222395420074,1.0779210329055786,-0.021686768159270287,-0.10194788873195648,-0.05565071851015091
9.125,0.04337538406252861,0.023431925103068352,1.2150508165359497,-0.022361738607287407,-0.02612186409533024,-0.04114246740937233
9.15,-0.02440093271434307,0.05434146150946617,1.1645044088363647,-0.020388491451740265,0.10043929517269135,-0.007326772436499596
9.175,0.005370470695197582,0.05882180482149124,0.9927247762680054,-0.007760773412883282,0.18059808015823364,0.010632944293320179
9.2,0.10749831050634384,-0.0015057161217555404,1.1395955085754395,0.015319980680942535,0.06504566222429276,0.03153964504599571
9.225,0.15435752272605896,-0.008714556694030762,1.0065009593963623,0.019580477848649025,0.13284699618816376,0.05910952761769295
9.25,0.2928581237792969,0.1420365422964096,0.7675259113311768,0.029945360496640205,0.06039079278707504,0.07250910252332687
9.275,0.5539606213569641,0.3973952829837799,0.7230076789855957,0.03091568313539028,-0.09542335569858551,0.05379324406385422
9.3,0.8352026343345642,0.39872947335243225,0.7830942869186401,0.021769819781184196,-0.1527511477470398,0.0002006867725867778
9.325,1.061850666999817,0.3170739412307739,0.8548589944839478,-0.01153944618999958,-0.16134288907051086,-0.05672002211213112
9.35,1.2404005527496338,0.26478588581085205,0.7860931754112244,-0.05955978110432625,-0.11111358553171158,-0.1414894014596939
9.375,1.381267786026001,0.2949448823928833,0.8206004500389099,-0.12324630469083786,-0.026395399123430252,-0.22862477600574493
9.4,1.6189674139022827,0.568062961101532,1.1582814455032349,-0.2083858847618103,-0.02194911055266857,-0.32399752736091614
9.425,1.7067464590072632,0.7747939229011536,1.3184727430343628,-0.294315367937088,0.09213314950466156,-0.4297622740268707
9.45,1.4079924821853638,0.64576256275177,0.5785378813743591,-0.3919419050216675,0.6933876872062683,-0.5594916343688965
9.475,1.2175862789154053,0.6668978929519653,0.6596591472625732,-0.46649348735809326,0.5115094780921936,-0.6682323217391968
9.5,0.8999326229095459,0.538311243057251,1.288427710533142,-0.5396095514297485,0.460785448551178,-0.7518614530563354
9.525,0.29833588004112244,-0.20823179185390472,1.3985755443572998,-0.5900557637214661,0.4283018410205841,-0.8250794410705566
9.55,0.15543024241924286,-1.40106201171875,1.2560652494430542,-0.5774194598197937,-0.369904100894928,-0.7411435842514038
9.575,0.6113647818565369,-1.6622611284255981,1.1670966148376465,-0.2976353168487549,-0.5925719738006592,-0.25918424129486084
9.6,1.3646297454833984,-1.4153375625610352,0.8210256099700928,0.06229105964303017,-0.01536941435188055,0.21914157271385193
9.625,2.7785484790802,-1.6505709886550903,0.8861843943595886,0.47576501965522766,-0.2613750100135803,0.7957712411880493
9.65,3.5450079441070557,-0.7919769287109375,1.244426965713501,0.837194561958313,-0.028835469856858253,1.483541488647461
9.675,3.0540366172790527,0.09195629507303238,1.222118616104126,0.9941616654396057,0.7569730877876282,1.8398864269256592
9.7,2.2301974296569824,0.48634740710258484,1.3277223110198975,1.0394937992095947,1.0812572240829468,2.0850071907043457
9.725,1.2952556610107422,0.6832401156425476,1.189927577972412,1.0791399478912354,1.2098184823989868,2.2604329586029053
9.75,0.2304953932762146,0.7108079195022583,0.7018419504165649,1.1353776454925537,1.0208733081817627,2.29715895652771
9.775,-0.7170432209968567,0.524232029914856,0.43129807710647583,1.2177165746688843,0.5310098528862,2.181137800216675
9.8,-1.3887443542480469,0.13068494200706482,0.6006621718406677,1.3250054121017456,-0.08286238461732864,1.9621901512145996
9.825,-1.7756577730178833,-0.4623183608055115,1.0927672386169434,1.3766409158706665,-0.5321909189224243,1.651959776878357
9.85,-2.1035091876983643,-1.2210158109664917,1.7321854829788208,1.3454961776733398,-0.7193170785903931,1.294524073600769
9.875,-2.898557424545288,-1.8961907625198364,1.4390959739685059,1.0484672784805298,-0.5746922492980957,0.9391726851463318
9.9,-3.7803380489349365,-1.3103296756744385,-1.4391931295394897,0.43677425384521484,-0.2666676342487335,0.41348639130592346
9.925,-3.4977612495422363,1.5586775541305542,-2.989163637161255,0.08820545673370361,-1.0201458930969238,-0.8947474360466003
9.95,-2.249619722366333,3.3374288082122803,1.9229001998901367,1.424606442451477,-2.8072938919067383,-1.5092048645019531
9.975,-0.8875433802604675,2.627399206161499,4.474783420562744,1.090389370918274,-1.1010572910308838,-1.0197027921676636
10.0,-0.9991410374641418,2.115791082382202,3.4304349422454834,-0.27511006593704224,1.6774879693984985,-0.6083108186721802
10.025,-1.2948757410049438,1.1106714010238647,1.9510952234268188,-0.439812034368515,2.2629847526550293,-0.40737271308898926
10.05,-1.2956699132919312,0.8299009799957275,0.9704328775405884,0.020552095025777817,0.4691520631313324,-0.6393864154815674
10.075,-0.9190796613693237,0.6377584338188171,1.0998493432998657,0.5046609044075012,-1.5564583539962769,-1.0041770935058594
10.1,-0.1846199780702591,0.2873174250125885,0.8874589204788208,0.5962108373641968,-1.669568419456482,-0.9873157739639282
10.125,0.6153813004493713,0.12373629957437515,-0.7893624901771545,0.13627277314662933,-0.4901667535305023,-0.6710802912712097
10.15,1.01410973072052,0.2981623113155365,-1.4159231185913086,-0.12330162525177002,-0.1431846171617508,-0.6311415433883667
10.175,0.7084714770317078,0.7085782289505005,0.606590211391449,-0.15396295487880707,-0.4661070704460144,-0.8349038362503052
10.2,-0.16628287732601166,1.1226696968078613,2.5218701362609863,-0.3042979836463928,-0.29845958948135376,-0.8477925658226013
10.225,-0.39638158679008484,0.9277585744857788,2.2207555770874023,-0.3398040235042572,-0.12402626127004623,-0.7472067475318909
10.25,-0.055472973734140396,0.055627044290304184,1.4175626039505005,-0.18925845623016357,-0.3111225962638855,-0.7405672669410706
10.275,-0.06410326063632965,-0.45759379863739014,1.5678555965423584,-0.187237948179245,-0.21081826090812683,-0.6814326047897339
10.3,-0.19094929099082947,-0.2514304220676422,0.9740484356880188,-0.3538179099559784,0.44886788725852966,-0.4783974587917328
10.325,-0.2733193039894104,-0.08276550471782684,0.6702939867973328,-0.29643723368644714,0.32841041684150696,-0.46229687333106995
10.35,-0.4197310209274292,-0.0652225986123085,1.2500147819519043,-0.18046952784061432,-0.16209428012371063,-0.5102563500404358
10.375,-0.47399044036865234,-0.007096113171428442,1.4975849390029907,-0.13202129304409027,-0.25542473793029785,-0.45126038789749146
10.4,-0.6672337055206299,-0.2037285417318344,1.3375535011291504,-0.12485680729150772,-0.26557251811027527,-0.3972529470920563
10.425,-0.8087449669837952,-0.28405943512916565,0.9701517224311829,-0.12786847352981567,-0.3544813394546509,-0.31041696667671204
10.45,-0.499860018491745,-0.11309900879859924,0.90557461977005,-0.09508351236581802,-0.6476868987083435,-0.22649580240249634
10.475,0.14971807599067688,0.05122675001621246,1.0730834007263184,-0.10194046795368195,-0.7083325386047363,-0.13622866570949554
10.5,0.3931889533996582,0.11029641330242157,1.2493553161621094,-0.13753584027290344,-0.7311911582946777,-0.14126677811145782
10.525,0.27934056520462036,0.1076575219631195,0.608948826789856,-0.20090711116790771,-0.28473198413848877,-0.08502586930990219
10.55,0.4224015176296234,0.013407756574451923,0.39881566166877747,-0.2378576099872589,-0.33225929737091064,-0.09116307646036148
10.575,0.22102558612823486,-0.028131335973739624,1.2804524898529053,-0.2237800806760788,-0.5482764840126038,-0.13186492025852203
10.6,-0.1452094167470932,-0.06271254271268845,1.1258480548858643,-0.34666287899017334,0.218300461769104,-0.0321749672293663
10.625,0.15684804320335388,0.006497431080788374,0.3950703740119934,-0.3938401937484741,0.5210276246070862,0.04199625179171562
10.65,0.4418227970600128,-0.012737158685922623,0.9836344718933105,-0.3662688136100769,0.05298836529254913,0.00966816209256649
10.675,0.293302059173584,-0.08715902268886566,1.1955903768539429,-0.43396124243736267,0.22223350405693054,0.018177630379796028
10.7,0.19730299711227417,-0.023078830912709236,0.7563494443893433,-0.4898095726966858,0.43677595257759094,0.05738124996423721
10.725,0.4030730128288269,0.021967008709907532,0.6091263890266418,-0.5207388997077942,0.3643001914024353,0.07541295140981674
10.75,0.234347403049469,0.03567703813314438,0.6466097235679626,-0.5902836918830872,0.4643443822860718,0.08921965956687927
10.775,0.07029948383569717,-0.04142853990197182,0.2634688913822174,-0.6847065687179565,0.5831352472305298,0.08013875037431717
10.8,0.03521593660116196,-0.00034518123720772564,0.41022276878356934,-0.7206720113754272,0.28924986720085144,0.10462251305580139
10.825,0.3514605462551117,0.14651019871234894,0.5025257468223572,-0.7833579778671265,0.2900545001029968,0.13522905111312866
10.85,1.1462314128875732,0.34528642892837524,0.3744715750217438,-0.8431805968284607,0.3359093964099884,0.11126802861690521
10.875,1.4759762287139893,0.43369972705841064,0.5786120891571045,-0.9002968668937683,0.30388638377189636,0.01914827898144722
10.9,1.3408830165863037,0.42055049538612366,0.7226583361625671,-0.9944123029708862,0.4451036751270294,-0.11930041760206223
10.925,1.2371044158935547,0.6353884935379028,0.5420385003089905,-1.08100163936615,0.6165450215339661,-0.2534763813018799
10.95,1.110831618309021,0.9451428651809692,-0.11963008344173431,-1.1931655406951904,0.9898038506507874,-0.4227229356765747
10.975,0.8570219874382019,1.217159390449524,-0.49792784452438354,-1.212105631828308,1.2250555753707886,-0.6447668671607971
11.0,0.48696938157081604,1.7493298053741455,-0.20714445412158966,-1.1361278295516968,1.497211217880249,-0.8603877425193787
11.025,0.5279200077056885,1.9254391193389893,-0.14345477521419525,-0.9319592118263245,1.9666719436645508,-1.1560235023498535
11.05,0.750557005405426,0.7637709379196167,-1.933103322982788,-0.6116064786911011,2.29823637008667,-1.3750158548355103
11.075,0.15903064608573914,-1.0094915628433228,-3.7548701763153076,0.05166497081518173,3.183994770050049,-1.6066795587539673
11.1,-0.028855206444859505,-0.7971586585044861,-2.713582992553711,0.7020394206047058,1.9927935600280762,-0.8832223415374756
11.125,-0.6751641631126404,-0.349315881729126,-1.857480764389038,0.9343072772026062,1.7423558235168457,-0.19174371659755707
11.15,-1.0292060375213623,-0.19672399759292603,-0.24875937402248383,1.3978770971298218,0.5525340437889099,0.3080544173717499
11.175,-0.7797161340713501,-0.31801387667655945,2.415313243865967,1.6519663333892822,-0.30193278193473816,0.6392723321914673
11.2,0.38224753737449646,-1.3745940923690796,5.706394195556641,1.4207184314727783,-1.544856071472168,0.5466379523277283
11.225,0.8628377318382263,-1.526787281036377,6.306149482727051,1.3358266353607178,-0.28801509737968445,0.4053293466567993
11.25,0.4618518650531769,-1.0395865440368652,4.527492046356201,1.1428444385528564,1.3183000087738037,0.428146094083786
11.275,-0.1523023545742035,-0.7679898738861084,3.09637188911438,1.0022817850112915,1.7753350734710693,0.5422303676605225
11.3,0.5437268018722534,-0.8120677471160889,3.0498874187469482,0.9151977300643921,0.846701979637146,0.4739855229854584
11.325,1.7479363679885864,-0.9327324628829956,1.8175448179244995,0.9680225253105164,0.498752236366272,0.5061509013175964
11.35,1.4176867008209229,-0.12943553924560547,0.07992589473724365,1.2470428943634033,1.4592976570129395,1.0518903732299805
11.375,0.7974732518196106,0.18936070799827576,0.4623526632785797,1.4710355997085571,1.3085412979125977,1.2388851642608643
11.4,0.11456482857465744,0.050679467618465424,2.1206042766571045,1.4722914695739746,1.0781688690185547,1.2531590461730957
11.425,-1.3124406337738037,-0.37019866704940796,4.823591232299805,1.1988645792007446,0.7362295985221863,1.0664533376693726
11.45,-2.067687511444092,-0.9154751896858215,6.638720989227295,0.4462358057498932,0.43104082345962524,0.45945239067077637
11.475,-0.47760823369026184,-0.3076101541519165,3.2082719802856445,-0.7736281156539917,0.17668987810611725,-0.6683917045593262
11.5,0.7307212948799133,2.0317978858947754,1.0083606243133545,-0.6899845600128174,-0.33668601512908936,-0.7694237232208252
11.525,0.1186525747179985,1.9393829107284546,1.4357073307037354,-0.295975923538208,-0.4336254596710205,-0.2873501181602478
11.55,-1.1405447721481323,0.7088319659233093,0.8244350552558899,-0.5994278192520142,-0.1576235443353653,-0.4919557273387909
11.575,-1.389328122138977,1.2013143301010132,1.7691622972488403,-0.502143919467926,-0.49489596486091614,-0.46997424960136414
11.6,-0.7041579484939575,0.2406505048274994,2.5560507774353027,-0.4585542380809784,-0.4143757224082947,-0.4675496816635132
11.625,-0.5738272070884705,-0.6676986217498779,2.2667744159698486,-0.41076862812042236,-0.10723495483398438,-0.33909478783607483
11.65,-0.7197830677032471,-0.7017982602119446,2.17720365524292,-0.28479883074760437,-0.35880085825920105,-0.26166993379592896
11.675,-0.8013460040092468,-0.5995538234710693,2.4418106079101562,-0.1554637998342514,-0.4144103527069092,-0.15621866285800934
11.7,-0.9969699382781982,-0.5250260829925537,2.2966878414154053,-0.060972779989242554,0.003921214956790209,-0.027544036507606506
11.725,-1.0027655363082886,-0.39051610231399536,2.065845251083374,0.05854315310716629,0.1935383528470993,0.09535980224609375
11.75,-0.7637079358100891,-0.2502773404121399,1.7893524169921875,0.20245476067066193,0.053305596113204956,0.19793839752674103
11.775,-0.4008449614048004,-0.011646084487438202,1.5678436756134033,0.3198084235191345,-0.24078048765659332,0.2602609097957611
11.8,-0.15203571319580078,0.20667190849781036,1.35867178440094,0.38549113273620605,-0.19637517631053925,0.3384173810482025
11.825,0.1163739264011383,0.3077775537967682,1.0255992412567139,0.41157475113868713,-0.1156204491853714,0.3645957410335541
11.85,0.357766330242157,0.30557548999786377,0.7200620770454407,0.4061287045478821,-0.03309411182999611,0.37348684668540955
11.875,0.552476704120636,0.10669335722923279,0.623987078666687,0.39957892894744873,-0.1301933079957962,0.33822211623191833
11.9,0.4073196351528168,0.022936882451176643,0.5051358938217163,0.38344767689704895,-0.25050827860832214,0.30379748344421387
11.925,-0.12012293189764023,0.27198415994644165,0.27436596155166626,0.3181930482387543,-0.24001352488994598,0.31555384397506714
11.95,-0.19566971063613892,0.3943692743778229,0.6281166076660156,0.37118422985076904,-0.48122259974479675,0.2246985286474228
11.975,-0.11647206544876099,0.3572121858596802,0.6978693008422852,0.38169726729393005,-0.4640448987483978,0.17812904715538025
12.0,-0.046272795647382736,0.4052802324295044,0.46251702308654785,0.336474746465683,-0.27406784892082214,0.16368938982486725
12.025,0.2880827784538269,0.311132550239563,0.636254072189331,0.35775911808013916,-0.36097124218940735,0.10908649861812592
12.05,0.44329947233200073,0.17260368168354034,0.5148977041244507,0.2835841774940491,-0.24623845517635345,0.10748479515314102
12.075,0.46576234698295593,0.010746048763394356,0.3857135474681854,0.2271888554096222,-0.2387477606534958,0.09963501244783401
12.1,0.5329031348228455,-0.1802205741405487,0.4035594165325165,0.2242821753025055,-0.35392963886260986,0.04079395905137062
12.125,0.4579622447490692,-0.2531890571117401,0.4303291440010071,0.18198387324810028,-0.30061039328575134,0.018163157626986504
12.15,0.22740599513053894,-0.18762587010860443,0.32385221123695374,0.11505653709173203,-0.10196583718061447,0.023158187046647072
12.175,-0.0028763164300471544,-0.03355880081653595,0.3968483805656433,0.0740315392613411,0.025819577276706696,0.007257118355482817
12.2,-0.15510374307632446,0.1452828347682953,0.64540034532547,0.05984313413500786,0.07059233635663986,-0.022677896544337273
12.225,-0.14149242639541626,0.33232414722442627,0.7103166580200195,0.05062759295105934,0.07485216856002808,-0.04031287878751755
12.25,0.0337924100458622,0.33134570717811584,0.9937600493431091,0.06955026835203171,-0.06969544291496277,-0.07487071305513382
12.275,0.041898153722286224,0.18837754428386688,1.094059705734253,0.06429024040699005,-0.054680757224559784,-0.07188963145017624
12.3,-0.1866658478975296,0.1398860067129135,0.7792160511016846,0.0292234867811203,0.05698658898472786,-0.027534620836377144
12.325,-0.3357861638069153,0.0826321616768837,0.7296368479728699,0.05107002332806587,-0.037882763892412186,-0.041925977915525436
12.35,-0.5197952389717102,-0.10088150203227997,0.7807175517082214,0.05971364676952362,-0.014070017263293266,-0.029034702107310295
12.375,-0.6789425015449524,-0.2882031798362732,0.7689837217330933,0.0790242850780487,0.004342648666352034,0.009728140197694302
12.4,-0.7696633338928223,-0.29974260926246643,1.0363731384277344,0.1545127034187317,-0.13585153222084045,0.032093267887830734
12.425,-1.011729121208191,-0.16511234641075134,1.4294811487197876,0.20524515211582184,-0.12607623636722565,0.10962818562984467
12.45,-1.2669095993041992,-0.04677560180425644,1.838487982749939,0.28188368678092957,-0.050100766122341156,0.22380530834197998
12.475,-1.4221748113632202,0.21225960552692413,2.3464770317077637,0.3985922038555145,-0.05068865418434143,0.3438698649406433
12.5,-1.5762357711791992,0.719726026058197,2.9371178150177,0.5295394659042358,-0.006028002593666315,0.5181421041488647
12.525,-1.6829544305801392,1.2671772241592407,3.815046548843384,0.6700366139411926,0.04508291184902191,0.7191353440284729
12.55,-1.7376081943511963,1.8181742429733276,4.6923723220825195,0.8077307939529419,0.18661339581012726,0.9765311479568481
12.575,-1.8768200874328613,2.160756826400757,4.40940523147583,0.8996483087539673,0.38187646865844727,1.242838740348816
12.6,-1.2993969917297363,1.6885523796081543,2.326233386993408,1.0655707120895386,-0.2740006744861603,1.0430773496627808
12.625,0.8418300151824951,0.20681098103523254,-0.03542270511388779,1.2479978799819946,-1.4506539106369019,0.6341896653175354
12.65,2.8245794773101807,-1.7473126649856567,0.7926396727561951,1.2418092489242554,-2.597761869430542,0.20312614738941193
12.675,2.1123971939086914,-3.0749592781066895,4.716835975646973,0.7152162194252014,-2.9017372131347656,-0.027591902762651443
12.7,1.046343445777893,-2.901521682739258,6.71638298034668,-0.6040456891059875,-1.7722525596618652,-0.30764222145080566
12.725,0.5906266570091248,-2.0405545234680176,6.346754550933838,-1.9624918699264526,-0.5193293690681458,-0.7583431005477905
12.75,0.20448370277881622,-0.32545244693756104,3.265488386154175,-3.281851291656494,0.8056276440620422,-1.1169146299362183
12.775,0.16465170681476593,0.757105827331543,-0.812070369720459,-4.080310344696045,1.3183724880218506,-1.6008827686309814
12.8,1.1753203868865967,0.7951429486274719,-2.299738883972168,-3.3792214393615723,-0.13173216581344604,-1.9213454723358154
12.825,2.3941447734832764,0.44117820262908936,-1.3806864023208618,-2.3232691287994385,-1.7169848680496216,-1.515496015548706
12.85,2.8245608806610107,-0.7355959415435791,-1.4533193111419678,-1.655310869216919,-1.089489459991455,-0.7398572564125061
12.875,2.116448163986206,-1.8202320337295532,-2.9409420490264893,-1.14759361743927,0.09392136335372925,0.1278052181005478
12.9,1.2757395505905151,-2.740473985671997,-4.319731712341309,-0.47027117013931274,0.3757818937301636,1.0720248222351074
12.925,-0.2722223997116089,-3.415377140045166,-4.081636428833008,0.2565036416053772,-0.07844050228595734,1.8268662691116333
12.95,-2.500380277633667,-3.507528066635132,-1.4473761320114136,0.7374162673950195,-0.7135148644447327,1.8815126419067383
12.975,-2.731903553009033,-0.8029214143753052,-0.20377498865127563,1.1600078344345093,-1.5123978853225708,0.8776376843452454
13.0,-3.217503786087036,2.866562843322754,-2.555548906326294,0.904654324054718,0.9694875478744507,0.8630861639976501
13.025,-2.740402936935425,4.523354530334473,-2.6276636123657227,1.6880567073822021,1.3597609996795654,0.9627407789230347
13.05,0.11311178654432297,4.417647361755371,-3.3521082401275635,1.9177502393722534,0.1487189084291458,1.0553004741668701
13.075,2.9491822719573975,1.7484005689620972,-3.2304766178131104,1.9321078062057495,-1.093129277229309,0.8159709572792053
13.1,2.668052911758423,1.0270394086837769,-1.546617865562439,1.896480917930603,-1.4437479972839355,0.42109256982803345
13.125,0.621372401714325,2.2830915451049805,-1.8430019617080688,0.7389333248138428,-0.4601244330406189,0.4065028131008148
13.15,0.40765106678009033,2.163705825805664,-1.3064851760864258,0.6163294315338135,-0.812541127204895,0.1368056982755661
13.175,1.1229366064071655,1.4020264148712158,1.258592963218689,1.1064342260360718,-1.4094879627227783,-0.13824120163917542
13.2,1.2882455587387085,0.9598897099494934,1.415083646774292,0.4605618715286255,-0.5146893858909607,-0.1689070761203766
13.225,1.3352349996566772,0.6475726962089539,1.0961278676986694,0.32593783736228943,-0.26688024401664734,-0.30601435899734497
13.25,1.116897463798523,0.6307957768440247,1.7528821229934692,0.49424681067466736,-0.3487955331802368,-0.4846011996269226
13.275,0.5380963087081909,0.6059667468070984,1.0990118980407715,0.17417238652706146,0.17740249633789062,-0.5624443888664246
13.3,-0.12250424921512604,0.3348303437232971,0.16043604910373688,0.012590876780450344,0.4357287585735321,-0.5828001499176025
13.325,-0.5546185970306396,0.014142042025923729,0.031232671812176704,-0.038054149597883224,0.4275091588497162,-0.5536169409751892
13.35,-0.827322244644165,-0.41515645384788513,-0.20919743180274963,-0.25045424699783325,0.6094753742218018,-0.4497073292732239
13.375,-1.1794815063476562,-0.8488790392875671,-0.6588513851165771,-0.3525254726409912,0.5779034495353699,-0.3546828329563141
13.4,-1.4507944583892822,-1.0426846742630005,-0.09931930899620056,-0.18374593555927277,0.06284023076295853,-0.2860633432865143
13.425,-1.7172366380691528,-1.2053604125976562,1.032740592956543,-0.04065950959920883,-0.2002010941505432,-0.15419554710388184
13.45,-1.8738762140274048,-1.084634780883789,1.0351141691207886,-0.11368881165981293,0.09141619503498077,0.1331559270620346
13.475,-1.4691689014434814,-0.7225179672241211,0.47758352756500244,-0.06441622972488403,0.0796569436788559,0.37276482582092285
13.5,-0.8169947266578674,-0.276215523481369,0.4238591492176056,0.07166355848312378,-0.197274848818779,0.49368059635162354
13.525,-0.025872740894556046,0.3681555688381195,0.3793167769908905,-0.022267425432801247,-0.045175231993198395,0.6263155341148376
13.55,0.41332998871803284,0.785146951675415,0.9067033529281616,-0.08268244564533234,0.009359040297567844,0.6286532282829285
13.575,-0.0908113345503807,0.7796108722686768,0.9250441789627075,-0.3469540774822235,0.42529967427253723,0.647733747959137
13.6,-1.0659596920013428,0.524140477180481,0.5105671286582947,-0.5537293553352356,0.6424816250801086,0.6938440799713135
13.625,-1.8630099296569824,0.33640772104263306,0.2045004665851593,-0.5313901305198669,0.45200255513191223,0.7786430716514587
13.65,-2.611035108566284,0.1701822727918625,0.2530684471130371,-0.46714267134666443,0.3325901925563812,0.9603399634361267
13.675,-3.3051369190216064,0.3833048343658447,1.5101258754730225,-0.35331660509109497,0.1308513581752777,1.2084201574325562
13.7,-4.18146276473999,1.169466495513916,2.8954405784606934,-0.29541710019111633,0.08829252421855927,1.5736385583877563
13.725,-6.077716827392578,1.4808135032653809,3.3723533153533936,-0.27273881435394287,-0.18291890621185303,1.8898310661315918
13.75,-9.918066024780273,0.9073747992515564,2.569495916366577,-0.27332231402397156,-0.3851546347141266,2.2921507358551025
13.775,-14.82957935333252,-1.1203060150146484,1.1691780090332031,-0.29827481508255005,-0.8262612819671631,2.7798421382904053
13.8,-17.522388458251953,-3.4640703201293945,-0.11532973498106003,0.12711377441883087,-1.429431676864624,3.212989330291748
13.825,-16.08064079284668,-3.6611557006835938,-3.174508571624756,-0.7805166840553284,-0.93468177318573,3.3242478370666504
13.85,-12.466041564941406,-0.04291066527366638,-8.708386421203613,-0.49383100867271423,-1.5852303504943848,3.132502317428589
13.875,-9.954588890075684,6.278618335723877,-12.734742164611816,2.379533529281616,-3.517977714538574,3.4474480152130127
13.9,-9.70964527130127,8.044610023498535,-10.667973518371582,3.8102643489837646,-4.703762054443359,3.463045835494995
13.925,-8.090177536010742,7.304624080657959,-5.885964393615723,5.126504421234131,-5.506696701049805,2.7394585609436035
13.95,-4.402403831481934,7.53412389755249,-2.844733953475952,4.455772876739502,-5.130507946014404,1.5310174226760864
13.975,-0.9231853485107422,8.575174331665039,-2.7018492221832275,1.5516350269317627,-4.292875289916992,-0.48251718282699585
14.0,2.9483327865600586,8.950119018554688,-2.4627161026000977,0.2865457236766815,-3.861443042755127,-2.5562424659729004
14.025,7.149095058441162,7.113344192504883,-1.09805166721344,0.11035788804292679,-3.4191861152648926,-4.141924858093262
14.05,10.204155921936035,3.4501471519470215,0.625947892665863,0.6047127842903137,-2.9542300701141357,-5.035519599914551
14.075,12.511428833007812,-0.74057936668396,2.2609448432922363,1.4120663404464722,-2.2467288970947266,-5.445319175720215
14.1,13.308845520019531,-5.425192356109619,4.289584636688232,2.4570720195770264,-1.8617942333221436,-5.062343120574951
14.125,12.711852073669434,-9.668115615844727,6.351726531982422,3.1724038124084473,-2.465790033340454,-4.684415340423584
14.15,13.342832565307617,-11.497137069702148,7.179019927978516,3.4357311725616455,-3.4397106170654297,-4.808176517486572
14.175,14.961748123168945,-10.937353134155273,8.146430015563965,3.5535569190979004,-4.72755241394043,-4.327542304992676
14.2,13.066259384155273,-8.879844665527344,9.767014503479004,2.7876148223876953,-7.067317008972168,-3.069890260696411
14.225,6.797840595245361,-6.88616418838501,8.800414085388184,1.090222954750061,-9.583845138549805,-2.4073071479797363
14.25,3.091240167617798,-6.232346534729004,4.784436225891113,-0.2809041440486908,-9.752604484558105,-1.7823231220245361
14.275,5.1613993644714355,-6.684781074523926,2.996209144592285,-0.7364313006401062,-8.020194053649902,-0.9298600554466248
14.3,9.840744018554688,-5.6554412841796875,4.774733543395996,-1.5632675886154175,-5.717086315155029,-0.5306023359298706
14.325,9.927927017211914,-0.40979909896850586,4.595138072967529,-3.154625654220581,-5.493922233581543,-0.22711558640003204
14.35,5.268574237823486,2.864664316177368,-0.3018331825733185,-3.892475128173828,-4.719430446624756,0.7680447101593018
14.375,3.4045677185058594,4.663381576538086,2.405149459838867,-1.644343376159668,0.8963550329208374,0.3871230185031891
14.4,7.11409330368042,13.238951683044434,2.294693946838379,-1.152436375617981,1.0668394565582275,0.4601633846759796
14.425,12.133404731750488,22.462064743041992,-3.589355230331421,-1.486119031906128,-0.5427839756011963,-0.4160672128200531
14.45,0.20315714180469513,7.26271390914917,-2.210993528366089,-2.2809090614318848,-3.725156307220459,1.1499065160751343
14.475,-4.472110748291016,-1.1097534894943237,2.347320079803467,-1.3676012754440308,-1.8939459323883057,0.8860205411911011
14.5,-0.6745895147323608,1.8855950832366943,3.880788803100586,-0.4676278233528137,-0.28452834486961365,0.9033703804016113
14.525,0.4497058093547821,2.319756031036377,2.9574179649353027,0.13946092128753662,-0.643105149269104,0.7451776266098022
14.55,-1.3260881900787354,-1.1687331199645996,-3.2150990962982178,-0.6867007613182068,-3.9184393882751465,1.7566465139389038
14.575,0.32812756299972534,-2.62493896484375,-5.4419684410095215,-0.13883672654628754,-1.5526739358901978,1.1053435802459717
14.6,3.7785394191741943,-2.465752601623535,-1.9031800031661987,0.3989536762237549,1.5199172496795654,0.14052285254001617
14.625,4.496011734008789,-1.8587310314178467,0.0893317461013794,-0.16709277033805847,0.7290375828742981,-0.21109144389629364
14.65,1.461784839630127,-0.7679893374443054,-0.6566552519798279,-1.0562114715576172,-1.3027976751327515,-0.2379436492919922
14.675,-1.663252830505371,0.6371049880981445,-0.34962257742881775,-1.319771409034729,-2.162074565887451,-0.4839276373386383
14.7,-2.2689101696014404,2.716787815093994,1.8491944074630737,-0.6426712870597839,-2.650343179702759,-0.8674015998840332
14.725,-1.3242406845092773,3.050078868865967,-0.2925817668437958,-0.9162280559539795,-4.312621593475342,-0.2898271977901459
14.75,0.7491206526756287,1.9622150659561157,-4.7500529289245605,-0.9372643828392029,-3.926260471343994,-0.026099421083927155
14.775,2.1452584266662598,1.0127910375595093,-5.928141117095947,0.16929057240486145,-1.0881493091583252,-0.2684568762779236
14.8,2.4006426334381104,1.0731626749038696,-3.6316986083984375,0.9113741517066956,1.0177018642425537,-0.34353891015052795
14.825,2.3826684951782227,1.5261716842651367,-2.233635187149048,0.7481712102890015,0.4718916118144989,0.008906194008886814
14.85,2.4075872898101807,0.6881641745567322,-5.212806224822998,0.3618334233760834,-1.3714306354522705,0.5069226026535034
14.875,3.3113272190093994,-0.19008362293243408,-8.719111442565918,0.8261502385139465,-1.838557481765747,0.4680524170398712
14.9,4.107275485992432,0.3395169675350189,-5.590126037597656,2.7090892791748047,0.24656693637371063,0.10580821335315704
14.925,4.088612079620361,0.2626849114894867,0.508415699005127,3.6753780841827393,0.8177641034126282,0.44362086057662964
14.95,3.353398323059082,-0.5361965298652649,1.9481639862060547,2.900853395462036,-1.5278165340423584,0.7851691842079163
14.975,3.3326265811920166,-0.3390551805496216,-0.7920963764190674,2.2820048332214355,-3.3048508167266846,0.6331891417503357
15.0,3.6148085594177246,0.823544442653656,-1.6063281297683716,2.7621700763702393,-2.174950122833252,0.8288027048110962
15.025,1.5703879594802856,0.6557906866073608,2.4697813987731934,3.568967819213867,0.6867172718048096,1.9565626382827759
15.05,-1.3076351881027222,-1.2643349170684814,6.545340538024902,3.169222116470337,1.1835737228393555,2.5740346908569336
15.075,-0.9288139343261719,-1.8731732368469238,5.701508522033691,1.9569429159164429,-0.9577557444572449,1.322007656097412
15.1,-1.0015794038772583,-2.60369873046875,5.421359539031982,1.2435731887817383,-0.9113600850105286,0.37261492013931274
15.125,-2.4014194011688232,-5.152219772338867,8.093924522399902,0.726020872592926,1.0277584791183472,0.10833625495433807
15.15,-2.765106201171875,-5.563029766082764,8.568471908569336,-0.10196273028850555,1.0481795072555542,-1.1900479793548584
15.175,-1.9270877838134766,-1.9700552225112915,4.957260608673096,-1.1002521514892578,0.2515803277492523,-2.5560503005981445
15.2,-1.6096822023391724,1.2865488529205322,0.9414326548576355,-1.3671543598175049,1.3148564100265503,-1.831290364265442
15.225,-3.058750629425049,-0.5199183821678162,0.9094187617301941,-1.1725282669067383,3.5089805126190186,-0.417086660861969
15.25,-0.6383352875709534,-0.08693428337574005,6.468514442443848,-0.6475126147270203,3.8110828399658203,-0.8222222924232483
15.275,-1.3615410327911377,1.9056609869003296,8.528575897216797,-1.3495469093322754,-0.200081929564476,-2.3771188259124756
15.3,-5.053829669952393,-0.115167036652565,-2.969069004058838,-4.861867427825928,-4.398844242095947,-2.4671218395233154
15.325,-4.449796199798584,-1.2887358665466309,-3.4373795986175537,-2.866192579269409,-0.9425857067108154,-1.4676918983459473
15.35,-2.3276889324188232,0.8347277641296387,3.102221727371216,-0.8542044162750244,1.1386828422546387,-0.7729271054267883
15.375,-1.4164772033691406,2.349484443664551,5.463399887084961,-0.9298688173294067,0.5716411471366882,-0.5321235060691833
15.4,-1.4900939464569092,2.581475019454956,3.0250866413116455,-1.6774927377700806,-0.7867794036865234,-0.3613465130329132
15.425,-1.9629755020141602,2.4582951068878174,-0.054252300411462784,-1.6126242876052856,-1.0877735614776611,0.03759033977985382
15.45,-2.404360771179199,2.959455728530884,0.2040473222732544,-0.5420380234718323,0.1801397055387497,0.5268263816833496
15.475,-2.4059062004089355,3.2751097679138184,0.8447932600975037,-0.20065167546272278,0.5896216034889221,0.9994405508041382
15.5,-1.6254372596740723,3.0080084800720215,-0.57318514585495,-0.6410002112388611,-0.1039808839559555,1.4832276105880737
15.525,0.6978675127029419,3.4880011081695557,-1.2785191535949707,-0.44828271865844727,0.09994605928659439,1.8156647682189941
15.55,4.819802284240723,5.155798435211182,-1.891100287437439,-0.2256915271282196,0.4289371371269226,1.9614038467407227
15.575,8.648569107055664,4.918953895568848,-3.538328170776367,0.02258969470858574,0.977631688117981,1.5733932256698608
15.6,9.175575256347656,-0.4937654435634613,-4.279046058654785,0.29669225215911865,1.735746145248413,1.1711866855621338
15.625,7.357131481170654,-6.012242317199707,-2.7487688064575195,0.2065768539905548,1.34319007396698,0.602072536945343
15.65,2.705394983291626,-8.055416107177734,-3.381941080093384,-0.3206074833869934,-0.6186947822570801,-0.18858009576797485
15.675,0.1169949546456337,-8.364714622497559,-10.297696113586426,-0.296236127614975,-2.710564613342285,-0.8638312816619873
15.7,0.7784510254859924,-7.960368633270264,-9.79316520690918,1.7229382991790771,-0.42721790075302124,-0.48515585064888
15.725,0.45023778080940247,-6.99539852142334,1.8207820653915405,3.547567367553711,4.041381359100342,0.9421955943107605
15.75,-2.5443789958953857,-4.2142653465271,6.602627277374268,1.5761393308639526,0.31574997305870056,1.168344259262085
15.775,-5.275646686553955,-1.6663891077041626,4.540756702423096,0.06869181990623474,-2.7523179054260254,-0.3527320623397827
15.8,-3.2683048248291016,-0.6359172463417053,12.114530563354492,1.056329607963562,2.0322353839874268,-1.4865645170211792
15.825,4.109817028045654,4.657456874847412,15.005640029907227,0.7223643660545349,2.5944669246673584,-1.972093939781189
15.85,6.7346906661987305,8.695518493652344,-1.6881963014602661,-2.8777570724487305,-2.362002372741699,-2.2809853553771973
15.875,0.8212516903877258,3.7796173095703125,-3.296456813812256,-1.1372016668319702,0.31110984086990356,-1.9614671468734741
15.9,-2.9077377319335938,1.4397366046905518,1.3472586870193481,-1.0750497579574585,-0.1433495432138443,-1.7064621448516846
15.925,-1.3393014669418335,3.726609706878662,-0.8508211374282837,-2.4633922576904297,-2.0027241706848145,-1.4933570623397827
15.95,-0.6441302299499512,4.328616619110107,0.16905973851680756,-1.193794846534729,-0.4057021141052246,-1.118583083152771
15.975,-0.603863537311554,3.9960222244262695,3.1719648838043213,-0.5540570616722107,0.32673001289367676,-0.9063846468925476
16.0,-0.30732613801956177,3.7125415802001953,3.5434422492980957,-0.7267172336578369,0.017687980085611343,-0.488776832818985
16.025,-0.399423211812973,3.759521245956421,1.1386985778808594,-0.439639151096344,0.513343870639801,-0.2037188708782196
16.05,-0.10688218474388123,3.474050283432007,1.025502324104309,0.63411545753479,1.0483977794647217,-0.07121454924345016
16.075,0.16588109731674194,2.23113751411438,0.7196478247642517,0.039859697222709656,-0.2591347098350525,0.34229692816734314
16.1,0.796567976474762,1.0763788223266602,-0.954771101474762,-0.6064651608467102,-1.160714864730835,0.6698598265647888
16.125,2.1375319957733154,0.6807917952537537,-1.0036025047302246,-0.05480238422751427,-0.3484427332878113,0.627325177192688
16.15,4.048810958862305,0.3151187598705292,-0.40555739402770996,0.4676344692707062,0.38465213775634766,0.4697665870189667
16.175,6.225423812866211,-0.5221922397613525,-1.4177110195159912,0.44289612770080566,0.46590906381607056,0.17816682159900665
16.2,7.983166217803955,-2.1737630367279053,-3.435840606689453,0.45134198665618896,0.6501542925834656,-0.32156693935394287
16.225,9.064613342285156,-4.2724385261535645,-5.217592239379883,0.5211359262466431,0.8767789006233215,-0.9490270018577576
16.25,9.467639923095703,-4.983577728271484,-5.669548511505127,0.5248896479606628,0.9867326617240906,-1.7789438962936401
16.275,9.646817207336426,-3.7988877296447754,-4.2158050537109375,0.7407416701316833,1.1751481294631958,-2.6120691299438477
16.3,10.456106185913086,-2.183795928955078,-1.6267868280410767,1.0014939308166504,1.1020841598510742,-2.944119691848755
16.325,9.965667724609375,-0.00453267153352499,1.2009551525115967,0.41562214493751526,0.04023975133895874,-2.5451412200927734
16.35,7.933516025543213,2.7891604900360107,3.2333645820617676,-1.0540928840637207,-1.5933364629745483,-2.2689826488494873
16.375,7.869081020355225,3.8463294506073,2.770498275756836,-1.3914649486541748,-2.1435301303863525,-2.5499043464660645
16.4,8.517049789428711,3.212827205657959,0.5285875201225281,-0.9593914151191711,-2.3509252071380615,-2.089763879776001
16.425,6.716855049133301,2.6195859909057617,-1.456283450126648,-0.9941827058792114,-2.7207086086273193,-0.9611430168151855
16.45,4.029040336608887,2.09743595123291,-1.7366677522659302,-0.09617102891206741,-2.2567923069000244,0.10821302980184555
16.475,2.0812854766845703,1.4803181886672974,0.02434099279344082,1.8075286149978638,-1.365929365158081,1.2528170347213745
16.5,0.39821937680244446,0.34818488359451294,2.358868360519409,2.662693977355957,-0.8307092785835266,2.3439431190490723
16.525,-1.1212131977081299,-1.300881266593933,2.1668357849121094,1.5520565509796143,-1.3221943378448486,3.2467119693756104
16.55,-1.7851567268371582,-1.6568567752838135,0.3180733025074005,0.37973594665527344,-2.237666368484497,3.940869092941284
16.575,-2.3604953289031982,-0.7731200456619263,-0.054333753883838654,0.5120863318443298,-2.424084424972534,4.833512783050537
16.6,-3.9029338359832764,-0.26022037863731384,1.6207259893417358,1.0745995044708252,-1.8688799142837524,5.8829569816589355
16.625,-6.798497200012207,-0.8299346566200256,4.300527095794678,0.916531503200531,-1.5580766201019287,6.457763195037842
16.65,-9.972057342529297,-1.9053101539611816,6.009008407592773,0.07692154496908188,-2.981853723526001,5.899322509765625
16.675,-12.088591575622559,-3.042374849319458,6.213196277618408,-0.3362378180027008,-5.415896415710449,4.337826728820801
16.7,-12.10697078704834,-4.552839756011963,4.702406406402588,0.0850386992096901,-7.366739273071289,2.324108600616455
16.725,-10.858625411987305,-5.904553413391113,0.4617021679878235,1.0028691291809082,-8.2881498336792,0.17754729092121124
16.75,-9.667013168334961,-4.69761323928833,-5.567584037780762,1.5937141180038452,-7.463137626647949,-1.6912930011749268
16.775,-6.575902462005615,0.9099411964416504,-4.821178436279297,1.9856281280517578,-4.62925910949707,-3.094621419906616
16.8,-4.759835243225098,7.636945724487305,1.8320540189743042,1.0589505434036255,-0.8751471638679504,-2.6665096282958984
16.825,-1.6355332136154175,14.673254013061523,6.944100379943848,0.8537251949310303,1.067161202430725,-2.0849974155426025
16.85,-2.814474582672119,7.654823303222656,1.7337918281555176,0.41984859108924866,1.0441572666168213,-1.6150537729263306
16.875,-5.028799533843994,-0.11867484450340271,-4.645194053649902,-0.09155355393886566,-0.8573868274688721,-2.2419307231903076
16.9,-2.946953058242798,0.3470960557460785,-3.465205669403076,-0.40501970052719116,-1.068010926246643,-1.4195692539215088
16.925,-3.1147937774658203,1.866263747215271,0.9815979599952698,-0.539755642414093,0.561259925365448,-0.046667203307151794
16.95,-3.190934419631958,0.8185514807701111,2.430868625640869,-0.509834885597229,-0.08744532614946365,0.032392844557762146
16.975,0.7489646673202515,-0.9770022034645081,0.29602834582328796,-0.6853965520858765,-2.497220754623413,-0.8730438351631165
17.0,3.2111716270446777,-0.6226608157157898,-0.9104539155960083,-0.586372971534729,-2.1701500415802,-0.8832175731658936
17.025,1.5860161781311035,0.2256765514612198,-0.13880428671836853,-0.3513946235179901,-0.41979172825813293,-0.3111272156238556
17.05,-0.5001513957977295,-0.19795605540275574,0.44222307205200195,-0.3125792443752289,-0.029842445626854897,-0.22969870269298553
17.075,-0.5735140442848206,-0.3665046691894531,0.2598709464073181,-0.29843321442604065,-0.677636981010437,-0.4493667781352997
17.1,0.3925410211086273,-0.05041215196251869,0.2683761715888977,-0.22744131088256836,-0.9589366316795349,-0.49428877234458923
17.125,0.03780613839626312,0.13982108235359192,0.15163519978523254,-0.09403903037309647,-0.462393581867218,-0.2614424228668213
17.15,-0.9193980097770691,0.560887336730957,-0.7386582493782043,-0.01857166364789009,-0.17937864363193512,-0.10003019124269485
17.175,-0.5587884187698364,0.8404750227928162,-1.5031460523605347,-0.09569010883569717,-0.5312557816505432,-0.08353519439697266
17.2,0.3266603350639343,0.5344933271408081,-1.3507685661315918,-0.2182585746049881,-0.6910640001296997,0.01054192055016756
17.225,0.6115257143974304,0.2020062506198883,-0.9709864258766174,-0.3254159986972809,-0.8082300424575806,0.034967225044965744
17.25,0.6188027858734131,0.06987565755844116,-0.5562770366668701,-0.3876754343509674,-0.8742772340774536,0.016805244609713554
17.275,0.41019120812416077,0.015200575813651085,-0.3411135673522949,-0.3878830075263977,-0.6568438410758972,0.09023607522249222
17.3,0.08763308078050613,0.01777644455432892,-0.39197713136672974,-0.3534451425075531,-0.42966902256011963,0.17852771282196045
17.325,-0.19186362624168396,-0.010682156309485435,-0.41744598746299744,-0.30677950382232666,-0.43474486470222473,0.20407666265964508
17.35,-0.2592444121837616,-0.10985664278268814,-0.2154575139284134,-0.283389687538147,-0.6974397897720337,0.174162358045578
17.375,-0.3227042555809021,-0.11804582923650742,-0.042063046246767044,-0.23858097195625305,-0.7284907698631287,0.22071802616119385
17.4,-0.21196870505809784,-0.04732228070497513,-0.004979873541742563,-0.19692091643810272,-0.5651225447654724,0.2977108955383301
17.425,0.15807336568832397,-0.21083451807498932,0.15637922286987305,-0.15680727362632751,-0.4098917841911316,0.37913185358047485
17.45,0.37962105870246887,-0.5462131500244141,0.4520306885242462,-0.08923220634460449,-0.467547744512558,0.3810119926929474
17.475,0.3037474453449249,-0.7180824279785156,0.6498088836669922,0.025228485465049744,-0.6119314432144165,0.3303265869617462
17.5,0.4356709122657776,-0.6220245361328125,0.7143544554710388,0.1711931824684143,-0.6383795142173767,0.31320711970329285
17.525,1.2631683349609375,-0.5086764693260193,1.1238659620285034,0.33695948123931885,-0.453040212392807,0.29684096574783325
17.55,1.5762505531311035,-0.6080731153488159,1.6306298971176147,0.5204825401306152,0.22060920298099518,0.37763023376464844
17.575,0.6647769808769226,-0.41400039196014404,1.4166285991668701,0.7925290465354919,0.892219603061676,0.5077139139175415
17.6,0.17901454865932465,0.6771870255470276,0.24943244457244873,0.9897043108940125,0.5738347172737122,0.4398978352546692
17.625,1.2330443859100342,2.546449899673462,-0.09493502229452133,1.1031781435012817,-0.1476520597934723,0.2861177623271942
17.65,1.5948542356491089,3.7895658016204834,1.4071125984191895,1.2846169471740723,-0.45344024896621704,0.553104043006897
17.675,-0.3216073513031006,3.1545543670654297,3.103198528289795,1.4840840101242065,-0.8420768976211548,1.0651174783706665
17.7,-0.8679909706115723,1.4761700630187988,2.784491539001465,1.6284534931182861,-2.689018964767456,0.46314263343811035
17.725,1.8279273509979248,0.46238550543785095,2.312553882598877,1.8149826526641846,-4.383061408996582,-0.6345012784004211
17.75,3.717461585998535,-0.2762036919593811,3.6987414360046387,1.5336213111877441,-3.7868800163269043,-0.5820690989494324
17.775,2.2771975994110107,-0.61532062292099,4.807018756866455,0.39614278078079224,-1.8353270292282104,0.42351698875427246
17.8,1.0618728399276733,-0.5954212546348572,4.9329705238342285,-0.842107355594635,-1.0583057403564453,0.632965624332428
17.825,1.1573736667633057,0.057391732931137085,4.685536861419678,-1.7823610305786133,-1.0935136079788208,0.32531797885894775
17.85,-0.26848119497299194,0.7243875861167908,3.1362338066101074,-2.8679442405700684,-0.3333840072154999,0.416014164686203
17.875,-3.0595784187316895,0.6929455995559692,0.6418505907058716,-3.656432867050171,0.021906882524490356,0.22792603075504303
17.9,-4.485651969909668,0.4515122175216675,-1.488223910331726,-3.7132277488708496,-1.2268345355987549,-0.3828158974647522
17.925,-3.6392929553985596,0.3068329989910126,-2.5911293029785156,-3.372966766357422,-3.1050734519958496,-0.7637135982513428
17.95,-2.2471492290496826,-0.0028394367545843124,-2.9202797412872314,-3.0642330646514893,-4.179782390594482,-0.7055696845054626
17.975,-1.6611379384994507,-0.9555326104164124,-3.691882371902466,-2.758052110671997,-4.082890033721924,-0.5392134785652161
18.0,-1.2241878509521484,-2.636939287185669,-4.989903450012207,-2.2167458534240723,-3.658485174179077,-0.41862690448760986
18.025,-0.31595250964164734,-4.237098217010498,-5.628500938415527,-1.397529125213623,-3.538912296295166,-0.23393982648849487
18.05,0.7146396636962891,-4.910010814666748,-5.434159755706787,-0.4865485429763794,-3.4050042629241943,0.06547544151544571
18.075,1.9097874164581299,-4.622190475463867,-4.626132011413574,0.3231179416179657,-3.032486915588379,0.3769857883453369
18.1,4.421949863433838,-1.2341158390045166,-0.5436616539955139,1.0100204944610596,-2.4227521419525146,0.4253370463848114
18.125,7.2824859619140625,5.693966865539551,5.548536777496338,1.6255581378936768,-2.071969747543335,0.5896532535552979
18.15,6.940545558929443,4.561854839324951,1.8718037605285645,1.4231611490249634,1.4503921270370483,0.3921104669570923
18.175,6.370604038238525,-5.013307094573975,-3.9396989345550537,1.6774429082870483,1.6069684028625488,-0.028598211705684662
18.2,6.278385162353516,-5.4065399169921875,-4.04481315612793,2.4236512184143066,-0.5473155379295349,-0.07539556920528412
18.225,4.313008785247803,-0.5240846276283264,-3.828700304031372,1.9994940757751465,-0.05620834231376648,-0.1878073513507843
18.25,1.3736662864685059,0.8265184760093689,-5.309902667999268,1.2403613328933716,0.9074879288673401,-0.4184833765029907
18.275,-0.21754667162895203,0.9926208257675171,-5.817384243011475,0.957668125629425,0.37709859013557434,-0.45775672793388367
18.3,-0.17161613702774048,0.8434787392616272,-4.720958232879639,0.6852083802223206,-0.5692434310913086,-0.5441736578941345
18.325,0.19763997197151184,0.4710327684879303,-3.1437501907348633,0.3344346284866333,-0.7324315309524536,-0.6204056739807129
18.35,0.6049684286117554,0.34943467378616333,-1.6458978652954102,0.0428256019949913,-0.6242140531539917,-0.6013586521148682
18.375,0.8683121204376221,0.13647936284542084,-0.29544416069984436,-0.15242713689804077,-0.5254274606704712,-0.6129180192947388
18.4,0.5636393427848816,-0.1250276118516922,0.5537458062171936,-0.17786332964897156,-0.3973478376865387,-0.6462892293930054
18.425,-0.10039233416318893,-0.23353667557239532,0.6391807794570923,-0.11168563365936279,-0.39574742317199707,-0.6469697952270508
18.45,-0.6368048787117004,-0.198698952794075,0.5844363570213318,-0.002248740289360285,-0.5631176829338074,-0.6137419939041138
18.475,-0.9897465109825134,-0.15778061747550964,0.40573909878730774,0.1160818338394165,-0.6218429803848267,-0.5444276928901672
18.5,-1.0383139848709106,-0.08410266041755676,-0.1876806616783142,0.20472222566604614,-0.6590574979782104,-0.45754510164260864
18.525,-0.5800217390060425,0.16036216914653778,-0.8013092875480652,0.255076140165329,-0.8648418188095093,-0.3392210006713867
18.55,0.12244485318660736,0.364282488822937,-1.220102071762085,0.2536628842353821,-1.2463412284851074,-0.28079819679260254
18.575,0.6635758876800537,0.3643902838230133,-1.1217678785324097,0.20991352200508118,-1.667227864265442,-0.3188360035419464
18.6,0.8809903860092163,0.15985870361328125,-0.17805857956409454,0.13402308523654938,-2.089616298675537,-0.41893044114112854
18.625,0.6986063718795776,0.04456053301692009,0.8182142972946167,0.09381753206253052,-2.0351083278656006,-0.48053789138793945
18.65,0.2606084942817688,0.05187998712062836,0.8140949010848999,0.1312997192144394,-1.3345975875854492,-0.44932305812835693
18.675,0.08518964052200317,0.0018988025840371847,0.30849868059158325,0.16689200699329376,-0.723568320274353,-0.3954046666622162
18.7,0.4526531994342804,-0.027419060468673706,0.2836521565914154,0.18734616041183472,-0.6011174917221069,-0.40351828932762146
18.725,0.8542870879173279,0.08054259419441223,0.1658206582069397,0.22467190027236938,-0.33208996057510376,-0.4363780617713928
18.75,0.9216479659080505,0.18744753301143646,-0.22431425750255585,0.2295776754617691,0.02577679418027401,-0.4717351794242859
18.775,1.1161084175109863,0.2522716820240021,0.04553159698843956,0.17617835104465485,-0.13141968846321106,-0.5636302828788757
18.8,1.6930789947509766,0.20285044610500336,0.5952648520469666,0.14183801412582397,-0.31450125575065613,-0.6850458383560181
18.825,2.0572824478149414,0.17709454894065857,0.6225382089614868,0.16118405759334564,-0.0141217689961195,-0.7784314155578613
18.85,2.124569892883301,0.29286205768585205,0.6466131806373596,0.16915343701839447,0.16424855589866638,-0.8872569799423218
18.875,2.271857976913452,0.3036738932132721,0.9110796451568604,0.15621259808540344,0.08350533246994019,-1.030897617340088
18.9,2.1914658546447754,0.3077622950077057,0.9673992395401001,0.15876416862010956,0.12422186881303787,-1.1625889539718628
18.925,1.5581964254379272,0.5293428301811218,0.939735472202301,0.11395218223333359,0.11144539713859558,-1.261855959892273
18.95,0.813506007194519,0.9577973484992981,1.5410383939743042,-0.04272923246026039,-0.18012528121471405,-1.3222099542617798
18.975,0.573395311832428,1.4811300039291382,2.19162917137146,-0.34705087542533875,-0.47484710812568665,-1.2822848558425903
19.0,0.6451345682144165,1.8423552513122559,1.663906216621399,-0.4682373106479645,-0.22694770991802216,-1.0922176837921143
19.025,0.6787523031234741,1.760414481163025,1.3559001684188843,-0.6285929679870605,-0.7015528678894043,-1.0702900886535645
19.05,0.47871214151382446,1.2146610021591187,1.9078881740570068,-0.9694122076034546,-1.6130285263061523,-1.1296401023864746
19.075,0.21595488488674164,0.2396070659160614,1.5136747360229492,-1.0413737297058105,-1.697583556175232,-0.9721292853355408
19.1,0.3877670466899872,-1.0004159212112427,0.34173285961151123,-1.122309923171997,-1.947069764137268,-0.6703395247459412
19.125,0.7427992820739746,-1.882939100265503,0.26915955543518066,-1.3234814405441284,-2.501115083694458,-0.2235616147518158
19.15,0.6151387691497803,-2.056096076965332,1.69840407371521,-1.4813529253005981,-2.813020944595337,0.23728232085704803
19.175,0.10805460810661316,-1.8108848333358765,3.044555187225342,-1.468621850013733,-2.6068711280822754,0.621269702911377
19.2,0.06313887238502502,-1.510527491569519,3.0940332412719727,-1.2606185674667358,-1.9077032804489136,0.9847310185432434
19.225,0.4897729456424713,-1.1317803859710693,2.5782828330993652,-1.0919740200042725,-1.2434273958206177,1.282031536102295
19.25,0.6149914264678955,-0.5353286266326904,2.515249490737915,-1.065936803817749,-0.6486086845397949,1.4617373943328857
19.275,0.36982783675193787,0.06323181837797165,2.8472402095794678,-1.109481692314148,-0.17123502492904663,1.5610648393630981
19.3,0.25054460763931274,0.5335525870323181,2.87612247467041,-1.0677109956741333,0.3845171332359314,1.6033419370651245
19.325,0.32281234860420227,0.8301052451133728,2.545243263244629,-1.0302709341049194,0.941027820110321,1.4559236764907837
19.35,0.2621143162250519,0.9864868521690369,2.3842549324035645,-1.1028064489364624,1.2102614641189575,1.2100378274917603
19.375,0.040486130863428116,1.104549765586853,2.3413636684417725,-1.135332465171814,1.494700312614441,1.0229612588882446
19.4,0.003048484679311514,1.0777543783187866,1.9866430759429932,-1.1084259748458862,1.9817850589752197,0.816390335559845
19.425,0.15282368659973145,0.8126881718635559,1.4350403547286987,-1.160048007965088,2.2961621284484863,0.5467188954353333
19.45,0.1818336695432663,0.6108867526054382,0.8408318758010864,-1.2665094137191772,2.3074772357940674,0.33323413133621216
19.475,-0.014386769384145737,0.5189629197120667,-0.04170474410057068,-1.292250394821167,2.271821975708008,0.1729978770017624
19.5,-0.3533485233783722,0.33094778656959534,-0.9664969444274902,-1.267244577407837,2.010655641555786,0.03912999853491783
19.525,-0.728523313999176,0.08133013546466827,-1.4672112464904785,-1.2567940950393677,1.4002524614334106,0.02820797823369503
19.55,-1.0635621547698975,-0.2983667850494385,-1.7677148580551147,-1.238476276397705,0.8557204604148865,0.07881291955709457
19.575,-1.2519298791885376,-0.9091867208480835,-2.0979838371276855,-1.1783853769302368,0.34665775299072266,0.15497960150241852
19.6,-1.3673347234725952,-1.5653815269470215,-2.450166940689087,-1.0458755493164062,-0.12153288722038269,0.35959017276763916
19.625,-1.3190999031066895,-2.228055238723755,-3.1304807662963867,-0.8241963982582092,-0.4715312421321869,0.6949344277381897
19.65,-1.0219603776931763,-2.761995553970337,-3.9437575340270996,-0.544679582118988,-0.9144543409347534,1.1380637884140015
19.675,-1.8226912021636963,-2.4996626377105713,-4.071903228759766,-0.20160716772079468,-1.5069037675857544,1.7226990461349487
19.7,-5.259297847747803,-1.7353779077529907,-3.4683444499969482,0.1254541128873825,-1.7168155908584595,1.8866385221481323
19.725,-6.570422649383545,-1.670776128768921,-3.8924620151519775,0.6523832678794861,-1.2975445985794067,1.2414933443069458
19.75,-3.021125316619873,0.1426078826189041,-6.528918266296387,0.8565393090248108,0.4359595775604248,0.9499513506889343
19.775,0.5949817299842834,3.355562210083008,-3.48391056060791,1.5468307733535767,0.7719475626945496,1.6224945783615112
19.8,2.827641725540161,3.86447811126709,3.6310431957244873,2.329603910446167,0.3156396448612213,1.4667202234268188
19.825,5.165021896362305,2.7012157440185547,-1.0410914421081543,0.76934415102005,2.0399367809295654,0.405722051858902
19.85,5.269047737121582,2.2424283027648926,-6.450885772705078,0.9518744349479675,-0.8242456316947937,0.5513892769813538
19.875,2.186039447784424,2.1513900756835938,-1.274101734161377,2.7044811248779297,-4.347695350646973,1.0348703861236572
19.9,0.9813560843467712,1.3033305406570435,0.3952186703681946,1.432905912399292,-0.9730870723724365,0.19356033205986023
19.925,2.414339303970337,0.5085951685905457,-2.964726209640503,0.17641307413578033,1.5421435832977295,-0.49498358368873596
19.95,2.0377471446990967,0.439557820558548,-2.355618953704834,0.7427338361740112,-0.5691932439804077,-0.27770674228668213
19.975,0.7182599902153015,0.3635016679763794,0.8265141248703003,1.109325647354126,-2.0905017852783203,-0.20585095882415771
20.0,0.40559110045433044,0.17078326642513275,1.7094308137893677,0.723010241985321,-0.941623866558075,-0.42849886417388916
20.025,0.231316477060318,-0.03059089183807373,1.0314960479736328,0.34933042526245117,0.2676089107990265,-0.640909731388092
20.05,-0.5280836224555969,-0.3680982291698456,0.44400450587272644,0.33068859577178955,0.38077500462532043,-0.6630246639251709
20.075,-0.9535601139068604,-0.5060644745826721,-0.014536228962242603,0.3643992841243744,0.15494444966316223,-0.5326633453369141
20.1,-0.7318301200866699,-0.4954147934913635,-0.015877967700362206,0.38510438799858093,-0.07223044335842133,-0.3709077537059784
20.125,-0.24175621569156647,-0.4009380638599396,0.2030085027217865,0.37022629380226135,-0.0828891322016716,-0.2557827830314636
20.15,0.14264987409114838,-0.2018137127161026,0.17117667198181152,0.3424420654773712,-0.10441041737794876,-0.18683287501335144
20.175,0.05121563374996185,-0.11034392565488815,0.15765166282653809,0.37190908193588257,-0.41692307591438293,-0.14237304031848907
20.2,-0.2815493643283844,-0.20504283905029297,0.2504025995731354,0.3847053050994873,-0.5959944128990173,-0.09201860427856445
20.225,-0.3633333742618561,-0.23165319859981537,0.3701266348361969,0.3479938507080078,-0.5394341349601746,-0.013752108439803123
20.25,-0.06463208794593811,-0.007612185087054968,0.36969903111457825,0.2983625829219818,-0.45141685009002686,0.06896694749593735
20.275,0.39697787165641785,0.22193343937397003,0.435569167137146,0.258678138256073,-0.38517752289772034,0.12078463286161423
20.3,0.6429392099380493,0.14586175978183746,1.0527737140655518,0.2844615578651428,-0.5257563591003418,0.11466536670923233
20.325,0.5604900121688843,0.11180038005113602,1.4063605070114136,0.3072018027305603,-0.5283019542694092,0.07770532369613647
20.35,0.4629806578159332,0.22902408242225647,1.0144777297973633,0.25448083877563477,-0.19295533001422882,0.04569414630532265
20.375,0.35867446660995483,0.1550055593252182,0.7633355259895325,0.2248522937297821,0.02501932717859745,0.021117758005857468
20.4,0.11807994544506073,-0.07860269397497177,0.8554116487503052,0.22917331755161285,0.09171290695667267,0.006332160905003548
20.425,-0.1488310694694519,-0.23775094747543335,0.718545138835907,0.20924539864063263,0.18802906572818756,0.019375650212168694
20.45,-0.10249009728431702,-0.16375252604484558,0.31961262226104736,0.1418587565422058,0.36272716522216797,0.08294202387332916
20.475,0.2960977256298065,0.0152207026258111,0.49289342761039734,0.12626460194587708,0.24213066697120667,0.14649894833564758
20.5,0.5258578062057495,0.1547461897134781,1.0437499284744263,0.1726243644952774,-0.006904189940541983,0.15405452251434326
20.525,0.4984537661075592,0.17438900470733643,0.9358324408531189,0.15129557251930237,0.14619797468185425,0.12163624167442322
20.55,0.37744781374931335,0.0853453278541565,0.4588061273097992,0.13412825763225555,0.26118654012680054,0.08911854773759842
20.575,0.09326610714197159,-0.01455590222030878,0.25705602765083313,0.15248174965381622,0.1395564079284668,0.07891394942998886
20.6,-0.3273773193359375,-0.11530400067567825,0.03674294427037239,0.12285440415143967,0.12755554914474487,0.10039948672056198
20.625,-0.6977454423904419,-0.21581369638442993,-0.2460431456565857,0.03805706650018692,0.2063293606042862,0.1657845824956894
20.65,-0.7283269166946411,-0.25692278146743774,-0.18771082162857056,-0.05371852219104767,0.19111983478069305,0.27042946219444275
20.675,-0.38592150807380676,-0.16771124303340912,0.25854334235191345,-0.1282653957605362,0.11402551829814911,0.38752537965774536
20.7,0.1236225888133049,0.01422796305269003,0.7906075716018677,-0.17902909219264984,0.0954868495464325,0.4772803783416748
20.725,0.7205637693405151,0.21112553775310516,1.1690478324890137,-0.2047022134065628,0.16396303474903107,0.5130836367607117
20.75,0.9635595083236694,0.3342735171318054,1.333740234375,-0.20400501787662506,0.2536226809024811,0.4799840748310089
20.775,0.8647156953811646,0.39002057909965515,1.2197544574737549,-0.21025213599205017,0.38348588347435,0.40319594740867615
20.8,0.7158554792404175,0.45032423734664917,1.0301218032836914,-0.2025790810585022,0.4133831560611725,0.333437442779541
20.825,0.4273048937320709,0.3896438479423523,0.92796790599823,-0.15417347848415375,0.29092738032341003,0.2738845944404602
20.85,0.1383485198020935,0.22709858417510986,0.7293526530265808,-0.12367286533117294,0.23050254583358765,0.2346731573343277
20.875,-0.028620287775993347,0.09879405796527863,0.5039342045783997,-0.1156245544552803,0.19627025723457336,0.23446989059448242
20.9,-0.02756456285715103,0.002689412562176585,0.4253891110420227,-0.0822300985455513,0.05422477051615715,0.25976797938346863
20.925,0.10934443771839142,0.043360769748687744,0.46997421979904175,-0.059205882251262665,-0.08609911799430847,0.2896379828453064
20.95,0.04479997977614403,0.11926566064357758,0.7299045920372009,-0.04149210825562477,-0.17198221385478973,0.31701675057411194
20.975,0.04428594931960106,0.11668501794338226,0.7369670271873474,-0.09869454801082611,0.011857542209327221,0.35126009583473206
21.0,0.24998614192008972,0.07410626113414764,0.3278363347053528,-0.16199205815792084,0.26063263416290283,0.3866743743419647
21.025,0.022527670487761497,0.05276493355631828,0.2834116518497467,-0.2249155044555664,0.4904298186302185,0.4441244304180145
21.05,-0.6071065068244934,0.16566379368305206,0.556624174118042,-0.40438663959503174,0.9032468795776367,0.5303235650062561
21.075,-1.105522632598877,0.3331853151321411,0.6373679637908936,-0.4722880721092224,0.914153516292572,0.5979232788085938
21.1,-1.488086223602295,0.5000811815261841,0.5630240440368652,-0.4478490948677063,0.6104993224143982,0.6860512495040894
21.125,-1.9414284229278564,0.6695929169654846,0.24467939138412476,-0.5282579064369202,0.5559009909629822,0.8233792781829834
21.15,-2.898346185684204,0.7305479645729065,0.23566173017024994,-0.5644549131393433,0.3794708549976349,0.9907810688018799
21.175,-4.531225204467773,0.6124316453933716,0.5958258509635925,-0.6277871131896973,0.34505629539489746,1.237626552581787
21.2,-5.953299522399902,0.37686264514923096,0.5734953880310059,-0.9902001619338989,0.9144111275672913,1.575608253479004
21.225,-6.6856465339660645,0.06691556423902512,0.3963977098464966,-1.3666783571243286,1.419223666191101,1.938260793685913
21.25,-7.06691312789917,-0.21199512481689453,0.23709964752197266,-1.5878597497940063,1.5044554471969604,2.1917543411254883
21.275,-7.043139457702637,-0.12235642969608307,0.015063253231346607,-1.6689870357513428,1.3077360391616821,2.2560970783233643
21.3,-5.902453422546387,0.6994056701660156,-0.376679003238678,-1.3400743007659912,0.858273983001709,2.127880334854126
21.325,-3.8736462593078613,1.7531988620758057,-0.4652920365333557,-0.34376296401023865,-0.01449600514024496,1.957998514175415
21.35,-3.598933219909668,1.8245729207992554,0.69293212890625,0.12114293873310089,-0.24350915849208832,1.6786342859268188
21.375,-3.7377498149871826,0.4741290509700775,2.34751033782959,-0.10643236339092255,0.4773918092250824,0.8429688215255737
21.4,-1.752899169921875,-0.9675995707511902,3.362912893295288,0.08735682815313339,0.9052324891090393,-0.27216169238090515
21.425,-0.7900351285934448,-1.5048339366912842,3.955265760421753,0.0019935884047299623,1.2215447425842285,-1.2715243101119995
21.45,-0.6927974820137024,-1.0409915447235107,3.2751338481903076,-0.4707089364528656,1.7735061645507812,-2.158780574798584
21.475,0.08753093332052231,-0.42909321188926697,1.800158143043518,-0.5976904630661011,1.8558002710342407,-2.938797950744629
21.5,0.8458407521247864,-0.030123475939035416,2.0011441707611084,0.005288410000503063,0.7530966401100159,-3.6102325916290283
21.525,1.3748738765716553,0.6594433188438416,3.067441701889038,0.15553149580955505,-0.30975595116615295,-4.1578145027160645
21.55,2.4016942977905273,1.4598153829574585,2.377450942993164,-0.47861745953559875,-0.2820081114768982,-4.577988624572754
21.575,4.0806684494018555,1.6101620197296143,-0.2096821516752243,-1.008143663406372,0.10769763588905334,-4.862295150756836
21.6,5.734191417694092,0.4455831050872803,-2.5200469493865967,-0.9398881793022156,-0.4496527910232544,-4.88942289352417
21.625,6.6951680183410645,-1.3686871528625488,-3.219998598098755,-0.7062807083129883,-1.9545329809188843,-4.546604633331299
21.65,6.931930065155029,-2.356127977371216,-3.100275993347168,-0.6288325190544128,-3.1358041763305664,-3.875002861022949
21.675,6.427119255065918,-2.813596248626709,-2.467597723007202,-0.5461698174476624,-3.526808500289917,-3.104260206222534
21.7,5.236162185668945,-3.839289426803589,-1.0293371677398682,-0.394646555185318,-3.4313457012176514,-2.27441668510437
21.725,4.856865406036377,-4.38839864730835,0.9494377374649048,-0.0546846017241478,-2.609694004058838,-1.2910572290420532
21.75,6.3949689865112305,-2.0281827449798584,4.2877068519592285,-0.1940380483865738,-2.470536470413208,0.13097989559173584
21.775,7.134212493896484,3.0497219562530518,5.686618328094482,-0.9179126024246216,-2.580434560775757,1.580512523651123
21.8,5.06178092956543,4.364628791809082,2.6137351989746094,-0.7128310799598694,-0.7883116602897644,2.213221311569214
21.825,3.643474817276001,0.8525117039680481,1.5142186880111694,-0.10273345559835434,-0.22516681253910065,2.2875211238861084
21.85,3.995262384414673,-0.31869274377822876,3.6854588985443115,0.053037114441394806,-1.3142683506011963,1.9759316444396973
21.875,5.058297634124756,0.5457128882408142,2.8854823112487793,0.1999862790107727,0.8283328413963318,1.3144707679748535
21.9,6.293827056884766,1.1419239044189453,-0.918012797832489,-0.0547330267727375,2.292181968688965,0.5426340103149414
21.925,4.504056453704834,1.373617172241211,-1.1819056272506714,-0.030752306804060936,0.003068201709538698,0.4136113226413727
21.95,1.4781538248062134,0.6559440493583679,0.9936004281044006,0.0747636929154396,-1.7903250455856323,0.26774027943611145
21.975,0.3466428518295288,0.11478633433580399,1.4587763547897339,0.03065662458539009,-1.0086455345153809,-0.00699328538030386
22.0,0.8749592900276184,-0.16208264231681824,0.369669109582901,-0.019610123708844185,0.2539006769657135,-0.18110644817352295
22.025,0.6208248138427734,-0.3928547501564026,-0.06829023361206055,-0.03420984372496605,-0.06421749293804169,-0.20316152274608612
22.05,-0.295274943113327,-0.2670306861400604,0.4259757101535797,-0.08641503006219864,-0.9602697491645813,-0.10448974370956421
22.075,-0.3705712854862213,-0.10319133847951889,0.4561612606048584,-0.143789142370224,-0.9545823931694031,-0.04666737839579582
22.1,-0.031937260180711746,-0.05406187102198601,0.2157326638698578,-0.1880894899368286,-0.7012520432472229,-0.007690605241805315
22.125,0.4937569200992584,-0.041199661791324615,0.2131999284029007,-0.24474629759788513,-0.4446603059768677,-0.013212623074650764
22.15,1.0639891624450684,0.11224084347486496,0.33367741107940674,-0.3047182261943817,-0.2584589421749115,-0.048346806317567825
22.175,1.3821642398834229,0.2617283761501312,0.4667242467403412,-0.35702162981033325,-0.13069035112857819,-0.14968228340148926
22.2,1.3184945583343506,0.4170733690261841,0.5900484323501587,-0.38217899203300476,-0.025055134668946266,-0.27349570393562317
22.225,0.9777187705039978,0.6021252870559692,0.564193069934845,-0.38026949763298035,0.0017515389481559396,-0.37243029475212097
22.25,0.8239578604698181,0.6843434572219849,0.4196568429470062,-0.3949301242828369,-0.09325629472732544,-0.4431964159011841
22.275,0.7593962550163269,0.7460919618606567,0.3754805028438568,-0.42960065603256226,-0.2317972183227539,-0.513340175151825
22.3,0.6176393628120422,0.72901451587677,0.5083518624305725,-0.43621647357940674,-0.23542501032352448,-0.601018488407135
22.325,0.5143350958824158,0.6179276704788208,0.6616875529289246,-0.4194011986255646,-0.20544449985027313,-0.6821062564849854
22.35,0.5429829955101013,0.5321484804153442,0.43831342458724976,-0.4151250422000885,-0.18366937339305878,-0.7553967833518982
22.375,0.5842762589454651,0.4439716935157776,-0.02679510973393917,-0.4341864287853241,-0.2488938719034195,-0.8125032782554626
22.4,0.171150341629982,0.5121346116065979,-0.21487201750278473,-0.4740327000617981,-0.4887048304080963,-0.8124046325683594
22.425,-0.34877273440361023,0.7141914367675781,-0.45199745893478394,-0.4808494448661804,-0.48409542441368103,-0.8230974674224854
22.45,-0.6596645712852478,1.025874137878418,-0.8644048571586609,-0.47761034965515137,-0.39800846576690674,-0.8260670304298401
22.475,-0.7393859624862671,1.2953310012817383,-1.2245683670043945,-0.5184854865074158,-0.44555285573005676,-0.7982873320579529
22.5,-0.534162700176239,1.053990364074707,-1.49479079246521,-0.586311936378479,-0.5850585699081421,-0.7603545784950256
22.525,-0.05000528320670128,0.21896439790725708,-1.7517495155334473,-0.6357319355010986,-0.7483858466148376,-0.7103492617607117
22.55,0.6761520504951477,-0.6956828236579895,-1.8506513833999634,-0.6741012930870056,-0.9960773587226868,-0.6265424489974976
22.575,1.3172993659973145,-1.1797306537628174,-1.3729914426803589,-0.8088454604148865,-1.5582691431045532,-0.4511069357395172
22.6,1.3697710037231445,-1.0451222658157349,-0.37493225932121277,-1.0614640712738037,-2.237830400466919,-0.17905254662036896
22.625,1.0995255708694458,-0.6323728561401367,0.3569183647632599,-1.2487492561340332,-2.4865901470184326,0.04581888020038605
22.65,1.4190361499786377,-0.6984615325927734,0.5481122732162476,-1.2477922439575195,-2.3210904598236084,0.14991913735866547
22.675,1.892943024635315,-1.0376567840576172,0.5279101133346558,-1.2549896240234375,-2.200927495956421,0.31581854820251465
22.7,1.7619333267211914,-1.0235892534255981,0.4450474679470062,-1.256949782371521,-2.162127733230591,0.47191688418388367
22.725,1.4191803932189941,-0.8488064408302307,0.37330442667007446,-1.0672518014907837,-2.0065531730651855,0.5489481091499329
22.75,1.281015396118164,-0.7373114228248596,0.21266037225723267,-0.7251582741737366,-1.5862860679626465,0.5270009636878967
22.775,1.2509040832519531,-0.7189198136329651,0.12958720326423645,-0.32334086298942566,-1.1067448854446411,0.4781778156757355
22.8,0.9729055762290955,-0.5116090774536133,0.3308795094490051,0.018536465242505074,-0.937835156917572,0.4825913906097412
22.825,0.772141695022583,-0.20653817057609558,0.45153889060020447,0.2980406582355499,-0.8473737239837646,0.44400742650032043
22.85,1.8085689544677734,-0.3693733215332031,0.21811571717262268,0.5950989723205566,-0.36690837144851685,0.2709490656852722
22.875,3.300535202026367,-0.7273493409156799,-0.07256822288036346,0.7360568046569824,-0.6465421915054321,0.32477664947509766
22.9,3.4400365352630615,-0.5143824219703674,-0.1281302124261856,0.7508998513221741,-1.8326164484024048,0.6708729267120361
22.925,1.7669434547424316,0.3244476914405823,0.3658744990825653,0.8061204552650452,-2.9906363487243652,0.9743070602416992
22.95,-0.7812718749046326,1.5483945608139038,0.5807902216911316,0.8768171072006226,-3.279801607131958,0.9461842775344849
22.975,-1.2955725193023682,1.9041789770126343,0.5304451584815979,1.3358213901519775,-1.760840892791748,0.6066254377365112
23.0,0.587151050567627,1.1370279788970947,1.1183443069458008,1.7823702096939087,-0.19924107193946838,0.5167837142944336
23.025,1.9337135553359985,0.7083933353424072,1.7457761764526367,1.7052847146987915,-0.11176631599664688,0.7056839466094971
23.05,1.4460761547088623,0.882189154624939,2.0590293407440186,1.3259106874465942,-1.0601297616958618,0.8467164039611816
23.075,0.812030553817749,0.9139599204063416,2.304246187210083,1.0742599964141846,-1.6735646724700928,0.8287740349769592
23.1,0.5560899972915649,0.7219594717025757,2.607616662979126,0.9237594604492188,-2.027724266052246,0.7820786833763123
23.125,-0.2379847764968872,0.5426744222640991,2.6471261978149414,0.7901892066001892,-2.457831859588623,0.7494240999221802
23.15,-1.2592144012451172,0.4545186460018158,2.3427300453186035,0.7344412803649902,-2.4233133792877197,0.7675789594650269
23.175,-1.7913038730621338,0.2806723415851593,2.104580879211426,0.741832435131073,-1.8317548036575317,0.8766385316848755
23.2,-1.734182357788086,-0.03133272007107735,2.115882635116577,0.7344620227813721,-1.025137186050415,1.0300384759902954
23.225,-1.2101430892944336,-0.3907478153705597,2.2983992099761963,0.6280900239944458,-0.2760295867919922,1.1828621625900269
23.25,-0.5082777142524719,-0.7661874890327454,2.5581953525543213,0.4144650101661682,0.12363720685243607,1.338808298110962
23.275,-0.38851141929626465,-0.8513877987861633,2.5989468097686768,0.15491431951522827,0.10863042622804642,1.4181321859359741
23.3,-1.2730538845062256,-0.8116138577461243,2.4783506393432617,-0.006707724183797836,-0.29055213928222656,1.3214139938354492
23.325,-2.420423746109009,-0.8482578992843628,2.212341785430908,-0.1761734038591385,-0.30336642265319824,1.2176110744476318
23.35,-2.91369891166687,-0.94322669506073,1.9038360118865967,-0.41941583156585693,0.18018381297588348,1.1894340515136719
23.375,-2.4961612224578857,-0.9021729826927185,1.7338545322418213,-0.7305043935775757,0.8963888883590698,1.1874287128448486
23.4,-1.9817742109298706,-0.7701939940452576,1.5547139644622803,-0.9591307640075684,1.1175144910812378,1.1026610136032104
23.425,-1.8716237545013428,-0.6219968199729919,1.054921269416809,-1.0527372360229492,0.8948875665664673,0.8883352279663086
23.45,-1.9030689001083374,-0.6389856338500977,0.336523175239563,-1.047699213027954,0.630319356918335,0.5596455335617065
23.475,-2.1066768169403076,-0.7092486619949341,-0.41171029210090637,-0.9482079744338989,0.23260657489299774,0.22899171710014343
23.5,-2.191518783569336,-0.5755607485771179,-1.128056287765503,-0.7414294481277466,-0.0431039072573185,-0.03478647395968437
23.525,-1.1476877927780151,-0.20259493589401245,-1.3015234470367432,-0.35651054978370667,-0.27195537090301514,-0.1842789202928543
23.55,0.552712082862854,1.4565333127975464,-1.7828936576843262,-0.21050706505775452,-0.7355013489723206,-0.2993423640727997
23.575,0.1991312950849533,3.2650177478790283,-2.5932891368865967,-0.4577220380306244,-1.5851352214813232,-0.4725930988788605
23.6,-1.960854411125183,1.5041476488113403,-1.4603581428527832,-0.6278793215751648,-2.3638181686401367,-0.4680454730987549
23.625,-1.5536746978759766,-1.0187616348266602,1.0634419918060303,-0.8267415165901184,-1.3297175168991089,-0.31971845030784607
23.65,-0.20434890687465668,-0.23337145149707794,2.6066906452178955,-0.8636760115623474,-0.4270269572734833,-0.4315623939037323
23.675,-0.8245550990104675,0.5577128529548645,1.8987497091293335,-0.6017681956291199,-1.2264697551727295,-0.26926636695861816
23.7,-1.2898536920547485,0.5136234164237976,0.8956659436225891,-0.46251264214515686,-0.8614779710769653,-0.21353432536125183
23.725,-0.002167654223740101,0.5399419665336609,0.8196185231208801,-0.44395342469215393,0.22808055579662323,-0.3515571057796478
23.75,0.5036675333976746,0.40251079201698303,0.7439969182014465,-0.3556952178478241,-0.13239119946956635,-0.2838941216468811
23.775,-0.12547436356544495,0.15338902175426483,0.28084880113601685,-0.27323469519615173,-0.7806686758995056,-0.17339788377285004
23.8,-0.04569234699010849,0.09722237288951874,0.23879580199718475,-0.24733640253543854,-0.47746559977531433,-0.18346604704856873
23.825,0.23915299773216248,0.1261921375989914,0.2971052825450897,-0.22909782826900482,-0.21098408102989197,-0.19031812250614166
23.85,0.002077038399875164,0.03899003192782402,0.052099477499723434,-0.19804321229457855,-0.29296791553497314,-0.1351868212223053
23.875,-0.00572569016367197,0.06571485102176666,0.09373928606510162,-0.19894598424434662,-0.10008344054222107,-0.1417330503463745
23.9,0.21017464995384216,0.17615418136119843,0.28892967104911804,-0.18032899498939514,-0.002263242844492197,-0.14339038729667664
23.925,0.11017130315303802,0.26475149393081665,0.13570183515548706,-0.14068356156349182,-0.17631609737873077,-0.09140977263450623
23.95,0.128493070602417,0.28519728779792786,0.07999187707901001,-0.11909515410661697,-0.12387806922197342,-0.08027398586273193
23.975,0.06174396350979805,0.30167487263679504,0.12445002794265747,-0.10164294391870499,-0.08871465921401978,-0.07072632759809494
