Time [s],Acc_x [m/s^2],Acc_y [m/s^2],Acc_z [m/s^2],Gyro_x [1/s],Gyro_y [1/s],Gyro_z [1/s]
0.0,-0.18040505051612854,-0.754713237285614,-0.3315613567829132,-0.4559221863746643,-0.0714711844921112,0.16037122905254364
0.025,-0.10063892602920532,-0.6117545366287231,-0.3455328345298767,-0.4279886782169342,-0.03394272178411484,0.08668122440576553
0.05,-0.01586008071899414,-0.3351812958717346,-0.34827640652656555,-0.3886176347732544,-0.04199378937482834,0.008895419538021088
0.075,-0.006826994940638542,-0.04587750509381294,-0.36211326718330383,-0.34900960326194763,-0.06418311595916748,-0.06442512571811676
0.1,-0.05987062305212021,0.1456441581249237,-0.40824732184410095,-0.3051535487174988,-0.08067352324724197,-0.13501544296741486
0.125,-0.11240973323583603,0.31967446208000183,-0.4378250539302826,-0.22380490601062775,-0.11780547350645065,-0.1880500614643097
0.15,-0.16308459639549255,0.5408306121826172,-0.3964073657989502,-0.12128505110740662,-0.1746142953634262,-0.20025599002838135
0.175,-0.20933815836906433,0.7419109344482422,-0.3476504981517792,-0.04030222073197365,-0.21263615787029266,-0.17247119545936584
0.2,-0.207803413271904,0.8095045685768127,-0.3796655833721161,0.013282768428325653,-0.20210517942905426,-0.1281692534685135
0.225,-0.18720097839832306,0.7035322189331055,-0.49479132890701294,0.045648910105228424,-0.12680117785930634,-0.08667172491550446
0.25,-0.15150313079357147,0.534001350402832,-0.5981523990631104,0.06576810032129288,-0.03465639427304268,-0.04617848992347717
0.275,-0.09093743562698364,0.4032144546508789,-0.6180897355079651,0.07920093834400177,0.026295574381947517,-0.013228096067905426
0.3,-0.06428690999746323,0.27846047282218933,-0.5830801725387573,0.0855027288198471,0.06283356994390488,0.0034857732243835926
0.325,-0.07606671005487442,0.14637750387191772,-0.570928692817688,0.08596035838127136,0.08908697962760925,0.007613439578562975
0.35,-0.10762051492929459,0.027522018179297447,-0.603746235370636,0.08408314734697342,0.09094918519258499,-0.00444688368588686
0.375,-0.15015871822834015,-0.12777242064476013,-0.5807147026062012,0.07068625092506409,0.054443903267383575,-0.022051723673939705
0.4,-0.158971905708313,-0.3037024438381195,-0.4349678158760071,0.041082870215177536,0.006049523130059242,-0.031571004539728165
0.425,-0.11022508889436722,-0.3871518075466156,-0.24562540650367737,0.021677803248167038,-0.017482541501522064,-0.04408493638038635
0.45,-0.04401538521051407,-0.3381548225879669,-0.08464270830154419,0.020406823605298996,-0.009474271908402443,-0.06026235967874527
0.475,0.014270409941673279,-0.2381897270679474,0.0019204049604013562,0.013992666266858578,0.02517789602279663,-0.07024067640304565
0.5,0.05900818109512329,-0.1806030422449112,-0.011480415239930153,-0.005560189485549927,0.06841307878494263,-0.08339741080999374
0.525,0.08364367485046387,-0.13085845112800598,-0.08570525050163269,-0.02338218130171299,0.10519354790449142,-0.10124386847019196
0.55,0.10342488437891006,-0.08756830543279648,-0.14660407602787018,-0.03464221581816673,0.11207930743694305,-0.12019776552915573
0.575,0.061956506222486496,-0.1277962028980255,-0.1260143220424652,-0.045674748718738556,0.0711507648229599,-0.12383812665939331
0.6,-0.07269978523254395,-0.22176364064216614,-0.023137662559747696,-0.054350949823856354,0.02444356307387352,-0.09470522403717041
0.625,-0.20523245632648468,-0.2539377510547638,0.11575579643249512,-0.058582525700330734,0.010982437990605831,-0.03607071936130524
0.65,-0.2815006375312805,-0.13236618041992188,0.1670675277709961,-0.05292003974318504,0.0767507329583168,0.03587951883673668
0.675,-0.3378310799598694,0.05147172510623932,0.059569016098976135,-0.06235096603631973,0.23128139972686768,0.10662424564361572
0.7,-0.4025818109512329,-0.003400813788175583,-0.0905112475156784,-0.10771483927965164,0.42036527395248413,0.17458607256412506
0.725,-0.4952816069126129,-0.3533821702003479,-0.1854451447725296,-0.14276643097400665,0.601509690284729,0.23259595036506653
0.75,-0.634426474571228,-0.739199697971344,-0.24510899186134338,-0.11515092104673386,0.7289901375770569,0.2672116160392761
0.775,-0.7738738059997559,-1.0947953462600708,-0.27565354108810425,-0.05334777757525444,0.7585716247558594,0.2894786298274994
0.8,-0.8434197902679443,-1.4592009782791138,-0.26669472455978394,0.0040279049426317215,0.6962531208992004,0.31984782218933105
0.825,-0.8348918557167053,-1.7171814441680908,-0.2649143934249878,0.07129564881324768,0.62271648645401,0.3396669030189514
0.85,-0.8102209568023682,-1.823235273361206,-0.3270809054374695,0.151096910238266,0.6192184090614319,0.33273783326148987
0.875,-0.7328660488128662,-1.7536604404449463,-0.4115767776966095,0.20891715586185455,0.6746640801429749,0.31703585386276245
0.9,-0.4265749752521515,-1.1969586610794067,-0.42411911487579346,0.28106188774108887,0.6969743967056274,0.29561853408813477
0.925,0.07061630487442017,-0.034340906888246536,-0.3796919584274292,0.4006892442703247,0.6580554842948914,0.2294454127550125
0.95,0.479740172624588,1.0028945207595825,-0.38382938504219055,0.4975470006465912,0.5744865536689758,0.06580129265785217
0.975,0.5991284847259521,1.0376243591308594,-0.539469838142395,0.4967634677886963,0.4627826511859894,-0.1642027348279953
1.0,0.4673592448234558,0.2303580641746521,-0.7488642930984497,0.4536527097225189,0.3249804973602295,-0.3540354073047638
1.025,0.29784518480300903,-0.698377788066864,-0.7887294888496399,0.4921475946903229,0.07840390503406525,-0.48112958669662476
1.05,0.25528484582901,-1.3092482089996338,-0.5958471298217773,0.6392381191253662,-0.273127943277359,-0.5684606432914734
1.075,0.3454941213130951,-1.4714032411575317,-0.2377767562866211,0.8351987600326538,-0.6202420592308044,-0.604135274887085
1.1,0.4751017987728119,-1.4590531587600708,0.17388474941253662,1.0238070487976074,-0.8553483486175537,-0.5999378561973572
1.125,0.5350260138511658,-1.6022588014602661,0.5208808779716492,1.1896556615829468,-0.8926528096199036,-0.5667617321014404
1.15,0.5534504055976868,-1.656943440437317,0.778226912021637,1.369232177734375,-0.7595431208610535,-0.49888986349105835
1.175,0.6051439642906189,-1.245248794555664,0.9242703318595886,1.5663394927978516,-0.5491441488265991,-0.40284857153892517
1.2,0.66112220287323,-0.4984559416770935,0.9452775120735168,1.7079863548278809,-0.36268728971481323,-0.29824957251548767
1.225,0.6832755208015442,0.16333210468292236,0.893405020236969,1.729938268661499,-0.2904781997203827,-0.1935335099697113
1.25,0.6303781867027283,0.5521937608718872,0.7318630814552307,1.6355953216552734,-0.28146040439605713,-0.08410569280385971
1.275,0.46794530749320984,0.7886964678764343,0.48066848516464233,1.4965922832489014,-0.2509463429450989,0.027034327387809753
1.3,0.24203583598136902,0.9480716586112976,0.25681155920028687,1.3558458089828491,-0.2409951090812683,0.13446716964244843
1.325,-0.023731717839837074,1.016302227973938,0.10718657076358795,1.1817811727523804,-0.2716822624206543,0.25935009121894836
1.35,-0.2792630195617676,1.067799687385559,-0.005187289789319038,0.9720717072486877,-0.30698150396347046,0.3994995355606079
1.375,-0.44598889350891113,1.1924926042556763,-0.12878385186195374,0.7757166028022766,-0.3357662558555603,0.48534196615219116
1.4,-0.4914846122264862,1.3103820085525513,-0.23110167682170868,0.6006424427032471,-0.3723178803920746,0.46069619059562683
1.425,-0.3954407870769501,1.3436833620071411,-0.21510650217533112,0.4399240016937256,-0.40907445549964905,0.36412233114242554
1.45,-0.2441089004278183,1.3581591844558716,-0.08954153954982758,0.31025174260139465,-0.3772597312927246,0.2749769687652588
1.475,-0.20539355278015137,1.4166556596755981,-0.020130008459091187,0.20311203598976135,-0.24980881810188293,0.22194118797779083
1.5,-0.3101928234100342,1.477437138557434,-0.1266833394765854,0.08229592442512512,-0.10326828807592392,0.19012852013111115
1.525,-0.4321865737438202,1.4033433198928833,-0.3399674892425537,-0.05457000061869621,-0.020052079111337662,0.14082340896129608
1.55,-0.4615322947502136,1.169266700744629,-0.52945876121521,-0.1559375524520874,-0.011653526686131954,0.04925748333334923
1.575,-0.3838922381401062,0.9061012864112854,-0.6304222345352173,-0.2083258032798767,-0.036677196621894836,-0.053673386573791504
1.6,-0.2561783194541931,0.6759147644042969,-0.6646050214767456,-0.24720224738121033,-0.05288231000304222,-0.12548574805259705
1.625,-0.1283547282218933,0.4887342154979706,-0.6518063545227051,-0.27421414852142334,-0.03845980390906334,-0.16881431639194489
1.65,-0.03476996347308159,0.3811063766479492,-0.5740046501159668,-0.2850923240184784,0.005217629484832287,-0.19833813607692719
1.675,0.056874554604291916,0.36794087290763855,-0.4500557482242584,-0.2932973802089691,0.05282843858003616,-0.1980629861354828
1.7,0.13079240918159485,0.4513874053955078,-0.40812814235687256,-0.2963920533657074,0.10409963876008987,-0.17386862635612488
1.725,0.14910416305065155,0.6337738037109375,-0.5289965867996216,-0.3021961748600006,0.15295232832431793,-0.15009453892707825
1.75,0.1685057282447815,0.8883400559425354,-0.7459185719490051,-0.33610835671424866,0.16437381505966187,-0.13507243990898132
1.775,0.2227829247713089,1.1883316040039062,-0.9128379821777344,-0.39472222328186035,0.13676273822784424,-0.12069640308618546
1.8,0.296299546957016,1.5402604341506958,-0.9260267615318298,-0.44653308391571045,0.10820797830820084,-0.09769430011510849
1.825,0.35236793756484985,1.9124242067337036,-0.8447423577308655,-0.47441747784614563,0.11306390911340714,-0.07725907117128372
1.85,0.3054564893245697,2.1141197681427,-0.8700662851333618,-0.5252654552459717,0.13901197910308838,-0.07786645740270615
1.875,0.15254388749599457,1.9810677766799927,-1.1082500219345093,-0.6248212456703186,0.13506919145584106,-0.10197073966264725
1.9,-0.03628051280975342,1.5763074159622192,-1.376020073890686,-0.7150529026985168,0.08368373662233353,-0.14559145271778107
1.925,-0.19727812707424164,1.052088737487793,-1.4774072170257568,-0.7933869361877441,0.032938431948423386,-0.178126722574234
1.95,-0.31945812702178955,0.5162190198898315,-1.413619041442871,-0.8787999153137207,0.018326979130506516,-0.17193761467933655
1.975,-0.46644270420074463,-0.03275696560740471,-1.3125486373901367,-0.950873851776123,0.04537975788116455,-0.14600713551044464
2.0,-0.6596240997314453,-0.6405699253082275,-1.2534162998199463,-0.998253583908081,0.10016690194606781,-0.11726224422454834
2.025,-0.8659830093383789,-1.2466862201690674,-1.2371389865875244,-1.0433846712112427,0.17987443506717682,-0.06011499464511871
2.05,-1.0323354005813599,-1.6833451986312866,-1.213396430015564,-1.0864360332489014,0.26434949040412903,0.030986011028289795
2.075,-1.098535418510437,-1.8704155683517456,-1.1106245517730713,-1.1194268465042114,0.3094620406627655,0.1160171777009964
2.1,-1.049828052520752,-1.934094786643982,-0.899046003818512,-1.1708629131317139,0.32391542196273804,0.17551438510417938
2.125,-0.9264624714851379,-1.9207662343978882,-0.6305079460144043,-1.2314090728759766,0.3499111235141754,0.21247747540473938
2.15,-0.7988860011100769,-1.7343456745147705,-0.4223040044307709,-1.2775907516479492,0.40599700808525085,0.23277556896209717
2.175,-0.589261531829834,-1.196956753730774,-0.16399279236793518,-1.317018985748291,0.45243164896965027,0.25029948353767395
2.2,-0.09554716944694519,0.005332987289875746,0.3375459909439087,-1.321122407913208,0.4330819547176361,0.22148390114307404
2.225,0.6299247741699219,1.8275302648544312,0.8921891450881958,-1.2599270343780518,0.37724965810775757,0.08536577224731445
2.25,1.1422563791275024,3.2880167961120605,0.9952237010002136,-1.2409117221832275,0.3782283663749695,-0.11490841954946518
2.275,1.026649832725525,3.5732007026672363,0.4895150363445282,-1.325181245803833,0.47033464908599854,-0.2459171712398529
2.3,0.533858060836792,2.9779446125030518,-0.1411954015493393,-1.395361304283142,0.4288322329521179,-0.29475924372673035
2.325,0.22659170627593994,2.02557110786438,-0.42803287506103516,-1.4169636964797974,0.09658440202474594,-0.3289364278316498
2.35,0.23499047756195068,1.0060921907424927,-0.3571986258029938,-1.405143141746521,-0.2980550229549408,-0.3513166308403015
2.375,0.42680108547210693,0.2063903957605362,-0.10093046724796295,-1.3307404518127441,-0.54342120885849,-0.3420771062374115
2.4,0.758655846118927,-0.22737598419189453,0.202378511428833,-1.1778024435043335,-0.7109135985374451,-0.3254876434803009
2.425,1.1505999565124512,-0.47047901153564453,0.42345353960990906,-0.9673548340797424,-0.8509308695793152,-0.34902510046958923
2.45,1.439223289489746,-0.7233152389526367,0.40596386790275574,-0.747217059135437,-0.9106987118721008,-0.4260524809360504
2.475,1.5501809120178223,-1.0402165651321411,0.12096669524908066,-0.5708052515983582,-0.932221531867981,-0.5047399997711182
2.5,1.5548592805862427,-1.4042226076126099,-0.26604029536247253,-0.45629292726516724,-1.0082834959030151,-0.547660231590271
2.525,1.574660301208496,-1.6811460256576538,-0.6201760768890381,-0.3705231547355652,-1.1501483917236328,-0.5739271640777588
2.55,1.6304447650909424,-1.8355039358139038,-0.9503882527351379,-0.320514976978302,-1.3170031309127808,-0.5889475345611572
2.575,1.696829080581665,-2.018754482269287,-1.2288025617599487,-0.36224326491355896,-1.4833993911743164,-0.5718964338302612
2.6,1.8385374546051025,-2.1832289695739746,-1.3452868461608887,-0.46106404066085815,-1.6805167198181152,-0.5186713933944702
2.625,2.1084375381469727,-2.198406219482422,-1.300403118133545,-0.5471325516700745,-1.9089062213897705,-0.4591779112815857
2.65,2.4813201427459717,-2.1254868507385254,-1.1408973932266235,-0.6289529204368591,-2.1113603115081787,-0.42649826407432556
2.675,2.8859190940856934,-1.993489146232605,-0.9036035537719727,-0.6958969831466675,-2.2761764526367188,-0.42551562190055847
2.7,3.243889808654785,-1.6854528188705444,-0.6989368796348572,-0.7007901072502136,-2.446585178375244,-0.43336722254753113
2.725,3.464047431945801,-1.3171435594558716,-0.49660131335258484,-0.6739328503608704,-2.6319472789764404,-0.43805113434791565
2.75,3.459519863128662,-1.1138259172439575,-0.09916722774505615,-0.6509221792221069,-2.808445453643799,-0.4265631437301636
2.775,3.1959049701690674,-1.0218925476074219,0.5706213116645813,-0.5703123211860657,-2.9683427810668945,-0.343689888715744
2.8,2.6905033588409424,-0.9805669188499451,1.3319898843765259,-0.3818279206752777,-3.0491623878479004,-0.18087753653526306
2.825,2.009181261062622,-1.0704535245895386,1.984063982963562,-0.10286694765090942,-2.9805219173431396,0.0224109198898077
2.85,1.155198097229004,-1.3360450267791748,2.5170767307281494,0.20264431834220886,-2.7521350383758545,0.2567211389541626
2.875,0.10634098947048187,-1.5238016843795776,2.8993499279022217,0.5039070248603821,-2.3220512866973877,0.5428311824798584
2.9,-1.0536236763000488,-1.0982167720794678,2.998215436935425,0.8611835241317749,-1.5468430519104004,0.8558609485626221
2.925,-2.2486345767974854,0.19349707663059235,2.9289846420288086,1.2637642621994019,-0.5937735438346863,1.1079015731811523
2.95,-3.346282958984375,2.015720844268799,2.6423022747039795,1.65458345413208,0.2344687581062317,1.292480707168579
2.975,-4.179086685180664,3.4788777828216553,1.6595361232757568,1.8952107429504395,0.7549633383750916,1.4117966890335083
3.0,-4.702173709869385,3.7944788932800293,0.25988292694091797,1.7328853607177734,0.7649232745170593,1.2998366355895996
3.025,-4.79600715637207,3.1211113929748535,-0.23776324093341827,1.1783241033554077,0.14185889065265656,0.8755429983139038
3.05,-4.443113327026367,2.0432026386260986,0.4808270037174225,0.6248310804367065,-0.5708813071250916,0.3343435227870941
3.075,-3.7363944053649902,1.0082838535308838,1.2152080535888672,0.41100412607192993,-0.668126106262207,-0.0682120993733406
3.1,-2.6060900688171387,0.6055376529693604,1.303572177886963,0.5630525350570679,-0.32819220423698425,-0.2103043645620346
3.125,-1.1810740232467651,1.1866791248321533,1.1986438035964966,0.7656061053276062,-0.20777782797813416,-0.2433352917432785
3.15,0.010647905059158802,2.2136731147766113,1.2254033088684082,0.7058938145637512,-0.5150809288024902,-0.35442760586738586
3.175,0.5231209993362427,2.4740843772888184,1.2022813558578491,0.3401173949241638,-1.0411714315414429,-0.5290127992630005
3.2,0.3183514177799225,1.4170725345611572,1.0543668270111084,-0.15814825892448425,-1.5427266359329224,-0.7602024078369141
3.225,-0.3037920892238617,-0.20185938477516174,0.9559788107872009,-0.5312966704368591,-1.7562235593795776,-0.9556092619895935
3.25,-0.8605379462242126,-1.5042668581008911,0.8329075574874878,-0.7074756026268005,-1.508483648300171,-0.9802218675613403
3.275,-1.0553237199783325,-2.391955614089966,0.6092073917388916,-0.8011261224746704,-1.0358718633651733,-0.9102967977523804
3.3,-1.0697979927062988,-3.0894646644592285,0.6355690360069275,-0.9117373824119568,-0.7728747129440308,-0.8579944968223572
3.325,-1.2428113222122192,-3.575897455215454,1.1982738971710205,-1.0237971544265747,-0.7816454768180847,-0.7816229462623596
3.35,-1.67218017578125,-3.6876204013824463,2.103912353515625,-1.0447847843170166,-0.7628732323646545,-0.5773903727531433
3.375,-2.167025566101074,-3.394150972366333,2.9344096183776855,-0.9186768531799316,-0.4723784923553467,-0.20591579377651215
3.4,-2.3889474868774414,-2.6114165782928467,3.3506293296813965,-0.6432318687438965,0.046914368867874146,0.30661165714263916
3.425,-2.2248284816741943,-1.3008630275726318,3.1987836360931396,-0.27117031812667847,0.5737042427062988,0.8637540936470032
3.45,-1.8889697790145874,0.11918861418962479,2.462381362915039,0.04810120910406113,0.9777467846870422,1.289462924003601
3.475,-1.5949807167053223,1.0168192386627197,1.2728158235549927,0.1481725424528122,1.2508821487426758,1.4319138526916504
3.5,-1.4173946380615234,1.2863036394119263,0.07817438989877701,-0.03267499431967735,1.3421108722686768,1.3273793458938599
3.525,-1.3752692937850952,1.2876882553100586,-0.7482383251190186,-0.347921758890152,1.319546103477478,1.073385238647461
3.55,-1.3554660081863403,1.256209373474121,-1.2526369094848633,-0.6336680054664612,1.4031528234481812,0.7226375341415405
3.575,-1.2094591856002808,1.3317574262619019,-1.5640547275543213,-0.8509247899055481,1.5458741188049316,0.3880952000617981
3.6,-1.0615180730819702,1.5383987426757812,-1.9498406648635864,-0.9094438552856445,1.6552741527557373,0.1458609253168106
3.625,-1.0784001350402832,1.6153877973556519,-2.70450496673584,-0.7702304124832153,1.7364773750305176,-0.06948222219944
3.65,-1.1028286218643188,1.2063939571380615,-3.498114824295044,-0.5279167294502258,1.5092957019805908,-0.3278222978115082
3.675,-0.9748160243034363,0.5367056131362915,-3.3637211322784424,-0.37909993529319763,0.6889072060585022,-0.4830470383167267
3.7,-0.7543306946754456,0.2701099216938019,-2.0201945304870605,-0.42309990525245667,-0.3592076003551483,-0.4678010940551758
3.725,-0.4922792315483093,0.3816404342651367,-0.5971764922142029,-0.5606006383895874,-0.8765951991081238,-0.5322564840316772
3.75,-0.13527202606201172,0.40556150674819946,-0.05856946110725403,-0.7002241015434265,-0.8460443019866943,-0.7636929750442505
3.775,0.25398898124694824,0.32206442952156067,-0.005895853042602539,-0.8088960647583008,-0.7922356128692627,-0.9483326077461243
3.8,0.5002083778381348,0.35830503702163696,0.26057013869285583,-0.8606444597244263,-0.8355342149734497,-0.957717776298523
3.825,0.6059834361076355,0.4525529146194458,0.5811053514480591,-0.7297316193580627,-0.7132852673530579,-0.8261502385139465
3.85,0.7244616150856018,0.2619410455226898,0.5016193985939026,-0.3406364917755127,-0.3455813527107239,-0.6385484337806702
3.875,0.916347861289978,-0.1995096355676651,0.13773953914642334,0.07931850105524063,-0.0017531545599922538,-0.4619530737400055
3.9,1.21306574344635,-0.4464340806007385,-0.07468961179256439,0.3172869086265564,0.13414491713047028,-0.3039242625236511
3.925,1.6423099040985107,-0.306736022233963,0.027872731909155846,0.4116360545158386,0.11753330379724503,-0.19655515253543854
3.95,2.1270761489868164,-0.051081638783216476,0.22587719559669495,0.4959816336631775,0.0646030604839325,-0.16014622151851654
3.975,2.5252673625946045,-0.007091495208442211,0.2331324815750122,0.6116696000099182,0.0160832516849041,-0.17559005320072174
4.0,2.6881139278411865,-0.35596564412117004,-0.041180942207574844,0.6830426454544067,-0.06777439266443253,-0.23551815748214722
4.025,2.5776445865631104,-0.9617025256156921,-0.4029749929904938,0.6338974237442017,-0.25113022327423096,-0.30232107639312744
4.05,2.31457257270813,-1.5285876989364624,-0.5399588942527771,0.4798383414745331,-0.5491976737976074,-0.3356602191925049
4.075,1.9709992408752441,-1.813798189163208,-0.34124860167503357,0.34703660011291504,-0.8538758158683777,-0.34119173884391785
4.1,1.542664647102356,-1.6232044696807861,0.07368273288011551,0.3141126334667206,-1.0321190357208252,-0.3317022919654846
4.125,1.0100610256195068,-0.8216724991798401,0.5241942405700684,0.3562805950641632,-1.0491918325424194,-0.2570497989654541
4.15,0.21563762426376343,0.37857452034950256,0.7590950727462769,0.45079267024993896,-1.035668969154358,-0.013581600971519947
4.175,-0.9037187695503235,1.153854489326477,0.4845823049545288,0.5607948899269104,-1.1017650365829468,0.3293013870716095
4.2,-2.017591714859009,1.1179972887039185,-0.0540955550968647,0.603661060333252,-1.2141588926315308,0.569100022315979
4.225,-2.74031925201416,0.9018117189407349,-0.17986741662025452,0.578180730342865,-1.3757469654083252,0.6852105259895325
4.25,-3.0016112327575684,0.9343816041946411,0.09442268311977386,0.6285927891731262,-1.4911978244781494,0.7377198934555054
4.275,-2.9048426151275635,0.9462844133377075,0.0732041448354721,0.7791455388069153,-1.380317211151123,0.7505574226379395
4.3,-2.6263577938079834,0.737452507019043,-0.4142920672893524,0.8285024762153625,-1.2276932001113892,0.6990677118301392
4.325,-2.4378116130828857,0.4903993308544159,-0.7136867046356201,0.705592930316925,-1.3649609088897705,0.533535897731781
4.35,-2.5161783695220947,0.2442025989294052,-0.4043128490447998,0.5574977993965149,-1.6937657594680786,0.30600860714912415
4.375,-2.751645803451538,-0.1203003004193306,0.092300646007061,0.47982949018478394,-1.8534082174301147,0.14329464733600616
4.4,-2.9111287593841553,-0.6472302079200745,0.10365621745586395,0.46472835540771484,-1.6704957485198975,0.07587604969739914
4.425,-2.9412589073181152,-1.2974579334259033,-0.5069499015808105,0.45011866092681885,-1.2939168214797974,0.006675427779555321
4.45,-2.908864974975586,-1.8144797086715698,-1.1117700338363647,0.3626849055290222,-1.076035737991333,-0.15716028213500977
4.475,-2.830531120300293,-1.7578071355819702,-1.0228170156478882,0.21175049245357513,-1.1395338773727417,-0.40294694900512695
4.5,-2.5422439575195312,-0.875410258769989,-0.2599102258682251,0.04988623782992363,-1.1830759048461914,-0.6087102890014648
4.525,-1.8822190761566162,0.46963611245155334,0.6296758055686951,-0.08367151767015457,-0.9948717355728149,-0.7367987632751465
4.55,-1.0125499963760376,1.6966785192489624,1.2291672229766846,-0.17108729481697083,-0.6315535306930542,-0.8499695658683777
4.575,-0.28895583748817444,2.55064058303833,1.5780638456344604,-0.2257564216852188,-0.26106104254722595,-0.9816322326660156
4.6,0.1900254189968109,3.159081220626831,1.7767966985702515,-0.2745991051197052,0.051016390323638916,-1.067893147468567
4.625,0.5532668828964233,3.436584234237671,1.6284586191177368,-0.31225404143333435,0.3505062758922577,-1.0347987413406372
4.65,0.7063561677932739,2.9790444374084473,1.094295859336853,-0.31428220868110657,0.5630490183830261,-0.9828171133995056
4.675,0.5490371584892273,1.803126573562622,0.4625571668148041,-0.30671823024749756,0.6631605625152588,-0.9923273324966431
4.7,0.16907024383544922,0.3347959816455841,-0.06101937219500542,-0.26946666836738586,0.6836658716201782,-1.0171564817428589
4.725,-0.27238985896110535,-0.8365775346755981,-0.2048007696866989,-0.1907678246498108,0.5767215490341187,-0.9975914359092712
4.75,-0.5234056711196899,-1.3440371751785278,0.15462712943553925,-0.10913438349962234,0.458288311958313,-0.9032050371170044
4.775,-0.32805055379867554,-1.2654800415039062,0.665390133857727,0.028426501899957657,0.5117287635803223,-0.7312240600585938
4.8,0.3099896013736725,-0.8282871246337891,1.0370681285858154,0.1835193783044815,0.6040759086608887,-0.5308047533035278
4.825,1.0510114431381226,-0.32116782665252686,1.2038838863372803,0.25231555104255676,0.5800063610076904,-0.38388606905937195
4.85,1.5983085632324219,-0.029794566333293915,1.0875401496887207,0.26250946521759033,0.4576434791088104,-0.3275054693222046
4.875,1.9149501323699951,0.004094225354492664,0.8488796353340149,0.23748359084129333,0.23885925114154816,-0.38132163882255554
4.9,2.1200509071350098,-0.009247681125998497,0.8390522599220276,0.12170612812042236,-0.0021973708644509315,-0.5063495635986328
4.925,2.449819326400757,0.0647813156247139,1.0270880460739136,-0.01909632235765457,-0.06237773969769478,-0.6008486151695251
4.95,2.9319849014282227,0.0930100753903389,0.9788855314254761,-0.09002736210823059,0.0796017274260521,-0.6438211798667908
4.975,3.0582971572875977,-0.19388768076896667,0.5453113913536072,-0.1447850614786148,0.20384669303894043,-0.7162831425666809
5.0,2.5010414123535156,-0.6625481247901917,-0.017203431576490402,-0.23806284368038177,0.20418158173561096,-0.8079124689102173
5.025,1.8558108806610107,-0.8102580904960632,-0.590238094329834,-0.27415144443511963,0.16935250163078308,-0.7839654684066772
5.05,1.554590106010437,-0.5327770113945007,-0.9402239918708801,-0.309675931930542,-0.03015589714050293,-0.7223844528198242
5.075,1.2231675386428833,-0.057735543698072433,-0.7919039726257324,-0.46900883316993713,-0.39536023139953613,-0.7641329765319824
5.1,0.71719890832901,0.45934775471687317,-0.371969610452652,-0.522299587726593,-0.572013795375824,-0.770760178565979
5.125,0.5326149463653564,0.9582434892654419,-0.09386048465967178,-0.3267940282821655,-0.5442647933959961,-0.6461848616600037
5.15,0.8031585216522217,1.2199040651321411,-0.26782160997390747,-0.002321128034964204,-0.47938886284828186,-0.5083080530166626
5.175,0.8348210453987122,1.2613983154296875,-0.744767963886261,0.19168013334274292,-0.5009645223617554,-0.4942443370819092
5.2,0.2500663697719574,1.499638557434082,-1.0041325092315674,0.07464795559644699,-0.6793515682220459,-0.5497058629989624
5.225,-0.5106092691421509,1.6943141222000122,-1.2619074583053589,-0.03708430379629135,-0.785660982131958,-0.4994262754917145
5.25,-1.0120340585708618,1.6071090698242188,-1.6654263734817505,0.06067201867699623,-0.8683111071586609,-0.39685386419296265
5.275,-1.3664827346801758,1.792017936706543,-1.578363060951233,0.005025108810514212,-1.249683141708374,-0.3983323574066162
5.3,-1.562074899673462,2.2226638793945312,-1.123025894165039,-0.2291015386581421,-1.7100512981414795,-0.4962208569049835
5.325,-1.332726240158081,2.2629787921905518,-0.9919814467430115,-0.2946535050868988,-1.892212986946106,-0.6404109001159668
5.35,-1.0618879795074463,1.7446662187576294,-1.2023935317993164,-0.23727168142795563,-1.8570605516433716,-0.8479247093200684
5.375,-1.2457038164138794,1.142970085144043,-1.2725883722305298,-0.23911920189857483,-1.7658805847167969,-1.125949501991272
5.4,-1.3920179605484009,0.7952547073364258,-1.1122552156448364,-0.0851176530122757,-1.4123727083206177,-1.3421976566314697
5.425,-1.0186339616775513,0.5300034880638123,-0.9933348894119263,0.35706818103790283,-0.7194316983222961,-1.3977570533752441
5.45,-0.3690830171108246,0.27028074860572815,-0.9386550188064575,0.7695010304450989,-0.1325966715812683,-1.3282893896102905
5.475,0.2962028384208679,0.0043972874991595745,-0.8811522722244263,0.9501917362213135,0.108762726187706,-1.2270851135253906
5.5,0.7199984192848206,-0.3402835428714752,-0.9031368494033813,0.9493119716644287,0.19366076588630676,-1.2316464185714722
5.525,0.7733759880065918,-0.6630346179008484,-1.006867527961731,0.8385037183761597,0.21893595159053802,-1.319906234741211
5.55,0.6290679574012756,-0.8237621784210205,-1.0559711456298828,0.7028168439865112,0.11661503463983536,-1.3108737468719482
5.575,0.3887992203235626,-0.9330370426177979,-1.0749876499176025,0.6462611556053162,-0.10576823353767395,-1.1199982166290283
5.6,0.2832517623901367,-1.2447283267974854,-1.2339270114898682,0.6675413250923157,-0.38238850235939026,-0.8044250011444092
5.625,0.44634687900543213,-1.711260199546814,-1.4922183752059937,0.6222440004348755,-0.6591005921363831,-0.5658596754074097
5.65,0.3267287015914917,-1.8967870473861694,-1.4057549238204956,0.32622015476226807,-0.9192574620246887,-0.6317280530929565
5.675,-0.3511652946472168,-1.7771018743515015,-0.8140649199485779,0.032824937254190445,-1.0573970079421997,-0.8199858665466309
5.7,-1.034021019935608,-1.7703287601470947,-0.29501304030418396,0.14396806061267853,-0.9891746640205383,-0.7674397230148315
5.725,-0.9178867340087891,-1.8285067081451416,0.05033654347062111,0.33842742443084717,-0.8798679113388062,-0.5141918659210205
5.75,-0.13386638462543488,-1.476883888244629,0.7819501757621765,0.15762650966644287,-0.8474802374839783,-0.41363003849983215
5.775,0.04593619704246521,-0.7423409223556519,1.7009090185165405,-0.20657740533351898,-0.8324207663536072,-0.606484055519104
5.8,-0.9443331360816956,-0.1267421394586563,2.011897563934326,-0.25364288687705994,-0.7469425201416016,-0.7059946060180664
5.825,-1.6155680418014526,0.24070285260677338,1.6040178537368774,0.13357579708099365,-0.39339902997016907,-0.2601712942123413
5.85,0.06647678464651108,0.6160479784011841,0.4615384340286255,0.3861127197742462,0.42986050248146057,0.7042553424835205
5.875,2.6658360958099365,0.9773977994918823,-1.7598556280136108,0.5590331554412842,0.9403558373451233,1.5680921077728271
5.9,3.4484102725982666,0.8870437145233154,-3.178593635559082,1.5282095670700073,1.1615828275680542,1.9239238500595093
5.925,1.8046562671661377,0.44059157371520996,-2.4370574951171875,2.4755775928497314,1.4306020736694336,1.2300052642822266
5.95,-0.8008140921592712,0.21333883702754974,-0.3801945149898529,2.357337713241577,1.1917258501052856,0.017137400805950165
5.975,-2.075417995452881,0.16379857063293457,1.8917617797851562,1.8267145156860352,0.8799371123313904,-0.15980879962444305
6.0,-2.1912803649902344,-0.1922556757926941,2.807499408721924,1.5633623600006104,1.0209336280822754,0.3181550204753876
6.025,-1.8370988368988037,-0.4710118770599365,2.614244222640991,1.638474464416504,1.2384114265441895,0.7258639931678772
6.05,-1.3891470432281494,-0.2454373687505722,2.3131887912750244,1.6734576225280762,1.3203494548797607,0.860924243927002
6.075,-1.5401482582092285,0.2618630826473236,2.3806304931640625,1.2664830684661865,1.4059308767318726,0.6477693319320679
6.1,-2.0079495906829834,0.7627005577087402,3.147144317626953,0.7572446465492249,1.4772485494613647,0.4027995467185974
6.125,-1.9046993255615234,0.9274431467056274,4.06247091293335,0.7165347337722778,1.8015822172164917,0.3366442322731018
6.15,-0.7867120504379272,0.8084389567375183,4.498982906341553,1.1212663650512695,2.470761775970459,0.44660714268684387
6.175,0.7591869831085205,0.5626102089881897,3.969634532928467,1.7994436025619507,3.390424966812134,0.7051640748977661
6.2,2.114034414291382,0.2914012670516968,2.841592788696289,2.3522815704345703,4.136742115020752,0.7784920334815979
6.225,3.2757608890533447,0.14238956570625305,2.082833766937256,2.149442434310913,4.594462871551514,0.44957593083381653
6.25,4.20295524597168,0.022779682651162148,1.8094711303710938,1.5756192207336426,5.0136613845825195,0.03189445659518242
6.275,4.997955322265625,-0.019536806270480156,1.4127082824707031,1.496527910232544,5.344484806060791,-0.21735239028930664
6.3,5.421740531921387,0.009156223386526108,-0.040481336414813995,2.207347869873047,5.479578018188477,-0.4676998257637024
6.325,4.622805118560791,-0.07982389628887177,-3.3226990699768066,3.5676634311676025,5.294928550720215,-1.0538238286972046
6.35,2.6578595638275146,0.058231499046087265,-6.858677387237549,4.096484661102295,4.782967567443848,-1.870151400566101
6.375,0.9106058478355408,-0.20781709253787994,-7.834647178649902,2.769623279571533,4.200075149536133,-2.111759662628174
6.4,-0.2957116365432739,-1.1196708679199219,-6.5608930587768555,0.9727572798728943,3.6935670375823975,-1.7841392755508423
6.425,-1.6463593244552612,-1.3834187984466553,-4.934741020202637,-0.15165506303310394,3.184189558029175,-1.5046491622924805
6.45,-2.3601813316345215,-1.1619133949279785,-3.255812406539917,-0.829612135887146,2.600395441055298,-1.1984578371047974
6.475,-1.6924972534179688,-1.4181206226348877,-1.0972174406051636,-1.28558349609375,2.162585496902466,-0.6544321179389954
6.5,-0.7952020168304443,-1.4824315309524536,0.2511194050312042,-1.1252703666687012,1.9394779205322266,-0.21730776131153107
6.525,-0.6905665397644043,-0.8207885026931763,-0.10380309075117111,-0.4771045744419098,1.8280751705169678,0.015640854835510254
6.55,-0.8826975226402283,-0.2444993108510971,-0.6823378801345825,-0.09331902861595154,1.7441246509552002,0.3716878592967987
6.575,-0.9761855006217957,-0.06546887010335922,-0.6135436296463013,-0.13884222507476807,1.6516317129135132,0.7594865560531616
6.6,-1.4488985538482666,-0.14911752939224243,-0.4244248569011688,-0.20938673615455627,1.6779307126998901,0.9770861268043518
6.625,-2.038217782974243,-0.2733508050441742,-0.5010750889778137,-0.24218426644802094,1.6340454816818237,1.1114940643310547
6.65,-1.0046687126159668,-0.1570797711610794,-0.5242469310760498,-0.48995453119277954,1.2769322395324707,1.4186325073242188
6.675,0.8969457149505615,0.26752185821533203,-0.20419089496135712,-0.6958225965499878,0.7658223509788513,1.3053942918777466
6.7,1.4830081462860107,0.8695089221000671,0.2742152214050293,-0.6737312078475952,0.3502621054649353,0.911124587059021
6.725,1.0913405418395996,1.1996281147003174,0.6223812699317932,-0.5464877486228943,0.020585745573043823,0.5976231098175049
6.75,0.22955089807510376,1.0032684803009033,0.7311992645263672,-0.2849656343460083,-0.197535440325737,0.04310377687215805
6.775,-0.4812552332878113,0.5282012224197388,0.6704476475715637,-0.00680279266089201,-0.16864769160747528,-0.13695800304412842
6.8,-0.23401740193367004,0.08784585446119308,0.34817957878112793,0.20760703086853027,-0.054212190210819244,-0.02023180015385151
6.825,0.46507254242897034,-0.13920408487319946,-0.3823447823524475,0.2637183666229248,0.04037676379084587,0.020001651719212532
6.85,0.711637556552887,-0.20138849318027496,-0.9353240132331848,0.06558875739574432,-0.022995656356215477,-0.05552372708916664
6.875,0.45379623770713806,-0.0984116867184639,-0.9420742392539978,-0.19439660012722015,-0.16767750680446625,-0.10109751671552658
6.9,0.0945316031575203,0.03984442725777626,-0.7512164115905762,-0.3268263041973114,-0.23945686221122742,-0.04454553499817848
6.925,-0.14152880012989044,0.09490009397268295,-0.43673020601272583,-0.3928556442260742,-0.264955073595047,0.0914524719119072
6.95,-0.21241986751556396,0.1902170479297638,-0.02176487259566784,-0.398862361907959,-0.2634081244468689,0.2402673065662384
6.975,0.09811757504940033,0.3400164246559143,0.15966089069843292,-0.3317570388317108,-0.19029468297958374,0.2956158220767975
7.0,0.7975069284439087,0.4384823441505432,0.07198024541139603,-0.2967676520347595,-0.08996157348155975,0.30262237787246704
7.025,0.9140720367431641,0.33741477131843567,-0.016871929168701172,-0.35683009028434753,-0.08879990130662918,0.248342826962471
7.05,0.20520925521850586,0.12014391273260117,0.036283887922763824,-0.4500705301761627,-0.15601076185703278,0.17523261904716492
7.075,-0.31650736927986145,0.09953788667917252,0.19989116489887238,-0.4562092125415802,-0.1906353235244751,0.19263367354869843
7.1,-0.3297264873981476,0.3709622025489807,0.24652831256389618,-0.3112303614616394,-0.1672854870557785,0.18466278910636902
7.125,-0.17123378813266754,0.7341395020484924,0.09604611992835999,-0.11429428309202194,-0.09381866455078125,0.1123129203915596
7.15,-0.31787681579589844,0.7816773653030396,0.14332975447177887,-0.03704223409295082,-0.055364057421684265,-0.028264423832297325
7.175,-0.44847816228866577,0.5765019655227661,0.5178646445274353,-0.049434490501880646,-0.0381360687315464,-0.08561742305755615
7.2,-0.01191240269690752,0.4055453836917877,0.6463879942893982,0.028237374499440193,0.05356288701295853,-0.073539137840271
7.225,0.2925417125225067,0.047720007598400116,0.3828243315219879,0.13486728072166443,0.20255543291568756,-0.11794567108154297
7.25,-0.052903663367033005,-0.449278861284256,0.12791253626346588,0.09564387053251266,0.2567289173603058,-0.14289264380931854
7.275,-0.2872728109359741,-0.520144522190094,-0.026928871870040894,-0.023495446890592575,0.2540290653705597,-0.0479765385389328
7.3,-0.10287296026945114,-0.21188358962535858,-0.10561369359493256,-0.06507226079702377,0.2894180119037628,0.04481266438961029
7.325,0.19714295864105225,0.09933377057313919,-0.075655497610569,-0.08520732074975967,0.31989169120788574,0.07528750598430634
7.35,0.4567478895187378,0.3296842873096466,-0.06316166371107101,-0.13195309042930603,0.3157714307308197,0.0954771563410759
7.375,0.4980708360671997,0.46302324533462524,-0.06514039635658264,-0.16766850650310516,0.27868688106536865,0.041658081114292145
7.4,0.2585177421569824,0.37162497639656067,0.05227859318256378,-0.17107604444026947,0.2607153654098511,-0.11042112112045288
7.425,0.13283419609069824,0.20347313582897186,0.08289359509944916,-0.1461002230644226,0.2802170217037201,-0.12521734833717346
7.45,0.07566118240356445,0.21102431416511536,-0.0163250844925642,-0.15269707143306732,0.25858280062675476,-0.09303533285856247
7.475,-0.14792980253696442,0.2628917992115021,0.11389389634132385,-0.1923527866601944,0.21495434641838074,-0.1517542451620102
7.5,-0.12982133030891418,0.24544914066791534,0.3561742901802063,-0.16354528069496155,0.2282554656267166,-0.10644219815731049
7.525,0.12066110968589783,0.24922281503677368,0.299676775932312,-0.09327217936515808,0.25893136858940125,-0.06329019367694855
7.55,0.1268223375082016,0.2407093644142151,0.2060367614030838,-0.11369642615318298,0.2764286994934082,-0.16028864681720734
7.575,0.08748123794794083,0.22077947854995728,0.25690507888793945,-0.14551995694637299,0.3350667953491211,-0.16568252444267273
7.6,0.18928158283233643,0.2893114387989044,0.02254616655409336,-0.10039691627025604,0.4037235975265503,-0.1080360934138298
7.625,0.047860294580459595,0.2958498001098633,-0.31966739892959595,-0.10209996998310089,0.41677990555763245,-0.18087317049503326
7.65,-0.21029530465602875,0.20679189264774323,-0.11437182873487473,-0.19508038461208344,0.35315626859664917,-0.18448173999786377
7.675,-0.04218258708715439,0.25159841775894165,0.273407518863678,-0.17841535806655884,0.2997305393218994,-0.034655533730983734
7.7,0.2256135642528534,0.3653469681739807,0.2582874298095703,-0.06614017486572266,0.3381440043449402,-0.04146546870470047
7.725,0.10373115539550781,0.28966715931892395,-0.02846028283238411,-0.005340447649359703,0.42737460136413574,-0.193255215883255
7.75,0.023078223690390587,0.1478261798620224,-0.23141200840473175,-0.007424988318234682,0.4300825893878937,-0.16538850963115692
7.775,0.17033816874027252,0.15922069549560547,-0.18320535123348236,-0.04582895338535309,0.3171536922454834,-0.08220649510622025
7.8,0.21316052973270416,0.16570091247558594,-0.12608547508716583,-0.04765105992555618,0.2361508458852768,-0.12974748015403748
7.825,0.15579809248447418,0.0788421481847763,-0.19395890831947327,-0.0286205243319273,0.2085578739643097,-0.15357527136802673
7.85,0.2846659719944,0.11464021354913712,-0.31560927629470825,-0.04189009219408035,0.1847505122423172,-0.0398830883204937
7.875,0.3774351179599762,0.23766134679317474,-0.3204502761363983,-0.06825946271419525,0.13383938372135162,-0.01028993260115385
7.9,0.24329687654972076,0.263824462890625,-0.1379300355911255,-0.0646355077624321,0.0714511126279831,-0.08807044476270676
7.925,0.17153264582157135,0.22641374170780182,-0.10115677118301392,-0.024228084832429886,0.030691059306263924,-0.09457815438508987
7.95,0.14155319333076477,0.19180583953857422,-0.2651154100894928,-0.0010871596168726683,0.003011851804330945,-0.09256364405155182
7.975,0.028808139264583588,0.13664434850215912,-0.25385552644729614,-0.026352958753705025,-0.03410361707210541,-0.10116720199584961
8.0,0.06134392321109772,0.09525679796934128,-0.1734146773815155,-0.018591200932860374,-0.060703396797180176,-0.05596582219004631
8.025,0.18879224359989166,0.10855387896299362,-0.20734365284442902,-0.00945194624364376,-0.09159678220748901,-0.02661948837339878
8.05,0.07981706410646439,0.10852909833192825,-0.07085701823234558,-0.05870819091796875,-0.139536514878273,-0.05646347627043724
8.075,-0.05153562128543854,0.11709312349557877,0.16592083871364594,-0.07015550881624222,-0.13538317382335663,-0.04680853709578514
8.1,0.05210660770535469,0.19873623549938202,0.12040869891643524,-0.014169151894748211,-0.10046195983886719,0.0053285458125174046
8.125,0.0868539810180664,0.27095893025398254,0.03489810228347778,-0.013761579990386963,-0.1265658736228943,-0.004473760258406401
8.15,0.013701423071324825,0.3057118058204651,0.17657379806041718,-0.04949202388525009,-0.1542517989873886,-0.012896756641566753
8.175,0.08162997663021088,0.3388739228248596,0.18183141946792603,-0.007568588014692068,-0.12094423174858093,0.01832897588610649
8.2,0.18284225463867188,0.320525199174881,-0.007057718001306057,0.03796561434864998,-0.1015947014093399,-0.007851622998714447
8.225,0.16236114501953125,0.25188925862312317,-0.017583129927515984,0.008484192192554474,-0.13488799333572388,-0.04118761047720909
8.25,0.13127779960632324,0.22376064956188202,0.0640438124537468,0.013005887158215046,-0.15521208941936493,-0.011947295628488064
8.275,0.07578014582395554,0.22178462147712708,0.057113103568553925,0.04542933776974678,-0.14246870577335358,-0.03202009201049805
8.3,-0.07178282737731934,0.17902089655399323,0.013298248872160912,0.04724422097206116,-0.13707280158996582,-0.07135932892560959
8.325,-0.17238736152648926,0.12059880048036575,-0.04302077367901802,0.050891805440187454,-0.13159295916557312,-0.05059840530157089
8.35,-0.1417222023010254,0.11873150616884232,-0.05846765637397766,0.03703049197793007,-0.127367302775383,-0.025837037712335587
8.375,-0.11140775680541992,0.14991094172000885,0.002820217050611973,0.0009892648085951805,-0.14065133035182953,-0.031885359436273575
8.4,-0.1563432216644287,0.16575147211551666,0.014204122126102448,-0.016217965632677078,-0.1510268598794937,-0.04754382744431496
8.425,-0.15342092514038086,0.1891041100025177,0.026217902079224586,-0.025531679391860962,-0.147442027926445,-0.047746241092681885
8.45,-0.1650843769311905,0.17414382100105286,0.12602615356445312,-0.03169737383723259,-0.1304224282503128,-0.05537814646959305
8.475,-0.3481004238128662,0.13898947834968567,0.14756807684898376,-0.02041195146739483,-0.08296072483062744,-0.07685042917728424
8.5,-0.4627552032470703,0.28350070118904114,0.0869138091802597,-0.018035296350717545,-0.036666691303253174,-0.03757452592253685
8.525,-0.17532753944396973,0.42408281564712524,0.014353476464748383,-0.024593418464064598,-0.032667726278305054,0.015881096944212914
8.55,-0.010973206721246243,0.27501872181892395,-0.09220202267169952,-0.02133115753531456,-0.04228149726986885,-0.06503031402826309
8.575,-0.23544476926326752,0.13028335571289062,-0.11147727817296982,-0.027913540601730347,-0.03795486316084862,-0.08193189650774002
8.6,-0.1867985725402832,0.14306069910526276,0.04553641751408577,-0.0364554226398468,-0.03927992284297943,0.03920157998800278
8.625,-0.009771359153091908,0.23137478530406952,0.1425124853849411,-0.011375674046576023,-0.0385168232023716,0.06342696398496628
8.65,-0.04837226867675781,0.2877054512500763,0.01168269757181406,0.011162024922668934,-0.0121677927672863,-0.015491349622607231
8.675,-0.14044927060604095,0.2736682891845703,-0.12543073296546936,-0.0027860915288329124,0.009502931497991085,-0.03457504138350487
8.7,-0.11357855051755905,0.2549581825733185,-0.04744275286793709,-0.04013316333293915,-0.000316189689328894,0.015030797570943832
8.725,0.0012335728388279676,0.26924994587898254,0.05629735812544823,-0.04220437631011009,-0.009952668100595474,0.033180560916662216
8.75,0.03524685651063919,0.2936706840991974,-0.071974016726017,-0.008196044713258743,0.007668056525290012,-0.0048472085036337376
8.775,-0.15153788030147552,0.2840385437011719,-0.23289696872234344,-0.02526247128844261,0.011551324278116226,-0.07407508790493011
8.8,-0.41710376739501953,0.263793021440506,-0.10941106081008911,-0.07609102129936218,0.0030586300417780876,-0.06551599502563477
8.825,-0.38346123695373535,0.2587442696094513,-0.07542633265256882,-0.006873485632240772,0.036004215478897095,0.05069204419851303
8.85,-0.16680261492729187,0.22358989715576172,-0.285055011510849,0.06845290958881378,0.05725192651152611,0.10888925194740295
8.875,-0.5304327011108398,0.08178138732910156,-0.05383961275219917,-0.031029095873236656,-0.017794882878661156,-0.009523699060082436
8.9,-1.0936503410339355,-0.05287071317434311,0.38403117656707764,-0.07484892755746841,-0.022450121119618416,0.08724580705165863
8.925,-0.8433694839477539,0.01097776833921671,0.1870194971561432,0.07427139580249786,0.07462740689516068,0.5291613340377808
8.95,-0.31806680560112,0.12221619486808777,-0.38554027676582336,0.15027402341365814,0.060166407376527786,0.771371066570282
8.975,-0.556510865688324,-0.04010973870754242,-0.8381235599517822,0.0022523002699017525,-0.05103252828121185,0.7020794749259949
9.0,-1.239447832107544,-0.46611329913139343,-1.211484432220459,-0.3018277883529663,-0.24474668502807617,0.7869959473609924
9.025,-1.5197491645812988,-0.8166907429695129,-1.7317668199539185,-0.6879086494445801,-0.5447466969490051,1.2362562417984009
9.05,-1.1350038051605225,-1.009682059288025,-2.334077835083008,-1.1111608743667603,-1.0096415281295776,1.75121009349823
9.075,-0.37393784523010254,-1.1174378395080566,-2.6640803813934326,-1.5067987442016602,-1.7555328607559204,2.0430519580841064
9.1,0.6986416578292847,-0.963861882686615,-2.61327862739563,-1.767350196838379,-2.6476871967315674,2.1170411109924316
9.125,2.415349006652832,-0.5093377232551575,-2.1933746337890625,-1.8328713178634644,-3.1928329467773438,2.096325635910034
9.15,3.8550472259521484,-0.2793428301811218,-1.3631653785705566,-1.344550371170044,-3.097060441970825,1.6224608421325684
9.175,3.3029584884643555,-0.8117457628250122,0.06837233155965805,-0.02535615861415863,-2.585157871246338,0.5103327631950378
9.2,1.1879802942276,-1.846062183380127,2.4671387672424316,0.8663872480392456,-2.5639543533325195,-0.31648361682891846
9.225,-0.2483682781457901,-2.4632487297058105,2.836082935333252,1.278296947479248,-2.7323250770568848,-0.23427803814411163
9.25,-0.24774442613124847,-2.419934034347534,0.17591847479343414,1.5246858596801758,-2.7012181282043457,0.2772841453552246
9.275,0.31254658102989197,-2.477534294128418,-1.1855653524398804,0.5866642594337463,-3.235734701156616,0.850881040096283
9.3,1.6166584491729736,-2.0800464153289795,-0.5109400153160095,-0.6337738633155823,-3.5002148151397705,1.7938008308410645
9.325,2.3573975563049316,-1.0199661254882812,0.7707156538963318,-1.1571406126022339,-3.5553553104400635,1.998982310295105
9.35,1.747856855392456,-0.2297591120004654,1.1180362701416016,-0.7885538935661316,-3.6752099990844727,1.7354408502578735
9.375,1.1936360597610474,-0.04526130482554436,0.6881205439567566,-0.487557977437973,-3.5387744903564453,1.7757582664489746
9.4,1.2929351329803467,0.31822124123573303,1.062495470046997,-0.7510194778442383,-3.1809194087982178,2.032658576965332
9.425,1.0919824838638306,1.1214030981063843,1.7396862506866455,-0.7468167543411255,-2.994091033935547,1.968469500541687
9.45,0.5620068311691284,1.727674961090088,1.5885450839996338,-0.2825816869735718,-2.7864274978637695,1.8884583711624146
9.475,0.06350933015346527,2.0721993446350098,1.50461745262146,-0.1947227567434311,-2.5641746520996094,1.9009474515914917
9.5,-0.44172707200050354,2.1146721839904785,1.83711838722229,-0.2757203280925751,-2.453324794769287,1.8569717407226562
9.525,-0.6454398036003113,1.7399601936340332,1.970247745513916,-0.0638306587934494,-2.2324929237365723,1.8973875045776367
9.55,-0.5457736849784851,1.3465999364852905,2.0530385971069336,0.10432244092226028,-1.8859260082244873,1.9452621936798096
9.575,-0.31891006231307983,1.008384108543396,2.1250245571136475,0.2291422039270401,-1.5791184902191162,1.9124974012374878
9.6,0.18905337154865265,0.5550053715705872,1.7956758737564087,0.44689902663230896,-1.3195432424545288,1.8177872896194458
9.625,0.8222471475601196,0.12713830173015594,1.2701990604400635,0.4459172785282135,-1.1921659708023071,1.560808539390564
9.65,1.3397361040115356,-0.11857500672340393,0.8912651538848877,0.20580823719501495,-1.194473147392273,1.1843006610870361
9.675,1.6060104370117188,-0.17513269186019897,0.6595072150230408,-0.12302417308092117,-1.2166430950164795,0.7798206210136414
9.7,1.5564906597137451,-0.1870259940624237,0.4306771159172058,-0.4064876437187195,-1.1515322923660278,0.4143161475658417
9.725,1.396698236465454,-0.16601845622062683,0.4014233648777008,-0.6185266971588135,-1.032180905342102,0.11349616944789886
9.75,1.3472802639007568,-0.0300168227404356,0.664824903011322,-0.7936428189277649,-0.980728030204773,-0.11269069463014603
9.775,1.267062783241272,0.06406699866056442,0.893059492111206,-0.9044127464294434,-0.9624572992324829,-0.24084529280662537
9.8,1.0418866872787476,-0.09440317749977112,0.891240119934082,-0.9641785025596619,-0.9086191058158875,-0.33950307965278625
9.825,0.7193190455436707,-0.46014687418937683,0.7842234373092651,-1.0031023025512695,-0.8867540955543518,-0.42713770270347595
9.85,0.23419040441513062,-0.7046175003051758,0.692664623260498,-1.051897406578064,-0.9485607147216797,-0.4589902460575104
9.875,-0.2743033766746521,-0.7517624497413635,0.5328776240348816,-1.0341615676879883,-0.9589225053787231,-0.3563343286514282
9.9,-0.45188871026039124,-0.6875715255737305,0.33390942215919495,-0.9155200123786926,-0.8471202850341797,-0.13077881932258606
9.925,-0.3982638418674469,-0.27403926849365234,0.3061771094799042,-0.8187993764877319,-0.781760036945343,0.09078975021839142
9.95,-0.35919395089149475,0.5089865922927856,0.443549245595932,-0.7883947491645813,-0.7845157980918884,0.31176406145095825
9.975,-0.3570404350757599,1.1585665941238403,0.4057609438896179,-0.7555698156356812,-0.7237910032272339,0.5598893761634827
10.0,-0.40245044231414795,1.3893367052078247,-0.038292281329631805,-0.7415634989738464,-0.646721601486206,0.7737297415733337
10.025,-0.38166898488998413,1.3511343002319336,-0.8420090675354004,-0.8289019465446472,-0.5823360681533813,0.8782912492752075
10.05,-0.3503832519054413,1.2369917631149292,-1.6163536310195923,-0.9412914514541626,-0.5753393769264221,0.7903618812561035
10.075,-0.4534371495246887,1.1451271772384644,-2.010852336883545,-0.919200599193573,-0.6732603311538696,0.5561943650245667
10.1,-0.6884153485298157,1.2030056715011597,-2.1132149696350098,-0.8353010416030884,-0.8156997561454773,0.3468536138534546
10.125,-1.0883815288543701,1.5492515563964844,-2.290699005126953,-0.8184443116188049,-0.9243813157081604,0.25519832968711853
10.15,-1.6509652137756348,1.9661415815353394,-2.7994253635406494,-0.7571635842323303,-0.9085379242897034,0.20448468625545502
10.175,-2.217402696609497,2.249727964401245,-3.4132466316223145,-0.5504241585731506,-0.8400169610977173,0.15623058378696442
10.2,-2.575413942337036,2.4505107402801514,-3.812713146209717,-0.2947458028793335,-0.8174312114715576,0.19823236763477325
10.225,-2.77988600730896,2.478081464767456,-3.9801268577575684,-0.07832448929548264,-0.8405385613441467,0.3273232877254486
10.25,-2.872843027114868,2.15989089012146,-3.921811103820801,0.12375907599925995,-0.8412735462188721,0.46262678503990173
10.275,-2.7161574363708496,1.4912077188491821,-3.654470920562744,0.3711937963962555,-0.7883975505828857,0.5664697885513306
10.3,-2.437788486480713,0.7597185969352722,-3.2958524227142334,0.6035823225975037,-0.7360184192657471,0.6354460120201111
10.325,-2.187265396118164,0.29424160718917847,-2.8255043029785156,0.7518419623374939,-0.6979455947875977,0.6799792647361755
10.35,-1.951235055923462,0.15885043144226074,-2.147277355194092,0.8446787595748901,-0.6877684593200684,0.7171102166175842
10.375,-1.7138656377792358,0.12603935599327087,-1.4108903408050537,0.9237809777259827,-0.6905492544174194,0.7546895146369934
10.4,-1.5418124198913574,-0.05059920251369476,-0.7999265193939209,0.9577717185020447,-0.7091754078865051,0.7550804018974304
10.425,-1.5411595106124878,-0.35741907358169556,-0.3563048541545868,0.9210397005081177,-0.7684898972511292,0.6984646320343018
10.45,-1.7421475648880005,-0.7097483277320862,-0.07107424736022949,0.8339772820472717,-0.8124116659164429,0.6436343193054199
10.475,-1.9132331609725952,-1.154190182685852,0.06015270948410034,0.7270300388336182,-0.7479021549224854,0.6543332934379578
10.5,-1.7971512079238892,-1.6549580097198486,0.12551511824131012,0.6117891669273376,-0.5941175818443298,0.698029100894928
10.525,-1.4325217008590698,-2.105029821395874,0.25572529435157776,0.4667719900608063,-0.4626612365245819,0.6681843996047974
10.55,-1.10954749584198,-2.4123780727386475,0.5005918741226196,0.2625604271888733,-0.419198215007782,0.4931216537952423
10.575,-1.0131605863571167,-2.518651247024536,0.7377695441246033,0.0374884195625782,-0.4161849319934845,0.2318377047777176
10.6,-1.1279867887496948,-2.4807446002960205,0.7422469854354858,-0.1655448079109192,-0.36302947998046875,-0.002926482120528817
10.625,-1.2913916110992432,-2.356013059616089,0.49855175614356995,-0.35493314266204834,-0.15448638796806335,-0.13120098412036896
10.65,-1.3908857107162476,-2.045865774154663,0.2666386663913727,-0.5423061847686768,0.15571920573711395,-0.18094684183597565
10.675,-1.5133185386657715,-1.6030809879302979,0.14211241900920868,-0.7214479446411133,0.44403859972953796,-0.22097134590148926
10.7,-1.7496613264083862,-1.2236043214797974,-0.038281265646219254,-0.8771918416023254,0.7238548398017883,-0.23708413541316986
10.725,-2.097459316253662,-0.9915934801101685,-0.22996506094932556,-1.009409785270691,1.0297232866287231,-0.1645781546831131
10.75,-2.3518290519714355,-0.8370572328567505,-0.09407743066549301,-1.121476650238037,1.3566339015960693,0.009122854098677635
10.775,-2.1859447956085205,-0.6414127349853516,0.3274824619293213,-1.2242594957351685,1.7201467752456665,0.23723067343235016
10.8,-1.5919017791748047,-0.3363341987133026,0.46656620502471924,-1.3315094709396362,2.07887601852417,0.426763653755188
10.825,-0.9611047506332397,-0.016111351549625397,0.1996859908103943,-1.4289805889129639,2.39312481880188,0.5002398490905762
10.85,-0.5898139476776123,0.31191733479499817,0.07260607928037643,-1.5161234140396118,2.6882336139678955,0.4525977671146393
10.875,-0.41411927342414856,0.9005052447319031,0.28129279613494873,-1.609185814857483,2.8914988040924072,0.40340831875801086
10.9,-0.26805010437965393,1.5847065448760986,0.4786226451396942,-1.6124998331069946,3.031616449356079,0.4199211895465851
10.925,-0.036777056753635406,2.0070230960845947,0.434650719165802,-1.5443836450576782,3.124863624572754,0.4311061203479767
10.95,0.19888745248317719,1.9060299396514893,0.21329358220100403,-1.4560267925262451,3.0866427421569824,0.39052969217300415
10.975,0.06609389185905457,1.4488602876663208,0.31558284163475037,-1.318941593170166,2.977334499359131,0.2402764856815338
11.0,-0.6614304780960083,1.525610327720642,1.1180686950683594,-1.2376223802566528,3.0141987800598145,0.0670069009065628
11.025,-0.7498801350593567,2.7055437564849854,0.6429654955863953,-1.1289522647857666,3.519245147705078,0.2329779714345932
11.05,0.20750322937965393,4.258853435516357,-1.7742153406143188,-0.5579983592033386,4.427155017852783,0.4535929560661316
11.075,1.252293348312378,4.462421417236328,-2.9876604080200195,0.21218836307525635,5.059512615203857,-0.004779999144375324
11.1,2.1024787425994873,2.6653058528900146,-3.1868700981140137,0.473224937915802,4.821642875671387,-0.6901757717132568
11.125,1.9333877563476562,0.33770623803138733,-3.040684461593628,0.08940734714269638,3.381584405899048,-0.9239646792411804
11.15,0.8156871795654297,-1.4858554601669312,-1.6463627815246582,-0.5718733668327332,1.2644553184509277,-0.6361691355705261
11.175,-0.3012813627719879,-2.3540823459625244,0.3349335789680481,-0.8460332155227661,-0.11365918070077896,-0.17338912189006805
11.2,-0.6770440340042114,-2.6284070014953613,1.1465246677398682,-0.4589979350566864,0.1563888043165207,-0.0096597820520401
11.225,-0.49057695269584656,-2.5312840938568115,0.9447436332702637,0.14036282896995544,0.9289475679397583,-0.03845624625682831
11.25,-0.15367013216018677,-1.9551745653152466,0.6320387125015259,0.6183962821960449,1.3295024633407593,-0.04746956378221512
11.275,0.1810092329978943,-0.7931880950927734,0.7510207891464233,0.8391485214233398,1.2662161588668823,0.03613480180501938
11.3,0.5215157270431519,0.5110666155815125,1.1312580108642578,0.981810986995697,0.9766556620597839,0.0779455229640007
11.325,0.8217967748641968,1.2686131000518799,1.0644162893295288,1.1840128898620605,0.7584174871444702,-0.01268182136118412
11.35,0.9426905512809753,1.2289801836013794,0.34959134459495544,1.3369860649108887,0.5405417084693909,-0.18376176059246063
11.375,0.8582138419151306,0.8798571228981018,-0.42160043120384216,1.2619785070419312,0.11893565207719803,-0.34080228209495544
11.4,0.7530173659324646,0.8982830047607422,-0.9639195799827576,0.9360995888710022,-0.3969019651412964,-0.43254250288009644
11.425,0.6013308763504028,1.2203798294067383,-1.4647488594055176,0.49533918499946594,-0.6884310245513916,-0.5361461043357849
11.45,0.35562530159950256,1.3948019742965698,-1.7024184465408325,0.052272479981184006,-0.698769211769104,-0.7190733551979065
11.475,0.32542693614959717,1.4725836515426636,-1.5053980350494385,-0.2916377782821655,-0.5678595900535583,-0.947354257106781
11.5,0.6563185453414917,1.511867642402649,-1.1755980253219604,-0.46649622917175293,-0.36298149824142456,-1.2000389099121094
11.525,1.1468089818954468,1.4355030059814453,-0.853710949420929,-0.49052631855010986,-0.10073630511760712,-1.4055240154266357
11.55,1.4492766857147217,1.1912575960159302,-0.4929211437702179,-0.48560163378715515,0.02327979914844036,-1.534681797027588
11.575,1.2321014404296875,0.6555119156837463,-0.12778185307979584,-0.4911089837551117,-0.015650436282157898,-1.6055718660354614
11.6,0.743657112121582,0.049936313182115555,0.09735950827598572,-0.4473959803581238,0.02612697333097458,-1.596644401550293
11.625,0.542860746383667,-0.4048824906349182,-0.005581857170909643,-0.3430614173412323,0.13255088031291962,-1.5285476446151733
11.65,0.5789850354194641,-0.7917892336845398,-0.34560686349868774,-0.21306212246418,0.07542534172534943,-1.4626132249832153
11.675,0.6323803067207336,-1.097066044807434,-0.4050788879394531,-0.15665127336978912,-0.17418119311332703,-1.4104653596878052
11.7,0.7290213108062744,-1.192649006843567,-0.05167051777243614,-0.19799910485744476,-0.41657814383506775,-1.1956334114074707
11.725,0.7979946136474609,-1.110982060432434,0.2409658133983612,-0.13366630673408508,-0.40717601776123047,-0.8226180076599121
11.75,0.7209959030151367,-0.8739739656448364,0.23454438149929047,0.12017196416854858,-0.18965372443199158,-0.47687312960624695
11.775,0.5942482948303223,-0.498538076877594,0.07617402076721191,0.43812769651412964,0.02938542515039444,-0.22602832317352295
11.8,0.4906282424926758,-0.07970430701971054,-0.10358790308237076,0.6659977436065674,0.17442946135997772,-0.007555287331342697
11.825,0.2528419494628906,0.39341264963150024,-0.08645009994506836,0.7355573177337646,0.2716330885887146,0.19280342757701874
11.85,-0.14589214324951172,0.9769030809402466,-0.01186342816799879,0.7951224446296692,0.5348250865936279,0.3706902861595154
11.875,-0.3825850486755371,1.7866051197052002,-0.060874707996845245,0.9398718476295471,0.9778258204460144,0.4590895473957062
11.9,-0.231720432639122,2.4797747135162354,-0.15520793199539185,1.1023226976394653,1.2759506702423096,0.3806515038013458
11.925,0.0068145315162837505,2.2607901096343994,-0.5922583341598511,1.1702525615692139,1.3027613162994385,0.16144992411136627
11.95,0.14424048364162445,1.4725618362426758,-1.2701280117034912,1.0138318538665771,0.9399703145027161,-0.10821559280157089
11.975,0.3073536157608032,0.9456471800804138,-1.456210970878601,0.6952590942382812,0.07561076432466507,-0.23027567565441132
12.0,0.21430358290672302,0.5600842833518982,-0.9639105200767517,0.4633805453777313,-0.7230450510978699,-0.28572988510131836
12.025,-0.23639866709709167,0.04264922812581062,-0.374767541885376,0.4729748070240021,-1.0737520456314087,-0.4180741012096405
12.05,-0.5707554221153259,-0.4455024003982544,-0.4401043653488159,0.8837766051292419,-1.2443989515304565,-0.5634296536445618
12.075,-0.5807690024375916,-0.7319099307060242,-0.9357250928878784,1.3266383409500122,-1.5170282125473022,-0.6483101844787598
12.1,-0.31531617045402527,-0.7603513598442078,-0.33381345868110657,1.1596673727035522,-2.078476667404175,-0.7355474829673767
12.125,-0.0029674682300537825,-0.7370442152023315,1.2648470401763916,0.8023313879966736,-2.6117918491363525,-0.9187383055686951
12.15,0.12649281322956085,-0.9019955396652222,1.9524539709091187,1.0144988298416138,-2.579336643218994,-1.045194387435913
12.175,0.4143885374069214,-0.9910783767700195,1.2198883295059204,1.433577299118042,-2.2257018089294434,-0.8856734037399292
12.2,1.0141615867614746,-0.6948976516723633,0.4739757776260376,1.3019435405731201,-2.2282826900482178,-0.6895541548728943
12.225,1.39656662940979,-0.28250783681869507,0.6546036601066589,0.6862241625785828,-2.590754747390747,-0.9047651290893555
12.25,1.2577842473983765,-0.0632847398519516,1.2007869482040405,0.17414581775665283,-2.829561233520508,-1.3903015851974487
12.275,0.8514405488967896,-0.17533954977989197,1.390871524810791,-0.0673011764883995,-2.735349655151367,-1.7829463481903076
12.3,0.26127588748931885,-0.6214874982833862,1.3932008743286133,-0.2877107858657837,-2.5462470054626465,-2.0262956619262695
12.325,-0.6142607927322388,-1.0347929000854492,1.298630714416504,-0.45990362763404846,-2.2682127952575684,-2.0888218879699707
12.35,-1.3604973554611206,-0.9779806137084961,1.0952807664871216,-0.4272252917289734,-1.8244061470031738,-1.8342866897583008
12.375,-1.7414263486862183,-0.7243384718894958,1.023995280265808,-0.30112701654434204,-1.3598244190216064,-1.40713369846344
12.4,-1.9531075954437256,-0.7454556822776794,1.0053411722183228,-0.13939067721366882,-0.9326034784317017,-0.9303255677223206
12.425,-1.9828599691390991,-0.982396125793457,0.8569005131721497,0.06506748497486115,-0.5172908902168274,-0.39790835976600647
12.45,-1.6460663080215454,-1.1503238677978516,0.6082568764686584,0.2082328349351883,-0.16147379577159882,0.1152508556842804
12.475,-1.1171400547027588,-1.2136011123657227,0.5156996846199036,0.19901417195796967,0.07001672685146332,0.4540708065032959
12.5,-0.8096947073936462,-1.360300064086914,0.6508658528327942,0.10375151038169861,0.17259223759174347,0.6011269092559814
12.525,-0.6971123814582825,-1.3548917770385742,0.6812382340431213,0.035647064447402954,0.2286306768655777,0.6873728632926941
12.55,-0.7520692944526672,-0.944918692111969,0.3800853490829468,-0.027041984722018242,0.28618550300598145,0.7704495191574097
12.575,-0.9293909072875977,-0.4065008759498596,0.038862816989421844,-0.11891574412584305,0.33474358916282654,0.7928932905197144
12.6,-1.0674288272857666,-0.10962294042110443,0.226466104388237,-0.21354416012763977,0.3064299523830414,0.6630000472068787
12.625,-1.1499725580215454,-0.13904845714569092,1.064725399017334,-0.26538413763046265,0.21745839715003967,0.49051332473754883
12.65,-0.9651550650596619,-0.18271711468696594,1.8809906244277954,-0.24930709600448608,0.19229663908481598,0.4169396162033081
12.675,-0.4639837443828583,-0.07058212161064148,2.2878284454345703,-0.28066790103912354,0.21993587911128998,0.4340851306915283
12.7,-0.03527090325951576,0.0339081808924675,2.4207708835601807,-0.5022504329681396,0.10160285979509354,0.30896928906440735
12.725,-0.02379484847187996,0.39118513464927673,2.2539613246917725,-0.7109799981117249,-0.07690184563398361,0.02189343236386776
12.75,-0.4841095507144928,1.110695242881775,1.8654268980026245,-0.7000373601913452,-0.01577436737716198,-0.21181897819042206
12.775,-1.0521670579910278,1.844891905784607,1.37327241897583,-0.5597913265228271,0.3031044006347656,-0.29540950059890747
12.8,-1.1367725133895874,2.5533878803253174,0.7500665783882141,-0.2643527388572693,0.7810302972793579,-0.16784726083278656
12.825,-0.6630759239196777,3.3054556846618652,0.26079118251800537,0.06848636269569397,1.2198647260665894,0.014736834913492203
12.85,-0.23267367482185364,3.863257884979248,0.42105722427368164,0.21625633537769318,1.4646273851394653,-0.11467409133911133
12.875,-0.13305386900901794,3.8692126274108887,0.9950510263442993,0.38023313879966736,1.7894246578216553,-0.38659539818763733
12.9,-0.22911179065704346,3.344221830368042,1.3492774963378906,0.76140958070755,2.396416187286377,-0.525015115737915
12.925,-0.053939491510391235,2.6556124687194824,1.7006829977035522,1.2258647680282593,3.030980110168457,-0.4539743661880493
12.95,0.7050064206123352,1.9862284660339355,2.1792497634887695,1.6480987071990967,3.5733370780944824,-0.2994269132614136
12.975,1.7451250553131104,1.151038646697998,2.5638439655303955,1.9391640424728394,3.9458541870117188,-0.27037298679351807
13.0,2.883301019668579,0.057973165065050125,2.100771427154541,2.165837049484253,4.248009204864502,-0.18403029441833496
13.025,3.6059186458587646,-0.869235098361969,0.3554958999156952,2.1985769271850586,4.3073296546936035,-0.14565815031528473
13.05,3.23563289642334,-1.4117692708969116,-1.509250283241272,1.5772852897644043,3.8833580017089844,-0.4936074912548065
13.075,2.0985918045043945,-1.7026277780532837,-2.545910358428955,0.35967978835105896,3.235462188720703,-0.9936777353286743
13.1,0.8517244458198547,-1.7419935464859009,-3.2409842014312744,-0.7761409282684326,2.727499485015869,-1.3234801292419434
13.125,-0.024820219725370407,-1.5568921566009521,-3.9534056186676025,-1.2885240316390991,2.3798394203186035,-1.4325082302093506
13.15,-0.2114640176296234,-1.3318421840667725,-4.513975620269775,-1.3033077716827393,1.8782658576965332,-1.2750201225280762
13.175,-0.37467530369758606,-1.1469581127166748,-5.204919338226318,-1.1751765012741089,1.1647123098373413,-1.026358723640442
13.2,-0.6429058909416199,-0.6211279034614563,-5.99276876449585,-0.9079268574714661,0.3186861276626587,-0.8696517944335938
13.225,0.09296970814466476,0.2787058651447296,-6.078500747680664,-0.829618513584137,-0.7895693182945251,-0.7458247542381287
13.25,1.4824275970458984,0.9768967032432556,-5.478668689727783,-0.9972500801086426,-1.9135732650756836,-0.8073400855064392
13.275,2.303527593612671,1.1174397468566895,-4.881723880767822,-0.950046718120575,-2.726017951965332,-1.1220240592956543
13.3,2.688668727874756,0.7492070198059082,-4.329131126403809,-0.7739545106887817,-3.47176194190979,-1.3758198022842407
13.325,2.991819143295288,-0.06638283282518387,-3.471390724182129,-0.6410770416259766,-4.314540863037109,-1.5196430683135986
13.35,2.8890316486358643,-1.2055219411849976,-2.1151909828186035,-0.5485422611236572,-5.119997978210449,-1.6069835424423218
13.375,2.300790786743164,-2.401428461074829,-0.032473981380462646,-0.6005479693412781,-5.815223693847656,-1.6278046369552612
13.4,1.323222279548645,-3.4191834926605225,2.246457815170288,-0.6345248818397522,-6.350628852844238,-1.5493751764297485
13.425,0.06970895826816559,-4.182600498199463,3.576517105102539,-0.4748557209968567,-6.637480735778809,-1.3121061325073242
13.45,-1.1446369886398315,-4.653372764587402,3.771973133087158,-0.4140914976596832,-6.657993793487549,-1.1074714660644531
13.475,-2.0869834423065186,-4.682773590087891,3.67734694480896,-0.6643123626708984,-6.616796016693115,-1.2575132846832275
13.5,-3.0886030197143555,-4.2791337966918945,3.9981558322906494,-1.008683204650879,-6.6306352615356445,-1.8225371837615967
13.525,-4.53747034072876,-3.837246894836426,4.541566371917725,-0.9772295951843262,-6.626509189605713,-2.305816650390625
13.55,-6.187932968139648,-3.6390018463134766,4.541158676147461,-0.7218030095100403,-6.541078090667725,-2.1442928314208984
13.575,-7.416766166687012,-3.5498437881469727,3.917680501937866,-0.8332685828208923,-6.172182559967041,-1.9200348854064941
13.6,-7.817737102508545,-3.4924135208129883,3.2652297019958496,-0.9375281929969788,-5.491918563842773,-1.8013412952423096
13.625,-7.673476696014404,-3.1076061725616455,2.2194278240203857,-0.9591168165206909,-4.8848466873168945,-1.5325647592544556
13.65,-7.433617115020752,-2.3218295574188232,0.5651434063911438,-1.262892484664917,-4.487548351287842,-1.2026258707046509
13.675,-7.193599700927734,-1.9685280323028564,-0.3410816490650177,-1.9898097515106201,-4.0774922370910645,-0.6303359270095825
13.7,-6.6313629150390625,-2.3234713077545166,-0.01007058471441269,-2.7865867614746094,-3.4700584411621094,0.0591898187994957
13.725,-6.056316375732422,-2.267385721206665,0.2585678696632385,-3.097276210784912,-2.8807036876678467,0.09670194983482361
13.75,-5.979582786560059,-1.136359453201294,-0.8143162131309509,-2.8347628116607666,-2.6799304485321045,-0.5467731952667236
13.775,-5.678421974182129,0.2785623371601105,-1.979473352432251,-2.8583970069885254,-2.4826862812042236,-0.9150648713111877
13.8,-4.3516130447387695,1.2649822235107422,-1.4014145135879517,-3.4539847373962402,-1.794838309288025,-1.0181978940963745
13.825,-2.454415798187256,1.9288359880447388,-0.6136813759803772,-3.4440205097198486,-1.3144705295562744,-1.682285189628601
13.85,-1.342419981956482,2.533810615539551,-1.7642217874526978,-2.4838309288024902,-1.7012476921081543,-2.6542654037475586
13.875,-1.2082816362380981,3.8579530715942383,-3.939051628112793,-1.7609987258911133,-1.948659062385559,-3.1237576007843018
13.9,-0.4715867042541504,6.222020626068115,-5.4252800941467285,-2.0027101039886475,-0.8876205682754517,-3.216946840286255
13.925,1.6973223686218262,8.149374961853027,-5.686709403991699,-2.5224921703338623,1.0642179250717163,-3.28519606590271
13.95,4.239306449890137,8.78962230682373,-4.925824165344238,-2.4632070064544678,2.9817655086517334,-3.2989723682403564
13.975,6.28423547744751,10.698763847351074,-5.292501926422119,-1.7627179622650146,3.768277168273926,-3.212235927581787
14.0,7.020243167877197,14.361381530761719,-7.205113410949707,-0.7854403257369995,4.621544361114502,-2.985504627227783
14.025,5.088446617126465,17.287145614624023,-7.411549091339111,0.7833051681518555,6.794914722442627,-2.76956844329834
14.05,3.2302920818328857,19.85554313659668,-1.813399314880371,2.465920925140381,9.91416072845459,-2.6108086109161377
14.075,7.949560642242432,19.71034812927246,5.810001850128174,4.282079219818115,12.042900085449219,-2.262669801712036
14.1,14.774041175842285,14.043643951416016,6.1188645362854,5.474150657653809,10.332558631896973,-2.148794412612915
14.125,14.79321002960205,6.6537652015686035,2.282886266708374,4.982854843139648,5.854695796966553,-2.2927722930908203
14.15,9.131510734558105,1.4517024755477905,1.7979211807250977,3.47171688079834,1.2348856925964355,-2.86844539642334
14.175,2.3592894077301025,-0.4277472496032715,4.547147274017334,2.3979036808013916,-1.6020891666412354,-3.2377939224243164
14.2,-1.463304042816162,-1.807633638381958,7.797934532165527,3.2523863315582275,-2.0034379959106445,-1.6934510469436646
14.225,-3.0852625370025635,-4.955016613006592,9.729899406433105,4.860982894897461,-2.1702005863189697,0.7952223420143127
14.25,-5.05043888092041,-8.56352424621582,9.8634033203125,5.671638011932373,-3.1202011108398438,2.6608693599700928
14.275,-7.121303558349609,-11.628439903259277,8.406750679016113,5.860530376434326,-4.1423516273498535,3.935950756072998
14.3,-7.309150695800781,-13.695258140563965,6.257503032684326,5.574243068695068,-5.177981376647949,5.015952110290527
14.325,-5.413454055786133,-14.780219078063965,4.984623908996582,4.8857293128967285,-6.514008045196533,5.241133689880371
14.35,-2.9490089416503906,-15.238232612609863,5.178129196166992,4.22824239730835,-7.302989482879639,4.170724391937256
14.375,-1.7895088195800781,-14.859023094177246,5.650887966156006,4.10073184967041,-6.98551082611084,1.9521057605743408
14.4,-2.157939910888672,-13.899186134338379,3.8696014881134033,5.037659168243408,-5.658754348754883,-0.443190336227417
14.425,-1.6102681159973145,-12.227091789245605,0.8971195220947266,5.780229091644287,-4.079020977020264,-1.3852026462554932
14.45,-1.314139485359192,-10.093210220336914,-0.6169112324714661,5.413479804992676,-2.8183770179748535,-1.6653355360031128
14.475,-3.274567127227783,-7.472020626068115,-1.8284927606582642,4.796529293060303,-1.8444361686706543,-2.1826171875
14.5,-6.020123481750488,-4.368463516235352,-3.6418509483337402,3.932821035385132,-1.2978734970092773,-2.689180612564087
14.525,-7.252623081207275,-2.1424567699432373,-4.662362575531006,2.367414951324463,-1.8591233491897583,-2.6718242168426514
14.55,-6.930217742919922,-1.7767294645309448,-4.871870994567871,0.7259750366210938,-2.955974578857422,-2.4948112964630127
14.575,-5.9901933670043945,-2.2471923828125,-5.413052558898926,0.1850118339061737,-3.604170322418213,-2.6207001209259033
14.6,-5.401260852813721,-2.4028797149658203,-6.064959526062012,0.6129675507545471,-3.8650050163269043,-2.9987027645111084
14.625,-5.0761027336120605,-2.169919490814209,-6.205040454864502,1.3160103559494019,-3.9394912719726562,-3.118117094039917
14.65,-3.7326149940490723,-1.172022819519043,-6.6245245933532715,2.1997101306915283,-3.8016765117645264,-2.396033525466919
14.675,-2.4627342224121094,0.8831645846366882,-7.703388690948486,2.865882396697998,-3.729135036468506,-1.5988609790802002
14.7,-2.4970543384552,3.042572498321533,-8.869828224182129,2.587709665298462,-4.0959696769714355,-1.5255674123764038
14.725,-2.771571159362793,4.921304225921631,-9.860123634338379,2.0578386783599854,-4.594607353210449,-2.0718436241149902
14.75,-2.1901378631591797,7.427866458892822,-10.848893165588379,2.517275810241699,-4.928423881530762,-2.7366204261779785
14.775,0.2504354417324066,10.550868034362793,-11.114572525024414,3.3294427394866943,-5.266475677490234,-3.368175983428955
14.8,4.5054850578308105,12.844654083251953,-9.685611724853516,3.4913673400878906,-5.6082763671875,-4.330296516418457
14.825,8.18612003326416,12.743501663208008,-7.331946849822998,3.1679675579071045,-5.207076549530029,-6.095037937164307
14.85,9.827381134033203,10.522490501403809,-5.4021124839782715,3.4262356758117676,-3.9517743587493896,-7.795767784118652
14.875,9.587224006652832,7.0711798667907715,-4.166987895965576,4.161799907684326,-2.724626064300537,-8.339332580566406
14.9,8.060728073120117,3.7229108810424805,-3.6968536376953125,4.510558605194092,-1.946160912513733,-7.516842365264893
14.925,6.560172080993652,1.5914210081100464,-3.1673076152801514,4.23708963394165,-1.4906489849090576,-6.151891708374023
14.95,5.721105098724365,0.7171095013618469,-2.045645236968994,3.8972089290618896,-1.2823574542999268,-4.966194152832031
14.975,6.23518705368042,0.5885448455810547,-0.5060301423072815,3.201231002807617,-1.664150595664978,-4.01602029800415
15.0,8.484079360961914,0.0559493787586689,1.331088900566101,2.0252230167388916,-2.523749828338623,-3.3737120628356934
15.025,10.295132637023926,-1.7523001432418823,3.1956193447113037,1.0624350309371948,-2.7200279235839844,-2.876305103302002
15.05,10.059350967407227,-3.887165069580078,4.407140731811523,0.6720814108848572,-2.185889959335327,-2.3612661361694336
15.075,8.698983192443848,-5.098182201385498,4.831355571746826,0.4640962779521942,-1.5772135257720947,-1.8109171390533447
15.1,7.708835124969482,-5.409006118774414,4.972647190093994,0.061106372624635696,-1.2527648210525513,-1.2476189136505127
15.125,7.306339263916016,-5.62630033493042,5.07969856262207,-0.5322650074958801,-1.1096816062927246,-0.7958548665046692
15.15,6.618736743927002,-5.833929538726807,4.878061771392822,-0.9614251852035522,-0.7411537766456604,-0.4633921980857849
15.175,5.562860012054443,-5.630817413330078,4.289872646331787,-1.134020209312439,-0.2045195996761322,-0.02826259285211563
15.2,5.097360134124756,-5.224067211151123,3.8947818279266357,-1.3994042873382568,0.15214206278324127,0.5265613198280334
15.225,5.654900074005127,-4.4795966148376465,3.810842275619507,-1.6548668146133423,0.48914146423339844,1.0359854698181152
15.25,6.557281494140625,-2.6427228450775146,3.189951181411743,-1.5809611082077026,1.1243388652801514,1.4924622774124146
15.275,7.257061004638672,0.08002306520938873,2.0588877201080322,-1.5074448585510254,1.7771334648132324,2.0050697326660156
15.3,7.606906890869141,2.9473347663879395,1.162513017654419,-1.5161871910095215,2.243011951446533,2.6493098735809326
15.325,7.240485668182373,5.228926181793213,0.7780765891075134,-1.2303842306137085,2.905390501022339,3.2467586994171143
15.35,6.229135513305664,6.629434585571289,0.5885419249534607,-0.6479939818382263,3.9997482299804688,3.5339415073394775
15.375,4.5572357177734375,7.180326461791992,-0.014311014674603939,-0.028376048430800438,5.513851642608643,3.4797747135162354
15.4,2.0964443683624268,7.408782958984375,-0.9745328426361084,0.2003343254327774,7.136336326599121,3.175243377685547
15.425,-0.01085649337619543,7.692264556884766,-1.6540305614471436,-0.07023041695356369,7.856723308563232,3.0344369411468506
15.45,-0.9260539412498474,7.661942958831787,-2.157780647277832,-0.08090900629758835,7.518447399139404,3.3085289001464844
15.475,-1.7760603427886963,7.0468363761901855,-2.3064663410186768,0.11849360913038254,6.961441993713379,3.4961936473846436
15.5,-2.846752643585205,6.019491195678711,-1.9888410568237305,0.20610804855823517,6.276394367218018,3.2432219982147217
15.525,-3.747406244277954,4.108142375946045,-1.2005391120910645,0.2778061628341675,5.817846298217773,2.8169915676116943
15.55,-4.002366542816162,1.0190430879592896,-0.05480670556426048,0.26749587059020996,5.821695804595947,2.6265811920166016
15.575,-3.7127695083618164,-1.9039851427078247,0.6923334002494812,0.2957630455493927,5.688168525695801,2.47983980178833
15.6,-3.5933477878570557,-3.587592601776123,0.7161731123924255,0.3107345402240753,5.1697611808776855,2.2260584831237793
15.625,-4.004779815673828,-4.599160671234131,0.5187142491340637,0.19818027317523956,4.462491512298584,1.9209860563278198
15.65,-4.474584102630615,-6.074551582336426,0.721134603023529,-0.016261253505945206,3.88297438621521,1.7561466693878174
15.675,-4.610777854919434,-7.85672664642334,1.039733648300171,-0.019990483298897743,3.4498422145843506,1.8109925985336304
15.7,-4.804148197174072,-9.071101188659668,0.924907922744751,0.2801087498664856,2.901585578918457,1.8841222524642944
15.725,-5.312319278717041,-9.55073070526123,0.6926220059394836,0.5928191542625427,1.930387020111084,1.8148757219314575
15.75,-5.863397121429443,-9.46676254272461,0.5616119503974915,0.8664604425430298,0.6437104940414429,1.6460975408554077
15.775,-6.261039733886719,-8.865151405334473,0.22141751646995544,1.1782304048538208,-0.40480703115463257,1.5446135997772217
15.8,-6.27873420715332,-7.604601860046387,-0.3565423786640167,1.3770047426223755,-1.1108524799346924,1.406352162361145
15.825,-5.922628402709961,-5.319772720336914,-0.9671463966369629,1.3383023738861084,-1.7650519609451294,0.9175336360931396
15.85,-5.204254627227783,-1.9861310720443726,-1.1587603092193604,1.0129199028015137,-2.4163496494293213,0.11145191639661789
15.875,-4.021732330322266,1.514679193496704,-0.34858033061027527,0.41172394156455994,-2.9189679622650146,-0.9071793556213379
15.9,-2.742600202560425,4.079412937164307,1.4356049299240112,-0.06302527338266373,-3.2511823177337646,-2.304023027420044
15.925,-2.054544687271118,5.983277320861816,3.2424745559692383,0.07988511025905609,-3.428231716156006,-3.92061185836792
15.95,-1.629928469657898,8.206249237060547,3.9486052989959717,0.6443051695823669,-3.567058801651001,-5.019375801086426
15.975,-0.7004016041755676,9.73748779296875,3.6647467613220215,0.5241968035697937,-3.6744110584259033,-5.107338905334473
16.0,-0.2500756084918976,8.823038101196289,3.007080078125,-0.6434236168861389,-3.266543388366699,-4.778428554534912
16.025,-0.8592516779899597,6.528507709503174,2.2853379249572754,-1.8471295833587646,-2.4428558349609375,-4.828307151794434
16.05,-1.0318361520767212,5.347095966339111,1.1551862955093384,-2.0300133228302,-2.2895853519439697,-5.192429542541504
16.075,0.16318300366401672,4.933763027191162,-0.26094284653663635,-1.7729260921478271,-2.899580717086792,-5.331749439239502
16.1,1.7690010070800781,4.019111156463623,-1.1192487478256226,-1.679883360862732,-3.6075332164764404,-5.037505149841309
16.125,3.045869827270508,2.478268623352051,-1.148249864578247,-1.6613428592681885,-4.261220932006836,-4.384227275848389
16.15,4.4097394943237305,0.17035861313343048,-0.5172862410545349,-1.763432502746582,-4.984812259674072,-3.300269603729248
16.175,5.469799995422363,-2.2191684246063232,0.6669910550117493,-1.9721989631652832,-5.404176712036133,-2.214275360107422
16.2,5.2146687507629395,-3.758176565170288,1.8442599773406982,-2.142615795135498,-5.149436950683594,-1.3217194080352783
16.225,4.0240960121154785,-4.199148178100586,2.349740982055664,-2.1218650341033936,-4.202867031097412,-0.35143423080444336
16.25,3.8706376552581787,-3.6866862773895264,2.2391035556793213,-1.9290683269500732,-3.0344128608703613,0.8614398241043091
16.275,4.833158493041992,-2.758294105529785,1.6027108430862427,-1.59024977684021,-1.3538422584533691,1.5972100496292114
16.3,4.944548606872559,-1.321402668952942,-0.46726489067077637,-0.9838745594024658,1.6437022686004639,1.7831523418426514
16.325,5.00519323348999,1.0367534160614014,-3.396744728088379,-0.6347344517707825,4.4306488037109375,2.1751606464385986
16.35,6.453134536743164,5.195204734802246,-5.924720764160156,-0.3274056315422058,5.323801040649414,2.8758351802825928
16.375,5.599416255950928,9.255694389343262,-6.9735636711120605,-0.09046433120965958,5.820979595184326,3.170896291732788
16.4,1.5451295375823975,8.426054954528809,-5.12413215637207,-0.5681985020637512,6.009957313537598,3.718409299850464
16.425,0.47611868381500244,3.532879114151001,-2.7408127784729004,-0.2650817334651947,4.034585952758789,5.194491386413574
16.45,2.4361770153045654,1.582879900932312,-2.5331850051879883,1.7824158668518066,2.0343830585479736,6.008356094360352
16.475,0.9459354877471924,1.8684654235839844,-2.2327067852020264,2.1330413818359375,2.8380870819091797,5.023863792419434
16.5,-2.981499195098877,-0.16219523549079895,-0.08410435169935226,0.60184246301651,4.138950824737549,4.108285427093506
16.525,-5.203371047973633,-3.820866346359253,2.57779860496521,-0.6488600969314575,4.412219047546387,4.008254528045654
16.55,-5.261791706085205,-5.9915313720703125,3.664560317993164,-0.5235856771469116,3.5275156497955322,3.85831880569458
16.575,-4.2341532707214355,-6.044917106628418,3.2030036449432373,0.41188520193099976,2.5789196491241455,3.3131070137023926
16.6,-2.3048548698425293,-6.362821578979492,2.2947213649749756,0.2747925817966461,1.822926640510559,2.534075975418091
16.625,-0.708203911781311,-6.2562255859375,0.9807852506637573,-0.49424004554748535,0.7517338395118713,1.3952651023864746
16.65,-0.4795525372028351,-4.250481605529785,-1.010448932647705,-0.2570379376411438,-0.01606736332178116,0.7014265656471252
16.675,-0.9874222278594971,-2.4774041175842285,-2.587069511413574,0.10873094946146011,-0.19329112768173218,0.767257571220398
16.7,-0.7686291933059692,-1.9268313646316528,-3.158580780029297,0.02264678105711937,-0.58741694688797,0.9031942486763
16.725,0.3805115222930908,-0.5777621269226074,-3.4798691272735596,0.16715748608112335,-0.7037692666053772,0.9405459761619568
16.75,1.430186152458191,0.7066876292228699,-2.8557956218719482,0.09632658958435059,-0.4405587613582611,1.0721421241760254
16.775,2.6030313968658447,0.4772223234176636,-1.4828165769577026,-0.7164154648780823,-0.3017464578151703,1.182488203048706
16.8,3.2344958782196045,1.3840007781982422,-1.318544626235962,-0.8276818990707397,-0.212616428732872,0.9228126406669617
16.825,1.681594967842102,2.989617347717285,-1.284389615058899,-1.2574799060821533,-0.05213640630245209,0.7971768379211426
16.85,-1.7441942691802979,2.793534517288208,0.5985662937164307,-2.6178078651428223,-0.19213463366031647,0.5363242030143738
16.875,-5.168434143066406,2.032804012298584,2.52771258354187,-2.625195264816284,-0.8093680143356323,0.12936615943908691
16.9,-6.597051620483398,2.521409511566162,1.5339813232421875,-0.7213656306266785,-1.6319823265075684,0.005715232342481613
16.925,-6.514101505279541,4.065568447113037,-0.9959580898284912,1.0641621351242065,-1.9906768798828125,0.21390390396118164
16.95,-5.620339870452881,4.2738118171691895,-1.4281927347183228,0.6169090270996094,-2.1542513370513916,0.37737807631492615
16.975,-2.696028232574463,2.699286699295044,-0.4992780387401581,-0.07829788327217102,-2.3127105236053467,0.8604394197463989
17.0,1.5468292236328125,1.4096719026565552,-0.3102986216545105,0.4914278984069824,-2.6721091270446777,1.4863996505737305
17.025,4.099176406860352,0.8875991702079773,0.5216436982154846,0.6027677655220032,-2.5414819717407227,1.613525390625
17.05,3.2812321186065674,-0.9948108196258545,3.198359966278076,-0.7355740666389465,-2.2547128200531006,1.177465558052063
17.075,1.1815555095672607,-3.0868749618530273,4.875921726226807,-1.1824215650558472,-1.9908355474472046,1.0740172863006592
17.1,-0.5429160594940186,-2.8629672527313232,4.04574728012085,-0.4387648105621338,-1.6777089834213257,1.2612009048461914
17.125,-1.72222900390625,-2.015303134918213,2.7060258388519287,-0.45538392663002014,-2.157975912094116,0.715028703212738
17.15,-2.1353983879089355,-1.9104185104370117,1.8546826839447021,-0.5959951281547546,-2.7050538063049316,0.10751456022262573
17.175,-1.8636537790298462,-1.7369319200515747,1.2693748474121094,-0.09912329167127609,-2.4493844509124756,-0.058797188103199005
17.2,-1.2677444219589233,-1.9809603691101074,1.9697402715682983,0.14138342440128326,-2.092076063156128,-0.24958178400993347
17.225,-0.5626108646392822,-1.3748939037322998,2.9353489875793457,0.6557258367538452,-1.9361646175384521,0.12148942798376083
17.25,-0.3889625668525696,-0.1944490224123001,3.574512243270874,0.7211856245994568,-1.9830350875854492,0.6220438480377197
17.275,-0.6664741635322571,0.6837258338928223,3.6332404613494873,0.4204047620296478,-1.859747290611267,0.8510078191757202
17.3,-1.2661445140838623,0.9860453605651855,2.9705004692077637,0.1852492243051529,-1.5400680303573608,0.8679165244102478
17.325,-1.8436298370361328,0.3726399540901184,2.153306007385254,0.03982475772500038,-1.4190549850463867,0.6439986228942871
17.35,-1.5958276987075806,-0.006310342811048031,1.0171416997909546,0.3087153136730194,-1.280884861946106,0.755821168422699
17.375,-1.0893959999084473,0.26401999592781067,-0.08288915455341339,0.5575818419456482,-1.1561634540557861,0.7994337677955627
17.4,-1.0200226306915283,0.3047761619091034,-0.5966246724128723,0.4658917188644409,-1.0768615007400513,0.5197115540504456
17.425,-1.0361056327819824,0.03833572566509247,-0.6582309603691101,0.3543536961078644,-1.1831638813018799,0.2743481397628784
17.45,-0.7933792471885681,0.2965516746044159,-0.493640273809433,0.3659956157207489,-1.3558696508407593,0.373491495847702
17.475,-0.7650198936462402,0.6039190888404846,-0.1485586166381836,0.5413464903831482,-1.6652023792266846,0.616252064704895
17.5,-1.2600712776184082,0.12303835898637772,0.4157251715660095,0.7447819113731384,-1.9162485599517822,0.6300876140594482
17.525,-1.8435600996017456,-0.2048129141330719,1.0478802919387817,0.8395777940750122,-1.6771410703659058,0.722123920917511
17.55,-2.1511125564575195,0.09982126951217651,1.359776258468628,0.931264340877533,-1.3104383945465088,0.6336126923561096
17.575,-2.0482592582702637,0.6127788424491882,1.175265908241272,0.9592692255973816,-0.985219419002533,0.28143030405044556
17.6,-1.2372304201126099,0.7297412753105164,0.9092604517936707,0.7551595568656921,-0.9565131664276123,-0.26428696513175964
17.625,0.3482179045677185,0.8793432116508484,0.6384793519973755,0.5131068825721741,-1.050827980041504,-0.4717574119567871
17.65,1.909780502319336,1.231059193611145,0.44425585865974426,0.3640095591545105,-1.1698180437088013,-0.6258254051208496
17.675,2.5178606510162354,1.529421091079712,0.30247563123703003,0.24918174743652344,-1.3505464792251587,-0.6294289827346802
17.7,2.1472105979919434,1.4888087511062622,0.2039339393377304,0.15128538012504578,-1.5517947673797607,-0.40496742725372314
17.725,1.4373621940612793,0.9155399203300476,0.4048834443092346,0.27437058091163635,-1.6086009740829468,-0.2648569345474243
17.75,0.7877387404441833,0.26420894265174866,0.8819554448127747,0.5970897078514099,-1.561706304550171,-0.15982140600681305
17.775,0.3821223974227905,-0.1362217366695404,1.3988580703735352,0.9387378692626953,-1.4500269889831543,-0.003271879628300667
17.8,0.15731367468833923,-0.6884411573410034,1.7262598276138306,1.2933349609375,-1.3528943061828613,-0.005407292395830154
17.825,0.25901591777801514,-0.920224130153656,1.5106210708618164,1.6239694356918335,-1.2224617004394531,0.12761296331882477
17.85,0.47567978501319885,-0.8344964981079102,1.1664701700210571,1.777146816253662,-1.1901605129241943,0.3129822313785553
17.875,0.5059398412704468,-1.3137569427490234,1.3932623863220215,1.8136001825332642,-1.2398040294647217,0.08825364708900452
17.9,0.8922129273414612,-1.302988886833191,2.018908977508545,1.8845574855804443,-1.4238022565841675,0.24792656302452087
17.925,1.7335584163665771,-0.33130329847335815,2.8422932624816895,1.8924306631088257,-1.6721123456954956,0.752871036529541
17.95,2.0740904808044434,-0.17427405714988708,3.3132057189941406,1.8545001745224,-1.5027719736099243,0.7374384999275208
17.975,1.884615421295166,-1.2919232845306396,2.9791011810302734,1.7587329149246216,-0.7594169974327087,0.3595866560935974
18.0,2.01335072517395,-1.9237709045410156,2.4029881954193115,1.4101678133010864,-0.21183434128761292,0.4721163213253021
18.025,2.497875452041626,-1.3323525190353394,1.6455094814300537,0.9619765877723694,-0.036548957228660583,0.9149532914161682
18.05,2.7321367263793945,-1.3218756914138794,0.49970754981040955,0.7271286845207214,-0.002266720635816455,0.3710426986217499
18.075,3.272841453552246,-1.5921871662139893,-0.34568193554878235,0.6062499284744263,-0.14342334866523743,-0.17336295545101166
18.1,4.236517906188965,-0.9945337176322937,-0.2944921553134918,0.3763650059700012,-0.5012343525886536,0.10995062440633774
18.125,4.360879421234131,-0.8723851442337036,0.0068941498175263405,0.22653013467788696,-0.6563150882720947,0.11998750269412994
18.15,3.074761390686035,-1.0897389650344849,-0.09103215485811234,0.15124045312404633,-0.8346031904220581,0.24570240080356598
18.175,1.0805429220199585,-0.00720415310934186,-0.8082091212272644,0.2065589427947998,-1.409142017364502,0.942695677280426
18.2,-0.44370871782302856,2.282242774963379,-1.9356715679168701,0.3963887691497803,-1.7758365869522095,1.3394215106964111
18.225,-1.22385573387146,4.285377502441406,-2.5698766708374023,0.23877973854541779,-1.8161394596099854,1.204348087310791
18.25,-1.7377865314483643,4.752419471740723,-2.3628458976745605,-0.16706138849258423,-1.906220555305481,0.7581585049629211
18.275,-2.21868634223938,3.8613626956939697,-1.774552345275879,-0.18938684463500977,-1.9848248958587646,0.06367532908916473
18.3,-2.602508068084717,3.2822506427764893,-1.2402358055114746,-0.05040692538022995,-2.031599283218384,-0.09194851666688919
18.325,-2.906709909439087,2.703578233718872,-0.9177504181861877,0.0045073190703988075,-1.9157041311264038,-0.17939789593219757
18.35,-3.302001476287842,0.982203483581543,-0.8463461995124817,-0.2534042298793793,-1.5041738748550415,-0.5050756335258484
18.375,-3.762256145477295,-1.0115463733673096,-0.8084968328475952,-0.7171555161476135,-1.0544441938400269,-0.7861122488975525
18.4,-3.913203001022339,-2.424617052078247,-0.7738421559333801,-0.9155856370925903,-0.7836531400680542,-1.277814269065857
18.425,-3.51656436920166,-3.4805264472961426,-0.8310760259628296,-0.7732428312301636,-0.6342728137969971,-1.9465197324752808
18.45,-3.132850170135498,-4.388082981109619,-0.38827040791511536,-0.7662086486816406,-0.6225365996360779,-2.4431068897247314
18.475,-3.1202073097229004,-4.514159202575684,0.5169780850410461,-0.988756000995636,-0.6455190777778625,-2.5727767944335938
18.5,-2.8134734630584717,-3.505671739578247,1.39395272731781,-1.0178836584091187,-0.6640174984931946,-2.494088888168335
18.525,-1.676316738128662,-1.25798499584198,2.1726441383361816,-1.2411001920700073,-0.6331952214241028,-2.067200183868408
18.55,0.009918706491589546,0.9591583609580994,2.5321168899536133,-1.6723765134811401,-0.26102471351623535,-1.6770955324172974
18.575,1.569549798965454,1.8885761499404907,2.5997211933135986,-1.853515625,0.3710883557796478,-1.557613492012024
18.6,2.462841749191284,2.6037755012512207,2.2526044845581055,-2.2000794410705566,1.2469357252120972,-1.2070128917694092
18.625,2.52262020111084,3.4618048667907715,0.5724442005157471,-2.253427267074585,2.054898977279663,-1.054327130317688
18.65,2.033968210220337,2.899616241455078,-1.8877384662628174,-1.6458896398544312,2.1819591522216797,-1.5065895318984985
18.675,1.617570161819458,0.9676424860954285,-3.268080234527588,-1.2104421854019165,2.090533494949341,-1.659988522529602
18.7,1.9346286058425903,-0.25577303767204285,-3.5259039402008057,-1.4034106731414795,2.48789119720459,-1.0148571729660034
18.725,2.4214706420898438,-0.4928183853626251,-3.645188570022583,-1.4106130599975586,2.539902448654175,-0.4300323724746704
18.75,2.4417848587036133,-0.5294223427772522,-3.912761926651001,-1.0581501722335815,2.0405449867248535,-0.5264376401901245
18.775,2.0990116596221924,-0.8971372842788696,-4.081969738006592,-0.603325605392456,1.2839019298553467,-0.6763994693756104
18.8,1.1808267831802368,-1.6910102367401123,-3.764749050140381,-0.14621593058109283,0.5040231347084045,-0.7776265144348145
18.825,0.7029779553413391,-1.3214936256408691,-3.178149461746216,-0.04489719867706299,0.18231166899204254,-0.241830974817276
18.85,1.1585800647735596,0.5500476360321045,-2.4180002212524414,-0.2926679849624634,0.14042696356773376,0.5809140205383301
18.875,0.9759927988052368,1.30706787109375,-1.297458291053772,-0.27059605717658997,-0.3949296772480011,0.24255038797855377
18.9,-0.4304327666759491,0.8112250566482544,-0.22064755856990814,-0.05949021130800247,-0.7580832839012146,-0.4235260486602783
18.925,-1.762758731842041,1.0657683610916138,0.3314042091369629,-0.08591896295547485,-0.5451511740684509,-0.19203995168209076
18.95,-2.5283896923065186,1.5531686544418335,0.7462325096130371,-0.21521441638469696,-0.5472898483276367,-0.1331457495689392
18.975,-3.093872547149658,1.2311433553695679,1.61392343044281,-0.24663539230823517,-0.8557097315788269,-0.425737202167511
19.0,-3.371689558029175,1.0983424186706543,2.54879093170166,-0.3381217420101166,-0.7602867484092712,-0.3180561363697052
19.025,-3.447348117828369,1.4295991659164429,2.4262843132019043,-0.47480469942092896,-0.35021376609802246,0.07560994476079941
19.05,-3.2899601459503174,1.209449052810669,1.3087332248687744,-0.3696479797363281,-0.352793425321579,0.12776486575603485
19.075,-2.343876361846924,1.1514054536819458,0.09244482964277267,-0.5039473176002502,-0.28307288885116577,0.5272886753082275
19.1,-1.6399348974227905,1.3206710815429688,-0.6876776218414307,-0.7579495310783386,0.03332927078008652,0.5458003878593445
19.125,-1.6945744752883911,0.8936529159545898,-0.7831052541732788,-0.7243120670318604,0.13406223058700562,0.11125823855400085
19.15,-2.072683811187744,-0.017172912135720253,-0.8076875805854797,-0.5221775770187378,0.09355879575014114,-0.22048109769821167
19.175,-2.493100881576538,-0.8750974535942078,-0.5296487212181091,-0.3645773231983185,0.0074831596575677395,-0.46384796500205994
19.2,-2.470541000366211,-1.3097068071365356,0.1449376493692398,-0.3313077390193939,0.02464631013572216,-0.4208206832408905
19.225,-2.2183303833007812,-1.064253807067871,1.0770761966705322,-0.4043407738208771,0.18707169592380524,-0.2072410136461258
19.25,-2.102811574935913,-0.8321112990379333,1.6651636362075806,-0.32987669110298157,0.38551613688468933,-0.2788284718990326
19.275,-1.7440259456634521,-0.6791360974311829,1.878551959991455,-0.28105226159095764,0.6296290159225464,-0.3531129062175751
19.3,-1.0786412954330444,-0.04894620180130005,1.5547982454299927,-0.30478107929229736,1.0647259950637817,-0.37561464309692383
19.325,-0.5895555019378662,0.7036162614822388,0.30827122926712036,-0.35067662596702576,1.2408933639526367,-0.45669206976890564
19.35,-0.1871098428964615,0.907994270324707,-1.168412685394287,-0.1981486678123474,0.8980615139007568,-0.6206143498420715
19.375,0.7804934978485107,1.0857226848602295,-2.521271228790283,-0.05512811616063118,0.6972172260284424,-0.44952020049095154
19.4,1.6227014064788818,1.263899564743042,-3.2845959663391113,0.07572224736213684,0.342338502407074,-0.3497290015220642
19.425,1.4906151294708252,0.6619546413421631,-2.623683214187622,0.23815017938613892,-0.3146427571773529,-0.7612364888191223
19.45,1.1076017618179321,-0.21791096031665802,-1.3879692554473877,0.2649666666984558,-0.6032189726829529,-0.8343251943588257
19.475,1.005340576171875,-1.1348354816436768,-0.6463528871536255,0.3698365092277527,-0.8277249932289124,-0.6080650687217712
19.5,0.8761906623840332,-1.840637445449829,-0.19035428762435913,0.5075529217720032,-1.0491095781326294,-0.4636549651622772
19.525,1.1257257461547852,-1.736694574356079,0.2514397203922272,0.5148245096206665,-1.1256097555160522,-0.1052628606557846
19.55,1.2864035367965698,-1.171274185180664,0.9646996259689331,0.5408175587654114,-1.219233512878418,0.11510255932807922
19.575,0.668800413608551,-0.7927301526069641,2.3169445991516113,0.5343425273895264,-1.4182335138320923,0.14460404217243195
19.6,-0.11989526450634003,-0.11946911364793777,4.574202060699463,0.35887718200683594,-1.3706562519073486,0.5241991877555847
19.625,-0.7348578572273254,0.6072919964790344,6.037863731384277,0.11087451875209808,-0.9489527940750122,0.8834959268569946
19.65,-1.5632230043411255,-0.12175887823104858,4.6389384269714355,0.15877646207809448,-0.6708645224571228,0.3372776508331299
19.675,-2.282304286956787,-1.5811891555786133,2.069469690322876,0.23360803723335266,-0.6301184892654419,-0.35587385296821594
19.7,-1.6967477798461914,-1.844853162765503,0.07281362265348434,0.03546878695487976,-0.7588745355606079,-0.18439514935016632
19.725,-0.13365666568279266,-0.9941284656524658,-0.8881433010101318,-0.0039404816925525665,-1.1339093446731567,0.2142055183649063
19.75,0.9889004826545715,0.06558790802955627,-0.8267679810523987,0.05027647688984871,-1.2602595090866089,0.4856385886669159
19.775,0.8926796913146973,0.9147130250930786,-0.14022095501422882,0.01065791118890047,-1.2317469120025635,0.6308568716049194
19.8,-0.06862806528806686,1.5941212177276611,-0.09375793486833572,-0.06911182403564453,-1.1950680017471313,0.6851521134376526
19.825,-0.8969167470932007,2.1105470657348633,-1.2117552757263184,-0.021299241110682487,-1.094747543334961,0.6563777327537537
19.85,-1.3115360736846924,2.326056480407715,-2.4896364212036133,0.05469121038913727,-0.9932698607444763,0.5005378127098083
19.875,-1.4145240783691406,2.6182734966278076,-3.0883731842041016,-0.16105346381664276,-1.0316669940948486,0.5067692399024963
19.9,-1.3500254154205322,3.2342541217803955,-2.8885743618011475,-0.4643564522266388,-1.1401333808898926,0.6563119888305664
19.925,-1.442636251449585,3.5522758960723877,-2.415130615234375,-0.44611331820487976,-1.07586669921875,0.5247125029563904
19.95,-1.7830772399902344,2.9828310012817383,-2.132000684738159,-0.21912464499473572,-0.8562116622924805,0.14363718032836914
19.975,-1.971724510192871,1.9285774230957031,-1.8736244440078735,-0.004663914907723665,-0.670922577381134,-0.2515352666378021
20.0,-1.7214728593826294,0.9601802229881287,-1.6294200420379639,0.10712727904319763,-0.5338999032974243,-0.509658932685852
20.025,-1.5605762004852295,-0.0483676940202713,-1.5635253190994263,0.2980214059352875,-0.4565030038356781,-0.7051292061805725
20.05,-1.697317361831665,-0.9293091297149658,-1.1731904745101929,0.4756171405315399,-0.23870521783828735,-0.7737488150596619
20.075,-1.479447364807129,-1.2974188327789307,-0.6271709203720093,0.47976797819137573,0.061776235699653625,-0.6819573640823364
20.1,-0.758888304233551,-1.3277819156646729,-0.6839330792427063,0.4584338068962097,0.25800490379333496,-0.6718810200691223
20.125,0.10491858422756195,-1.3459370136260986,-1.2250463962554932,0.37717118859291077,0.36107340455055237,-0.6745180487632751
20.15,0.5360264778137207,-1.5266413688659668,-1.5186786651611328,0.31666091084480286,0.29761531949043274,-0.653374195098877
20.175,0.7038333415985107,-1.4299061298370361,-1.4342366456985474,0.21951647102832794,0.3360460698604584,-0.5037598609924316
20.2,0.7368005514144897,-0.9601758122444153,-1.3646177053451538,0.16887174546718597,0.40313878655433655,-0.30201825499534607
20.225,0.8374654054641724,-0.3244297206401825,-1.562209963798523,0.15562112629413605,0.38733768463134766,-0.11412282288074493
20.25,1.0083378553390503,0.2222469300031662,-1.880271077156067,0.15844149887561798,0.24444562196731567,-0.03731248900294304
20.275,1.0157455205917358,0.35355833172798157,-1.8985670804977417,0.20140406489372253,0.05890979990363121,-0.08362043648958206
20.3,0.5993329286575317,0.068043552339077,-1.3995767831802368,0.24611923098564148,-0.07828200608491898,-0.24662309885025024
20.325,-0.3276178240776062,-0.33012303709983826,-0.5454078912734985,0.2740394175052643,-0.18147100508213043,-0.42793479561805725
20.35,-1.213963508605957,-0.4319639503955841,0.17364488542079926,0.21512873470783234,-0.15223051607608795,-0.4448472857475281
20.375,-1.4838436841964722,-0.17734049260616302,0.28563249111175537,0.10239145159721375,0.08319825679063797,-0.329061895608902
20.4,-1.5656832456588745,-0.16683486104011536,-0.1242930218577385,0.13323181867599487,0.17769622802734375,-0.3678717315196991
20.425,-1.7476928234100342,-0.42752087116241455,-0.40107181668281555,0.10055356472730637,0.1721125990152359,-0.440888375043869
20.45,-1.8895503282546997,-0.4966526925563812,-0.2578928768634796,-0.06166357919573784,0.26133397221565247,-0.3760404884815216
20.475,-1.9530582427978516,-0.32013800740242004,-0.011874886229634285,-0.10044873505830765,0.3036157786846161,-0.3204113841056824
20.5,-1.6069706678390503,-0.024226192384958267,-0.0016757494304329157,-0.07199680805206299,0.33407771587371826,-0.2070673257112503
20.525,-0.7923285365104675,0.24712656438350677,-0.3850770890712738,-0.09607694298028946,0.4767202138900757,-0.057043928653001785
20.55,-0.06785289198160172,0.2627171576023102,-0.9166808724403381,-0.0911915972828865,0.5076063275337219,-0.08232125639915466
20.575,0.7292085886001587,0.17755401134490967,-1.1559662818908691,-0.15346036851406097,0.406008243560791,0.08565940707921982
20.6,1.6016870737075806,0.2118786722421646,-1.1834404468536377,-0.14866791665554047,0.42783811688423157,0.34411120414733887
20.625,1.916918396949768,0.22247493267059326,-1.296069622039795,-0.06831628084182739,0.5207881927490234,0.35541096329689026
20.65,1.4015721082687378,-0.06509704887866974,-1.5728846788406372,0.06464456021785736,0.4400307238101959,0.22955334186553955
20.675,0.7598156332969666,-0.39260509610176086,-1.7241789102554321,0.12261314690113068,0.32806137204170227,0.32384756207466125
20.7,0.3185974359512329,-0.4032728672027588,-1.4404126405715942,0.15052469074726105,0.30539634823799133,0.5063524842262268
20.725,-0.06268350034952164,-0.1707564741373062,-0.9701155424118042,0.1873626708984375,0.26714977622032166,0.6309656500816345
20.75,-0.3281671404838562,0.09985154867172241,-0.6303010582923889,0.20201489329338074,0.1921480894088745,0.7118760347366333
20.775,-0.5408863425254822,0.3186292350292206,-0.4875269830226898,0.20541256666183472,0.1461712270975113,0.7089654803276062
20.8,-0.7460059523582458,0.42087459564208984,-0.5179439187049866,0.20802488923072815,0.16993534564971924,0.5977910161018372
20.825,-0.8300504088401794,0.3885793387889862,-0.7030077576637268,0.15560004115104675,0.20609848201274872,0.4337049126625061
20.85,-0.9322490096092224,0.06735123693943024,-0.9142600893974304,0.1545550376176834,0.07226501405239105,0.2064841091632843
20.875,-1.1348644495010376,-0.33723655343055725,-1.093810796737671,0.13435935974121094,-0.0837036669254303,0.07639306783676147
20.9,-1.2738983631134033,-0.3529769480228424,-1.0597448348999023,0.014087839983403683,-0.04924817383289337,0.09364650398492813
20.925,-1.2268716096878052,-0.07164870202541351,-0.7985472679138184,-0.09281574189662933,0.05268600583076477,0.18411415815353394
20.95,-1.376264214515686,-0.15498456358909607,-0.5762197375297546,-0.019773056730628014,-0.01363193430006504,0.09724181890487671
20.975,-1.7325785160064697,-0.5495129823684692,-0.31853556632995605,0.041652798652648926,-0.06441767513751984,-0.015562180429697037
21.0,-1.8584952354431152,-0.8074237108230591,0.08667205274105072,-0.06452484428882599,0.05901559814810753,0.037418920546770096
21.025,-1.7827494144439697,-0.794309675693512,0.3286142647266388,-0.19439080357551575,0.21734125912189484,0.09849698841571808
21.05,-1.7460891008377075,-0.6294288635253906,0.25759294629096985,-0.2798488140106201,0.29431310296058655,0.04369143769145012
21.075,-1.649783730506897,-0.4232950806617737,0.028998661786317825,-0.3356459140777588,0.3455004394054413,-0.056380804628133774
21.1,-1.3385764360427856,-0.18674948811531067,-0.10681644827127457,-0.4121093153953552,0.3592279851436615,-0.11458029597997665
21.125,-0.8909626007080078,0.1227865219116211,-0.11982543766498566,-0.4764827787876129,0.2735585868358612,-0.1924281120300293
21.15,-0.1553048938512802,0.6597948670387268,-0.21946141123771667,-0.6268908381462097,0.17894843220710754,-0.11758506298065186
21.175,0.7359324097633362,1.2667064666748047,-0.5634346604347229,-0.7740390300750732,-0.03314177691936493,0.034020982682704926
21.2,1.3700250387191772,1.8690396547317505,-0.8517639636993408,-0.8787981271743774,-0.20242725312709808,0.061487119644880295
21.225,1.5126546621322632,2.28442120552063,-0.9651102423667908,-0.8895202279090881,-0.2946416437625885,-0.026737285777926445
21.25,1.2724217176437378,2.184107780456543,-1.106868028640747,-0.6898312568664551,-0.43416422605514526,-0.13458633422851562
21.275,1.0213345289230347,1.7134486436843872,-1.218956708908081,-0.48478108644485474,-0.43856388330459595,-0.17968618869781494
21.3,0.7270727753639221,0.9736776351928711,-1.012032151222229,-0.37103837728500366,-0.44394436478614807,-0.2396509200334549
21.325,0.2973163425922394,0.0951051339507103,-0.4381745159626007,-0.27539700269699097,-0.5700076222419739,-0.2656007707118988
21.35,0.14636370539665222,-0.41922858357429504,0.33138415217399597,-0.2984488010406494,-0.6351588368415833,-0.0029976048972457647
21.375,0.4441932737827301,-0.4101247191429138,1.0008283853530884,-0.3440224230289459,-0.5844155550003052,0.4423898160457611
21.4,1.0185344219207764,-0.22112548351287842,1.2462153434753418,-0.2903302311897278,-0.5343287587165833,0.8778085708618164
21.425,1.486867904663086,-0.061730265617370605,1.07273268699646,-0.19522231817245483,-0.4754648804664612,1.0939576625823975
21.45,1.3901430368423462,-0.02955808863043785,0.8170826435089111,-0.10085049271583557,-0.4394800662994385,0.9880099892616272
21.475,0.9425435662269592,-0.2740916609764099,0.7593830823898315,0.04534761980175972,-0.4445308446884155,0.8210240006446838
21.5,0.8592031598091125,-0.5088233351707458,0.8418344259262085,0.061017025262117386,-0.2894497513771057,0.8170850276947021
21.525,1.0403528213500977,-0.5129165053367615,0.8993565440177917,0.019967040047049522,-0.16203133761882782,0.7985551953315735
21.55,0.9035395979881287,-0.6376037001609802,0.8721410036087036,0.11955630779266357,-0.3343042731285095,0.6437645554542542
21.575,0.5888792872428894,-0.9097146987915039,0.8030689358711243,0.21977101266384125,-0.6496841311454773,0.5367968082427979
21.6,0.6879222989082336,-0.8130855560302734,0.8413804173469543,0.11781059950590134,-0.8042477965354919,0.5932312607765198
21.625,1.1337711811065674,-0.313199907541275,1.0575628280639648,0.0022054617293179035,-0.8968482613563538,0.6772111058235168
21.65,1.3804008960723877,0.053171318024396896,1.2884936332702637,0.07755474001169205,-1.0707114934921265,0.624352753162384
21.675,1.162778377532959,-0.052906833589076996,1.389573097229004,0.26739147305488586,-1.266633152961731,0.4994520843029022
21.7,0.37267208099365234,-0.4160088300704956,1.513979434967041,0.3618054687976837,-1.3152996301651,0.3573647737503052
21.725,-0.9497825503349304,-0.555249035358429,1.8130807876586914,0.24443180859088898,-1.0947061777114868,0.24222922325134277
21.75,-2.092195510864258,-0.0860116258263588,2.2525997161865234,0.06698129326105118,-0.6636326909065247,0.1186026930809021
21.775,-2.1838629245758057,1.2179722785949707,2.638368844985962,-0.044851332902908325,-0.14484208822250366,-0.09802911430597305
21.8,-1.1403393745422363,2.3659701347351074,2.059343099594116,-0.07161476463079453,0.21239835023880005,-0.26523298025131226
21.825,0.002097609220072627,2.0489208698272705,-0.028919456526637077,0.20322278141975403,0.1580362319946289,-0.3210459053516388
21.85,0.3511142432689667,1.547133445739746,-2.4403162002563477,0.09067463129758835,0.39019882678985596,-0.4027334451675415
21.875,0.4474712610244751,1.8525598049163818,-4.206238269805908,-0.302639901638031,0.6731290817260742,-0.32398709654808044
21.9,0.9056622385978699,2.0524070262908936,-4.95119047164917,-0.25020575523376465,0.3896908462047577,-0.12021612375974655
21.925,1.6265558004379272,2.507615804672241,-4.330906867980957,-0.3221430778503418,0.34454748034477234,0.08617713302373886
21.95,2.0552175045013428,2.4938619136810303,-3.43149733543396,0.004757503047585487,0.31309154629707336,-0.10685142874717712
21.975,1.9581270217895508,1.4237020015716553,-3.110250949859619,0.6217607855796814,-0.026038119569420815,-0.42244115471839905
22.0,1.602046012878418,-0.01068152766674757,-3.14041805267334,0.9110103845596313,-0.3152247667312622,-0.6580748558044434
22.025,1.2829539775848389,-0.8937601447105408,-2.7262654304504395,0.8418498039245605,-0.3130885064601898,-0.9029783010482788
22.05,1.080937147140503,-1.250419020652771,-1.959376573562622,0.7032092213630676,-0.2487686276435852,-0.9994030594825745
22.075,0.881969690322876,-1.5159333944320679,-1.3315045833587646,0.7204744219779968,-0.2787413001060486,-0.9959307312965393
22.1,0.6765832304954529,-1.500592589378357,-0.8550896644592285,0.7089046239852905,-0.17077594995498657,-0.9260757565498352
22.125,0.4765823185443878,-1.1215544939041138,-0.2966197729110718,0.6256152391433716,-0.019655080512166023,-0.7444968223571777
22.15,0.49841687083244324,-0.6953058838844299,0.2423238605260849,0.5639955997467041,0.05065624788403511,-0.46871218085289
22.175,1.3033099174499512,-0.23754119873046875,0.27115023136138916,0.4906085133552551,0.3034067451953888,-0.14615756273269653
22.2,2.027524471282959,0.15021038055419922,-0.07433062046766281,0.6149806976318359,0.7149737477302551,-0.18328857421875
22.225,1.8320138454437256,0.2847452163696289,-0.31842026114463806,0.8385717272758484,0.9442151188850403,-0.4374346137046814
22.25,2.0577588081359863,0.5414113998413086,-0.6748407483100891,0.648198127746582,1.1348611116409302,-0.26775118708610535
22.275,3.098755359649658,1.088047981262207,-1.080667495727539,0.3795173168182373,1.3335894346237183,-0.049530498683452606
22.3,3.4053640365600586,1.6063977479934692,-1.235939621925354,0.43082812428474426,1.4036030769348145,-0.3081240653991699
22.325,2.7163000106811523,1.52680504322052,-1.160568356513977,0.6177398562431335,1.19851815700531,-0.7642368674278259
22.35,2.4391720294952393,1.1227331161499023,-1.3411238193511963,0.6814202070236206,0.9676949381828308,-0.9572069048881531
22.375,2.5359673500061035,0.7961243987083435,-1.4827487468719482,0.8236822485923767,0.7383420467376709,-1.1913233995437622
22.4,2.131746768951416,0.12002361565828323,-1.0591005086898804,1.1689696311950684,0.2833886444568634,-1.713022232055664
22.425,1.4691208600997925,-0.7911521792411804,-0.6788309216499329,1.350058674812317,-0.009857239201664925,-2.005350112915039
22.45,0.8206556439399719,-0.9709770083427429,-0.36192068457603455,1.4912995100021362,-0.15630951523780823,-2.1580777168273926
22.475,0.023081649094820023,-0.47507768869400024,0.1189553290605545,1.7179570198059082,-0.4598236382007599,-2.277653455734253
22.5,-1.0450249910354614,-0.25458332896232605,0.44702571630477905,1.8675122261047363,-0.8076211214065552,-2.3058321475982666
22.525,-1.542680025100708,-0.005145040340721607,0.27676594257354736,1.8001682758331299,-0.9256037473678589,-2.057081699371338
22.55,-1.095409870147705,0.7618018388748169,0.10450125485658646,1.425039529800415,-0.6914711594581604,-1.5645703077316284
22.575,-0.9957131147384644,1.1474629640579224,0.08813696354627609,1.262995958328247,-0.7264474630355835,-1.6211433410644531
22.6,-1.4337129592895508,0.9065467119216919,-0.02135731652379036,1.230224847793579,-0.8539820313453674,-1.8495584726333618
22.625,-1.4062445163726807,0.6784258484840393,-0.11719876527786255,1.0826051235198975,-0.6400080323219299,-1.7427952289581299
22.65,-1.4733591079711914,0.49329859018325806,0.009241392835974693,0.8870661854743958,-0.5609027147293091,-1.546112060546875
22.675,-2.1508846282958984,-0.046660441905260086,-0.12021645903587341,0.6617327928543091,-0.656943678855896,-1.2465804815292358
22.7,-2.293379068374634,-0.6762591004371643,-0.1227007508277893,0.16753746569156647,-0.27513864636421204,-0.37662389874458313
22.725,-1.8935809135437012,-1.0695372819900513,0.05630166828632355,-0.3199831545352936,-0.02469613216817379,0.3577386140823364
22.75,-1.616520643234253,-1.1906768083572388,0.07104667276144028,-0.39130687713623047,-0.1937328428030014,0.6497064828872681
22.775,-1.4771145582199097,-1.2843133211135864,-0.10876578092575073,-0.3467448651790619,-0.40891921520233154,0.8044448494911194
22.8,-1.1568255424499512,-1.4264317750930786,-0.3264703154563904,-0.5821627378463745,-0.5139264464378357,1.152961254119873
22.825,-0.648669958114624,-1.7176792621612549,-0.07065978646278381,-0.980372965335846,-0.46282923221588135,1.5652636289596558
22.85,0.06924353539943695,-2.0199010372161865,0.8430848121643066,-1.3536697626113892,-0.21904586255550385,1.84723961353302
22.875,0.7652992010116577,-1.6916494369506836,1.6961582899093628,-1.370262861251831,-0.06149670109152794,1.8329607248306274
22.9,0.4256916046142578,-0.8013476729393005,1.6989885568618774,-0.7664273977279663,-0.17883561551570892,1.2606511116027832
22.925,-0.8781135678291321,-0.113032266497612,0.7620883584022522,-0.2286531776189804,-0.43341031670570374,0.6372594237327576
22.95,-1.4896632432937622,0.23455142974853516,-0.2995959520339966,-0.2240796834230423,-0.41452309489250183,0.6573349833488464
22.975,-0.9216318130493164,0.5677785873413086,-0.5741458535194397,-0.6102825999259949,-0.17375022172927856,1.079006552696228
23.0,-0.3799976408481598,0.789401113986969,-0.4129507541656494,-0.7004426717758179,-0.21982260048389435,1.095523476600647
23.025,-0.30986538529396057,0.6265926361083984,-0.3182336986064911,-0.5499550700187683,-0.3318057656288147,0.8447403311729431
23.05,-0.0713040754199028,0.34212014079093933,-0.41785600781440735,-0.5242519378662109,-0.36851006746292114,0.7944605350494385
23.075,0.2650415599346161,0.2808503806591034,-0.45363903045654297,-0.6032750606536865,-0.3450269103050232,0.8136071562767029
23.1,0.38850751519203186,0.31081199645996094,-0.1773330718278885,-0.5879955887794495,-0.33476826548576355,0.7309205532073975
23.125,0.5728079676628113,0.29532530903816223,0.12126432359218597,-0.4795132279396057,-0.374906986951828,0.6547853350639343
23.15,0.559063196182251,0.23844245076179504,-0.048558879643678665,-0.20957182347774506,-0.434050053358078,0.46498045325279236
23.175,0.0619378462433815,0.2787275016307831,-0.40926316380500793,0.04646889120340347,-0.39181891083717346,0.27111315727233887
23.2,-0.28512850403785706,0.49621108174324036,-0.33918190002441406,-0.11683222651481628,-0.24973329901695251,0.3820478022098541
23.225,-4.050055395055097e-06,0.7940760850906372,-0.03500595688819885,-0.272321879863739,-0.11517821252346039,0.5297555327415466
23.25,0.42929840087890625,0.9100180864334106,-0.14665590226650238,0.027226261794567108,-0.06319860368967056,0.37062832713127136
23.275,0.440176784992218,0.5249947905540466,-0.8343732357025146,0.5115993618965149,-0.14131689071655273,-0.06345763057470322
23.3,0.44050174951553345,-0.043851062655448914,-1.3574570417404175,0.44489237666130066,-0.1942848265171051,-0.2902667820453644
23.325,0.8163836002349854,-0.1838914453983307,-1.1281495094299316,-0.1376543939113617,-0.08824235945940018,-0.1996333748102188
23.35,0.8672663569450378,-0.020339107140898705,-0.7834234833717346,-0.2941036522388458,-0.1542115956544876,-0.3482702672481537
23.375,0.4876398742198944,-0.04403603449463844,-0.9991336464881897,-0.02326175943017006,-0.3437904119491577,-0.6180143356323242
23.4,0.10446953773498535,-0.33998414874076843,-1.388203740119934,0.05646652728319168,-0.4680953919887543,-0.7468763589859009
23.425,0.18801353871822357,-0.4002535045146942,-1.2432719469070435,-0.21268798410892487,-0.41622257232666016,-0.5562891960144043
23.45,0.6388550996780396,-0.3782045245170593,-0.9965544939041138,-0.279837042093277,-0.37647703289985657,-0.35346361994743347
23.475,0.8834829330444336,-0.4715406596660614,-1.284001111984253,-0.12252277135848999,-0.5142423510551453,-0.3155529797077179
23.5,0.7799510359764099,-0.5227577686309814,-1.5960259437561035,-0.04137735813856125,-0.6354718208312988,-0.2665127217769623
23.525,0.9111148715019226,-0.18834421038627625,-1.5282093286514282,-0.14295591413974762,-0.6136748790740967,-0.02455224096775055
23.55,1.140444040298462,0.4935673773288727,-1.3086857795715332,-0.13155432045459747,-0.7427846193313599,0.10796257853507996
23.575,0.6081907749176025,1.1625452041625977,-1.2953386306762695,-0.061545319855213165,-1.0963821411132812,0.05572625249624252
23.6,-0.8504207730293274,1.6544848680496216,-1.4697685241699219,-0.16935870051383972,-1.2743664979934692,0.1766749918460846
23.625,-2.08916974067688,1.9960452318191528,-1.0698193311691284,-0.4518192708492279,-0.9984156489372253,0.5331305861473083
23.65,-2.045605182647705,2.2556259632110596,0.2892218828201294,-0.6748390793800354,-0.5035578608512878,0.8160692453384399
23.675,-1.5102428197860718,1.6821082830429077,0.8943435549736023,-0.05709933117032051,-0.6010478734970093,0.49009859561920166
23.7,-1.196181297302246,0.5080328583717346,0.15384432673454285,0.589293897151947,-0.7590585350990295,0.00818761344999075
23.725,-1.1176159381866455,-0.06815054267644882,-0.14076389372348785,0.31873083114624023,-0.6013412475585938,-0.06365218013525009
23.75,-1.3596394062042236,-0.10626598447561264,0.45549076795578003,0.008132323622703552,-0.29031604528427124,0.014208575710654259
23.775,-1.3953781127929688,-0.13745585083961487,0.8612244129180908,0.17524105310440063,-0.021181311458349228,0.07121431827545166
23.8,-0.8849374055862427,-0.2178458571434021,0.7176377773284912,0.33514901995658875,0.11565220355987549,0.12863221764564514
23.825,-0.279407262802124,-0.519381582736969,0.20522397756576538,0.3215089440345764,0.059657447040081024,0.05728653073310852
23.85,0.6302818059921265,-0.6388588547706604,0.11354588717222214,-0.1011597216129303,0.11946036666631699,0.09391846507787704
23.875,1.3736828565597534,-0.47414112091064453,0.4019991159439087,-0.421342134475708,0.14628282189369202,0.09924469888210297
23.9,1.2686073780059814,-0.3748159408569336,0.33274590969085693,-0.33807051181793213,-0.055897850543260574,-0.10354116559028625
23.925,0.8268328905105591,-0.26024341583251953,0.28225237131118774,-0.3427237272262573,-0.2757405638694763,-0.19572481513023376
23.95,0.5462070107460022,-0.061936333775520325,0.4294809103012085,-0.42554429173469543,-0.35019680857658386,-0.12357675284147263
23.975,0.100563645362854,0.04533294960856438,0.30380871891975403,-0.2905985713005066,-0.42942360043525696,-0.06302959471940994
