Time [s],Acc_x [m/s^2],Acc_y [m/s^2],Acc_z [m/s^2],Gyro_x [1/s],Gyro_y [1/s],Gyro_z [1/s]
0.0,-0.13782641291618347,-0.058032989501953125,-0.021310998126864433,-0.027538422495126724,0.011962144635617733,-0.08529374748468399
0.05,0.06678847223520279,0.041998863220214844,0.08654329180717468,0.00025311997160315514,0.013913505710661411,0.02075362391769886
0.1,0.35976964235305786,0.015557294711470604,-0.02911481261253357,0.025638869032263756,0.015318850055336952,0.08638617396354675
0.15,0.013688409700989723,0.055141448974609375,0.016263870522379875,0.036162957549095154,0.006608983501791954,-0.0255020372569561
0.2,0.011908311396837234,0.023482322692871094,0.03077705018222332,-0.011832157149910927,0.00869950745254755,-0.016679182648658752
0.25,0.1927233785390854,0.2615518569946289,0.07766854017972946,-0.03065977431833744,0.026891307905316353,0.0014022960094735026
0.3,0.1022714376449585,0.09431838989257812,0.05206289887428284,-0.08569122105836868,0.03499354422092438,-0.08994005620479584
0.35,0.22626525163650513,0.6526222229003906,0.12735572457313538,-0.09903088957071304,0.03720790892839432,-0.07074093073606491
0.4,0.3436272442340851,0.5205821990966797,0.350265771150589,-0.27099207043647766,0.06069687753915787,-0.05892255902290344
0.45,0.19284288585186005,0.6212873458862305,0.01402965560555458,-0.3262469470500946,0.05875581130385399,-0.0886894017457962
0.5,0.14663170278072357,0.5536117553710938,-0.06147293746471405,-0.41735634207725525,0.06831249594688416,-0.04886023327708244
0.55,0.1263543963432312,0.38958072662353516,-0.041770968586206436,-0.4926320016384125,0.10778221487998962,0.029223162680864334
0.6,0.053856462240219116,0.47268009185791016,-0.047079604119062424,-0.5471436977386475,0.14429321885108948,0.07011250406503677
0.65,0.12580880522727966,0.35035037994384766,0.052252430468797684,-0.6234459280967712,0.14476297795772552,0.021471533924341202
0.7,-0.10360423475503922,0.21720314025878906,0.012655126862227917,-0.6856452226638794,0.1539464294910431,-0.03193655237555504
0.75,0.057810794562101364,0.11521054059267044,-0.12323115020990372,-0.7134914398193359,0.14191168546676636,-0.028575312346220016
0.8,0.06786131858825684,0.1153726652264595,-0.21967510879039764,-0.7236666083335876,0.1483677178621292,-0.031524818390607834
0.85,0.23167210817337036,-0.0761251375079155,-0.15577366948127747,-0.7584885358810425,0.12025166302919388,-0.054427724331617355
0.9,0.215363010764122,-0.2389669269323349,-0.36226800084114075,-0.7588270306587219,0.12284251302480698,-0.05153616890311241
0.95,0.15071189403533936,-0.258087158203125,-0.2638784945011139,-0.7418184280395508,0.13071037828922272,0.011407915502786636
1.0,0.13925164937973022,-0.11931513249874115,-0.37793007493019104,-0.702395498752594,0.1570911705493927,0.09184860438108444
1.05,0.2280115783214569,-0.12696455419063568,-0.3266313970088959,-0.7432428002357483,0.130469411611557,0.07885194569826126
1.1,0.1555987149477005,-0.13158319890499115,-0.26164084672927856,-0.7495628595352173,0.16361908614635468,0.10144267231225967
1.15,0.1625562161207199,-0.0948333665728569,-0.1513369083404541,-0.7485160827636719,0.2085840255022049,0.13147211074829102
1.2,0.15634110569953918,-0.043133728206157684,-0.23282961547374725,-0.7565882205963135,0.22933466732501984,0.10249394923448563
1.25,0.19388115406036377,-0.13005352020263672,-0.17252342402935028,-0.7633082866668701,0.2587948739528656,0.07803884893655777
1.3,0.14251407980918884,-0.24306201934814453,-0.09911323338747025,-0.7607030868530273,0.26043084263801575,0.03328943997621536
1.35,0.1166028380393982,-0.24277019500732422,-0.042955342680215836,-0.700142502784729,0.27723222970962524,0.042810626327991486
1.4,0.14397750794887543,-0.16939163208007812,-0.16262800991535187,-0.6465953588485718,0.2697257995605469,0.012090870179235935
1.45,0.07322230935096741,-0.07653140276670456,-0.1542183756828308,-0.6573693156242371,0.18703341484069824,-0.04960202798247337
1.5,0.0026067974977195263,-0.09057331085205078,-0.019317295402288437,-0.6440871357917786,0.14611127972602844,-0.07456778734922409
1.55,0.07545755803585052,-0.21770381927490234,-0.032407671213150024,-0.616482675075531,0.10634485632181168,-0.0950583815574646
1.6,0.09869135171175003,-0.21165847778320312,-0.13588082790374756,-0.5829756855964661,0.06051343306899071,-0.10626974701881409
1.65,-0.05851888656616211,-0.31475162506103516,-0.12508836388587952,-0.5459671020507812,0.0019422430777922273,-0.09478504955768585
1.7,-0.07102145254611969,-0.22430038452148438,0.043893903493881226,-0.49907422065734863,-0.025585131719708443,-0.12676912546157837
1.75,0.03305487707257271,-0.2907066345214844,-0.11475936323404312,-0.36808860301971436,0.033020760864019394,-0.09046662598848343
1.8,0.1095377653837204,-0.2169322967529297,-0.07436196506023407,-0.3406655192375183,-0.045321568846702576,-0.10126340389251709
1.85,0.09345858544111252,-0.196990966796875,0.13680888712406158,-0.30904480814933777,-0.09781266003847122,-0.08709452301263809
1.9,0.15602970123291016,-0.12650012969970703,-0.17771117389202118,-0.1925165057182312,-0.0409712940454483,-0.03631234169006348
1.95,0.019435375928878784,-0.0688018798828125,-0.07252458482980728,-0.18470372259616852,-0.06717003881931305,-0.059377167373895645
2.0,0.0865694135427475,-0.016264909878373146,-0.14562512934207916,-0.13988928496837616,-0.04563672095537186,-0.05237570032477379
2.05,0.25453099608421326,0.03211880847811699,-0.2513750195503235,-0.16127002239227295,-0.09669113159179688,-0.04576919600367546
2.1,0.09394804388284683,0.0025901813060045242,-0.02628067135810852,-0.17616631090641022,-0.09401829540729523,-0.03413417190313339
2.15,0.12389423698186874,-0.08945178985595703,-0.027214406058192253,-0.16063615679740906,-0.06904427707195282,-0.02150842733681202
2.2,0.06572241336107254,-0.013661382719874382,-0.026574362069368362,-0.10046971589326859,-0.006685358937829733,0.013195592910051346
2.25,0.0903763696551323,0.13301372528076172,-0.16030727326869965,-0.0835225060582161,0.015010455623269081,0.03750615194439888
2.3,0.1054285317659378,0.06035805121064186,-0.04566536843776703,-0.09523619711399078,0.019858507439494133,0.04187580198049545
2.35,0.11490751802921295,0.009776119142770767,-0.08339330554008484,-0.07400419563055038,0.015016830526292324,0.01658107154071331
2.4,0.017617683857679367,0.06148052588105202,-0.16426444053649902,-0.056276097893714905,-0.0010751060908660293,-0.01367059163749218
2.45,0.08241522312164307,-0.010849948972463608,-0.115903839468956,-0.059204861521720886,-0.014664889313280582,0.0005453410558402538
2.5,0.12764540314674377,-0.05890750512480736,-0.11429660767316818,-0.04806879162788391,-0.011725985445082188,0.02599349617958069
2.55,0.10379230231046677,-0.010226243175566196,-0.18178631365299225,-0.03208881616592407,-0.009451855905354023,0.030427638441324234
2.6,0.12938985228538513,-0.015243525616824627,-0.1303378939628601,-0.024788107722997665,-0.016840044409036636,0.01641300693154335
2.65,0.08928397297859192,-0.009433742612600327,-0.09190218895673752,-0.0202432069927454,-0.015098366886377335,-0.007264906540513039
2.7,0.10806529223918915,0.0046377237886190414,-0.1497529298067093,-0.007628673687577248,-0.01086974237114191,-0.014798659831285477
2.75,0.09126822650432587,0.009904866106808186,-0.13300807774066925,-0.006424064747989178,-0.010113096795976162,-0.008182712830603123
2.8,0.1193566769361496,-0.00016498200420755893,-0.08083032816648483,-0.011566601693630219,-0.01079332921653986,0.005918616894632578
2.85,0.06654241681098938,0.00071239861426875,-0.11395727097988129,-0.007780751213431358,-0.009824473410844803,0.015082300640642643
2.9,0.053134992718696594,-0.011860843747854233,-0.1053142249584198,-0.014321195892989635,-0.03133818134665489,0.009525910951197147
2.95,0.12060736864805222,0.019921308383345604,-0.1714247614145279,-0.0004135696217417717,-0.012094858102500439,0.00714081572368741
3.0,0.06872043758630753,0.009556775912642479,-0.16213759779930115,0.0008252246771007776,-0.007381926290690899,0.001925156218931079
3.05,0.03736633062362671,0.01935291662812233,-0.09467538446187973,-0.0065744416788220406,-0.02024453692138195,-0.0013758757850155234
3.1,0.020376775413751602,0.03896999731659889,-0.09950975328683853,-0.007354430854320526,-0.018743909895420074,0.0016573249595239758
3.15,0.04810855910181999,0.0561523474752903,-0.10859569907188416,-0.006778113543987274,-0.027232700958848,0.006455441936850548
3.2,0.09176386892795563,0.05054855719208717,-0.059802114963531494,-0.0033720647916197777,-0.024369407445192337,0.0025514548178762197
3.25,0.010550113394856453,0.054409027099609375,-0.018825197592377663,-0.005941465962678194,-0.017633654177188873,0.0023390708956867456
3.3,0.02161983773112297,0.09504985809326172,-0.10805533081293106,-0.007255244068801403,-0.017185425385832787,0.0055823177099227905
3.35,-0.008501376956701279,0.13107967376708984,-0.0835939571261406,-0.015212544240057468,-0.02123531699180603,0.00799586158245802
3.4,0.06576600670814514,0.09389973431825638,-0.1464274376630783,-0.026549745351076126,-0.029919371008872986,0.0130150793120265
3.45,0.07878845930099487,0.020255092531442642,-0.10788138210773468,-0.038904935121536255,-0.033329885452985764,0.011514442972838879
3.5,0.04455718398094177,0.1084432601928711,-0.11033948510885239,-0.045878879725933075,-0.031148288398981094,0.010618151165544987
3.55,0.040206801146268845,0.028780940920114517,-0.09615248441696167,-0.047754500061273575,-0.0330737866461277,0.006958824582397938
3.6,0.08742363005876541,0.0356292761862278,-0.1234271228313446,-0.04570302367210388,-0.023330776020884514,0.005513250362128019
3.65,0.05930929258465767,0.1386728286743164,-0.10620952397584915,-0.06170913949608803,-0.04004563018679619,-0.00141344522126019
3.7,0.11972019821405411,0.08338452130556107,-0.2085859179496765,-0.08660408854484558,-0.05660945177078247,-0.010688826441764832
3.75,0.09593119472265244,-0.00956439133733511,-0.26878881454467773,-0.10064750164747238,-0.055360663682222366,-0.016549458727240562
3.8,0.06903886049985886,-0.10216807574033737,-0.11793054640293121,-0.1079106256365776,-0.05951601266860962,-0.014985514804720879
3.85,0.10476159304380417,-0.06531333178281784,-0.12250252813100815,-0.08378148078918457,-0.05261027812957764,-0.0005103235016576946
3.9,0.08678710460662842,0.003796584904193878,-0.23261980712413788,-0.04602426663041115,-0.043402593582868576,0.013071189634501934
3.95,0.08817166835069656,0.08380413800477982,-0.36239972710609436,-0.02666471153497696,-0.05392058938741684,0.01791614480316639
4.0,0.047072868794202805,0.07577324658632278,-0.25894102454185486,-0.035629503428936005,-0.06855227798223495,0.011330784298479557
4.05,0.03633526340126991,0.07127857953310013,-0.18758980929851532,-0.04516592249274254,-0.08105368912220001,8.920711115933955e-05
4.1,0.07016273587942123,0.03650379553437233,-0.17305156588554382,-0.052788302302360535,-0.08811908960342407,-0.014476249925792217
4.15,-0.04845193400979042,0.01423740480095148,-0.04105519503355026,-0.05503808706998825,-0.09557464718818665,-0.03484843671321869
4.2,0.00799978245049715,0.016246795654296875,0.008359448052942753,-0.04364908114075661,-0.09304032474756241,-0.040260761976242065
4.25,0.12688687443733215,0.011734013445675373,-0.1050327867269516,-0.03917848691344261,-0.07273272424936295,-0.043220389634370804
4.3,0.09203797578811646,0.012268067337572575,0.014537155628204346,-0.06480391323566437,-0.07005594670772552,-0.04394557699561119
4.35,0.14318706095218658,0.0850362777709961,0.07130581885576248,-0.07908865809440613,-0.06346644461154938,-0.026825645938515663
4.4,-0.006019016727805138,0.06196308135986328,0.06144231557846069,-0.08936180174350739,-0.05523683875799179,-0.019917335361242294
4.45,0.021887652575969696,-0.02964210696518421,0.04591306298971176,-0.09739866107702255,-0.041710153222084045,-0.016120614483952522
4.5,0.053229980170726776,-0.11039257049560547,0.13765087723731995,-0.10130460560321808,-0.047395359724760056,-0.010852614417672157
4.55,0.012979773804545403,-0.1016855239868164,0.029762377962470055,-0.0600651353597641,-0.026318585500121117,0.01185672264546156
4.6,0.03711480647325516,-0.08462047576904297,-0.07178733497858047,-0.02227449230849743,-0.0038751005195081234,0.021464455872774124
4.65,0.02725820429623127,-0.08384990692138672,0.06145264208316803,-0.00785190612077713,-0.026908813044428825,0.009829330258071423
4.7,0.05758253484964371,-0.046029090881347656,0.00367353530600667,0.024610113352537155,-0.04639007896184921,0.009966100566089153
4.75,0.14327621459960938,-0.0140457134693861,-0.0054387119598686695,0.06564685702323914,-0.022661129012703896,0.01695639081299305
4.8,0.1374770849943161,0.04817485809326172,0.01696278341114521,0.09803987294435501,0.021442368626594543,0.015030195005238056
4.85,0.051939837634563446,0.08211231231689453,-0.01739199087023735,0.11840445548295975,0.036784280091524124,0.0032880466897040606
4.9,0.024588558822870255,0.032584190368652344,-0.03466613218188286,0.12918512523174286,0.033939603716135025,-0.008364777080714703
4.95,0.07279271632432938,-0.05845832824707031,-0.03115100972354412,0.1614401489496231,0.0789722204208374,0.00576328719034791
5.0,0.08169454336166382,-0.06593799591064453,-0.08420389890670776,0.22622933983802795,0.16789676249027252,0.04992174729704857
5.05,0.055221471935510635,-0.020508762449026108,-0.1218719631433487,0.2579086422920227,0.22098886966705322,0.07098834216594696
5.1,-0.06263580918312073,-0.10058784484863281,0.07922455668449402,0.24426314234733582,0.1956900656223297,0.04881424456834793
5.15,-0.09112584590911865,-0.18602466583251953,0.13233499228954315,0.30686187744140625,0.18296298384666443,0.06894208490848541
5.2,-0.1257052719593048,-0.2765693664550781,-0.01068491954356432,0.3807412385940552,0.12358424067497253,0.11468613892793655
5.25,-0.22396472096443176,-0.4024801254272461,-0.01808292791247368,0.38954538106918335,-0.026935739442706108,0.1354956328868866
5.3,-0.32895708084106445,-0.8405027389526367,0.10402285307645798,0.46135640144348145,-0.1078404039144516,0.17849847674369812
5.35,-0.29373911023139954,-1.5735559463500977,0.3797244131565094,0.6337555050849915,-0.11963261663913727,0.2878638505935669
5.4,-0.08762824535369873,-1.492619514465332,0.1109171137213707,0.9700236320495605,-0.056052807718515396,0.5224878191947937
5.45,-0.1279941201210022,-0.6641702651977539,-0.7310678362846375,1.2356842756271362,-0.13416758179664612,0.7313935160636902
5.5,-0.29877421259880066,0.03461267054080963,-0.6992462873458862,1.1898267269134521,-0.4156172573566437,0.7179487943649292
5.55,-0.0961180180311203,1.0879907608032227,-0.2770552933216095,1.118062138557434,-0.5013224482536316,0.6267094612121582
5.6,0.10147936642169952,1.5789728164672852,0.08825075626373291,0.9688738584518433,-0.5899001359939575,0.3363621234893799
5.65,0.25449103116989136,0.9563112258911133,0.3949408233165741,0.7511206269264221,-0.5909302234649658,-0.03613390401005745
5.7,0.4290856719017029,0.38509654998779297,0.1287381798028946,0.6126582622528076,-0.37361401319503784,-0.15550392866134644
5.75,0.4720345735549927,0.17769336700439453,0.17921997606754303,0.49149948358535767,-0.29083946347236633,-0.1503620594739914
5.8,0.33222195506095886,0.2908773422241211,0.2627316117286682,0.40656810998916626,-0.1886657178401947,-0.06264539808034897
5.85,0.12206174433231354,0.34267711639404297,0.166260227560997,0.2629128694534302,-0.08271414041519165,-0.04829246178269386
5.9,-0.05917802453041077,0.2703723907470703,-0.18948635458946228,0.10212510824203491,-0.0362018421292305,-0.09057453274726868
5.95,-0.13756301999092102,-0.0854177474975586,-0.09798088669776917,0.001982893794775009,0.007511444389820099,-0.04125813767313957
6.0,-0.000372420996427536,0.013790128752589226,0.054869864135980606,-0.01111975684762001,0.07377490401268005,0.08528215438127518
6.05,0.14049316942691803,0.4178457260131836,-0.16539448499679565,-0.027690013870596886,0.0850667729973793,0.14630499482154846
6.1,-0.011637840420007706,0.3732280731201172,-0.047605399042367935,-0.12792645394802094,0.043513763695955276,0.0792890340089798
6.15,-0.06921733170747757,0.49474620819091797,0.015830732882022858,-0.22993259131908417,0.033160243183374405,-0.014118797145783901
6.2,0.04134863615036011,0.3564310073852539,-0.14257632195949554,-0.32247528433799744,0.020670190453529358,-0.11163391172885895
6.25,0.20924487709999084,-0.058136940002441406,0.09222754836082458,-0.4091816842556,0.025491997599601746,-0.16137954592704773
6.3,0.4262958765029907,-0.04050732031464577,0.32681697607040405,-0.44577890634536743,0.16261602938175201,-0.1031690388917923
6.35,0.3465423882007599,0.09071540832519531,0.2698056697845459,-0.484708696603775,0.3327709436416626,-0.06950294226408005
6.4,0.07730893790721893,-0.03048325702548027,0.4276399612426758,-0.5316024422645569,0.4418964087963104,-0.09635067731142044
6.45,-0.056347161531448364,-0.05385495349764824,0.43830162286758423,-0.4976904094219208,0.5902686715126038,-0.07640506327152252
6.5,-0.05268251895904541,-0.005444529466331005,0.08574563264846802,-0.4507192373275757,0.6755579710006714,-0.06739702820777893
6.55,-0.06535636633634567,-0.29929256439208984,-0.2344788759946823,-0.43111202120780945,0.6873759031295776,-0.06849220395088196
6.6,-0.15287204086780548,-0.6301488876342773,-0.23464566469192505,-0.41062718629837036,0.6551836729049683,-0.051803793758153915
6.65,-0.22336235642433167,-0.6209192276000977,-0.265139102935791,-0.32633981108665466,0.5599950551986694,-0.007158806547522545
6.7,-0.4648217558860779,-0.33060359954833984,-0.37643274664878845,-0.1948235034942627,0.40639281272888184,0.01940755359828472
6.75,-0.5603075623512268,0.11893653869628906,-0.25719887018203735,-0.10318903625011444,0.2232799232006073,0.018195264041423798
6.8,-0.30657759308815,0.23589801788330078,-0.17571377754211426,-0.04556341469287872,0.11566522717475891,0.028330625966191292
6.85,-0.2940482199192047,0.20571517944335938,-0.15490660071372986,-0.0845826268196106,0.0032249344512820244,-0.006310800090432167
6.9,-0.21908071637153625,0.0962839126586914,0.014867345802485943,-0.1773061752319336,-0.08432081341743469,-0.02869538776576519
6.95,-0.23202934861183167,-0.08974839001893997,0.03396528586745262,-0.21630416810512543,-0.10516314953565598,-0.033651985228061676
7.0,-0.17223018407821655,-0.057305339723825455,0.07363495230674744,-0.2101874053478241,-0.14761997759342194,-0.04266027733683586
7.05,-0.07079605758190155,-0.017756469547748566,0.21910281479358673,-0.17411185801029205,-0.14966945350170135,-0.013493069447577
7.1,-0.010355368256568909,0.15456485748291016,0.2658992111682892,-0.16159304976463318,-0.15407517552375793,-0.040138013660907745
7.15,-0.10921844094991684,0.17319677770137787,0.23679159581661224,-0.14110253751277924,-0.09540122747421265,-0.07285039126873016
7.2,-0.13522152602672577,0.022895801812410355,0.367653489112854,-0.13604839146137238,-0.09489912539720535,-0.08960164338350296
7.25,0.026364658027887344,-0.12838363647460938,0.13351264595985413,-0.10225501656532288,-0.1190234124660492,-0.07936445623636246
7.3,-0.15052945911884308,-0.3910493850708008,0.013954891823232174,-0.08252741396427155,-0.12414365261793137,-0.07027338445186615
7.35,-0.2547721862792969,-0.32591819763183594,0.353025883436203,-0.023207830265164375,-0.11257292330265045,-0.041082996875047684
7.4,-0.30400609970092773,-0.20309355854988098,0.9811071157455444,0.12587884068489075,-0.06424915045499802,0.00935053639113903
7.45,-0.32391929626464844,-0.08528043329715729,0.48281511664390564,0.3169576823711395,-0.05537889525294304,0.03734704852104187
7.5,-0.15419471263885498,-0.09751797467470169,0.15434208512306213,0.3694583475589752,-0.22848331928253174,0.014738128520548344
7.55,-0.13914518058300018,-0.22949792444705963,0.2578255534172058,0.3640468418598175,-0.4529440104961395,-0.020269347354769707
7.6,-0.3665182292461395,-0.19417667388916016,0.08632150292396545,0.38747310638427734,-0.5737751722335815,-0.028821932151913643
7.65,-0.5253298282623291,-0.2583913803100586,-0.008850418031215668,0.41817647218704224,-0.7124890089035034,-0.03245680779218674
7.7,-0.8928450345993042,0.1340188980102539,-0.28060710430145264,0.5376240611076355,-0.795542299747467,0.10324561595916748
7.75,-1.2194329500198364,0.4515047073364258,-0.3527557849884033,0.5138229727745056,-1.0264606475830078,0.2194225937128067
7.8,-0.8112624287605286,0.6717672348022461,-0.594480037689209,0.37703466415405273,-1.2808780670166016,0.22083209455013275
7.85,-0.18190054595470428,0.7779207229614258,-0.5918228030204773,0.2539260685443878,-1.481443166732788,0.10712561011314392
7.9,0.029681377112865448,0.6193647384643555,-0.33408358693122864,0.10785210132598877,-1.6296910047531128,-0.11891016364097595
7.95,0.38962358236312866,0.2659511864185333,-0.44807547330856323,0.07898320257663727,-1.5041990280151367,-0.11917944252490997
8.0,0.8900229930877686,-0.3017244338989258,0.12388957291841507,0.05918765440583229,-1.2416596412658691,0.028113793581724167
8.05,1.0674799680709839,-0.44402214884757996,-0.11277605593204498,0.09931451082229614,-0.8996336460113525,0.16193780303001404
8.1,1.22120201587677,-0.2714528739452362,-0.25211066007614136,0.0906541645526886,-0.657184362411499,0.18275482952594757
8.15,0.6909223198890686,-0.3998432159423828,0.14043942093849182,0.06254284083843231,-0.5119896531105042,0.1341000497341156
8.2,0.3498702645301819,-0.2722921371459961,0.39111387729644775,0.07405809313058853,-0.3206811547279358,0.23783855140209198
8.25,0.5257989168167114,0.1236429288983345,0.01405629888176918,0.0965677797794342,-0.26558011770248413,0.21700476109981537
8.3,0.8975356817245483,-0.03371619060635567,0.007591514848172665,0.1368386149406433,-0.298032283782959,0.07032541185617447
8.35,0.7926464080810547,0.20273877680301666,-0.02753179706633091,0.14912468194961548,-0.3419046700000763,-0.17825081944465637
8.4,0.424056738615036,0.10203266143798828,0.20181342959403992,0.1382192224264145,-0.22949127852916718,-0.26977020502090454
8.45,0.5316983461380005,-0.028079036623239517,0.34068116545677185,0.13264667987823486,0.0866091400384903,-0.11861034482717514
8.5,1.2409026622772217,0.1431760936975479,-0.21922504901885986,0.08564569056034088,0.41906845569610596,0.02034018747508526
8.55,0.8442742228507996,-0.2870349884033203,0.4234730005264282,-0.00881342776119709,0.5643923282623291,-0.08648904412984848
8.6,0.3008301258087158,-0.6751413345336914,1.1144766807556152,0.004785838536918163,0.8756256103515625,0.020378608256578445
8.65,0.3116866946220398,-0.5589389801025391,1.1421394348144531,0.16050849854946136,1.1994547843933105,0.2686209976673126
8.7,-0.13205857574939728,-0.1693611443042755,0.8617318272590637,0.33065661787986755,1.2453346252441406,0.23501601815223694
8.75,-0.29599782824516296,-0.29799941182136536,0.8246116042137146,0.3987938165664673,1.1293294429779053,0.11253629624843597
8.8,-0.22565723955631256,-0.4495220184326172,0.413022518157959,0.4612623155117035,0.965837299823761,0.00900998618453741
8.85,-0.34621021151542664,-0.3264932632446289,0.22181500494480133,0.49620354175567627,0.7563291788101196,-0.12158740311861038
8.9,-0.5850028991699219,-0.1343526989221573,0.406112402677536,0.5182703733444214,0.5927234888076782,-0.20208638906478882
8.95,-0.36352628469467163,0.22660349309444427,0.5642542839050293,0.6149777173995972,0.6379834413528442,-0.037551503628492355
9.0,-0.3121410608291626,0.07275866717100143,0.05772281810641289,0.6946412920951843,0.5423070192337036,-0.05103471875190735
9.05,-0.40334388613700867,-0.042302124202251434,-0.47108781337738037,0.664801299571991,0.3274611830711365,-0.18117229640483856
9.1,-0.35408902168273926,-0.325347900390625,-0.32204949855804443,0.5988305807113647,0.11082999408245087,-0.3204347789287567
9.15,-0.3877961039543152,-0.05374430865049362,-0.4384647011756897,0.6222754120826721,-0.03400231525301933,-0.3558415174484253
9.2,-0.33013445138931274,-0.17194174230098724,-0.5291110277175903,0.603959321975708,-0.18866011500358582,-0.35448336601257324
9.25,-0.3590679168701172,-0.24067209661006927,-0.8247630596160889,0.6182087659835815,-0.31061437726020813,-0.3593597412109375
9.3,-0.17035484313964844,-0.43038174510002136,-1.130738377571106,0.656276285648346,-0.3637118637561798,-0.2705691456794739
9.35,-0.6471691727638245,0.312930166721344,-1.9542417526245117,0.6847525238990784,-0.37240999937057495,-0.11112860590219498
9.4,-0.3409245014190674,0.3440561890602112,-1.8085321187973022,0.5161886215209961,-0.42898157238960266,-0.06338317692279816
9.45,-0.9382437467575073,0.4447355568408966,-1.4557669162750244,0.4140348732471466,-0.3377593755722046,0.0897187888622284
9.5,-0.4037300646305084,0.7271166443824768,-1.4398306608200073,0.3623417615890503,-0.2020520716905594,0.4693833589553833
9.55,-0.8963394165039062,0.8206510543823242,-1.301957607269287,0.1158171072602272,-0.2575870454311371,-0.002313316101208329
9.6,-0.5789580345153809,0.09336376190185547,-0.36084479093551636,-0.11194019019603729,-0.36455732583999634,-0.5063092112541199
9.65,-0.3149515390396118,-0.12446212768554688,-0.1484616994857788,-0.04407453536987305,-0.35387369990348816,-0.37729424238204956
9.7,-0.24725522100925446,0.06469345092773438,-0.0008355508907698095,0.01939726620912552,-0.4577581286430359,-0.33150044083595276
9.75,-0.26088857650756836,0.04777812585234642,-0.016467927023768425,0.03350257873535156,-0.5975531339645386,-0.5432099103927612
9.8,-0.018938705325126648,-0.24129866063594818,-0.46333539485931396,0.008751586079597473,-0.6488267183303833,-0.46525466442108154
9.85,0.038764894008636475,-0.5876426696777344,-0.7010615468025208,-0.04713411629199982,-0.602348804473877,-0.2100123018026352
9.9,0.6543684005737305,-0.771263062953949,-1.0172752141952515,-0.1312144249677658,-0.476157009601593,0.1352558135986328
9.95,0.524878740310669,-0.7583093047142029,-1.6058183908462524,-0.22859840095043182,-0.2842652499675751,0.13949690759181976
10.0,0.9673804044723511,-0.3573235869407654,-1.5051110982894897,-0.3324163556098938,-0.07640985399484634,0.23371651768684387
10.05,0.8905562162399292,-0.3204421401023865,-1.8689758777618408,-0.4464132785797119,0.11458836495876312,0.2945379912853241
10.1,1.0371419191360474,0.6732779145240784,-1.7164056301116943,-0.5943431258201599,0.2851182818412781,0.31177183985710144
10.15,0.7512400150299072,0.19323638081550598,-0.8497918844223022,-0.7913793921470642,0.2893639802932739,0.02852029539644718
10.2,0.7680275440216064,0.3376961052417755,-0.7966747283935547,-0.8700782060623169,0.40630123019218445,0.21163542568683624
10.25,0.22013667225837708,0.19085311889648438,0.1307944655418396,-0.9329338073730469,0.4455767869949341,0.22998492419719696
10.3,0.4077034592628479,0.08094311505556107,-0.05162971839308739,-0.9114619493484497,0.5875127911567688,0.4496152997016907
10.35,0.45848387479782104,0.16829775273799896,0.6789605617523193,-0.8444737195968628,0.6065629720687866,0.5519908666610718
10.4,-0.052329957485198975,0.20392414927482605,0.8820968866348267,-0.7560168504714966,0.6321531534194946,0.62671959400177
10.45,0.23658323287963867,0.11241241544485092,1.4062268733978271,-0.671067476272583,0.7844580411911011,0.7730024456977844
10.5,-0.04839709401130676,0.37227723002433777,1.1145685911178589,-0.6052150130271912,0.8809908032417297,0.6028221845626831
10.55,-0.08641320466995239,0.4589366614818573,1.1361982822418213,-0.6309553384780884,0.8022149205207825,0.39598366618156433
10.6,0.09875212609767914,0.2233571857213974,0.4838942885398865,-0.6445070505142212,0.8350943922996521,0.43802860379219055
10.65,-1.0975756645202637,1.0866737365722656,1.058039665222168,-0.6183673739433289,0.9779470562934875,0.43780317902565
10.7,-0.2673376202583313,1.1285438537597656,1.0843812227249146,-0.5520671010017395,1.2151637077331543,0.4464074671268463
10.75,-0.6686487793922424,0.9961528182029724,1.3834596872329712,-0.6624104380607605,1.1684632301330566,0.11836164444684982
10.8,-0.08101385831832886,1.0156965255737305,0.21276326477527618,-0.6979247331619263,1.2150260210037231,-0.06940626353025436
10.85,-0.20462217926979065,0.15082262456417084,0.3474949300289154,-0.9723074436187744,0.7666146159172058,-0.49074849486351013
10.9,-0.5452919006347656,-0.7995824813842773,0.3643403947353363,-1.0465741157531738,0.47825297713279724,-0.5534284710884094
10.95,-0.9617869257926941,-1.3710927963256836,0.40870794653892517,-0.9487003684043884,0.3594389259815216,-0.49244242906570435
11.0,-0.6691651344299316,-1.5199289321899414,0.5033698678016663,-0.7160301208496094,0.25551560521125793,-0.25542691349983215
11.05,-0.5990816950798035,-0.9135723114013672,-0.5273927450180054,-0.4190276265144348,0.16862910985946655,-0.07702802121639252
11.1,-0.49988794326782227,-0.519627571105957,-0.22061710059642792,-0.35801711678504944,-0.05290098860859871,0.004236413631588221
11.15,-0.13431143760681152,-0.27074432373046875,0.07269393652677536,-0.21108493208885193,-0.07900993525981903,0.09791529178619385
11.2,-0.17665602266788483,-0.5604372024536133,0.3594144582748413,0.007294842973351479,-0.13203838467597961,0.05197984352707863
11.25,-0.550555944442749,-0.5083818435668945,0.29427823424339294,0.2447221279144287,-0.17799019813537598,-0.01544918678700924
11.3,-0.2424168586730957,-0.07065485417842865,-0.623652994632721,0.37861311435699463,-0.21062833070755005,0.02268165536224842
11.35,-0.14574836194515228,0.050267238169908524,-0.6850247383117676,0.2569463849067688,-0.3888096213340759,-0.03737187013030052
11.4,-0.24706968665122986,0.15103721618652344,0.08133171498775482,0.1540333330631256,-0.42361974716186523,-0.039766114205121994
11.45,0.33148902654647827,0.17565347254276276,-0.3715253472328186,0.26432254910469055,-0.18639101088047028,0.12743869423866272
11.5,0.4600217342376709,0.6941738128662109,-0.1740439087152481,0.06550008058547974,-0.233830064535141,0.12978965044021606
11.55,0.39715510606765747,0.35023975372314453,-0.18470646440982819,-0.25766101479530334,-0.30319491028785706,0.014775170013308525
11.6,-0.13639885187149048,0.31500720977783203,0.17508564889431,-0.4427189230918884,-0.2723418176174164,-0.11361559480428696
11.65,-0.3271367847919464,0.27437686920166016,0.273866206407547,-0.3919871747493744,-0.05280621722340584,-0.01331348903477192
11.7,-0.059372495859861374,0.16362762451171875,-0.083835668861866,-0.324868768453598,0.09863497316837311,-0.023158926516771317
11.75,-0.013788769021630287,-0.15752220153808594,-0.07524683326482773,-0.29717645049095154,0.11906342953443527,-0.09360118210315704
11.8,0.051679544150829315,-0.11850165575742722,-0.267821341753006,-0.3010774850845337,0.024478837847709656,-0.16211548447608948
11.85,-0.1323835700750351,-0.18042659759521484,0.0015973879490047693,-0.36580702662467957,-0.08651639521121979,-0.2000676393508911
11.9,-0.18480297923088074,-0.09913159161806107,0.1795506626367569,-0.320792555809021,-0.15428049862384796,-0.20442041754722595
11.95,-0.0480806902050972,-0.16369915008544922,-0.28855666518211365,-0.20135334134101868,-0.06326489895582199,-0.16803844273090363
12.0,0.02057378739118576,-0.3104429244995117,0.17076899111270905,-0.2510850429534912,-0.17723894119262695,-0.1576700508594513
12.05,-0.17440415918827057,-0.19386768341064453,0.10348793119192123,-0.17649459838867188,-0.13396073877811432,-0.14080283045768738
12.1,0.1857624053955078,-0.04346369951963425,-0.18961107730865479,-0.08889483660459518,-0.002379662822932005,-0.060596760362386703
12.15,-0.12299446761608124,0.005122173577547073,0.3496881425380707,-0.11033409833908081,0.006057410966604948,-0.023511327803134918
12.2,-0.06968854367733002,0.16013336181640625,0.13926085829734802,-0.01760270446538925,0.10111811757087708,0.015520499087870121
12.25,0.24014858901500702,0.2827882766723633,-0.24292200803756714,0.08173069357872009,0.15611377358436584,-0.01997579075396061
12.3,-0.3927125334739685,0.177459716796875,0.0643436387181282,-0.032766394317150116,-0.03766705095767975,-0.1832188218832016
12.35,-0.02193981409072876,0.10495281964540482,-0.4065207242965698,-0.11704998463392258,-0.16406601667404175,-0.1997661292552948
12.4,-0.0518864169716835,-0.3160676956176758,-0.22433942556381226,-0.14723488688468933,-0.14075146615505219,-0.11939690262079239
12.45,-0.19792355597019196,-0.11804390698671341,0.06366901844739914,-0.21077860891819,-0.25903624296188354,-0.09106036275625229
12.5,-0.419493705034256,0.12589550018310547,-0.08165818452835083,-0.09787899255752563,-0.14270974695682526,-0.009959510527551174
12.55,-0.06270559877157211,0.08594418317079544,-0.26732581853866577,-0.02450989931821823,-0.028169728815555573,0.04182816669344902
12.6,-0.11811356246471405,-0.00229453993961215,-0.06975196301937103,-0.08551570028066635,-0.118514284491539,-0.021381106227636337
12.65,-0.07401616871356964,0.08311271667480469,-0.12522633373737335,-0.08079252392053604,-0.13019509613513947,-0.027548905462026596
12.7,-0.06175179407000542,-0.02001762203872204,-0.09264754503965378,-0.04747533053159714,-0.04372525215148926,0.005601192358881235
12.75,-0.21270540356636047,-0.0414428748190403,0.09035159647464752,-0.047880128026008606,-0.03919371962547302,-0.030152739956974983
12.8,-0.12838341295719147,-0.0850076675415039,0.044474903494119644,-0.026255469769239426,-0.08175817877054214,-0.03664235398173332
12.85,0.021974101662635803,-0.09123896807432175,-0.1777154505252838,0.03293107450008392,-0.028244713321328163,0.004553881473839283
12.9,-0.009154461324214935,0.06819629669189453,0.020179850980639458,0.03900670260190964,0.006959779653698206,0.0022912921849638224
12.95,-0.07970142364501953,0.07468509674072266,0.003619516734033823,0.04013705626130104,0.022365208715200424,-0.0013307949993759394
13.0,-0.1702985018491745,0.029535293579101562,-0.07278446853160858,0.03831131011247635,0.020530015230178833,-0.006892307195812464
13.05,-0.10980572551488876,-0.19838333129882812,-0.00630264962092042,0.023176278918981552,0.005630682688206434,-0.005965863354504108
13.1,-0.03708966076374054,-0.17710208892822266,-0.08045926690101624,0.02848163992166519,-0.008701012469828129,0.017031723633408546
13.15,0.03312268853187561,-0.1619882583618164,-0.12936431169509888,0.03307216987013817,-0.062305670231580734,0.04033371061086655
13.2,-0.14313426613807678,-0.20141029357910156,0.10315154492855072,0.024629764258861542,-0.20069414377212524,-0.011952657252550125
13.25,-0.16841252148151398,-0.19349956512451172,0.026412563398480415,0.07204604148864746,-0.3034762144088745,-0.05516593158245087
13.3,0.06399229913949966,-0.11294269561767578,0.153575599193573,0.18467897176742554,-0.2133188247680664,-0.02857924811542034
13.35,0.26513490080833435,-0.17172908782958984,-0.12232516705989838,0.28437745571136475,-0.04666270688176155,-0.0037878467701375484
13.4,-0.09043274074792862,-0.2074880599975586,0.17150631546974182,0.31079941987991333,0.030142029747366905,-0.03522256761789322
13.45,-0.377888947725296,-0.46657657623291016,0.338713139295578,0.4029976725578308,0.1306769996881485,0.0021947810892015696
13.5,-0.7336053848266602,-0.8965272903442383,0.32728317379951477,0.6539918184280396,0.33145371079444885,0.1513880044221878
13.55,-1.007836103439331,-0.5987071990966797,0.08918814361095428,0.9268032908439636,0.31423521041870117,0.25942832231521606
13.6,-0.2920491099357605,-0.8339624404907227,-0.12606221437454224,1.0538725852966309,0.08450610190629959,0.23787032067775726
13.65,0.07693900167942047,-0.9998912811279297,0.06578639149665833,1.1888585090637207,-0.0318237729370594,0.1416631042957306
13.7,-0.14581674337387085,-0.7392635345458984,0.21647970378398895,1.36678147315979,-0.13547711074352264,0.02091618999838829
13.75,-0.2720642685890198,-0.26259803771972656,0.19347946345806122,1.5210951566696167,-0.26850250363349915,-0.059119828045368195
13.8,0.25977152585983276,0.20107364654541016,0.21202881634235382,1.5768563747406006,-0.27920427918434143,0.006394914351403713
13.85,-0.06739065796136856,0.6428518295288086,-0.09750532358884811,1.4473564624786377,-0.28669723868370056,0.015111139975488186
13.9,0.041449304670095444,0.8157739639282227,0.13338497281074524,1.1867866516113281,-0.32727763056755066,0.003961523529142141
13.95,0.16855742037296295,0.9731664657592773,0.14923083782196045,0.9063469767570496,-0.3948173522949219,-0.0639369934797287
14.0,0.21636492013931274,0.46648693084716797,0.42016905546188354,0.6000967025756836,-0.4785846769809723,-0.2812266945838928
14.05,0.18487387895584106,0.6430339813232422,0.5455542206764221,0.4742765426635742,-0.3459385931491852,-0.24980349838733673
14.1,0.20534244179725647,0.7692499160766602,0.17839035391807556,0.37727558612823486,-0.22351795434951782,-0.2904958426952362
14.15,0.02685323730111122,0.7863588333129883,0.14828279614448547,0.29967230558395386,-0.10080532729625702,-0.378734827041626
14.2,-0.1062227189540863,0.4497966766357422,0.30128014087677,0.12276970595121384,-0.061964280903339386,-0.532177746295929
14.25,0.027203410863876343,0.11544989794492722,0.4134066700935364,0.0007367879152297974,-0.05585743486881256,-0.5466318130493164
14.3,0.18856096267700195,-0.30860042572021484,0.2719164490699768,-0.02019330859184265,0.01333760004490614,-0.3738519251346588
14.35,-0.10483291745185852,-0.3573751449584961,0.24059048295021057,0.0429413877427578,0.08402322232723236,-0.25051555037498474
14.4,-0.17642417550086975,-0.38333797454833984,0.15468847751617432,0.17254476249217987,0.10148536413908005,-0.08793503046035767
14.45,0.255773663520813,-0.06010817363858223,-0.2300911247730255,0.28591808676719666,0.08334045857191086,0.021745236590504646
14.5,0.15549015998840332,0.3364381790161133,-0.3764476478099823,0.25718802213668823,0.05681523308157921,-0.06632988154888153
14.55,-0.15152409672737122,0.3557729721069336,-0.2636965215206146,0.13232554495334625,0.03570231795310974,-0.20496879518032074
14.6,-0.1972929835319519,0.0013637555530294776,-0.1358725130558014,0.04276546463370323,0.021882198750972748,-0.24833174049854279
14.65,0.00639691948890686,-0.026028627529740334,-0.20917338132858276,0.020198781043291092,0.031163930892944336,-0.15242013335227966
14.7,0.03209850192070007,0.08153248578310013,-0.3226582407951355,0.053262658417224884,0.04576946422457695,0.018662022426724434
14.75,-0.024761080741882324,0.17239665985107422,-0.2835860848426819,0.025960680097341537,0.011590230278670788,0.1064588874578476
14.8,-0.08030450344085693,0.4275541305541992,-0.19181226193904877,-0.036426298320293427,-0.048733893781900406,0.12874054908752441
14.85,-0.020807936787605286,0.7401571273803711,0.011206425726413727,-0.14156219363212585,-0.10268683731555939,0.08961757272481918
14.9,-0.20613771677017212,0.7358388900756836,0.1249067559838295,-0.24300484359264374,-0.11435017734766006,0.05853412672877312
14.95,-0.1867692768573761,0.6760520935058594,0.11236745119094849,-0.3534587621688843,-0.1280847191810608,0.06288640946149826
15.0,-0.1801777482032776,0.7033662796020508,0.04442531615495682,-0.47997820377349854,-0.1335272490978241,0.07307381182909012
15.05,-0.025030262768268585,0.6647701263427734,0.16252084076404572,-0.6617135405540466,-0.16844548285007477,0.0603809617459774
15.1,0.16988444328308105,0.6187448501586914,0.39661893248558044,-0.8181024789810181,-0.14507107436656952,0.11058684438467026
15.15,0.41715866327285767,0.6549615859985352,0.46589750051498413,-0.9662210941314697,-0.053815051913261414,0.1745554506778717
15.2,0.514788806438446,0.6016321182250977,0.49489012360572815,-1.0870620012283325,0.11994434148073196,0.2799939811229706
15.25,0.49677610397338867,0.22399425506591797,0.3202701508998871,-1.2047545909881592,0.28440406918525696,0.30346089601516724
15.3,0.5367677211761475,-0.11529541015625,0.3468889892101288,-1.303810715675354,0.42092984914779663,0.2625739276409149
15.35,0.07920393347740173,-0.28379154205322266,0.06493978947401047,-1.3087221384048462,0.5992117524147034,0.23933722078800201
15.4,-0.12271928042173386,-0.7681741714477539,-0.13351407647132874,-1.284098744392395,0.6598583459854126,0.209215447306633
15.45,-0.07289529591798782,-1.2101755142211914,-0.24179890751838684,-1.1722885370254517,0.6588735580444336,0.22822414338588715
15.5,-0.07724009454250336,-1.125208854675293,-0.46681299805641174,-0.9996984004974365,0.5622785687446594,0.2270120233297348
15.55,-0.3091089129447937,-0.9991512298583984,-0.5845390558242798,-0.8515409231185913,0.3192180395126343,0.13494016230106354
15.6,-0.3847365081310272,-0.6781034469604492,-0.5171798467636108,-0.6828582286834717,0.08603977411985397,0.04614369943737984
15.65,-0.7301661372184753,-0.13651275634765625,-0.37541693449020386,-0.4653959274291992,-0.022266749292612076,-0.03616940975189209
15.7,-0.7909352779388428,-0.064270980656147,-0.05268361046910286,-0.2795885503292084,-0.11101984232664108,-0.1007375717163086
15.75,-0.37566906213760376,-0.05138016119599342,-0.0680689662694931,-0.1575128436088562,-0.24268151819705963,-0.15570640563964844
15.8,0.13042427599430084,-0.08622074127197266,-0.039162248373031616,-0.1457105129957199,-0.40323349833488464,-0.20571520924568176
15.85,0.10568781197071075,-0.17998409271240234,0.13146868348121643,-0.2067321389913559,-0.5288228988647461,-0.23882164061069489
15.9,0.17708420753479004,-0.15454579889774323,0.4233621656894684,-0.2726498544216156,-0.5969639420509338,-0.21876190602779388
15.95,0.18261441588401794,-0.09090901166200638,0.48246297240257263,-0.19907844066619873,-0.39134103059768677,-0.10647298395633698
16.0,0.06310488283634186,-0.06122303754091263,0.2527627944946289,-0.1155848503112793,-0.19190263748168945,-0.0008395371260121465
16.05,0.03303489834070206,-0.06776905059814453,0.09574640542268753,-0.12461519241333008,-0.17928920686244965,0.02278243564069271
16.1,0.1002337709069252,0.018001556396484375,0.025809522718191147,-0.1432688683271408,-0.17257510125637054,0.005121952388435602
16.15,-0.03282452002167702,0.02296924591064453,-0.0012165580410510302,-0.14994139969348907,-0.1463690996170044,-0.0062849936075508595
16.2,-0.08253654837608337,0.012707709334790707,0.00337744178250432,-0.12650589644908905,-0.09104262292385101,-0.0056759146973490715
16.25,-0.10939253866672516,0.0078506451100111,0.015317656099796295,-0.07608290016651154,-0.02178988792002201,0.0018306330312043428
16.3,-0.08432607352733612,0.01110172364860773,-0.05681907385587692,-0.06212080270051956,-0.03958911448717117,-0.013545876368880272
16.35,-0.04254833608865738,-0.026251791045069695,-0.060142628848552704,-0.037000108510255814,-0.03006688877940178,-0.017981860786676407
16.4,-0.10152865946292877,-0.007834435440599918,-0.026489945128560066,-0.01525014080107212,-0.011571181938052177,-0.010955622419714928
16.45,-0.035794273018836975,0.005265235435217619,0.005996073596179485,-0.007288925349712372,-0.004158355295658112,0.005806394852697849
16.5,0.05192038416862488,0.036889076232910156,-0.0017985746962949634,-0.0028966767713427544,0.004489741288125515,0.011346842162311077
16.55,-0.009883606806397438,0.01620960235595703,-0.01578865572810173,-0.00820316094905138,0.013004511594772339,0.0060335746966302395
16.6,0.09518542885780334,-0.06284236907958984,0.05894947797060013,-0.015568377450108528,0.009023848921060562,-0.010544490069150925
16.65,0.05973367393016815,-0.06778430938720703,-0.04090281203389168,0.0028730183839797974,0.01640021800994873,-0.0227150097489357
16.7,-0.02686307579278946,0.029679302126169205,-0.16277280449867249,0.01614154875278473,-0.0002326593385078013,-0.02478865161538124
16.75,0.06748224794864655,0.07768822461366653,-0.18926666676998138,0.004638860002160072,-0.039406150579452515,-0.02102075330913067
16.8,0.10715373605489731,0.014655116014182568,-0.04776209592819214,-0.029943451285362244,-0.07046638429164886,-0.013933748938143253
16.85,0.05882936716079712,-0.023728370666503906,-0.004403526894748211,-0.038091741502285004,-0.06096487119793892,-0.0019045453518629074
16.9,0.0733216181397438,-0.008268355391919613,-0.013424009084701538,-0.03358086198568344,-0.05604146420955658,-0.0019774509128183126
16.95,0.054818522185087204,0.028688430786132812,-0.008226090110838413,-0.0314050167798996,-0.05209581181406975,-0.0037337446119636297
17.0,0.02677103877067566,0.03836536407470703,-0.01149513479322195,-0.03785652667284012,-0.061255306005477905,-0.01923683099448681
17.05,0.009688879363238811,0.06146812438964844,-0.062254030257463455,-0.041182681918144226,-0.059667475521564484,-0.031515635550022125
17.1,0.08780562877655029,-0.038863178342580795,-0.032743778079748154,-0.038121454417705536,-0.04278437793254852,-0.03610873967409134
17.15,0.07756489515304565,-0.15596485137939453,-0.07789577543735504,-0.02015824057161808,-0.03770216926932335,-0.050816185772418976
17.2,-0.026007629930973053,-0.25874805450439453,-0.13159559667110443,0.03258451074361801,-0.035486672073602676,-0.05909821391105652
17.25,-0.025414295494556427,-0.35817909240722656,2.6574860385153443e-05,0.10744797438383102,-0.029274430125951767,-0.05945330113172531
17.3,-0.01482671033591032,-0.32643795013427734,0.05165829882025719,0.22561287879943848,0.01867559179663658,-0.055589720606803894
17.35,0.02799266204237938,-0.19646835327148438,0.04350190609693527,0.3572523295879364,0.08831379562616348,-0.042818184942007065
17.4,0.056315187364816666,-0.002802847418934107,-0.024677537381649017,0.4920963644981384,0.269026517868042,0.03512347489595413
17.45,-0.1981894075870514,0.00274085346609354,0.1529468297958374,0.5641229748725891,0.39551347494125366,0.12232840806245804
17.5,-0.5168056488037109,-0.36788466572761536,0.5267694592475891,0.5975915789604187,0.341638445854187,0.15499314665794373
17.55,-0.6559094190597534,-0.7956218719482422,0.5473498702049255,0.7684683203697205,0.29206371307373047,0.19640745222568512
17.6,-0.38945192098617554,-1.0453109741210938,0.4348437488079071,1.0147074460983276,0.1802166998386383,0.21728311479091644
17.65,-0.22128663957118988,-1.0219078063964844,0.28527897596359253,1.2645511627197266,0.05634171888232231,0.20090043544769287
17.7,-0.16713359951972961,-0.652562141418457,-0.06213418021798134,1.4720346927642822,0.0016285303281620145,0.20646601915359497
17.75,-0.06991450488567352,-0.5745563507080078,-0.20770272612571716,1.541897177696228,-0.09614346921443939,0.19538944959640503
17.8,0.05034917593002319,-0.645899772644043,-0.016897078603506088,1.5674222707748413,-0.19526956975460052,0.16884326934814453
17.85,0.07127207517623901,-0.24250030517578125,-0.11453373730182648,1.6015206575393677,-0.24677060544490814,0.158709317445755
17.9,0.01961200311779976,0.22829723358154297,-0.21177323162555695,1.530085563659668,-0.29854804277420044,0.10692273825407028
17.95,0.08687324821949005,0.5048608779907227,-0.11432246118783951,1.3586878776550293,-0.3239940404891968,0.06837993115186691
18.0,0.05655646324157715,0.8452901840209961,-0.17872844636440277,1.1217858791351318,-0.35916343331336975,-0.007413189392536879
18.05,0.232639342546463,1.2583751678466797,-0.25499022006988525,0.8655968904495239,-0.33381274342536926,-0.02586049772799015
18.1,0.21062274277210236,1.118147850036621,-0.14061817526817322,0.604549765586853,-0.25203999876976013,-0.012362875044345856
18.15,-0.06177808716893196,0.47637271881103516,0.20473939180374146,0.3800772726535797,-0.2132929116487503,-0.07130233198404312
18.2,0.013606356456875801,0.2556190490722656,0.08130644261837006,0.27458086609840393,-0.1928674578666687,-0.1351153552532196
18.25,0.023382525891065598,0.10326862335205078,-0.043437760323286057,0.247014582157135,-0.12968915700912476,-0.11597129702568054
18.3,-0.06799778342247009,0.25104427337646484,-0.06533913314342499,0.2233782708644867,-0.0742325708270073,-0.04489496722817421
18.35,-0.6232156753540039,1.6137380599975586,-0.34587669372558594,0.155073881149292,-0.09613225609064102,-0.05108850821852684
18.4,-0.384950190782547,1.258376121520996,-0.1952698975801468,-0.034604109823703766,-0.1862729787826538,-0.13100659847259521
18.45,0.006476998329162598,0.16686248779296875,0.06501321494579315,-0.07233384251594543,-0.11600128561258316,-0.09015081822872162
18.5,-0.16302861273288727,-0.14921283721923828,0.01852893829345703,0.0021942555904388428,-0.07171093672513962,-0.058542098850011826
18.55,0.011910054832696915,-0.21152591705322266,-0.11582205444574356,-0.0376623272895813,-0.21497699618339539,-0.08410867303609848
18.6,0.4302109181880951,-0.2664003372192383,-0.0008402098901569843,-0.10192907601594925,-0.36761242151260376,-0.10263659060001373
18.65,0.256428986787796,-0.06324195861816406,0.2354108691215515,-0.07659369707107544,-0.33670690655708313,-0.04409394785761833
18.7,0.3319253921508789,0.15595148503780365,0.5850883722305298,-0.08673197031021118,-0.26642805337905884,0.01327510830014944
18.75,4.753657817840576,-5.063655376434326,2.9948227405548096,0.35905805230140686,-0.04313802719116211,-0.08291015028953552
18.8,2.7181718349456787,-3.6742186546325684,1.5021357536315918,0.5491082668304443,0.23913632333278656,-0.09658069163560867
18.85,-0.35687896609306335,-0.5009622573852539,-0.2582504153251648,0.19933146238327026,0.07126832753419876,-0.08421364426612854
18.9,-0.13795697689056396,-0.08510494232177734,-0.06866447627544403,0.015526846051216125,-0.09881323575973511,-0.06704946607351303
18.95,-0.20467029511928558,0.13856983184814453,-0.009615380316972733,0.020956702530384064,-0.06202596053481102,-0.07321825623512268
19.0,-0.23576653003692627,-0.04738235846161842,0.021546093747019768,0.015122697688639164,0.007696237415075302,-0.03528871387243271
19.05,-0.2515968978404999,-0.009400377050042152,0.23880764842033386,0.0320107638835907,0.033998601138591766,0.0042693158611655235
19.1,-0.040704451501369476,0.04028034210205078,0.038219843059778214,0.1865118443965912,0.09832418709993362,0.08697624504566193
19.15,0.06496472656726837,0.2634458541870117,-0.2844303548336029,0.2176750749349594,0.18227598071098328,0.11946814507246017
19.2,0.11769913882017136,0.268280029296875,-0.24964264035224915,0.020861484110355377,0.14057329297065735,0.01478673703968525
19.25,0.03762156516313553,1.0733146667480469,-0.2659844756126404,-0.17307493090629578,0.05167000740766525,-0.18883684277534485
19.3,-0.48643410205841064,1.0864076614379883,-1.2425289154052734,-0.5751540064811707,0.08700976520776749,-0.07937192916870117
19.35,-0.17872220277786255,1.4077949523925781,-0.8698227405548096,-0.6889340281486511,0.1264653205871582,0.09641694277524948
19.4,-0.06403782963752747,1.554525375366211,-0.37417176365852356,-0.8865947723388672,0.1457904726266861,-0.043164726346731186
19.45,-0.07408097386360168,1.260939598083496,-0.39054930210113525,-1.2151269912719727,0.15632162988185883,-0.1993950605392456
19.5,-0.15206383168697357,0.7806015014648438,-0.4794313311576843,-1.476894736289978,0.18213598430156708,-0.2086505889892578
19.55,-0.269267737865448,0.18589305877685547,-0.3577992022037506,-1.6674981117248535,0.1906062811613083,-0.19908660650253296
19.6,-0.2862335741519928,-0.3905191421508789,-0.029340218752622604,-1.7654701471328735,0.17882440984249115,-0.18534249067306519
19.65,-0.26846688985824585,-0.6939077377319336,0.05448520928621292,-1.7500489950180054,0.15408127009868622,-0.19459772109985352
19.7,-0.23026707768440247,-0.9909629821777344,0.15257975459098816,-1.6409226655960083,0.15246574580669403,-0.16677969694137573
19.75,-0.06136719509959221,-1.0936613082885742,0.1464197337627411,-1.4533129930496216,0.15662066638469696,-0.1316099762916565
19.8,-0.0007526054978370667,-1.060929298400879,0.21401947736740112,-1.2591665983200073,0.08555542677640915,-0.17847895622253418
