Time [s],Acc_x [m/s^2],Acc_y [m/s^2],Acc_z [m/s^2],Gyro_x [1/s],Gyro_y [1/s],Gyro_z [1/s]
0.0,-0.06102908402681351,-0.07274436205625534,-0.3250492215156555,0.6110820770263672,-0.04886440187692642,-0.5769094228744507
0.05,-0.41678738594055176,0.04977990314364433,-0.550936222076416,0.630426824092865,-0.12423155456781387,-0.7147577404975891
0.1,-0.4111649692058563,0.17114734649658203,-0.31065893173217773,0.52092444896698,-0.02849499322474003,-0.6027258038520813
0.15,-0.40961116552352905,0.34132862091064453,-0.30010321736335754,0.40923216938972473,0.021155448630452156,-0.4582386612892151
0.2,-0.2606443464756012,0.2877950668334961,-0.1684272587299347,0.2919430136680603,0.08916440606117249,-0.2760070562362671
0.25,-0.2754027247428894,0.2710084915161133,-0.22814446687698364,0.21653565764427185,0.06827804446220398,-0.1946195662021637
0.3,-0.18424062430858612,0.34119510650634766,-0.33226409554481506,0.14440031349658966,0.07643593102693558,-0.11262008547782898
0.35,-0.12784147262573242,0.28927040100097656,-0.21029621362686157,0.06776972860097885,0.11091528087854385,-0.025786610320210457
0.4,-0.15079787373542786,0.24714374542236328,-0.13501928746700287,0.0032130228355526924,0.11284298449754715,0.027255507186055183
0.45,-0.21579836308956146,0.18593692779541016,-0.12825727462768555,-0.04872889816761017,0.09110893309116364,0.05594778060913086
0.5,-0.3013688921928406,0.34049320220947266,-0.21476955711841583,-0.10520236194133759,0.08569446951150894,0.12872792780399323
0.55,-0.26726779341697693,0.3326864242553711,-0.1136031523346901,-0.20275163650512695,0.13671211898326874,0.2814643681049347
0.6,-0.1513085961341858,0.25049495697021484,0.0243741013109684,-0.30508071184158325,0.1810615211725235,0.4173569083213806
0.65,0.01651531457901001,0.1218862533569336,0.10456759482622147,-0.37638330459594727,0.20038749277591705,0.5062870979309082
0.7,0.1567218005657196,-0.015097621828317642,0.1550954431295395,-0.39720410108566284,0.1780557632446289,0.5127764940261841
0.75,0.16709409654140472,-0.07010364532470703,0.16690924763679504,-0.385079562664032,0.11332058906555176,0.4587095379829407
0.8,0.18368543684482574,-0.061219219118356705,0.2177811563014984,-0.3445117473602295,0.05447632074356079,0.39319610595703125
0.85,0.23685908317565918,-0.09250355511903763,0.2014813870191574,-0.295052170753479,0.02391432411968708,0.35209402441978455
0.9,0.21995113790035248,-0.034592632204294205,0.1311633288860321,-0.2648932933807373,0.02417140081524849,0.30589836835861206
0.95,0.14683614671230316,0.017587659880518913,0.08483978360891342,-0.22496110200881958,-0.001233392278663814,0.22778810560703278
1.0,0.053375255316495895,-0.025521276518702507,-0.06561417877674103,-0.19562378525733948,-0.02317456714808941,0.16553941369056702
1.05,-0.0029524900019168854,-0.01977824978530407,-0.08697322756052017,-0.19004400074481964,-0.046209368854761124,0.13347458839416504
1.1,0.005971057340502739,-0.02088164910674095,-0.12928909063339233,-0.19170117378234863,-0.031277574598789215,0.1514226198196411
1.15,0.05716179311275482,0.0021257430780678988,-0.09042565524578094,-0.18088595569133759,-0.017953230068087578,0.15404671430587769
1.2,-0.05377066880464554,0.03217887878417969,-0.021358061581850052,-0.16070672869682312,-0.02041744254529476,0.1257268637418747
1.25,-0.06947938352823257,0.026946067810058594,-0.04726257175207138,-0.13922104239463806,-0.013459418900310993,0.11186711490154266
1.3,-0.030454102903604507,0.037093162536621094,0.003919160924851894,-0.12740662693977356,0.005616988055408001,0.12626740336418152
1.35,0.021588224917650223,0.10852718353271484,-0.06514596194028854,-0.12502916157245636,0.023772859945893288,0.13741154968738556
1.4,-0.04399826005101204,0.1483621597290039,-0.08119320124387741,-0.13634617626667023,0.02195354737341404,0.14293837547302246
1.45,-0.06040698289871216,0.11417293548583984,-0.06674639135599136,-0.14144062995910645,0.0031868619844317436,0.1284227967262268
1.5,-0.11060778796672821,0.07058429718017578,-0.13061489164829254,-0.1360451728105545,-0.0016650307225063443,0.12928617000579834
1.55,-0.15833058953285217,0.06069469824433327,-0.22958509624004364,-0.1318294256925583,0.002224961994215846,0.13786306977272034
1.6,-0.11921457201242447,0.05930233374238014,-0.17178082466125488,-0.13424396514892578,0.00959491916000843,0.1477348804473877
1.65,-0.08120501786470413,-0.08341503143310547,-0.09806421399116516,-0.13649901747703552,0.0033792280592024326,0.14212000370025635
1.7,-0.0723317414522171,-0.17725849151611328,-0.012747601605951786,-0.12111526727676392,0.007387603633105755,0.12450025975704193
1.75,-0.18144698441028595,-0.08973026275634766,-0.08596067130565643,-0.09488046169281006,-0.016172263771295547,0.09081608802080154
1.8,-0.07853095978498459,-0.001640317845158279,-0.08948536217212677,-0.07799388468265533,-0.00040721468394622207,0.09078577160835266
1.85,-0.022672120481729507,0.07622814178466797,-0.09958615899085999,-0.04955273121595383,0.0017948084278032184,0.08782714605331421
1.9,-0.06184802204370499,0.05735206976532936,-0.09120704233646393,-0.027800213545560837,0.00279737776145339,0.07327237725257874
1.95,-0.02033209800720215,-0.010730741545557976,-0.0703553706407547,-0.020209718495607376,0.003552139038220048,0.05516743287444115
2.0,-0.021972471848130226,-0.13135242462158203,0.021843895316123962,-0.005048006307333708,0.007413030136376619,0.044106654822826385
2.05,-0.0024736886844038963,-0.17632389068603516,-0.056438423693180084,0.03167389705777168,0.012566234916448593,0.016185328364372253
2.1,0.027515189722180367,-0.15244388580322266,-0.095321886241436,0.08567073196172714,0.024974839761853218,-0.02614942565560341
2.15,-0.02709498628973961,-0.12512683868408203,0.031524285674095154,0.1340607851743698,0.026944052428007126,-0.0686970204114914
2.2,0.047918953001499176,-0.09025001525878906,0.09091266989707947,0.1792725920677185,0.04325166717171669,-0.09612289071083069
2.25,0.04713127389550209,-0.016455650329589844,0.020165935158729553,0.21644948422908783,0.0411134697496891,-0.12410058081150055
2.3,0.03377629071474075,-0.09801483154296875,0.13322167098522186,0.2475109100341797,0.02459365874528885,-0.17037919163703918
2.35,0.17789053916931152,-0.12604999542236328,0.07364227622747421,0.26812416315078735,0.03754464536905289,-0.18615446984767914
2.4,0.11243116855621338,-0.17015838623046875,0.05030772462487221,0.29697901010513306,0.013596246019005775,-0.2424408346414566
2.45,0.2335062325000763,-0.27701759338378906,0.0461345799267292,0.352931946516037,0.011433791369199753,-0.2865719497203827
2.5,0.3769855201244354,-0.38993358612060547,0.18862004578113556,0.4507748484611511,0.05157051607966423,-0.33290421962738037
2.55,0.2488408237695694,-0.46575260162353516,0.04019888490438461,0.605137050151825,0.06613422930240631,-0.4224739372730255
2.6,0.5127301812171936,-0.5106143951416016,-0.13506938517093658,0.7568470239639282,0.16416211426258087,-0.44761109352111816
2.65,0.4613516926765442,-0.7874479293823242,-0.2142435908317566,0.9631530046463013,0.00633099302649498,-0.6537423729896545
2.7,-0.016115009784698486,-0.988128662109375,-0.577965259552002,1.0953408479690552,-0.20908281207084656,-0.9155316352844238
2.75,0.47154849767684937,-1.0180730819702148,-0.906096875667572,0.9372616410255432,0.1725541353225708,-0.9133503437042236
2.8,0.5775655508041382,-0.9877252578735352,-0.2099444717168808,0.845029354095459,0.47594305872917175,-1.015397548675537
2.85,0.05540066584944725,-1.3101015090942383,-0.36479195952415466,0.8789196014404297,0.6273489594459534,-1.2655584812164307
2.9,0.042039282619953156,-0.9150285720825195,-0.1885029822587967,0.9746429324150085,1.0703682899475098,-1.094678521156311
2.95,0.025917690247297287,-1.1444816589355469,-0.29330334067344666,1.1830599308013916,1.3005883693695068,-0.9943845868110657
3.0,-0.775117814540863,-0.1516122668981552,-0.6857696771621704,1.3387974500656128,1.455669641494751,-0.9333160519599915
3.05,-1.1988080739974976,0.8679332733154297,-0.4352834224700928,1.4047921895980835,1.4577834606170654,-0.777765691280365
3.1,-0.9658085703849792,1.5580530166625977,0.010223643854260445,1.2065012454986572,1.1718676090240479,-0.8085753321647644
3.15,-0.74986732006073,2.41839599609375,0.3245547413825989,0.9078103303909302,0.8644917607307434,-0.8044413328170776
3.2,-0.11055347323417664,1.6690378189086914,0.7411635518074036,0.7540703415870667,0.6953796148300171,-0.4382447898387909
3.25,0.3749498128890991,1.3965997695922852,0.7569118142127991,0.4534674882888794,0.4727186858654022,-0.48436594009399414
3.3,0.4353125989437103,0.7963581085205078,0.714689314365387,0.36402925848960876,0.4012240171432495,-0.24505692720413208
3.35,0.33644843101501465,0.4117269217967987,0.6920861601829529,0.2963956594467163,0.34832704067230225,-0.1266825646162033
3.4,-0.055402711033821106,0.43857574462890625,0.44904977083206177,0.20555011928081512,0.243772491812706,-0.1807461380958557
3.45,-0.1160455197095871,1.167689323425293,0.12017904222011566,0.06486324965953827,0.1106937900185585,-0.28144267201423645
3.5,0.06376557797193527,0.5536355972290039,0.0047331987880170345,0.1765146702528,0.07546670734882355,0.003128694836050272
3.55,0.1839090883731842,-0.043393127620220184,-0.21739743649959564,0.2435441017150879,-0.004158812575042248,0.1539393812417984
3.6,0.060365065932273865,0.22400380671024323,-0.270161896944046,0.21927760541439056,-0.048863157629966736,0.08036439120769501
3.65,0.04588131606578827,0.05614471808075905,-0.05601084232330322,0.13052254915237427,-0.05743714049458504,0.1265716254711151
3.7,0.1719631403684616,0.18514728546142578,-0.07668810337781906,0.1530105471611023,-0.050869908183813095,0.14138644933700562
3.75,0.1231454610824585,0.1508340835571289,-0.08820626884698868,0.1572565883398056,-0.03428899124264717,0.13644510507583618
3.8,0.1594841480255127,0.03713226690888405,-0.07854367792606354,0.13923096656799316,-0.006575461942702532,0.11791502684354782
3.85,0.0997525304555893,0.09576034545898438,-0.09250722825527191,0.10850386321544647,0.009936046786606312,0.0762534812092781
3.9,0.19681143760681152,0.024604802951216698,-0.13741940259933472,0.06339066475629807,0.013617306016385555,0.053231481462717056
3.95,0.17662689089775085,0.0075340308248996735,-0.08747535943984985,0.03033439815044403,0.01898261345922947,0.03535334765911102
4.0,0.1271233707666397,0.1494598388671875,0.005924525670707226,0.03454389423131943,0.019300568848848343,0.038813743740320206
4.05,0.08701086789369583,0.1073007583618164,0.02011139690876007,0.06455571204423904,0.006745335645973682,0.043864041566848755
4.1,0.10152298212051392,0.10059356689453125,-0.03752489015460014,0.12561297416687012,-0.01609148271381855,0.06274307519197464
4.15,0.1965215802192688,0.03911972418427467,-0.1361466497182846,0.13958722352981567,-0.018071210011839867,0.07323476672172546
4.2,0.18904316425323486,0.014571195468306541,-0.13889166712760925,0.09320767968893051,-0.01253398135304451,0.030210459604859352
4.25,0.13897153735160828,0.14370059967041016,0.017307747155427933,0.05289654806256294,-0.01395838800817728,-0.021141212433576584
4.3,0.0402127169072628,0.16303062438964844,0.03699679300189018,0.058895982801914215,-0.01255772914737463,-0.011954687535762787
4.35,0.08233770728111267,0.17404937744140625,-0.010596316307783127,0.09026984870433807,-0.004480376839637756,0.027401700615882874
4.4,0.1394631564617157,0.0845785140991211,-0.033443301916122437,0.11612700670957565,0.004569043405354023,0.05486702173948288
4.45,0.08487123250961304,0.10332393646240234,-0.008653082884848118,0.12331897765398026,0.0033311464358121157,0.05592912808060646
4.5,0.009438034147024155,0.12154197692871094,-0.07522610574960709,0.13858568668365479,-0.008908592164516449,0.08781681954860687
4.55,-0.009046174585819244,0.17075443267822266,-0.18603172898292542,0.1568533182144165,-0.040746916085481644,0.11174459755420685
4.6,-0.002218203619122505,0.1204214096069336,-0.033894866704940796,0.19792184233665466,-0.05757161229848862,0.1546802520751953
4.65,0.08594304323196411,0.10793495923280716,-0.27026668190956116,0.18580961227416992,-0.046227093786001205,0.20780658721923828
4.7,0.19590264558792114,0.008423810824751854,-0.13515536487102509,0.11413764208555222,-0.019482944160699844,0.14783816039562225
4.75,0.012176904827356339,0.1253376007080078,-0.007304891012609005,0.0742577537894249,-0.011921215802431107,0.09916695207357407
4.8,-0.0034658273216336966,0.09543132781982422,0.0022835226263850927,0.09711951017379761,-0.010275574401021004,0.14269813895225525
4.85,0.04773600399494171,0.059288978576660156,-0.004025302827358246,0.0768851786851883,0.005309682339429855,0.1346341371536255
4.9,0.07035139948129654,0.059782981872558594,-0.008443277329206467,0.051558129489421844,0.008192538283765316,0.09595836699008942
4.95,0.022294949740171432,0.11108970642089844,0.03314666822552681,0.022643061354756355,-0.004457372240722179,0.03911164402961731
5.0,-0.005629459861665964,0.11832141876220703,0.0008782590157352388,-0.0013633568305522203,-0.002790034981444478,0.0057644713670015335
5.05,-0.027416490018367767,0.07907772064208984,0.026822101324796677,-0.010250331833958626,0.00037676203646697104,0.0002449147868901491
5.1,0.04801654443144798,0.054595947265625,0.0018252318259328604,-0.00514083169400692,0.00023898441577330232,0.004784727469086647
5.15,0.04416487365961075,0.0722665786743164,-0.008657796308398247,-0.0007657186361029744,-0.005433579906821251,-0.002840609522536397
5.2,-0.048552874475717545,0.10741901397705078,0.0347195528447628,0.0033279648050665855,-0.01896001398563385,-0.00037616348708979785
5.25,-0.08767485618591309,0.1603107452392578,0.009765655733644962,0.011411282233893871,-0.03781304508447647,0.054296139627695084
5.3,-0.011435918509960175,0.22170352935791016,-0.17718400061130524,-0.0348740890622139,-0.04867517203092575,0.054331086575984955
5.35,0.30292224884033203,0.1651640087366104,-0.3086870610713959,-0.22141607105731964,-0.06724406033754349,-0.04796142876148224
5.4,0.25727155804634094,0.866612434387207,-0.06716617196798325,-0.4915356934070587,-0.05111914500594139,-0.22604498267173767
5.45,-0.3733993470668793,1.4676198959350586,0.15515612065792084,-0.6019232273101807,0.02380535379052162,-0.27944135665893555
5.5,-0.4666249454021454,1.914423942565918,0.33887651562690735,-0.6407105326652527,0.028026875108480453,-0.04590819776058197
5.55,-0.23617297410964966,1.6223812103271484,0.7272399067878723,-0.645154595375061,-0.10606978833675385,0.47511082887649536
5.6,0.1356276273727417,0.5420284271240234,0.5007649064064026,-0.47806137800216675,-0.22083094716072083,0.9452327489852905
5.65,-0.0008849799633026123,-0.15279103815555573,0.4921858310699463,-0.5845643281936646,-0.40450164675712585,0.7497405409812927
5.7,-0.08167416602373123,-0.5061216354370117,0.427530974149704,-0.547878086566925,-0.588355541229248,0.5845727920532227
5.75,-0.25767838954925537,-0.7850542068481445,0.4928939640522003,-0.39911508560180664,-0.694344162940979,0.5103336572647095
5.8,-0.19844983518123627,-0.5011110305786133,-0.016811028122901917,-0.3043706715106964,-0.8116750717163086,0.3044891655445099
5.85,-0.21759560704231262,-0.6824245452880859,-0.08995652943849564,-0.24921199679374695,-0.8544537425041199,0.15529416501522064
5.9,-0.47645971179008484,-0.08043954521417618,-0.7836756706237793,-0.3184107542037964,-0.9390044808387756,-0.09495285153388977
5.95,-0.17562928795814514,0.06563571095466614,-1.1434252262115479,-0.2554701566696167,-0.8549299240112305,0.006558247376233339
6.0,0.1308683604001999,-0.0978669673204422,-1.496034026145935,-0.2475229948759079,-0.7371459007263184,0.10893796384334564
6.05,0.5047829151153564,0.0516844317317009,-1.707452654838562,-0.29205769300460815,-0.576791524887085,0.07925926893949509
6.1,0.5008317828178406,-0.10862727463245392,-1.4768807888031006,-0.28181204199790955,-0.36288347840309143,0.05125207081437111
6.15,-0.1079147458076477,0.10375121980905533,-1.3389750719070435,-0.355691522359848,-0.25811994075775146,-0.07247468829154968
6.2,-0.4376922845840454,0.3172970116138458,-0.8820737600326538,-0.408649742603302,-0.10548119246959686,-0.014422978274524212
6.25,-0.11955681443214417,0.37665462493896484,-0.29412347078323364,-0.4883708357810974,0.07252158969640732,0.1733778417110443
6.3,-0.3279191255569458,0.31854248046875,-0.11749597638845444,-0.5357212424278259,0.15059052407741547,0.2510415315628052
6.35,-0.1568666696548462,0.40711021423339844,-0.21745003759860992,-0.5965967774391174,0.1493350714445114,0.3856218457221985
6.4,0.1572302281856537,0.24446678161621094,-0.1918015480041504,-0.6292374134063721,0.14805938303470612,0.5469695329666138
6.45,0.05226701498031616,0.26281261444091797,-0.42037656903266907,-0.7003750205039978,0.12812180817127228,0.580713152885437
6.5,-0.03883075714111328,-0.0037679518572986126,-0.5397149920463562,-0.7458888292312622,0.14589211344718933,0.5923373103141785
6.55,0.17547444999217987,-0.02829453907907009,-0.8115044236183167,-0.8007479310035706,0.11536959558725357,0.5677104592323303
6.6,-0.28271523118019104,-0.06671807914972305,-0.8325146436691284,-0.7892332077026367,-0.15544645488262177,0.3363478183746338
6.65,-0.12737897038459778,-0.19064615666866302,-0.6645740866661072,-0.7328006625175476,-0.12563283741474152,0.42896538972854614
6.7,0.012915655970573425,-0.15814970433712006,-0.6887570023536682,-0.6585946083068848,-0.06195821240544319,0.49752044677734375
6.75,0.02646772563457489,-0.264893501996994,-0.6317727565765381,-0.5846419334411621,-0.0982009619474411,0.3992835581302643
6.8,0.015326082706451416,-0.30144593119621277,-0.5413853526115417,-0.536069393157959,-0.12219886481761932,0.32985302805900574
6.85,-0.11937916278839111,-0.24034403264522552,-0.5918561220169067,-0.49586209654808044,-0.09029437601566315,0.3094940483570099
6.9,-0.06219279766082764,-0.27679443359375,-0.40399402379989624,-0.4543045163154602,-0.07070082426071167,0.2850337624549866
6.95,-0.08574443310499191,-0.3809213638305664,-0.3546880781650543,-0.40432894229888916,-0.004423183389008045,0.30686330795288086
7.0,0.08659647405147552,-0.2747640609741211,-0.4235289692878723,-0.3385492265224457,0.08613035082817078,0.32927948236465454
7.05,0.10160738229751587,-0.22028540074825287,-0.5242451429367065,-0.2628520131111145,0.1328165978193283,0.2717133164405823
7.1,-0.030674368143081665,-0.14658544957637787,-0.7750465869903564,-0.19347774982452393,0.16513270139694214,0.22691397368907928
7.15,0.26166003942489624,-0.11711595207452774,-0.6691431999206543,-0.16474053263664246,0.29535186290740967,0.22578002512454987
7.2,0.7379760146141052,-0.5350732803344727,-0.7914894223213196,-0.10615640133619308,0.4588524103164673,0.16164614260196686
7.25,0.5175384283065796,-0.7394313216209412,-0.9474965929985046,0.07999375462532043,0.6240526437759399,-0.09657459706068039
7.3,0.02919444441795349,-1.2003564834594727,-1.5909206867218018,0.3186962604522705,0.843244194984436,-0.3236580789089203
7.35,-0.6543166637420654,-1.3705463409423828,-1.8882472515106201,0.369421124458313,0.7680824995040894,-0.669939398765564
7.4,-0.7262402772903442,-1.2761802673339844,-1.197006106376648,0.1428893506526947,1.157088279724121,-0.6501855254173279
7.45,-2.5305092334747314,0.33214855194091797,-0.9456790685653687,0.0013700127601623535,1.0587821006774902,-0.7600248456001282
7.5,-0.7066169381141663,0.7473459243774414,0.23115205764770508,0.3650408387184143,1.218385934829712,-0.561241865158081
7.55,-0.2500589191913605,0.705388069152832,0.5425314903259277,0.6056032180786133,1.1238963603973389,-0.5850096344947815
7.6,0.43792179226875305,0.9563302993774414,0.3027275502681732,0.5811364054679871,1.1087737083435059,-0.6131027340888977
7.65,0.5384345054626465,0.705592155456543,0.8993002772331238,0.3592771291732788,0.9733679890632629,-0.7202684283256531
7.7,0.7667562961578369,1.0728998184204102,1.2601324319839478,0.021162211894989014,0.7937079668045044,-0.6936394572257996
7.75,1.370644211769104,2.2512569427490234,2.070446729660034,-0.17187148332595825,0.501690685749054,-0.3846825361251831
7.8,0.013096779584884644,0.7558221220970154,1.2305665016174316,-0.11746618151664734,0.16778314113616943,0.1591559201478958
7.85,0.0965316891670227,-0.7185535430908203,0.5496371984481812,-0.10000087320804596,0.06849600374698639,0.525296688079834
7.9,0.26378336548805237,-1.3034992218017578,0.02348780445754528,-0.08947502076625824,-0.039640799164772034,0.49106940627098083
7.95,0.33975350856781006,-0.9960832595825195,-0.2656067907810211,-0.006880961358547211,-0.11934375017881393,0.20232371985912323
8.0,-0.1560094654560089,-0.5008134841918945,-0.5096248984336853,-0.04179082810878754,-0.26276934146881104,-0.21354834735393524
8.05,-0.2774415612220764,0.22316934168338776,-0.6506812572479248,-0.06712211668491364,-0.19648349285125732,-0.3563443422317505
8.1,-0.28585389256477356,0.5297365188598633,-0.5280261635780334,-0.06352120637893677,-0.11712711304426193,-0.31327900290489197
8.15,-0.15805116295814514,0.5410394668579102,-0.3401673138141632,-0.06981289386749268,-0.06105459854006767,-0.20038452744483948
8.2,-0.19001609086990356,0.38613414764404297,-0.20471633970737457,-0.05071976035833359,-0.059630975127220154,-0.12452966719865799
8.25,-0.18345758318901062,0.14165019989013672,-0.14150235056877136,-0.010769659653306007,-0.03434915468096733,-0.03731629252433777
8.3,0.043222591280937195,-0.097503662109375,0.0241397712379694,0.008329903706908226,-0.008511429652571678,0.002734246663749218
8.35,0.11330847442150116,-0.22568513453006744,0.2923704981803894,0.03417885676026344,-0.041210755705833435,-0.06793884932994843
8.4,0.024711057543754578,-0.05477524921298027,0.4280886650085449,0.08167585730552673,-0.1032421812415123,-0.13743211328983307
8.45,0.10178595036268234,0.28189754486083984,0.4287332594394684,0.11262063682079315,-0.19463178515434265,-0.18774574995040894
8.5,0.5406510829925537,0.3080921173095703,0.507036566734314,0.16619285941123962,-0.15428388118743896,-0.2002217173576355
8.55,0.7190412282943726,0.48531627655029297,0.6374602913856506,0.28301891684532166,0.10962099581956863,-0.05639779195189476
8.6,0.22921761870384216,0.46168896555900574,0.5995861887931824,0.3466162085533142,0.04421960189938545,-0.06958631426095963
8.65,-0.7727409601211548,0.6108598709106445,0.5672616362571716,0.24866318702697754,-0.4819848835468292,-0.07490633428096771
8.7,-0.9079002737998962,0.7493505477905273,0.03938274830579758,0.12158069759607315,-0.7173861265182495,0.33569180965423584
8.75,-0.5813451409339905,0.7189140319824219,-0.42806825041770935,-0.08705400675535202,-0.6806229948997498,0.7145975232124329
8.8,-0.6491361856460571,-0.05484867841005325,0.08668459951877594,-0.3280734419822693,-1.0265527963638306,0.6179640889167786
8.85,-0.9802629947662354,-0.36528873443603516,0.10317180305719376,-0.4745422303676605,-1.4407331943511963,0.45256146788597107
8.9,-0.5411852598190308,-0.44144153594970703,-0.41318899393081665,-0.4286143183708191,-1.6400110721588135,0.36358094215393066
8.95,-0.47871410846710205,-0.45420166850090027,-0.7707971334457397,-0.3736794888973236,-1.7322871685028076,0.2171461433172226
9.0,-0.1460874378681183,-0.20526598393917084,-0.7639584541320801,-0.2994117736816406,-1.4906351566314697,0.2478405386209488
9.05,1.0463082790374756,-0.20978544652462006,-0.4292312264442444,-0.26874998211860657,-1.0584042072296143,0.330715149641037
9.1,0.12413077056407928,-0.08008667081594467,-1.2316582202911377,-0.1889709234237671,-0.9378790855407715,0.16611114144325256
9.15,0.014425009489059448,0.01346210204064846,-1.2246739864349365,-0.12247121334075928,-0.7440979480743408,0.1686425805091858
9.2,0.22906294465065002,0.1233988106250763,-1.033929705619812,-0.10911832749843597,-0.5277912020683289,0.2501453459262848
9.25,0.2613150477409363,0.11138250678777695,-0.6584134101867676,-0.1270839124917984,-0.3448023200035095,0.29569074511528015
9.3,0.20544087886810303,0.034181609749794006,-0.417998343706131,-0.1401001513004303,-0.2393908053636551,0.27152353525161743
9.35,0.0770220085978508,0.04665662348270416,-0.5061567425727844,-0.15687058866024017,-0.18793530762195587,0.23324686288833618
9.4,0.1645967960357666,-0.15616129338741302,-0.2821478843688965,-0.188635915517807,-0.10014168173074722,0.24922485649585724
9.45,0.22581319510936737,-0.09935092180967331,-0.27562788128852844,-0.19728420674800873,-0.03763706982135773,0.25424671173095703
9.5,0.22718054056167603,0.051554687321186066,-0.2316409796476364,-0.18266551196575165,-0.006182230543345213,0.20048588514328003
9.55,0.18732401728630066,0.08575630187988281,-0.005831716116517782,-0.166146382689476,0.027791501954197884,0.15792585909366608
9.6,0.08100451529026031,-0.03269195184111595,-0.10020989924669266,-0.16537174582481384,0.02540980465710163,0.13167843222618103
9.65,0.022727612406015396,-0.09352397173643112,-0.1365833580493927,-0.17669999599456787,0.057480357587337494,0.15920966863632202
9.7,0.08767387270927429,-0.05695819482207298,-0.1578877866268158,-0.18948982656002045,0.11731879413127899,0.18564267456531525
9.75,0.014286033809185028,-0.09665679186582565,-0.1848222315311432,-0.17610099911689758,0.08503319323062897,0.1272204965353012
9.8,-0.005305662751197815,0.03779888525605202,-0.15405452251434326,-0.15817706286907196,0.06080206111073494,0.09570078551769257
9.85,0.023808784782886505,0.0019788783974945545,-0.14147134125232697,-0.14763092994689941,0.0748429149389267,0.09851979464292526
9.9,0.09259411692619324,0.07398223876953125,-0.035470109432935715,-0.15388397872447968,0.08657259494066238,0.1072835698723793
9.95,0.05711705982685089,0.041558265686035156,-0.024339361116290092,-0.14349737763404846,0.0836501494050026,0.09221877157688141
10.0,-0.03819459676742554,0.03832054138183594,-0.03254637122154236,-0.12599313259124756,0.04678627476096153,0.06212490797042847
10.05,0.046979356557130814,0.047466278076171875,-0.00038814402068965137,-0.12198592722415924,0.04137084260582924,0.06997708976268768
10.1,-0.03243092820048332,0.050535205751657486,-0.10064873099327087,-0.12948951125144958,0.038357093930244446,0.06839502602815628
10.15,-0.06655248999595642,-0.008465765044093132,-0.06819131225347519,-0.12642785906791687,0.01571023277938366,0.057127512991428375
10.2,0.0210135318338871,0.051909446716308594,-0.023475149646401405,-0.12140916287899017,0.0016595396446064115,0.06055617332458496
10.25,0.021689660847187042,-0.026396749541163445,-0.08272435516119003,-0.09804736077785492,-0.015278825536370277,0.052846357226371765
10.3,-0.00781485065817833,-0.010731694288551807,-0.10727477073669434,-0.08576551824808121,-0.014338510110974312,0.04007543623447418
10.35,-0.009982030838727951,-0.02265452966094017,-0.12669941782951355,-0.058884140104055405,-0.022458378225564957,0.014884189702570438
10.4,0.04893437772989273,0.029455186799168587,-0.07796655595302582,-0.05438738316297531,-0.03459051996469498,0.0008083720458671451
10.45,0.07894457876682281,0.042939186096191406,-0.003295131726190448,-0.03043346107006073,-0.01538021769374609,0.0014566113241016865
10.5,0.023489439859986305,0.01765633001923561,-0.11314772069454193,-0.00480875326320529,-0.021074209362268448,-0.00792662613093853
10.55,-0.0034725251607596874,0.02433490753173828,-0.002027550945058465,-0.005664163734763861,-0.009029056876897812,0.003008532105013728
10.6,0.05924924090504646,-0.06833934783935547,-0.027273865416646004,0.002971318317577243,-0.0024496435653418303,-0.001169154536910355
10.65,0.025235086679458618,0.0885171890258789,-0.009198191575706005,0.00018632737919688225,-0.005573156755417585,-0.012194186449050903
10.7,0.031106827780604362,0.1361827850341797,-0.0031010156963020563,-0.0017858846113085747,-0.013836191967129707,-0.017407355830073357
10.75,0.053130414336919785,0.11609554290771484,0.016963573172688484,-0.02137453481554985,-0.013140103779733181,0.001897812937386334
10.8,0.010092407464981079,0.16648578643798828,-0.17289061844348907,-0.022751471027731895,-0.032400112599134445,-0.007238900288939476
10.85,-0.1487608551979065,0.14375686645507812,-0.22793620824813843,-0.047877486795186996,-0.03105894662439823,0.0005234051495790482
10.9,-0.14439494907855988,0.07333565503358841,-0.23103603720664978,-0.07874555140733719,-0.02334819734096527,0.036834340542554855
10.95,-0.07175268232822418,0.034414298832416534,-0.22087806463241577,-0.1040097326040268,-0.006267002783715725,0.06284498423337936
11.0,0.0033406801521778107,0.018280036747455597,-0.2636752426624298,-0.10332769900560379,-0.0017507699085399508,0.06546899676322937
11.05,0.027338651940226555,-0.03522014245390892,-0.13826146721839905,-0.09759684652090073,0.019311944022774696,0.06670645624399185
11.1,0.02730778604745865,-0.07192611694335938,-0.09938889741897583,-0.06342422217130661,0.03770306706428528,0.05367448180913925
11.15,0.007275672629475594,-0.26787281036376953,-0.10808401554822922,-0.0031552109867334366,0.05095505714416504,0.024834467098116875
11.2,0.07008745521306992,-0.15740489959716797,-0.1038985326886177,0.06621327996253967,0.08294263482093811,-0.005079429131001234
11.25,0.10588400810956955,-0.11943817138671875,-0.024036619812250137,0.14560875296592712,0.1037617102265358,-0.05540316179394722
11.3,-0.03525368124246597,-0.10074328631162643,-0.26015615463256836,0.2076217383146286,0.1241067573428154,-0.08499874174594879
11.35,-0.01407108549028635,-0.2836008071899414,-0.047000251710414886,0.2533821165561676,0.12350919097661972,-0.1341465711593628
11.4,0.23818060755729675,-0.33851051330566406,0.015546162612736225,0.3345060348510742,0.07601045817136765,-0.22647547721862793
11.45,0.06172617897391319,-0.3815450668334961,-0.0012581313494592905,0.39346110820770264,0.006883261259645224,-0.3326568007469177
11.5,0.1124958023428917,-0.42014598846435547,0.01601562090218067,0.44506099820137024,0.00740022910758853,-0.3790391981601715
11.55,0.2071353942155838,-0.24754619598388672,0.3112143874168396,0.5241726636886597,-0.019472045823931694,-0.4488862156867981
11.6,0.09527509659528732,-0.5054807662963867,0.2895001769065857,0.6336524486541748,-0.13493284583091736,-0.6236284375190735
11.65,0.40264660120010376,-0.33270740509033203,0.5527523159980774,0.7222778797149658,-0.08496470004320145,-0.6554030776023865
11.7,0.5325624942779541,-0.6445808410644531,0.34657737612724304,0.8816033601760864,-0.0038729950319975615,-0.6495987176895142
11.75,0.16981996595859528,-0.2565164566040039,0.2709287703037262,1.0392000675201416,-0.015991361811757088,-0.7080854773521423
11.8,-0.031108934432268143,-0.3640298843383789,0.015542754903435707,1.1271686553955078,-0.15733906626701355,-0.8920842409133911
11.85,0.2049286663532257,-0.16570185124874115,-0.4076322019100189,1.197243571281433,-0.24484685063362122,-0.9212502837181091
11.9,0.2866155207157135,0.2577524483203888,-1.086680293083191,1.2547328472137451,-0.3911307752132416,-0.8837528228759766
11.95,0.23098650574684143,0.16734030842781067,-1.1299139261245728,1.0028666257858276,-0.1981496512889862,-0.9095771312713623
12.0,0.6501650214195251,-0.03157898783683777,-0.9083101749420166,0.736657977104187,0.6079885363578796,-0.5271762609481812
12.05,0.3550141751766205,-0.6790103912353516,-0.30318483710289,0.6065247058868408,1.310006856918335,-0.08606521040201187
12.1,0.5524593591690063,-1.4245843887329102,0.4562213122844696,0.7269415855407715,1.7555086612701416,0.20731951296329498
12.15,-0.33839526772499084,-0.667424201965332,-0.13279616832733154,1.044820785522461,1.8499109745025635,0.1330566555261612
12.2,-0.7106361389160156,-0.28314208984375,0.03347229212522507,1.1819779872894287,1.540802240371704,-0.38604265451431274
12.25,-0.9712684154510498,1.454543113708496,-0.2653854191303253,1.056223750114441,1.190441370010376,-0.7051860690116882
12.3,-0.5630437135696411,1.5852041244506836,0.04598299041390419,0.9877251386642456,1.0191508531570435,-0.4514443576335907
12.35,-0.32481932640075684,1.919485092163086,0.3569398820400238,0.6762928366661072,0.7997570633888245,-0.4046291410923004
12.4,0.049729153513908386,1.2205524444580078,0.8783511519432068,0.39316117763519287,0.6019163727760315,-0.3724620044231415
12.45,0.2741162180900574,0.7447576522827148,0.9992177486419678,0.22772270441055298,0.44993823766708374,-0.22739966213703156
12.5,0.27826815843582153,0.4503020942211151,0.9365233778953552,0.19852502644062042,0.3238580822944641,-0.06878983229398727
12.55,0.19974066317081451,0.1831188052892685,0.7622513771057129,0.1536618322134018,0.19452053308486938,0.004286209121346474
12.6,-0.05044980347156525,0.29492950439453125,0.498317688703537,0.09146156907081604,0.08138366788625717,-0.02071917988359928
12.65,-0.152345672249794,0.3041725158691406,0.2197331190109253,0.0682687759399414,-0.02592536434531212,-0.09001936763525009
12.7,-0.012993799522519112,0.25952625274658203,-0.12561368942260742,0.07132185995578766,-0.07026232033967972,-0.036659836769104004
12.75,0.03179081529378891,0.2666940689086914,-0.4180079698562622,0.12229859828948975,-0.050947364419698715,0.08325918018817902
12.8,0.03530989587306976,0.224885955452919,-0.5254307985305786,0.14260315895080566,0.0067364233545959,0.18650740385055542
12.85,0.06179989501833916,0.12657929956912994,-0.41412803530693054,0.10458788275718689,0.026867752894759178,0.1904405951499939
12.9,0.100672647356987,0.18149948120117188,-0.21396420896053314,0.08254903554916382,0.02883811481297016,0.14058834314346313
12.95,0.09677223861217499,0.16854572296142578,-0.03340158239006996,0.09975579380989075,-0.006173005327582359,0.12028484791517258
13.0,0.18002665042877197,0.06887722760438919,-0.09819938242435455,0.10746912658214569,-0.031087609007954597,0.10497793555259705
13.05,0.07749490439891815,0.09881877899169922,-0.09779170155525208,0.07441598922014236,-0.03784090653061867,0.05535639077425003
13.1,0.05366910994052887,0.05427074804902077,-0.08006379008293152,0.02314477041363716,-0.021480584517121315,0.014798670075833797
13.15,0.0880085825920105,0.19878005981445312,-0.12307412922382355,0.0025042605120688677,-0.008925314992666245,-0.0011516616214066744
13.2,0.13094477355480194,0.10436154156923294,-0.0962972417473793,0.005165657494217157,-0.010412544012069702,0.01799040101468563
13.25,0.07379761338233948,0.049184802919626236,-0.16237357258796692,0.0022528772242367268,-0.008868789300322533,0.014347192831337452
13.3,0.1165410578250885,0.08989811688661575,-0.1989360898733139,-0.011707118712365627,-0.008607298135757446,-0.007195417303591967
13.35,0.18711954355239868,0.1483450084924698,-0.24675381183624268,-0.01827165298163891,-0.012892380356788635,-0.014835655689239502
13.4,0.132497638463974,0.09558773785829544,-0.11923821270465851,-0.048097606748342514,-0.016675839200615883,-0.05850359797477722
13.45,0.14923809468746185,0.0921182632446289,-0.04449117183685303,-0.06822977215051651,-0.008327027782797813,-0.09396321326494217
13.5,0.13818158209323883,0.20174503326416016,0.008847108110785484,-0.05469960719347,1.061532566382084e-05,-0.10303506255149841
13.55,0.09560702741146088,0.19748306274414062,-0.06496404111385345,-0.02052905410528183,-0.01930060237646103,-0.06932791322469711
13.6,0.1391555517911911,0.5222206115722656,-0.3477261960506439,-0.03018539771437645,-0.031160695478320122,-0.06322994828224182
13.65,0.23388788104057312,0.6794395446777344,-0.3368081748485565,-0.10422996431589127,-0.06536445766687393,-0.09476406872272491
13.7,0.23310169577598572,0.651240348815918,-0.09113160520792007,-0.23179315030574799,-0.038144081830978394,-0.08111511170864105
13.75,-0.18978027999401093,0.9318599700927734,-0.018446559086441994,-0.3477112054824829,-0.008060801774263382,0.05316589027643204
13.8,-0.15188562870025635,0.2874612808227539,0.13816100358963013,-0.2796958386898041,0.017815550789237022,0.24496367573738098
13.85,-0.12590137124061584,-0.22243595123291016,0.18730320036411285,-0.2869279384613037,-0.0036924586165696383,0.2860976457595825
13.9,-0.34264668822288513,-0.47191619873046875,0.08329179137945175,-0.2683885395526886,-0.06671224534511566,0.20671109855175018
13.95,-0.48764726519584656,-0.3120899200439453,-0.09307178109884262,-0.21599403023719788,-0.1392907202243805,0.1525031477212906
14.0,-0.44056135416030884,0.02080726996064186,-0.2735525667667389,-0.18415430188179016,-0.20526045560836792,0.09440410882234573
14.05,-0.23114188015460968,0.16726113855838776,-0.5496454834938049,-0.1598830372095108,-0.22822317481040955,0.0781083032488823
14.1,0.10198437422513962,0.2078085094690323,-0.7463779449462891,-0.15426619350910187,-0.18400123715400696,0.08750506490468979
14.15,0.3930225074291229,0.23376181721687317,-0.8749475479125977,-0.1367833912372589,-0.11559730023145676,0.08707623928785324
14.2,0.47435903549194336,0.250517874956131,-0.952613353729248,-0.08880440890789032,-0.004660018719732761,0.13858406245708466
14.25,0.32806122303009033,0.028354670852422714,-0.842494547367096,-0.07102958858013153,0.12778779864311218,0.16719308495521545
14.3,0.19615736603736877,-0.04848382994532585,-0.5626879334449768,-0.09465612471103668,0.2220391035079956,0.09991563111543655
14.35,0.25578898191452026,-0.1813173145055771,-0.3773477375507355,-0.0673912987112999,0.2597835659980774,0.05267931520938873
14.4,0.2903748154640198,-0.3059120178222656,-0.11683684587478638,-0.04293091595172882,0.2536402940750122,0.020680377259850502
14.45,0.3442016541957855,-0.19412708282470703,0.16993790864944458,-0.03551819920539856,0.20922395586967468,-0.04084847867488861
14.5,0.3632522225379944,-0.10362721234560013,0.32713568210601807,-0.024812377989292145,0.15973615646362305,-0.054346565157175064
14.55,0.18964657187461853,0.11553477495908737,0.35802024602890015,-0.038933444768190384,0.10107306391000748,-0.041092995554208755
14.6,0.03397022932767868,0.5710020065307617,0.494616836309433,-0.08398840576410294,0.010567784309387207,-0.03491107374429703
14.65,-0.213523730635643,1.0590639114379883,0.3494206964969635,-0.1375051736831665,-0.10409703105688095,0.029412489384412766
14.7,-0.13022857904434204,1.2603483200073242,0.4380437433719635,-0.2312524914741516,-0.24541278183460236,0.16654029488563538
14.75,-0.02860921621322632,1.1729888916015625,0.5305209159851074,-0.33674493432044983,-0.39237886667251587,0.33047136664390564
14.8,-0.07097670435905457,1.126652717590332,0.4145476520061493,-0.4139810800552368,-0.5523374676704407,0.5489783883094788
14.85,-0.21497197449207306,0.9426822662353516,0.14959275722503662,-0.49439170956611633,-0.665279746055603,0.8114703893661499
14.9,-0.2640793025493622,0.6960334777832031,-0.25930914282798767,-0.6186126470565796,-0.7223445773124695,0.9879013895988464
14.95,-0.4061909019947052,0.6282825469970703,-0.5887856483459473,-0.7068377137184143,-0.8097843527793884,0.9599816203117371
15.0,-0.9090067148208618,0.6215476989746094,-0.9303589463233948,-0.6902310848236084,-0.9433472752571106,0.8509336113929749
15.05,-1.1335421800613403,0.020893117412924767,-1.0148305892944336,-0.6474723815917969,-0.8607772588729858,1.060054898262024
15.1,-1.1112738847732544,-0.5644292235374451,-1.5673913955688477,-0.6800764203071594,-0.7856699228286743,1.3244014978408813
15.15,-0.9450881481170654,-1.204005241394043,-1.6339690685272217,-0.7653633952140808,-0.7632440328598022,1.5435689687728882
15.2,-0.25288668274879456,-2.112180709838867,-1.4311076402664185,-0.7473549842834473,-0.8138801455497742,1.5005836486816406
15.25,0.7941834926605225,-2.8980932235717773,-1.075213074684143,-0.5205386877059937,-0.7648342847824097,1.327224612236023
15.3,0.9426119923591614,-2.9323015213012695,-1.4312130212783813,-0.07960858941078186,-0.5969418883323669,0.9899088144302368
15.35,1.703771710395813,-1.8648347854614258,-0.5194471478462219,0.2979058623313904,0.011247940361499786,0.8500264286994934
15.4,1.8366014957427979,-0.8325719833374023,0.45818862318992615,0.8092854022979736,0.26782065629959106,0.49325162172317505
15.45,0.31138700246810913,0.5951805114746094,0.2321654111146927,1.297696828842163,0.19039757549762726,-0.16806301474571228
15.5,-0.40118321776390076,1.828679084777832,-0.08046542853116989,1.1740367412567139,0.18532969057559967,-0.3963531255722046
15.55,-0.12033547461032867,2.362124443054199,-0.6407275795936584,0.5126978158950806,0.25128722190856934,-0.20884715020656586
15.6,0.5177717208862305,1.1534881591796875,-0.5795889496803284,0.09768632054328918,0.0021347033325582743,-0.24308939278125763
15.65,0.3537927567958832,-0.4916982650756836,-0.09216354042291641,-0.12570665776729584,-0.0913139283657074,-0.2862245440483093
15.7,0.15158699452877045,-0.929987907409668,-0.11599750816822052,-0.05719052255153656,-0.2644515633583069,-0.7001850008964539
15.75,-0.22804629802703857,-1.2839727401733398,0.603843092918396,0.28920090198516846,-0.30202895402908325,-0.8091711401939392
15.8,-0.9356688857078552,-0.35263729095458984,-0.17384867370128632,0.5865606665611267,-0.18433408439159393,-0.502570629119873
15.85,1.830115795135498,-0.08765121549367905,-0.8569541573524475,0.4898821711540222,0.11479855328798294,-0.5214214324951172
15.9,0.16133078932762146,-0.0629701092839241,-1.7403783798217773,0.3967643082141876,-0.19587090611457825,-1.8366862535476685
15.95,-0.2519477307796478,-0.3081331253051758,-0.23440290987491608,0.42674630880355835,-0.2945857644081116,-2.0336949825286865
16.0,-0.4919712543487549,-0.15667439997196198,0.25861209630966187,0.3549751043319702,-0.5656996965408325,-2.171938896179199
16.05,-0.6349309086799622,0.8299150466918945,0.038020920008420944,0.0718643069267273,-0.6640169620513916,-2.44927716255188
16.1,-0.40208563208580017,1.49273681640625,0.08837594091892242,-0.12614774703979492,-0.5663214921951294,-1.9089107513427734
16.15,-0.12736769020557404,0.969451904296875,0.5048684477806091,-0.13276728987693787,-0.2529667317867279,-0.6656774878501892
16.2,0.07720676809549332,1.2442407608032227,0.034777671098709106,-0.16692322492599487,-0.010669181123375893,0.2700163424015045
16.25,-0.27623116970062256,1.0644779205322266,-0.2924550473690033,-0.31237584352493286,0.10901936143636703,0.6571732759475708
16.3,-0.11208128929138184,-0.17642498016357422,-0.14765501022338867,-0.40083757042884827,0.12900209426879883,0.9189633727073669
16.35,-0.05196281522512436,-0.9353246688842773,-0.03703803941607475,-0.36269333958625793,0.009598777629435062,0.919177234172821
16.4,0.28775349259376526,-1.5846433639526367,0.1770430952310562,-0.18667294085025787,-0.05022326484322548,0.8610841631889343
16.45,0.1946401596069336,-1.4501676559448242,0.5370518565177917,0.03202830255031586,-0.15480341017246246,0.542598307132721
16.5,-0.2809112071990967,-1.6133089065551758,0.9543106555938721,0.22475619614124298,-0.2678508460521698,0.30177730321884155
16.55,-1.0058300495147705,0.15572737157344818,0.26368647813796997,0.406203031539917,-0.4307190775871277,0.18821536004543304
16.6,-0.12219958007335663,1.9832115173339844,-0.6817931532859802,0.2131502479314804,-0.165232315659523,0.8199157118797302
16.65,0.47552669048309326,2.303765296936035,-1.0701972246170044,-0.28208816051483154,0.32045188546180725,1.9792391061782837
16.7,2.335524559020996,1.433152198791504,-1.3353298902511597,-0.5539637804031372,0.7826861143112183,3.1059014797210693
16.75,0.28014588356018066,0.6123209595680237,-2.6410889625549316,-0.16805434226989746,-0.09695259481668472,1.3317567110061646
16.8,0.37651190161705017,-1.516478419303894,-3.2460789680480957,-0.2025570273399353,-0.3123633563518524,0.3444593846797943
16.85,2.151484966278076,-3.127384662628174,-2.7227649688720703,-0.4847153425216675,0.25559109449386597,0.3212513029575348
16.9,1.1284503936767578,-2.318185329437256,-1.5104544162750244,-0.22520285844802856,0.11638350039720535,-0.5795186758041382
16.95,0.579596757888794,-1.257807731628418,-0.881694495677948,0.1824142336845398,0.07540726661682129,-1.0375252962112427
17.0,-0.3489515781402588,0.044753074645996094,-0.13533416390419006,0.4353157877922058,0.11021311581134796,-1.3280022144317627
17.05,-0.7734352350234985,0.6134023666381836,0.07306388020515442,0.4521196186542511,0.13669560849666595,-1.6151690483093262
17.1,0.09412544965744019,0.7258644104003906,0.05135213956236839,0.3202207386493683,0.08778143674135208,-1.7694958448410034
17.15,-0.018076788634061813,0.6731071472167969,-0.023333100602030754,0.23441444337368011,0.18972164392471313,-1.6074591875076294
17.2,0.0866081491112709,0.2635965347290039,-0.025174658745527267,0.23778298497200012,0.5400496125221252,-1.0862600803375244
17.25,0.1616126149892807,0.02384280599653721,0.22053416073322296,0.23445628583431244,0.7467004060745239,-0.8538906574249268
17.3,0.16736266016960144,0.14527128636837006,0.36723005771636963,0.24164780974388123,0.7908100485801697,-0.8087177276611328
17.35,0.12655389308929443,0.11864469945430756,0.6539695262908936,0.2669374942779541,0.8010613918304443,-0.6776793599128723
17.4,0.0819472074508667,0.2388114631175995,0.8249084949493408,0.23867714405059814,0.7114213109016418,-0.5923376679420471
17.45,0.05377890169620514,0.5503129959106445,0.7981064319610596,0.14926765859127045,0.5540074706077576,-0.4989655911922455
17.5,0.16854679584503174,0.7706918716430664,0.728667676448822,0.028855469077825546,0.41189485788345337,-0.3166641294956207
17.55,0.13854581117630005,0.9317960739135742,0.3104860782623291,-0.09677574038505554,0.21879594027996063,-0.1997641772031784
17.6,0.14830639958381653,0.7320613861083984,-0.28775641322135925,-0.14567482471466064,0.05871118605136871,-0.03299177438020706
17.65,0.37973374128341675,0.18497277796268463,-0.6190543174743652,-0.11792659759521484,-0.035840000957250595,0.13670331239700317
17.7,0.368205189704895,-0.09828469902276993,-0.771352231502533,-0.08432966470718384,-0.07303156703710556,0.1659378856420517
17.75,0.2320580631494522,-0.22270391881465912,-0.6851814985275269,-0.07124881446361542,-0.03929385915398598,0.10489291697740555
17.8,0.18435727059841156,-0.23502729833126068,-0.5635886788368225,-0.09114033728837967,0.0003916572022717446,0.017175929620862007
17.85,0.12613879144191742,-0.1931304782629013,-0.5224649906158447,-0.10913971811532974,0.02913340926170349,-0.0033667339012026787
17.9,0.08561338484287262,-0.1433706134557724,-0.45305851101875305,-0.13193145394325256,0.04306398332118988,0.00512676453217864
17.95,0.16828840970993042,-0.2537832260131836,-0.37056964635849,-0.13010191917419434,0.043714478611946106,-0.04113612696528435
18.0,0.3168554902076721,-0.22990892827510834,-0.2269219160079956,-0.05467909574508667,0.0036211367696523666,-0.12416277825832367
18.05,0.47941046953201294,0.10846424847841263,-0.10888159275054932,0.10450030118227005,-0.07520341128110886,-0.14233268797397614
18.1,0.37703508138656616,0.4513835906982422,-0.06978840380907059,0.2072836309671402,-0.15253253281116486,-0.04845456779003143
18.15,0.1853943020105362,0.48609352111816406,-0.1659148633480072,0.1261865198612213,-0.1971179097890854,0.02608754113316536
18.2,0.029657971113920212,0.10593701153993607,-0.2835061550140381,-0.040845777839422226,-0.18578863143920898,0.03652821481227875
18.25,0.10393966734409332,-0.2162313312292099,-0.48886141180992126,-0.1177586242556572,-0.17392988502979279,0.010336782783269882
18.3,0.3499831557273865,-0.3787488639354706,-0.6270883679389954,-0.051235321909189224,-0.19466377794742584,-0.028127416968345642
18.35,0.473347008228302,-0.1230907216668129,-0.6147975921630859,0.06131760776042938,-0.18774446845054626,-0.04513402283191681
18.4,0.3831002116203308,0.2111959606409073,-0.5482692122459412,0.10736718773841858,-0.11507394909858704,-0.03642943874001503
18.45,0.24212998151779175,0.31354811787605286,-0.5591336488723755,0.05109088495373726,-0.02994552068412304,-0.029284294694662094
18.5,0.23065359890460968,0.09078218787908554,-0.5931209921836853,-0.026045646518468857,0.030214844271540642,-0.025658413767814636
18.55,0.3832221031188965,-0.365413635969162,-0.5517562627792358,-0.01705748401582241,0.07270671427249908,-0.022000810131430626
18.6,0.7522522211074829,-0.9795293807983398,-0.34067240357398987,0.10074130445718765,0.1403668075799942,-0.03344086557626724
18.65,1.0168657302856445,-1.7344474792480469,-0.1482517570257187,0.2937859892845154,0.2920568287372589,-0.0608949288725853
18.7,0.7136555314064026,-2.023137092590332,-0.3531227111816406,0.5724120140075684,0.7191640138626099,0.06405141949653625
18.75,0.7286714315414429,-1.486288070678711,-1.0002963542938232,0.7767410278320312,1.313970685005188,0.09114449471235275
18.8,-0.6141365766525269,0.716769278049469,-1.412555456161499,0.7362957000732422,1.5331614017486572,-0.4857749342918396
18.85,-1.308914065361023,2.0460634231567383,-0.8439711928367615,0.5802047252655029,1.4193761348724365,-0.8814725875854492
18.9,-0.8390173316001892,1.6880111694335938,-0.1325625330209732,0.43668699264526367,0.9855566024780273,-0.8450965285301208
18.95,-0.46375975012779236,0.6347894668579102,0.3496038317680359,0.4658156931400299,0.44254085421562195,-0.547199547290802
19.0,-0.06673629581928253,0.13491056859493256,0.6335410475730896,0.5659053325653076,0.10689045488834381,-0.18580420315265656
19.05,0.236368328332901,0.8868026733398438,0.606655478477478,0.6066697239875793,0.05918306112289429,0.41656428575515747
19.1,0.5640004873275757,0.27423667907714844,0.6249350309371948,0.680365264415741,0.07947992533445358,1.1840951442718506
19.15,0.334439754486084,0.03677081689238548,0.28090500831604004,0.643543004989624,0.09778833389282227,1.2846660614013672
19.2,-0.2836405634880066,0.5317354202270508,-0.09330844134092331,0.5582031011581421,0.16147303581237793,1.2617682218551636
19.25,-0.06588050723075867,0.2476339489221573,-0.4624972939491272,0.5430604815483093,0.14336293935775757,1.2556167840957642
19.3,0.5602331161499023,0.09563162922859192,-0.7837255001068115,0.5122255086898804,0.07999507337808609,1.0591175556182861
19.35,0.813910961151123,0.23082640767097473,-0.8015684485435486,0.39307481050491333,0.03413144499063492,0.7077277898788452
19.4,0.591737687587738,0.1679983288049698,-0.5046394467353821,0.15863031148910522,0.03806707262992859,0.24515926837921143
19.45,0.16265428066253662,0.11778450757265091,-0.11774618178606033,-0.03448840230703354,0.07973596453666687,-0.024412235245108604
19.5,0.01526753418147564,0.09991931915283203,-0.0015456411056220531,-0.03533652797341347,0.08607707172632217,0.011718499474227428
19.55,0.1378512680530548,0.16732120513916016,-0.16298873722553253,0.03016546554863453,0.0529726967215538,0.09048574417829514
19.6,0.20306017994880676,0.20361997187137604,-0.23650214076042175,0.019943339750170708,0.03334464877843857,0.06599514931440353
19.65,0.1312936693429947,0.19052791595458984,-0.16381202638149261,-0.02540004625916481,0.03356345370411873,0.019456204026937485
19.7,0.10034018754959106,0.16168689727783203,-0.156361386179924,-0.02922683395445347,0.028529826551675797,0.008390958420932293
19.75,0.13370242714881897,0.0943603590130806,-0.208767831325531,-0.008784371428191662,0.019988594576716423,0.023240571841597557
19.8,0.1558067947626114,0.08872032910585403,-0.20211036503314972,-0.005031709559261799,0.008068648166954517,0.026984581723809242
19.85,0.1279115080833435,0.10390568524599075,-0.16571253538131714,-0.002872887533158064,-0.009352133609354496,0.01984231173992157
