Time [s],Acc_x [m/s^2],Acc_y [m/s^2],Acc_z [m/s^2],Gyro_x [1/s],Gyro_y [1/s],Gyro_z [1/s]
0.0,-0.36227551102638245,0.2757120132446289,-0.028544504195451736,0.08235487341880798,0.34083083271980286,-0.2465362399816513
0.05,-0.2511763274669647,0.2800264358520508,0.01377695519477129,0.08212866634130478,0.340858519077301,-0.24657347798347473
0.1,-0.13784949481487274,0.3053884506225586,0.03700882941484451,0.07739008963108063,0.33885762095451355,-0.24816206097602844
0.15,-0.0569886788725853,0.36642932891845703,0.07019754499197006,0.059502314776182175,0.31998687982559204,-0.23873724043369293
0.2,-0.04157120734453201,0.36296749114990234,0.19434529542922974,0.045949820429086685,0.2586440443992615,-0.181504487991333
0.25,-0.0533132329583168,0.3524293899536133,0.06875511258840561,0.037770360708236694,0.17978741228580475,-0.12376429885625839
0.3,-0.006779064424335957,0.2961874008178711,0.05508144944906235,0.029023751616477966,0.13975107669830322,-0.08620614558458328
0.35,-0.0358714796602726,0.22941303253173828,0.04344905540347099,0.019450675696134567,0.11269725859165192,-0.06260617077350616
0.4,-0.030298102647066116,0.23488330841064453,0.08908773213624954,0.007601765915751457,0.08260565996170044,-0.03007757104933262
0.45,-0.015528522431850433,0.2818002700805664,0.13055309653282166,-0.007350480183959007,0.04850154370069504,-0.0019687816966325045
0.5,0.017495635896921158,0.27912330627441406,0.07707483321428299,-0.015984006226062775,0.013056332245469093,0.0338917076587677
0.55,0.014019167050719261,0.28331470489501953,0.12626053392887115,-0.017659462988376617,-0.013446013443171978,0.05887759476900101
0.6,0.032590121030807495,0.2941160202026367,0.20311389863491058,-0.017838696017861366,-0.07050958275794983,0.09339587390422821
0.65,0.02018844336271286,0.2481698989868164,0.13722237944602966,-0.031998489052057266,-0.1290896236896515,0.13078458607196808
0.7,0.0032013822346925735,0.19338321685791016,0.0320916548371315,-0.03709569573402405,-0.17457303404808044,0.1656000167131424
0.75,-0.027417942881584167,0.1355571746826172,-0.058049049228429794,-0.03741329535841942,-0.18290410935878754,0.16956661641597748
0.8,-0.05983493849635124,0.15299510955810547,-0.018079504370689392,-0.03611494228243828,-0.1677159070968628,0.15381018817424774
0.85,-0.06094440072774887,0.1244058609008789,-0.0633806437253952,-0.04124428704380989,-0.1579190492630005,0.1429951786994934
0.9,-0.01432408019900322,0.20444202423095703,-0.09409801661968231,-0.04048706218600273,-0.15566425025463104,0.12653326988220215
0.95,0.008515844121575356,0.15102100372314453,0.03433313965797424,-0.04412640258669853,-0.14927858114242554,0.11048633605241776
1.0,-0.027185875922441483,0.17338085174560547,-0.07900990545749664,-0.05587314814329147,-0.1554538905620575,0.10281510651111603
1.05,-0.07104626297950745,0.13180923461914062,-0.12254390865564346,-0.055862538516521454,-0.14840251207351685,0.11102789640426636
1.1,-0.053946543484926224,0.14154720306396484,-0.1236715316772461,-0.05650079995393753,-0.1219639927148819,0.10212066024541855
1.15,-0.07365471869707108,0.23212146759033203,-0.050326645374298096,-0.053493060171604156,-0.09122645109891891,0.0938265398144722
1.2,-0.06703125685453415,0.2327737808227539,-0.020923325791954994,-0.05207684636116028,-0.06957069039344788,0.08538733422756195
1.25,-0.09280993044376373,0.2539205551147461,-0.038405708968639374,-0.06301601976156235,-0.04829498007893562,0.07954856753349304
1.3,-0.05865833908319473,0.25485897064208984,-0.06427133828401566,-0.05364769697189331,-0.045536261051893234,0.07285413146018982
1.35,-0.0014037415385246277,0.23708629608154297,-0.05289196968078613,-0.049805864691734314,-0.03775010630488396,0.07788249105215073
1.4,-0.08669422566890717,0.2167501449584961,0.06853574514389038,-0.063055120408535,-0.02639475278556347,0.08543914556503296
1.45,-0.05775963515043259,0.23956871032714844,0.0740448459982872,-0.061318691819906235,-0.03964189067482948,0.09583315998315811
1.5,-0.014522808603942394,0.2595176696777344,0.04998132213950157,-0.06211470440030098,-0.045724060386419296,0.10301493108272552
1.55,-0.052718281745910645,0.19358444213867188,-0.034070439636707306,-0.07047915458679199,-0.03768579661846161,0.10968299210071564
1.6,-0.05371705815196037,0.17860889434814453,-0.025750406086444855,-0.07772097736597061,-0.028514862060546875,0.1246429979801178
1.65,-0.07142360508441925,0.1710195541381836,-0.06742775440216064,-0.08093534409999847,-0.02137542888522148,0.11662819981575012
1.7,-0.06734362989664078,0.11127853393554688,-0.07828153669834137,-0.06729256361722946,-0.022797726094722748,0.1005590483546257
1.75,-0.06888342648744583,0.06317138671875,-0.06330451369285583,-0.04755031317472458,-0.025531403720378876,0.08036619424819946
1.8,-0.11114351451396942,0.1714029312133789,-0.11234452575445175,-0.03437977656722069,-0.025856981053948402,0.06668487191200256
1.85,-0.04090818390250206,0.21456336975097656,-0.1248374730348587,-0.021012302488088608,-0.020058194175362587,0.06622996181249619
1.9,-0.06822305172681808,0.1690225601196289,-0.0013064868981018662,-0.028028514236211777,-0.0036783472169190645,0.06160059571266174
1.95,-0.031964294612407684,0.07845115661621094,0.03141048178076744,-0.034914273768663406,-0.0010909922420978546,0.053811945021152496
2.0,-0.07622593641281128,0.07176780700683594,-0.013084311038255692,-0.020652171224355698,-0.009733183309435844,0.042866673320531845
2.05,-0.12024436891078949,0.08323383331298828,-0.14977964758872986,0.0013837851583957672,-0.007234386634081602,0.025136593729257584
2.1,-0.09532342106103897,0.01777077093720436,-0.14828947186470032,0.016665080562233925,0.010326442308723927,-0.001602400210686028
2.15,-0.09584707766771317,0.028098108246922493,-0.07694756984710693,0.02194470912218094,0.04813169687986374,-0.04278521612286568
2.2,-0.08977889269590378,0.12390708923339844,-0.00887962058186531,0.028863847255706787,0.07616126537322998,-0.07775670289993286
2.25,-0.018122350797057152,0.1401529312133789,0.009692286141216755,0.03683828189969063,0.08768245577812195,-0.10321067273616791
2.3,0.004169134423136711,0.08181285858154297,0.007582777179777622,0.041090890765190125,0.09942852705717087,-0.11781328916549683
2.35,0.0038324289489537477,0.1226949691772461,-0.0060827117413282394,0.050126150250434875,0.09996311366558075,-0.13358809053897858
2.4,0.015636444091796875,0.12028789520263672,-0.06626900285482407,0.06128641217947006,0.10408012568950653,-0.15720096230506897
2.45,-0.07086816430091858,0.06677914410829544,-0.15245096385478973,0.08737567067146301,0.09980357438325882,-0.18523800373077393
2.5,-0.08701418340206146,0.068879134953022,-0.26368623971939087,0.11594494432210922,0.11232373863458633,-0.2072857916355133
2.55,-0.10657620429992676,0.023006446659564972,-0.2773115932941437,0.12053024023771286,0.16349203884601593,-0.2453593760728836
2.6,-0.15411263704299927,0.032288558781147,-0.27916088700294495,0.12729574739933014,0.2520017623901367,-0.2858728766441345
2.65,-0.11455295979976654,-0.06758212298154831,-0.41710373759269714,0.15615513920783997,0.35134005546569824,-0.3132425546646118
2.7,-0.19752450287342072,-0.034568771719932556,-0.5249207019805908,0.22291043400764465,0.4595519006252289,-0.3659334182739258
2.75,-0.28395727276802063,-0.1674814075231552,-0.5656671524047852,0.3144283890724182,0.5986513495445251,-0.4346713125705719
2.8,-0.457852303981781,0.025974281132221222,-0.3952288031578064,0.4359079599380493,0.7490267753601074,-0.5346420407295227
2.85,-0.1498568058013916,0.08453655987977982,-0.19289690256118774,0.4742879271507263,0.9182174205780029,-0.6449059844017029
2.9,-0.2564648985862732,0.17734718322753906,-0.03034144826233387,0.4484530985355377,1.023701548576355,-0.737926185131073
2.95,-0.14286480844020844,0.35262393951416016,0.3573109805583954,0.4471477270126343,1.0885577201843262,-0.7665899395942688
3.0,-0.014719121158123016,0.3249616324901581,0.5469440221786499,0.44772887229919434,1.0172615051269531,-0.7519863843917847
3.05,0.15920023620128632,0.3035697937011719,0.43437156081199646,0.44476601481437683,0.9537246227264404,-0.7475013732910156
3.1,0.3252381682395935,0.36585521697998047,0.40956738591194153,0.47326409816741943,0.8785462975502014,-0.7073830366134644
3.15,0.32644039392471313,0.6080379486083984,0.6535122990608215,0.3841472864151001,0.8404101133346558,-0.6748313903808594
3.2,0.5812312364578247,0.5444498062133789,0.6732820272445679,0.3423972427845001,0.7364208698272705,-0.527958333492279
3.25,0.6352632641792297,0.45322033762931824,0.7429000735282898,0.26568588614463806,0.5895165801048279,-0.401244580745697
3.3,0.6277331709861755,0.33656784892082214,0.8515357375144958,0.14268341660499573,0.46198171377182007,-0.2794376015663147
3.35,0.6143710613250732,0.17818354070186615,0.7742752432823181,0.031905800104141235,0.3362641930580139,-0.15487360954284668
3.4,0.4911854863166809,0.10967253148555756,0.5984463095664978,-0.04289785027503967,0.18775524199008942,-0.09394198656082153
3.45,0.31909364461898804,0.16215132176876068,0.3862145245075226,-0.0559709295630455,0.05123613402247429,-0.09658198803663254
3.5,0.27057015895843506,0.36310863494873047,0.10874856263399124,-0.0201434213668108,-0.045437853783369064,-0.11145615577697754
3.55,0.23635566234588623,0.46988582611083984,0.0038928603753447533,0.007109303958714008,-0.06579377502202988,-0.06331384927034378
3.6,0.10160566866397858,0.2891969680786133,-0.004104821477085352,0.05610481649637222,-0.08083278685808182,0.0017856325721368194
3.65,0.06056429073214531,0.175567626953125,-0.004004438873380423,0.12402364611625671,-0.08923736214637756,0.035979583859443665
3.7,0.05829256400465965,0.01026343833655119,0.18633081018924713,0.13362009823322296,-0.045307986438274384,0.042414359748363495
3.75,0.0748138427734375,-0.0403747633099556,0.28500545024871826,0.10290924459695816,-0.024842876940965652,0.010267593897879124
3.8,0.09586866199970245,0.0008640253217890859,0.15077266097068787,0.08165322244167328,-0.03705954551696777,-0.020487070083618164
3.85,0.056346289813518524,0.07029438018798828,0.06783871352672577,0.05539198964834213,-0.028990475460886955,-0.03781680762767792
3.9,0.08442781865596771,0.12116050720214844,0.058060090988874435,0.03903632611036301,-0.013192647136747837,-0.02890469878911972
3.95,0.10319291800260544,0.11083698272705078,0.11500299721956253,0.031048495322465897,0.004895967897027731,-0.037042055279016495
4.0,0.17865321040153503,0.13054943084716797,0.1554526537656784,0.03322833403944969,0.002827731193974614,-0.060295674949884415
4.05,0.19622565805912018,0.15840721130371094,0.14569726586341858,0.03527405858039856,-0.004334073048084974,-0.06756085157394409
4.1,0.17765162885189056,0.1521472930908203,0.1628800630569458,0.033007483929395676,-0.012014210224151611,-0.06976526975631714
4.15,0.13369667530059814,0.1798992156982422,0.12438486516475677,0.04037976264953613,-0.03270246088504791,-0.06919898092746735
4.2,0.03575937822461128,0.21150875091552734,0.1266736537218094,0.05610863119363785,-0.045788925141096115,-0.05956060439348221
4.25,0.0339106023311615,0.1079244613647461,0.1266067624092102,0.05157835781574249,-0.027995461598038673,-0.04111956059932709
4.3,0.012822609394788742,0.051446910947561264,0.1760084331035614,0.034527432173490524,-0.013267839327454567,-0.037363067269325256
4.35,0.02833559550344944,0.03249644860625267,0.13429152965545654,0.017319170758128166,-0.013437928631901741,-0.04222354292869568
4.4,0.06886066496372223,0.05245303735136986,0.09490643441677094,-0.012355015613138676,-0.002605423564091325,-0.055895522236824036
4.45,0.08668976277112961,0.08139705657958984,0.07766161113977432,-0.04731948673725128,0.0072610159404575825,-0.05490102618932724
4.5,0.11330700665712357,0.14487075805664062,0.06981628388166428,-0.07642525434494019,0.0046857064589858055,-0.046121515333652496
4.55,0.12421099841594696,0.1875295639038086,0.08503057062625885,-0.09193327277898788,-0.00910947099328041,-0.03585267439484596
4.6,0.05649586021900177,0.21229267120361328,0.0690818801522255,-0.09105052053928375,-0.04709722846746445,-0.028350744396448135
4.65,-0.014006337150931358,0.22067546844482422,0.00944851990789175,-0.07523351907730103,-0.07394734025001526,-0.015742018818855286
4.7,0.008510205894708633,0.23432064056396484,-0.017164435237646103,-0.06737963855266571,-0.05055096372961998,-0.004780688788741827
4.75,0.09443973004817963,0.1973724365234375,0.07938176393508911,-0.06985192000865936,-0.0023338485043495893,0.004528293386101723
4.8,0.12618198990821838,0.1744527816772461,0.18566305935382843,-0.05549104884266853,0.00578580005094409,0.007326814346015453
4.85,0.11862308531999588,0.21436309814453125,0.10426297038793564,-0.03270198777318001,-0.0171330776065588,-0.0019443831406533718
4.9,0.119549460709095,0.21327686309814453,0.051537711173295975,-0.023579828441143036,-0.021115083247423172,-0.009038942866027355
4.95,0.08145739138126373,0.14960479736328125,0.06563075631856918,-0.01564309373497963,-0.013657176867127419,0.0007014757138676941
5.0,0.10011398047208786,0.12587547302246094,0.1114177480340004,-0.010061672888696194,-0.00760438060387969,0.002362729050219059
5.05,0.09433117508888245,0.1556243896484375,0.12739942967891693,-0.004290060140192509,-0.0034196681808680296,-0.007687960751354694
5.1,0.04456893354654312,0.19783687591552734,0.09052015841007233,0.0026833435986191034,-0.005119396839290857,-0.015753503888845444
5.15,0.0481904111802578,0.28679370880126953,0.04786021262407303,0.006780756637454033,0.0023745328653603792,-0.007731935940682888
5.2,0.06203579157590866,0.30101490020751953,0.05029845982789993,0.010873881168663502,0.008667823858559132,0.017344104126095772
5.25,0.07496897876262665,0.18012428283691406,0.030186600983142853,0.008242500945925713,0.024071166291832924,0.07758532464504242
5.3,0.019970722496509552,0.06093406677246094,-0.0023643532767891884,-0.004801668226718903,0.08412566035985947,0.14691293239593506
5.35,-0.05107683688402176,-0.013651850633323193,0.08600464463233948,-0.007133524864912033,0.14259333908557892,0.12459523230791092
5.4,0.03262345865368843,-0.01872444711625576,0.20974652469158173,-0.014655089005827904,0.14847469329833984,0.03677400201559067
5.45,0.23196151852607727,0.18461132049560547,0.16477999091148376,-0.04237372428178787,0.12119818478822708,-0.023671891540288925
5.5,0.37286117672920227,0.38648223876953125,0.1731543242931366,-0.05762248486280441,0.07787793129682541,-0.013789257034659386
5.55,0.4424176812171936,0.3497285842895508,0.4961754083633423,-0.05392584204673767,-0.04853018745779991,0.07210258394479752
5.6,0.3757537007331848,0.3222627341747284,0.6275204420089722,-0.08444193005561829,-0.24731354415416718,0.18154239654541016
5.65,0.2867574691772461,0.23727796971797943,0.49803152680397034,-0.15818557143211365,-0.42004117369651794,0.2831760048866272
5.7,0.1542946696281433,0.18587015569210052,0.5060038566589355,-0.25864309072494507,-0.5645890831947327,0.35237380862236023
5.75,0.012941695749759674,0.14212416112422943,0.43817460536956787,-0.3008905351161957,-0.6721059083938599,0.3926604390144348
5.8,-0.1137908473610878,0.07888507097959518,0.316279798746109,-0.31529200077056885,-0.7896237969398499,0.3744639456272125
5.85,-0.18692328035831451,0.10267352312803268,0.1409342736005783,-0.32995665073394775,-0.8817980289459229,0.3273237645626068
5.9,-0.2485124170780182,0.0978994369506836,-0.13411380350589752,-0.3127366304397583,-0.9116784334182739,0.2754300534725189
5.95,-0.29705166816711426,0.14484310150146484,-0.32962316274642944,-0.2637844979763031,-0.8952454924583435,0.2205960750579834
6.0,-0.23970425128936768,0.2018270641565323,-0.6164088845252991,-0.184023916721344,-0.8214045166969299,0.16950073838233948
6.05,-0.25797778367996216,0.16442395746707916,-0.6667293310165405,-0.1169782280921936,-0.6652571558952332,0.1412622332572937
6.1,-0.26493796706199646,0.10791398584842682,-0.6723233461380005,-0.08699886500835419,-0.4455675780773163,0.13025103509426117
6.15,-0.2959684431552887,0.15154172480106354,-0.6253020763397217,-0.07292306423187256,-0.21342988312244415,0.11058507114648819
6.2,-0.24216768145561218,0.20683765411376953,-0.31623685359954834,-0.0492132306098938,-0.03646469488739967,0.11105324327945709
6.25,-0.07699359208345413,0.24322032928466797,0.05827993154525757,-0.024852201342582703,0.03504033014178276,0.11983846127986908
6.3,0.09535087645053864,0.3568153381347656,0.35904890298843384,-0.03900258615612984,0.028961386531591415,0.130500927567482
6.35,0.17890605330467224,0.34984493255615234,0.4703839421272278,-0.09955419600009918,-0.03858652710914612,0.18206904828548431
6.4,0.15731178224086761,0.2467317432165146,0.39621928334236145,-0.1425473392009735,-0.15551473200321198,0.2396569401025772
6.45,0.08605384826660156,0.21502971649169922,0.23482424020767212,-0.17551788687705994,-0.2617231607437134,0.27773648500442505
6.5,0.016617676243185997,0.1987142562866211,0.11135786026716232,-0.2169564962387085,-0.312028706073761,0.3065905272960663
6.55,-0.06063256412744522,0.12047004699707031,-0.07217289507389069,-0.23741957545280457,-0.3189143240451813,0.31656548380851746
6.6,-0.0950612798333168,0.14978599548339844,-0.057888101786375046,-0.21975834667682648,-0.30704066157341003,0.3077782988548279
6.65,-0.06460662186145782,0.19148826599121094,-0.09965459257364273,-0.2015155851840973,-0.27214646339416504,0.304614782333374
6.7,-0.1703287661075592,0.20801067352294922,-0.19695870578289032,-0.19136971235275269,-0.22736144065856934,0.29985669255256653
6.75,-0.23760013282299042,0.16317272186279297,-0.2408096194267273,-0.16727451980113983,-0.18857447803020477,0.29065680503845215
6.8,-0.16949597001075745,0.08737850934267044,-0.3492160439491272,-0.14349918067455292,-0.130902498960495,0.2782675623893738
6.85,-0.13423603773117065,0.07902050763368607,-0.29461103677749634,-0.1290462613105774,-0.06564595550298691,0.2502056956291199
6.9,-0.1764320433139801,-0.11058521270751953,-0.04800327122211456,-0.11167432367801666,-0.02054314687848091,0.218510240316391
6.95,-0.21861372888088226,-0.14050006866455078,-0.01085808128118515,-0.07694661617279053,-0.008217638358473778,0.18741019070148468
7.0,-0.1520407348871231,-0.03471659868955612,-0.2932303249835968,-0.03679415583610535,0.007433053571730852,0.1715288907289505
7.05,-0.15216004848480225,0.0316934697329998,-0.37201252579689026,-0.02270585671067238,0.0609002523124218,0.15992461144924164
7.1,-0.22774845361709595,0.09620953351259232,-0.4252864420413971,-0.026191923767328262,0.13966672122478485,0.1386011838912964
7.15,-0.3214608132839203,0.1358194500207901,-0.6051346659660339,-0.011392813175916672,0.23644188046455383,0.13030149042606354
7.2,-0.42669594287872314,0.1370992809534073,-0.8254849314689636,0.01024533063173294,0.3792863190174103,0.10771647095680237
7.25,-0.6820758581161499,-0.00011536941747181118,-1.052594542503357,0.006177883595228195,0.6390548944473267,0.03956491872668266
7.3,-0.9190876483917236,-0.2383107841014862,-1.28682541847229,0.03188774362206459,0.970050573348999,-0.04197356849908829
7.35,-1.1070493459701538,-0.2530650794506073,-1.245267629623413,0.1588640809059143,1.316716194152832,-0.17444244027137756
7.4,-1.262818694114685,-0.07765863835811615,-0.8341495990753174,0.33693259954452515,1.6639978885650635,-0.3584403097629547
7.45,-1.1454414129257202,0.2593669891357422,-0.12986129522323608,0.5077053308486938,1.951537847518921,-0.548243522644043
7.5,-0.6267509460449219,0.6391362547874451,0.8714555501937866,0.5557733774185181,2.087146282196045,-0.6391258835792542
7.55,0.24380168318748474,0.5932959914207458,1.5065295696258545,0.49205607175827026,2.0486159324645996,-0.6084746718406677
7.6,0.967760443687439,0.35022732615470886,1.6782097816467285,0.4019792675971985,1.8506407737731934,-0.5626646280288696
7.65,1.4353549480438232,0.2447633445262909,1.4946383237838745,0.2823645770549774,1.5665063858032227,-0.4805361032485962
7.7,2.0873117446899414,0.2346048206090927,1.2970144748687744,0.09919725358486176,1.2963697910308838,-0.3223522901535034
7.75,3.2754452228546143,0.6374940872192383,1.705068588256836,-0.15841415524482727,1.0150341987609863,-0.038009338080883026
7.8,2.554572820663452,0.4760112464427948,1.5038752555847168,-0.15595215559005737,0.4025924503803253,0.27372339367866516
7.85,0.6953801512718201,-0.23351480066776276,0.6615597605705261,0.013533852994441986,-0.2560276389122009,0.3194935917854309
7.9,-0.010070602409541607,-0.35692310333251953,0.07684708386659622,8.37668776512146e-05,-0.44201257824897766,0.17492640018463135
7.95,-0.236064612865448,-0.18735694885253906,-0.08962098509073257,-0.08480751514434814,-0.34071800112724304,0.03313254192471504
8.0,-0.2473735511302948,0.04589557647705078,-0.11383134871721268,-0.10131904482841492,-0.23541374504566193,-0.1158321425318718
8.05,-0.18231281638145447,0.24683284759521484,-0.19669698178768158,-0.07234306633472443,-0.15694375336170197,-0.22468993067741394
8.1,-0.048752881586551666,0.4281177520751953,-0.1085263341665268,-0.06795598566532135,-0.059168122708797455,-0.23153074085712433
8.15,0.11495590209960938,0.5275583267211914,0.01756291463971138,-0.06274018436670303,0.0017680121818557382,-0.16594648361206055
8.2,0.11870560050010681,0.4195671081542969,0.08555305004119873,-0.030247939750552177,0.0016141297528520226,-0.09371983259916306
8.25,0.029354894533753395,0.2637825012207031,0.11475323140621185,0.0010641282424330711,-0.023895157501101494,-0.04734848067164421
8.3,0.08062193542718887,0.1929464340209961,0.15565639734268188,0.012231685221195221,-0.024792654439806938,-0.0341646671295166
8.35,0.30373769998550415,0.12062358111143112,0.22953595221042633,0.013083001598715782,-0.01953413337469101,-0.04399912804365158
8.4,0.4833146631717682,0.05337809771299362,0.32975658774375916,0.0001691216602921486,-0.0759701132774353,-0.05597028136253357
8.45,0.609497606754303,0.10358141362667084,0.6013913154602051,-0.03211591765284538,-0.19921371340751648,-0.06708742678165436
8.5,0.9007124900817871,0.03952692449092865,0.7578656673431396,-0.07977808266878128,-0.36819347739219666,-0.05954433232545853
8.55,1.0781975984573364,0.0686940923333168,1.0227373838424683,-0.15928341448307037,-0.5836786031723022,-0.0075557962991297245
8.6,0.8699780702590942,0.16595934331417084,0.8108019828796387,-0.2311837077140808,-0.83621746301651,0.09360954910516739
8.65,0.5813613533973694,0.25038623809814453,0.4275898337364197,-0.2718961834907532,-1.0852397680282593,0.21024277806282043
8.7,0.2619895935058594,0.3635978698730469,0.38193172216415405,-0.28229978680610657,-1.2823834419250488,0.2839401364326477
8.75,-0.05922243744134903,0.4608144760131836,0.31518954038619995,-0.29501795768737793,-1.4020094871520996,0.3351207673549652
8.8,-0.25882667303085327,0.44023704528808594,0.08076544106006622,-0.32963091135025024,-1.425323724746704,0.373970091342926
8.85,-0.4268944561481476,0.38265419006347656,0.06034689024090767,-0.3382638096809387,-1.3944249153137207,0.3685009479522705
8.9,-0.6584389209747314,0.2608194351196289,0.03696625679731369,-0.254619300365448,-1.4283965826034546,0.3390970826148987
8.95,-0.7245892286300659,0.12949657440185547,-0.24918578565120697,-0.1293695569038391,-1.4708410501480103,0.27597177028656006
9.0,-0.5922074317932129,0.22772599756717682,-0.4457625150680542,-0.05342129245400429,-1.4052207469940186,0.20348045229911804
9.05,-0.5228357315063477,0.2039642482995987,-0.5566583275794983,-0.025540146976709366,-1.2634018659591675,0.15842436254024506
9.1,-0.4519273638725281,0.10864736139774323,-0.6668504476547241,-0.00212659128010273,-1.0649888515472412,0.12334369122982025
9.15,-0.4537138342857361,0.09326650202274323,-0.7627844214439392,0.04600135236978531,-0.8637689352035522,0.1191176250576973
9.2,-0.3539360761642456,0.1374988704919815,-0.6477217674255371,0.0694001317024231,-0.6530027985572815,0.1336502879858017
9.25,-0.1771087646484375,0.16728784143924713,-0.4081101715564728,0.05162219703197479,-0.4448363184928894,0.14002132415771484
9.3,-0.14339286088943481,0.12299443036317825,-0.20723143219947815,0.01955033466219902,-0.3028830289840698,0.15017397701740265
9.35,-0.15632791817188263,0.09865951538085938,-0.11576512455940247,-0.004515163600444794,-0.21920695900917053,0.15291711688041687
9.4,-0.037494465708732605,0.10179425030946732,-0.1569747030735016,-0.00845327414572239,-0.15920434892177582,0.14899756014347076
9.45,-0.012258607894182205,0.09899044036865234,-0.12542548775672913,-0.003577958792448044,-0.10528098791837692,0.14142954349517822
9.5,-0.02012445405125618,0.0989694595336914,-0.04373128339648247,0.00035565346479415894,-0.04754607006907463,0.12419718503952026
9.55,0.0545305572450161,0.1396636962890625,0.011435898952186108,-0.011448951438069344,-0.005226122215390205,0.11387346684932709
9.6,0.09599868953227997,0.19548320770263672,0.0927075520157814,-0.037269145250320435,0.008466354571282864,0.10380414873361588
9.65,0.10981573909521103,0.14962482452392578,-0.007013370282948017,-0.050748273730278015,-0.0016203351551666856,0.10484929382801056
9.7,0.03820649906992912,0.12050342559814453,0.002261495916172862,-0.053398679941892624,-0.009593814611434937,0.10177365690469742
9.75,0.051995281130075455,0.17174053192138672,-0.018068725243210793,-0.055477868765592575,-0.0009723165421746671,0.08058594912290573
9.8,0.06127955764532089,0.2166452407836914,-0.008756114169955254,-0.03999002277851105,0.009248213842511177,0.06607295572757721
9.85,0.055674027651548386,0.1620016098022461,0.055545758455991745,-0.02490628883242607,0.013484898023307323,0.06404397636651993
9.9,0.09038008749485016,0.14463329315185547,0.08683378249406815,-0.021969454362988472,0.013353593647480011,0.059824034571647644
9.95,0.10244205594062805,0.17154407501220703,0.04151689261198044,-0.029182765632867813,0.008041229099035263,0.053470637649297714
10.0,0.033081766217947006,0.21871471405029297,0.15056262910366058,-0.05154171586036682,0.014496869407594204,0.04746989533305168
10.05,0.015319939702749252,0.2535543441772461,0.16759558022022247,-0.05187588930130005,0.0027648713439702988,0.04897812753915787
10.1,0.01662304997444153,0.19013309478759766,0.09614115953445435,-0.0453365333378315,-0.017665555700659752,0.05259733274579048
10.15,0.005004553124308586,0.10174369812011719,0.1253659725189209,-0.04359984025359154,-0.026012590155005455,0.055058032274246216
10.2,0.03028116375207901,0.09502505511045456,0.17430895566940308,-0.04276460409164429,-0.024669615551829338,0.05372341349720955
10.25,0.03978438675403595,0.04613589867949486,0.07969219237565994,-0.038657769560813904,-0.029904913157224655,0.04731273278594017
10.3,0.031194131821393967,0.0865335464477539,0.05648595467209816,-0.027141934260725975,-0.03267098218202591,0.03899402543902397
10.35,0.07251658290624619,0.1764211654663086,0.0376264862716198,-0.011565717868506908,-0.0268410574644804,0.02797052077949047
10.4,0.09292485564947128,0.1954975128173828,-0.004130819346755743,0.004327990114688873,-0.02390364557504654,0.01402598898857832
10.45,0.03589731454849243,0.24766826629638672,0.017367102205753326,0.0212982390075922,-0.020577330142259598,0.011893115937709808
10.5,0.04396086558699608,0.19319534301757812,0.026120591908693314,0.024512842297554016,-0.009004900231957436,0.012630810961127281
10.55,0.004944054409861565,0.15075969696044922,0.06764218956232071,0.034378767013549805,-0.004109932109713554,0.013179721310734749
10.6,0.0268239825963974,0.13892650604248047,0.12633220851421356,0.044076427817344666,0.0014361217617988586,0.010199920274317265
10.65,0.05193070322275162,0.21838092803955078,0.13267424702644348,0.04452139511704445,0.007951054722070694,-0.0005744991358369589
10.7,0.0650855153799057,0.27579307556152344,0.1566849648952484,0.04374145343899727,0.0026609660126268864,-0.007308652624487877
10.75,0.084053635597229,0.2705659866333008,0.10250432044267654,0.04438268765807152,-0.015280270017683506,-0.000937784556299448
10.8,0.07075008004903793,0.2346200942993164,0.0727466270327568,0.02931564673781395,-0.022841304540634155,0.009174809791147709
10.85,0.06343255192041397,0.15974998474121094,0.03622312843799591,-0.0024542019236832857,-0.022017301991581917,0.024100538343191147
10.9,-0.0621749609708786,0.0016727425390854478,0.05991332605481148,-0.02505579963326454,-0.028201470151543617,0.040571101009845734
10.95,-0.08164556324481964,0.08141613751649857,-0.16378505527973175,-0.03819127753376961,-0.03404264524579048,0.05466713756322861
11.0,-0.045013923197984695,0.18779850006103516,-0.14299117028713226,-0.055742569267749786,-0.017086008563637733,0.06053289771080017
11.05,-0.07177470624446869,0.16105937957763672,-0.11254910379648209,-0.0575726255774498,-0.0022448229137808084,0.05933716893196106
11.1,-0.06908741593360901,0.0883483961224556,-0.15562313795089722,-0.05035948008298874,0.00812957901507616,0.0488782674074173
11.15,-0.0879046693444252,0.08829022198915482,-0.1973457932472229,-0.029479075223207474,0.028135616332292557,0.02201203815639019
11.2,-0.08722645044326782,0.1398000717163086,-0.1618478000164032,-0.006518989335745573,0.06607668101787567,-0.003418773878365755
11.25,-0.10266846418380737,0.10508346557617188,-0.1452205628156662,0.0015595410950481892,0.10793815553188324,-0.028066715225577354
11.3,-0.11085943877696991,0.017420774325728416,-0.20127668976783752,-0.0026157191023230553,0.14765331149101257,-0.04565370827913284
11.35,-0.10451081395149231,-0.08742140978574753,-0.18592622876167297,0.010572693310678005,0.18274915218353271,-0.07588941603899002
11.4,-0.09683378785848618,-0.14045333862304688,-0.08795014768838882,0.023381564766168594,0.22602353990077972,-0.11432339251041412
11.45,-0.050478335469961166,-0.13068294525146484,-0.12985040247440338,0.03619440644979477,0.2605486512184143,-0.15942107141017914
11.5,0.049644242972135544,-0.07893943041563034,-0.14762412011623383,0.08026979863643646,0.29607319831848145,-0.21739542484283447
11.55,0.054049063473939896,0.12763500213623047,0.10466884821653366,0.15542533993721008,0.3422749638557434,-0.2880215048789978
11.6,0.2286052405834198,0.130523681640625,0.05640258267521858,0.22671891748905182,0.3329783082008362,-0.3441542685031891
11.65,0.10783257335424423,0.21604442596435547,0.1534748077392578,0.2727356553077698,0.32137906551361084,-0.38521209359169006
11.7,0.16925516724586487,0.14140892028808594,0.061071548610925674,0.28495627641677856,0.33558565378189087,-0.3835051953792572
11.75,0.055121466517448425,0.13512325286865234,0.27034708857536316,0.28185904026031494,0.39079219102859497,-0.39131250977516174
11.8,0.030927978456020355,0.12041758745908737,0.3040306270122528,0.31292620301246643,0.3995741903781891,-0.411578893661499
11.85,-0.07185068726539612,0.18207836151123047,-0.017733685672283173,0.35334956645965576,0.37173786759376526,-0.4392867088317871
11.9,-0.03462154418230057,0.21346570551395416,-0.40446358919143677,0.3871039152145386,0.43599268794059753,-0.38699308037757874
11.95,-0.07736043632030487,0.14478112757205963,-0.4059278070926666,0.4192948341369629,0.5634654760360718,-0.3573082983493805
12.0,-0.25930559635162354,0.25090885162353516,-0.2519238591194153,0.4148377776145935,0.733734130859375,-0.40567752718925476
12.05,-0.1657974123954773,0.33504581451416016,-0.2681163549423218,0.4094264805316925,0.9459279775619507,-0.4622480571269989
12.1,-0.08907463401556015,0.4562835693359375,0.22438576817512512,0.3823869228363037,1.1515591144561768,-0.5231590867042542
12.15,0.1282905787229538,0.4500398337841034,0.5750831961631775,0.29135650396347046,1.242559790611267,-0.5195772051811218
12.2,0.2717430889606476,0.2935771942138672,0.4027930498123169,0.30205705761909485,1.0976418256759644,-0.5090706944465637
12.25,0.38258498907089233,0.13976000249385834,0.565165638923645,0.34407463669776917,0.9148631691932678,-0.5053452253341675
12.3,0.34567779302597046,0.29127025604248047,0.5074118971824646,0.3460349142551422,0.7321280241012573,-0.4735470116138458
12.35,0.483481764793396,0.3048744201660156,0.45702069997787476,0.32999861240386963,0.6725980043411255,-0.38758471608161926
12.4,0.7087953686714172,0.35224246978759766,0.6150013208389282,0.23409417271614075,0.6205528974533081,-0.2945784032344818
12.45,0.8156960010528564,0.23471926152706146,0.913719892501831,0.10888274013996124,0.5186432003974915,-0.16749271750450134
12.5,0.8018314838409424,0.10652635246515274,0.8851221799850464,0.02583785355091095,0.3224289119243622,-0.06346562504768372
12.55,0.6496654748916626,0.06171034276485443,0.6963154673576355,-0.04109871760010719,0.11819544434547424,-0.026610806584358215
12.6,0.4860219359397888,0.014818181283771992,0.4960775077342987,-0.07271205633878708,-0.043252065777778625,-0.0224577859044075
12.65,0.31207430362701416,0.11600493639707565,0.29265010356903076,-0.07913975417613983,-0.1485336869955063,-0.044225070625543594
12.7,0.1256546974182129,0.13031482696533203,0.11536635458469391,-0.04785018414258957,-0.19542932510375977,-0.06951338797807693
12.75,-0.0035906843841075897,0.26227283477783203,-0.10161895304918289,-0.025271281599998474,-0.19076485931873322,-0.0852581188082695
12.8,-0.037048809230327606,0.32442188262939453,-0.22628627717494965,0.00011907517910003662,-0.13735871016979218,-0.06177528202533722
12.85,-0.011027172207832336,0.3320493698120117,-0.17197421193122864,0.0337567962706089,-0.05977049469947815,-0.035168468952178955
12.9,0.0669717937707901,0.22400379180908203,0.001078372006304562,0.055143579840660095,0.011227925308048725,-0.018057644367218018
12.95,0.20718048512935638,0.16433048248291016,0.13796311616897583,0.06065560132265091,0.03861801326274872,-0.004872549325227737
13.0,0.1990615278482437,0.07462882250547409,0.22830021381378174,0.05147919803857803,0.026712574064731598,0.003129747463390231
13.05,0.13253836333751678,0.005127902142703533,0.19684916734695435,0.03340950980782509,-0.005793995689600706,0.0006279217195697129
13.1,0.11548588424921036,0.04800891503691673,0.1452358365058899,0.020046645775437355,-0.015055950731039047,-0.008577979169785976
13.15,0.08308345824480057,0.09716129302978516,0.1458057314157486,0.0021077056881040335,-0.0023077132645994425,-0.018060332164168358
13.2,0.09406830370426178,0.137847900390625,0.1030510663986206,-0.008547011762857437,0.008230901323258877,-0.01695184037089348
13.25,0.06234724074602127,0.15512561798095703,0.09259805083274841,-0.01454220525920391,0.008857045322656631,-0.014384081587195396
13.3,0.052565205842256546,0.13900184631347656,0.06338511407375336,-0.014551185071468353,0.006377525627613068,-0.010401859879493713
13.35,0.07803817093372345,0.12599945068359375,0.03632194548845291,-0.011188887059688568,0.014825621619820595,0.0023501580581068993
13.4,0.1131797656416893,0.14354228973388672,0.13620714843273163,-0.004816807806491852,0.03449055179953575,0.005964161362498999
13.45,0.16833946108818054,0.1756582260131836,0.14031964540481567,0.001091928337700665,0.047480080276727676,0.0046263583935797215
13.5,0.20690986514091492,0.11046314239501953,0.14610609412193298,0.00014590442879125476,0.038315095007419586,0.003316028043627739
13.55,0.14259159564971924,0.03382205590605736,0.12383536249399185,-9.673823660705239e-05,0.018021704629063606,0.0012156391749158502
13.6,0.07263006269931793,0.042924877256155014,0.11013197898864746,-0.009164190851151943,0.009729226119816303,-0.005557396449148655
13.65,0.13994048535823822,0.1665964126586914,0.07435132563114166,-0.006193758454173803,0.019078494980931282,-0.007040113210678101
13.7,0.14802508056163788,0.20241451263427734,0.07860089093446732,-0.02207367494702339,0.03219078481197357,0.01610521413385868
13.75,0.2392430156469345,0.19244003295898438,0.29125410318374634,-0.06634890288114548,0.013899046927690506,0.05834950506687164
13.8,0.20978927612304688,0.18947981297969818,0.318521112203598,-0.09704653918743134,-0.05190345272421837,0.1132459044456482
13.85,0.1134129986166954,0.22110271453857422,0.2844388782978058,-0.11109492927789688,-0.14251258969306946,0.1226942166686058
13.9,-0.003907886333763599,0.06508255004882812,0.0762566402554512,-0.12690451741218567,-0.21802866458892822,0.12420447170734406
13.95,-0.22077207267284393,0.06930828094482422,0.017846351489424706,-0.11349716037511826,-0.26411235332489014,0.10276380926370621
14.0,-0.39323922991752625,0.14213085174560547,-0.0629928782582283,-0.102323517203331,-0.2484544962644577,0.07371018081903458
14.05,-0.38406866788864136,0.19981765747070312,-0.15812700986862183,-0.0988503098487854,-0.17807944118976593,0.03603510186076164
14.1,-0.2435063272714615,0.29908275604248047,-0.21491794288158417,-0.10549157112836838,-0.05347517877817154,0.014681816101074219
14.15,-0.1337343007326126,0.4189901351928711,-0.17394280433654785,-0.09212780743837357,0.0672212690114975,0.027986012399196625
14.2,-0.030458904802799225,0.3805217742919922,-0.2015167623758316,-0.03897009789943695,0.1495114415884018,0.06807566434144974
14.25,0.05252448841929436,0.2726116180419922,-0.21415449678897858,-0.004800392314791679,0.24875923991203308,0.08409354090690613
14.3,0.13727909326553345,0.2345867156982422,-0.1163896769285202,0.0339447557926178,0.3551040291786194,0.07556915283203125
14.35,0.34445518255233765,0.07993030548095703,-0.022521061822772026,0.08053717017173767,0.4095490276813507,0.05246609449386597
14.4,0.4500614106655121,-0.07281017303466797,0.17374926805496216,0.11089649051427841,0.4139576554298401,0.005191010423004627
14.45,0.5383320450782776,-0.12580396234989166,0.4118448793888092,0.1217833161354065,0.36015334725379944,-0.025227002799510956
14.5,0.5194330811500549,-0.06614876538515091,0.4930686950683594,0.08598733693361282,0.24555423855781555,-0.03172967955470085
14.55,0.4530632793903351,-0.029416097328066826,0.5964325666427612,0.026429083198308945,0.11609658598899841,-0.025314342230558395
14.6,0.3974570035934448,0.28128620982170105,0.6502023935317993,-0.013850819319486618,-0.04102548584342003,-0.01588369719684124
14.65,0.43916618824005127,0.3502492904663086,0.5549388527870178,-0.0235569067299366,-0.2305808812379837,0.03850112855434418
14.7,0.3992748260498047,0.6565513610839844,0.612715482711792,-0.028294268995523453,-0.42029818892478943,0.08796682953834534
14.75,0.6252419352531433,0.39769935607910156,0.6742761731147766,-0.06465893983840942,-0.5345107913017273,0.20409217476844788
14.8,0.4882562756538391,0.19462107121944427,0.8773300051689148,-0.21792668104171753,-0.685848593711853,0.36132898926734924
14.85,0.13236619532108307,0.01775643602013588,0.923643946647644,-0.3343003988265991,-0.9524155855178833,0.5298492312431335
14.9,-0.2138921022415161,0.04073522612452507,0.6389901638031006,-0.4722253084182739,-1.1828312873840332,0.6246269941329956
14.95,-0.4010300636291504,0.26006218791007996,0.4207974076271057,-0.6097096800804138,-1.2639191150665283,0.6617823243141174
15.0,-0.3738590180873871,0.46851158142089844,0.22360365092754364,-0.6730340123176575,-1.3349647521972656,0.7105290293693542
15.05,-0.4377916753292084,0.6167259216308594,-0.42870840430259705,-0.6903539299964905,-1.3619266748428345,0.7468610405921936
15.1,-0.6434072852134705,0.255741149187088,-0.7013168334960938,-0.662892758846283,-1.3372032642364502,0.7800307869911194
15.15,-0.7618627548217773,0.03951742500066757,-0.9586305618286133,-0.5227037668228149,-1.2925834655761719,0.7601699829101562
15.2,-0.7734584808349609,-0.4523429572582245,-1.702893853187561,-0.29473769664764404,-1.1861934661865234,0.5897486805915833
15.25,-0.7337743639945984,-0.7943829894065857,-1.8828476667404175,-0.05291850119829178,-0.9482100605964661,0.34740373492240906
15.3,-0.5492657423019409,-1.0132158994674683,-2.33445405960083,0.1520320475101471,-0.5283677577972412,0.12731261551380157
15.35,-0.8324201107025146,-0.5814389586448669,-1.3897110223770142,0.32078051567077637,0.09949809312820435,-0.15100954473018646
15.4,-0.49119308590888977,0.17851924896240234,-0.16290144622325897,0.43801891803741455,0.6450698971748352,-0.4581662118434906
15.45,0.12308618426322937,0.898469865322113,1.0839942693710327,0.2909766733646393,0.922683596611023,-0.5941219925880432
15.5,0.6369951367378235,0.7140797972679138,1.2978272438049316,0.10668967664241791,0.7205790281295776,-0.4815550446510315
15.55,0.5344364047050476,0.5780486464500427,1.198184847831726,0.0342101976275444,0.2454632818698883,-0.2544610798358917
15.6,0.23920299112796783,0.2272815704345703,0.10882354527711868,0.010625254362821579,-0.110991932451725,0.011208945885300636
15.65,-0.021661989390850067,0.07288456708192825,-0.2798686921596527,-0.04417942091822624,-0.06253553926944733,0.06721322983503342
15.7,0.003996910527348518,0.041510581970214844,-0.01058083213865757,-0.02981434389948845,0.04786793142557144,-0.01087318267673254
15.75,0.006585918366909027,0.2798118591308594,0.17199695110321045,-0.017521927133202553,0.11965091526508331,-0.12066523730754852
15.8,0.1801147162914276,0.11964511126279831,0.4152243137359619,0.01892421394586563,0.14484703540802002,-0.14691364765167236
15.85,0.07075443863868713,-0.053913116455078125,0.03857789188623428,0.08519160747528076,-0.012375800870358944,-0.1418936550617218
15.9,0.04836864769458771,0.3439827263355255,-0.9119255542755127,0.09435106813907623,0.1157454401254654,-0.23653948307037354
15.95,0.033118292689323425,0.4934577941894531,-0.05546863377094269,0.07304378598928452,0.44469505548477173,-0.17249897122383118
16.0,-0.030579447746276855,0.09533974528312683,0.9265185594558716,0.12843038141727448,0.45145559310913086,-0.13427133858203888
16.05,0.10704800486564636,0.09371659904718399,0.7829828262329102,0.17351754009723663,0.19113248586654663,-0.20301030576229095
16.1,0.3748382329940796,0.5364484786987305,0.5877031087875366,0.058207105845212936,0.09041526168584824,-0.19891475141048431
16.15,0.37628766894340515,0.8358078002929688,0.526077926158905,-0.028048772364854813,-0.041483670473098755,-0.036405645310878754
16.2,0.17829012870788574,0.7224931716918945,0.5457034111022949,0.017359111458063126,-0.2886529862880707,0.16251760721206665
16.25,0.10396270453929901,0.4887676239013672,0.5335820913314819,-0.01684398204088211,-0.4598294496536255,0.2756722569465637
16.3,0.07191041111946106,0.08903980255126953,-0.06234141066670418,-0.10999742150306702,-0.582868218421936,0.33276835083961487
16.35,-0.1580057144165039,-0.18778705596923828,0.1119704321026802,-0.14875397086143494,-0.5497170686721802,0.30059778690338135
16.4,-0.30707865953445435,-0.2982015609741211,-0.115697480738163,-0.124057337641716,-0.5487810373306274,0.21678297221660614
16.45,-0.05612547695636749,0.05977630987763405,-0.12959715723991394,-0.0491139218211174,-0.4685908257961273,0.06770969927310944
16.5,0.18438862264156342,0.37616726756095886,0.5703749060630798,-0.01570800319314003,-0.4217429757118225,0.042533207684755325
16.55,0.13322800397872925,0.6578072905540466,1.271109938621521,-0.017338577657938004,-0.5597147345542908,0.09160925447940826
16.6,0.07290107011795044,0.3527021110057831,1.1291544437408447,0.01165316253900528,-0.9150823354721069,0.17573009431362152
16.65,-0.2359868884086609,0.39626026153564453,0.30854761600494385,0.03743255138397217,-1.2639501094818115,0.38769862055778503
16.7,-0.484718382358551,-0.05486391484737396,-0.582667887210846,-0.12949569523334503,-1.2809423208236694,0.5337830185890198
16.75,-0.4550337791442871,-0.5682687163352966,-1.338279366493225,-0.18116562068462372,-1.0348156690597534,0.3625478744506836
16.8,-0.24675452709197998,-0.9863700270652771,-2.4156832695007324,-0.1480618119239807,-0.5650677680969238,0.1575113981962204
16.85,0.24724435806274414,-1.2722691297531128,-3.7258222103118896,-0.0801231637597084,0.11513768881559372,-0.025066981092095375
16.9,-1.1668953895568848,-0.474423348903656,-2.319697380065918,0.05493265017867088,1.1785482168197632,-0.22455556690692902
16.95,-1.149078369140625,-0.21924589574337006,-0.6005100011825562,0.19457289576530457,1.895090103149414,-0.38040614128112793
17.0,-0.9284507632255554,0.7081766128540039,0.572572648525238,0.3521868586540222,2.0046820640563965,-0.5552548766136169
17.05,0.09362581372261047,0.846888542175293,0.7876560091972351,0.34453076124191284,1.9423725605010986,-0.6095811724662781
17.1,0.22205613553524017,0.8765621185302734,0.7613028287887573,0.31144124269485474,1.681571364402771,-0.5159047245979309
17.15,0.4082161486148834,0.8683041930198669,1.2365550994873047,0.39005571603775024,1.5232470035552979,-0.30704590678215027
17.2,0.39358043670654297,0.2805003821849823,0.8064587712287903,0.4808194637298584,1.24888277053833,-0.1470978856086731
17.25,0.33995795249938965,0.3007659614086151,0.8736469149589539,0.5176580548286438,1.1548867225646973,-0.19481413066387177
17.3,0.4908458888530731,0.05907914415001869,0.9907417893409729,0.4969978928565979,1.1173311471939087,-0.25692319869995117
17.35,0.5791268944740295,-0.053020499646663666,0.9809096455574036,0.42105430364608765,0.9865152835845947,-0.31173446774482727
17.4,0.6458142995834351,-0.11227705329656601,0.9578933119773865,0.31428754329681396,0.7857876420021057,-0.30209001898765564
17.45,0.7160265445709229,-0.13611796498298645,1.0609270334243774,0.17392230033874512,0.5794641971588135,-0.26110216975212097
17.5,0.8101681470870972,0.1699991077184677,0.9552602767944336,0.005345325917005539,0.369547039270401,-0.21387013792991638
17.55,0.7418953776359558,0.4433755874633789,0.6149438619613647,-0.13277429342269897,0.13451838493347168,-0.14012904465198517
17.6,0.46437007188796997,0.5861272811889648,0.12949159741401672,-0.11799979209899902,-0.15734997391700745,-0.059328172355890274
17.65,0.14060094952583313,0.4063711166381836,-0.16231922805309296,-0.028304746374487877,-0.29572054743766785,0.015312264673411846
17.7,-0.07030017673969269,0.1796283721923828,-0.199355810880661,0.00792024563997984,-0.23256471753120422,0.06124378368258476
17.75,-0.14198650419712067,0.03238391876220703,-0.061956264078617096,0.005203563719987869,-0.11687776446342468,0.06543182581663132
17.8,-0.0961415246129036,-0.06963348388671875,-0.013943678699433804,0.0010227058082818985,-0.06088759005069733,0.03205921873450279
17.85,-0.05735459551215172,-0.11203575134277344,0.017440611496567726,-0.04319669306278229,-0.041747283190488815,0.016460666432976723
17.9,-0.14623650908470154,0.11109638214111328,0.01317647099494934,-0.09762177616357803,-0.021124130114912987,-0.011945284903049469
17.95,0.007098168134689331,0.36262035369873047,-0.12369479984045029,-0.1049572303891182,0.05616873502731323,-0.048306625336408615
18.0,0.4704749286174774,0.6356306076049805,0.0939963236451149,-0.05420004576444626,0.1403370499610901,-0.09631165862083435
18.05,0.6643459796905518,0.4482688903808594,0.26160407066345215,0.08077307790517807,0.06650003045797348,-0.06870783865451813
18.1,0.3707420825958252,0.08332441747188568,0.5775529146194458,0.14395266771316528,-0.12549087405204773,0.007258456200361252
18.15,-0.014890119433403015,-0.1076975017786026,0.6048282384872437,0.07245250046253204,-0.22948463261127472,0.047774918377399445
18.2,-0.1031583771109581,-0.015935903415083885,0.18162012100219727,-0.027139052748680115,-0.2371746301651001,0.026154693216085434
18.25,0.002369597554206848,0.30993175506591797,-0.14466866850852966,-0.058528222143650055,-0.21687999367713928,-0.02292640320956707
18.3,0.11320395767688751,0.2094259411096573,-0.2796561121940613,-0.012276536785066128,-0.17848850786685944,-0.05168459936976433
18.35,0.12171190232038498,0.19975852966308594,-0.01345822960138321,0.05867564678192139,-0.14109812676906586,-0.047507040202617645
18.4,-0.10089908540248871,0.09433840960264206,0.13278767466545105,0.07435061782598495,-0.10296358913183212,-0.029024098068475723
18.45,-0.09444332867860794,0.08553028106689453,0.06053311005234718,0.008375597186386585,-0.05238211154937744,-0.030001409351825714
18.5,-0.09075544774532318,0.21120262145996094,-0.06960410624742508,-0.05182040482759476,0.012916943989694118,-0.038429781794548035
18.55,-0.009852871298789978,0.28464221954345703,-0.1046329066157341,-0.03871873393654823,0.06742582470178604,-0.04499686136841774
18.6,0.05812723934650421,0.16956424713134766,-0.12087760120630264,0.029843879863619804,0.10230140388011932,-0.06539009511470795
18.65,-0.0720730796456337,0.28231334686279297,0.10398277640342712,0.0849405825138092,0.15720148384571075,-0.1061084121465683
18.7,0.04172029346227646,0.0785980150103569,0.2942349314689636,0.0784025564789772,0.22334501147270203,-0.10989733040332794
18.75,-0.012111924588680267,-0.2550487518310547,0.20866116881370544,0.018858958035707474,0.25521159172058105,-0.12333660572767258
18.8,-0.10681368410587311,0.09025097638368607,-0.25092512369155884,0.07011493295431137,0.2200833112001419,-0.30145275592803955
18.85,-0.0932844877243042,0.5966644287109375,-0.6777258515357971,0.10043897479772568,0.37978559732437134,-0.32816407084465027
18.9,0.0916333720088005,0.5845260620117188,-0.014366698451340199,0.2596147656440735,0.4732525944709778,-0.2893553674221039
18.95,0.3113377094268799,0.20067785680294037,0.41697609424591064,0.4030839800834656,0.3167221248149872,-0.22436247766017914
19.0,0.3626739978790283,-0.04988576099276543,0.5071817636489868,0.40236949920654297,0.15945740044116974,-0.24997270107269287
19.05,0.38793107867240906,-0.1798391491174698,0.6955665946006775,0.2807970345020294,0.11119865626096725,-0.2187165766954422
19.1,0.6156521439552307,0.04607485234737396,0.6638249158859253,0.03653140366077423,0.06229407712817192,-0.13129393756389618
19.15,0.5887172818183899,0.11838339269161224,0.6234451532363892,-0.17618906497955322,0.0007142758695408702,-0.041888486593961716
19.2,0.10581518709659576,0.26629638671875,0.17078788578510284,-0.18709217011928558,-0.2499140501022339,-0.042339399456977844
19.25,-0.0850764736533165,0.39051151275634766,-0.2925735414028168,-0.04757355898618698,-0.4592835307121277,-0.033408407121896744
19.3,-0.17357292771339417,0.2577171325683594,-0.1920497715473175,-0.0031290871556848288,-0.3362578749656677,-0.007157665677368641
19.35,-0.13103224337100983,0.10163211822509766,0.014432470314204693,0.004301643930375576,-0.10658935457468033,0.02141462080180645
19.4,0.13540273904800415,0.03500747308135033,0.15241751074790955,-0.004185067024081945,0.023438826203346252,0.02233387716114521
19.45,0.10776956379413605,0.08407019823789597,0.2594691812992096,-0.03377648815512657,0.06075514853000641,0.010577546432614326
19.5,0.21801529824733734,0.1679525375366211,0.12204546481370926,-0.03152136877179146,0.010375351645052433,-0.00237267860211432
19.55,0.07078287750482559,0.13152408599853516,0.08048541843891144,-0.027569333091378212,-0.025055967271327972,-0.0025124235544353724
19.6,0.0416259691119194,0.11535072326660156,0.050139714032411575,-0.024535244330763817,-0.013489989563822746,-0.015272611752152443
19.65,0.07076998054981232,0.1497516632080078,0.09964516758918762,-0.010978328064084053,0.004950094968080521,-0.014440100640058517
19.7,0.10866498202085495,0.1673440933227539,0.1187807098031044,-0.030385473743081093,0.02426956780254841,-0.004942098632454872
19.75,0.11691858619451523,0.16140174865722656,0.14057298004627228,-0.040996335446834564,0.024974215775728226,-0.007431891746819019
19.8,0.16591690480709076,0.11336994171142578,0.037043578922748566,-0.03229141980409622,0.0023844337556511164,-0.014481373131275177
19.85,0.09530425071716309,0.14006328582763672,0.09534912556409836,-0.025872284546494484,-0.014923341572284698,-0.025490421801805496
