Time [s],Acc_x [m/s^2],Acc_y [m/s^2],Acc_z [m/s^2],Gyro_x [1/s],Gyro_y [1/s],Gyro_z [1/s]
0.0,0.1931769847869873,-0.34001731872558594,0.1783367246389389,0.181797057390213,0.1661798506975174,0.05653735622763634
0.05,0.12875711917877197,-0.440673828125,0.05971865355968475,0.3474929630756378,0.3108936548233032,0.1854451298713684
0.1,0.03328413516283035,-0.1074371263384819,-0.15023070573806763,0.5240606665611267,0.3606891334056854,0.312816858291626
0.15,0.07439935952425003,0.3675203323364258,-0.24008581042289734,0.5217669010162354,0.27389606833457947,0.30338048934936523
0.2,0.08360901474952698,0.33281898498535156,-0.1654902994632721,0.3427010774612427,0.17494972050189972,0.1771930307149887
0.25,0.07673373818397522,0.22293376922607422,-0.07548828423023224,0.2246326357126236,0.11543598026037216,0.06829230487346649
0.3,-0.008834214881062508,0.2967653274536133,0.02342512272298336,0.1788419485092163,0.10551900416612625,0.006914007943123579
0.35,-0.10976782441139221,0.1683511734008789,0.0580078549683094,0.11642268300056458,0.11346219480037689,-0.02538307011127472
0.4,-0.15389476716518402,-0.013965610414743423,0.07951907813549042,0.08785823732614517,0.09892155230045319,-0.018844682723283768
0.45,-0.14518952369689941,0.09988021850585938,0.011622893624007702,0.09766247868537903,0.06429345160722733,0.008940858766436577
0.5,-0.10264484584331512,0.7875251770019531,-0.129043847322464,0.04423625022172928,0.018363334238529205,0.022397976368665695
0.55,-0.20631179213523865,1.5042200088500977,-0.2945708930492401,-0.28955549001693726,-0.06739592552185059,-0.0724259614944458
0.6,-0.2767455577850342,0.9495391845703125,-0.23561346530914307,-0.8421988487243652,-0.2188982516527176,-0.28441616892814636
0.65,-0.22486642003059387,-0.09351158887147903,0.19870051741600037,-1.1661888360977173,-0.35197001695632935,-0.36989980936050415
0.7,-0.06583493947982788,-0.5637025833129883,0.5940330028533936,-1.1024330854415894,-0.3876236081123352,-0.3099953532218933
0.75,-0.0743371844291687,-0.6551475524902344,0.6685337424278259,-0.8554922342300415,-0.3096928000450134,-0.20297037065029144
0.8,-0.037801265716552734,-0.5049819946289062,0.564529538154602,-0.5616890788078308,-0.22042924165725708,-0.09582025557756424
0.85,0.01770956814289093,-0.29932308197021484,0.3499833941459656,-0.32666802406311035,-0.14543160796165466,-0.04068085923790932
0.9,0.025312308222055435,-0.1363811492919922,0.13829010725021362,-0.19063755869865417,-0.09329928457736969,-0.03037206642329693
0.95,0.014572376385331154,0.05083942413330078,-0.04935494437813759,-0.11011359095573425,-0.07180584222078323,-0.03122156672179699
1.0,0.014275318942964077,0.102691650390625,-0.06545419991016388,-0.06817404180765152,-0.05992921441793442,-0.02508930303156376
1.05,0.008289046585559845,0.04075336828827858,-0.12180942296981812,-0.05221698805689812,-0.06178222969174385,-0.020914506167173386
1.1,0.07518169283866882,0.09515190869569778,-0.17603926360607147,-0.054120972752571106,-0.0840999186038971,-0.012897987850010395
1.15,0.12891703844070435,0.13327980041503906,-0.04755411297082901,-0.06526090204715729,-0.10745430737733841,-0.022886138409376144
1.2,0.05588727444410324,0.059243202209472656,-0.0006096401484683156,-0.05642188340425491,-0.11527307331562042,-0.07317021489143372
1.25,-0.057275742292404175,-0.09091471880674362,-0.2478356659412384,0.007491718977689743,-0.17339672148227692,-0.12970925867557526
1.3,0.11104308068752289,0.01094723679125309,-0.30010202527046204,0.12661276757717133,-0.32752400636672974,-0.16710025072097778
1.35,0.2730056047439575,0.0739135816693306,-0.14742013812065125,0.20746147632598877,-0.41343510150909424,-0.2518681287765503
1.4,0.19695869088172913,0.11516476422548294,-0.14210468530654907,0.2512904107570648,-0.38275736570358276,-0.2900426983833313
1.45,0.18056195974349976,0.09187030792236328,-0.04509728401899338,0.223298579454422,-0.3338976502418518,-0.2004796266555786
1.5,0.12260466814041138,0.12590312957763672,0.14829465746879578,0.1701735556125641,-0.25244462490081787,-0.10400255769491196
1.55,-0.012707728892564774,0.27428245544433594,0.1397538036108017,0.15882104635238647,-0.16608521342277527,-0.09911934286355972
1.6,-0.204168438911438,0.126434326171875,0.08033689111471176,0.09756088256835938,-0.08459053933620453,-0.10480571538209915
1.65,-0.13340218365192413,0.012392990291118622,0.2020580768585205,0.016011103987693787,-0.04303635656833649,-0.024980317801237106
1.7,-0.09254656732082367,0.026014316827058792,0.3350454568862915,-0.025083156302571297,0.002506884280592203,0.03485197201371193
1.75,-0.1557469367980957,0.0866536945104599,0.36091122031211853,-0.02410358563065529,0.03195002302527428,0.011646375991404057
1.8,-0.2507532835006714,-0.057795535773038864,0.24081596732139587,-0.009922356344759464,0.032530929893255234,-0.030294472351670265
1.85,-0.11618854105472565,0.12894630432128906,0.06859802454710007,-0.0018456149846315384,-0.022099757567048073,-0.06013164669275284
1.9,-0.0643550232052803,0.21476459503173828,-0.07924846559762955,-0.058392301201820374,-0.006352005060762167,-0.08748719096183777
1.95,-0.06693558394908905,-0.1142587661743164,0.0832257866859436,-0.12551340460777283,0.023964133113622665,-0.10013192892074585
2.0,0.0711597353219986,-0.4768838882446289,0.3827379047870636,-0.06963751465082169,0.059532713145017624,-0.04049278050661087
2.05,0.16225728392601013,-0.5415153503417969,0.4415828287601471,0.10136864334344864,0.19385038316249847,0.12733235955238342
2.1,0.14201533794403076,-0.34531307220458984,0.32156291604042053,0.2517164349555969,0.36465299129486084,0.28250280022621155
2.15,-0.005882261320948601,-0.08377838134765625,0.08667688071727753,0.3261249363422394,0.4612739086151123,0.31467002630233765
2.2,-0.18393538892269135,-0.03225803002715111,-0.2354133427143097,0.3328959047794342,0.4301758408546448,0.22356493771076202
2.25,-0.16416624188423157,0.0930175855755806,-0.41701972484588623,0.3190743029117584,0.31384173035621643,0.147300124168396
2.3,0.07238759100437164,0.33074188232421875,-0.5081964135169983,0.2697219252586365,0.22784854471683502,0.11946339160203934
2.35,0.05608800798654556,0.07005120813846588,-0.4357362687587738,0.11025632917881012,0.24081279337406158,0.1220550537109375
2.4,0.04765507951378822,-0.05369090288877487,-0.26717087626457214,-0.0019422583281993866,0.23102343082427979,0.15198171138763428
2.45,0.03009091131389141,-0.05448436364531517,-0.13161024451255798,0.012190576642751694,0.21075250208377838,0.1480584740638733
2.5,0.009190153330564499,0.21559715270996094,-0.16350120306015015,0.08178407698869705,0.20107538998126984,0.12397874146699905
2.55,-0.05442960560321808,0.30148792266845703,-0.0767274871468544,0.07774055749177933,0.2018563598394394,0.05487634241580963
2.6,-0.27388232946395874,0.15608787536621094,0.11938586086034775,0.05540076643228531,0.21497927606105804,0.006509351544082165
2.65,-0.4598621428012848,0.19664381444454193,0.3542400300502777,0.057307928800582886,0.17331542074680328,0.03514142706990242
2.7,-0.349049836397171,0.3706159293651581,0.5506134033203125,0.03213335573673248,0.0698731541633606,0.0477013997733593
2.75,-0.22913798689842224,0.1353912204504013,0.6909431219100952,-0.020892638713121414,-0.006024530157446861,-0.02203879877924919
2.8,-0.16878582537174225,-0.0983133539557457,0.8221765756607056,0.007704086601734161,-0.0140122901648283,-0.10102331638336182
2.85,-0.24983958899974823,-0.08610918372869492,0.8273496627807617,0.15344643592834473,0.03991321101784706,-0.07461147010326385
2.9,-0.3194655776023865,0.19385239481925964,0.7914663553237915,0.31131383776664734,0.07762695103883743,0.05974588170647621
2.95,-0.3536783754825592,0.3869599997997284,0.8090444803237915,0.32573992013931274,0.06946302205324173,0.1780654489994049
3.0,-0.29882925748825073,0.3594169318675995,0.9990387558937073,0.1882258653640747,0.007191093172878027,0.22331994771957397
3.05,0.027074605226516724,0.3401136100292206,0.8881353139877319,0.07880470156669617,-0.08499761670827866,0.22340244054794312
3.1,0.3138773739337921,0.4393768310546875,0.4672158658504486,0.1137857735157013,-0.11415121704339981,0.194092258810997
3.15,0.42673277854919434,1.0068721771240234,-0.01960863173007965,0.21280407905578613,-0.063571996986866,0.16965554654598236
3.2,0.32110506296157837,1.3285608291625977,-0.4674466848373413,0.3147953450679779,0.033067166805267334,0.1451251059770584
3.25,-0.05474230647087097,1.3083887100219727,-1.044518232345581,0.41321122646331787,0.11739998310804367,0.17684540152549744
3.3,-0.08521825075149536,1.217041015625,-0.9352452754974365,0.3217052221298218,0.047455400228500366,0.28610995411872864
3.35,0.20648111402988434,0.5137157440185547,-0.4362151622772217,0.12055135518312454,-0.03549940884113312,0.3303546607494354
3.4,0.29068970680236816,0.5133256912231445,-0.12436182051897049,0.07854704558849335,-0.022513888776302338,0.3163696825504303
3.45,0.19216543436050415,0.8050518035888672,-0.2164008766412735,0.09460262209177017,0.054270148277282715,0.2850784659385681
3.5,0.01194271445274353,1.2299308776855469,-0.3971288204193115,0.054962269961833954,0.11723842471837997,0.23315216600894928
3.55,-0.005217209458351135,1.1563434600830078,-0.5432055592536926,-0.07172265648841858,0.11788247525691986,0.16314415633678436
3.6,0.0851716697216034,0.6113739013671875,-0.4073178470134735,-0.26355043053627014,0.0832635685801506,0.10038848221302032
3.65,0.0314609631896019,-0.13999271392822266,-0.24877245724201202,-0.37588322162628174,0.10190851241350174,0.02213357761502266
3.7,0.011960398405790329,-0.24219894409179688,0.11779279261827469,-0.379434198141098,0.09450973570346832,-0.019045691937208176
3.75,-0.05550810694694519,-0.39206504821777344,0.13884593546390533,-0.3181804120540619,0.1427353024482727,-0.07511772960424423
3.8,-0.1997031420469284,-0.1359882354736328,-0.0965825691819191,-0.22348766028881073,0.2202446162700653,-0.05651067942380905
3.85,-0.3951946794986725,0.1045684888958931,-0.4575364291667938,-0.16233259439468384,0.24045325815677643,-0.008683919906616211
3.9,-0.28291794657707214,0.02519894391298294,-0.3945586085319519,-0.22482027113437653,0.16225293278694153,0.0542781837284565
3.95,-0.20007401704788208,-0.36231136322021484,-0.1602581888437271,-0.30542635917663574,0.09645587205886841,0.05709655210375786
4.0,-0.125765860080719,-0.5427379608154297,-0.008020901121199131,-0.3202017545700073,0.061708707362413406,0.062491267919540405
4.05,-0.06132838875055313,-0.7216291427612305,0.19709965586662292,-0.30127328634262085,0.05054921656847,0.04491510987281799
4.1,0.12322864681482315,-0.8992547988891602,0.29149627685546875,-0.24234259128570557,0.033248674124479294,0.04605736583471298
4.15,0.23604924976825714,-0.7645540237426758,0.22209815680980682,-0.1598370522260666,0.051329001784324646,0.029865095391869545
4.2,0.2680077850818634,-0.5775890350341797,0.14591656625270844,-0.10089171677827835,0.0934845581650734,0.004116549156606197
4.25,0.3353811204433441,-0.6428260803222656,0.1423742026090622,-0.0541873574256897,0.11583952605724335,0.001910473918542266
4.3,0.24504008889198303,-0.4737977981567383,0.18925249576568604,0.06756711006164551,0.1752626597881317,0.0018739454681053758
4.35,0.1545935869216919,-0.2843599319458008,0.24804244935512543,0.11366377770900726,0.23169110715389252,0.019723450765013695
4.4,0.16454148292541504,-0.056478507816791534,0.3120741546154022,0.1109616607427597,0.2202838808298111,0.07261069864034653
4.45,0.24182158708572388,0.10199545323848724,0.5645343065261841,0.07265002280473709,0.17849475145339966,0.10248906910419464
4.5,0.23926912248134613,-0.03168202564120293,0.5450172424316406,0.04232081025838852,0.16043706238269806,0.09489814937114716
4.55,0.29531073570251465,-0.14448930323123932,0.5246323347091675,0.05563383549451828,0.1232232004404068,0.0712716281414032
4.6,0.3790332078933716,-0.3765840530395508,0.4285290241241455,0.1053408533334732,0.12425629049539566,0.04109817370772362
4.65,0.41696715354919434,-0.4178295135498047,0.23530924320220947,0.2213449478149414,0.16716709733009338,0.016275933012366295
4.7,0.2770070731639862,0.08896923065185547,0.08636120706796646,0.29897183179855347,0.22954028844833374,-0.004558913875371218
4.75,0.09405115246772766,0.1576547622680664,-0.123566173017025,0.2688106596469879,0.2481621503829956,-0.02271539717912674
4.8,-0.020651042461395264,0.047399528324604034,-0.2726592719554901,0.24740049242973328,0.21154317259788513,-0.06905289739370346
4.85,-0.10871180146932602,-0.11091231554746628,-0.3844876289367676,0.20000803470611572,0.18204228579998016,-0.11727770417928696
4.9,-0.18949216604232788,-0.014008515514433384,-0.3138357102870941,0.10251903533935547,0.13368764519691467,-0.11544825881719589
4.95,-0.11810033023357391,-0.23471832275390625,-0.1761467307806015,-0.020221039652824402,0.06391488760709763,-0.10865283012390137
5.0,-0.039476316422224045,-0.3156414031982422,-0.14927740395069122,-0.016474582254886627,0.04435031861066818,-0.10991080105304718
5.05,-0.04304693639278412,-0.13595867156982422,-0.12106475234031677,0.02132999338209629,0.05257240682840347,-0.12148701399564743
5.1,-0.10343050956726074,-0.13505935668945312,-0.12733738124370575,0.05747274309396744,0.05938652157783508,-0.11791069805622101
5.15,-0.04887256771326065,-0.14293861389160156,-0.08991873264312744,0.061853453516960144,0.04342607036232948,-0.10597420483827591
5.2,-0.02528817392885685,-0.097412109375,-0.031891804188489914,0.05274946615099907,0.049202967435121536,-0.13371223211288452
5.25,0.07276272773742676,0.09592056274414062,0.018270175904035568,0.06366845220327377,0.04793897643685341,-0.11251546442508698
5.3,0.04943951964378357,0.2249279022216797,-0.051811713725328445,0.08935729414224625,0.05085957050323486,-0.11428748816251755
5.35,-0.005745057016611099,0.11141204833984375,-0.08851408958435059,0.10501767694950104,0.05582299083471298,-0.1199737936258316
5.4,0.019648706540465355,0.16775035858154297,-0.00010294386447640136,0.10318102687597275,0.029115278273820877,-0.0771852359175682
5.45,0.12966635823249817,0.19908428192138672,0.09739983081817627,0.06884537637233734,0.024369528517127037,-0.05807233601808548
5.5,0.032750871032476425,0.17570781707763672,0.1361473649740219,0.042520176619291306,0.069742850959301,-0.0554063618183136
5.55,0.06107974052429199,0.07372855395078659,0.19901224970817566,0.04789421707391739,0.10609903186559677,-0.0788731575012207
5.6,-0.14870284497737885,-0.04215241223573685,0.2116020917892456,0.0908675342798233,0.161907359957695,-0.10806628316640854
5.65,-0.2207382321357727,0.14345073699951172,0.12726619839668274,0.11630362272262573,0.14952993392944336,-0.08152715861797333
5.7,-0.11974956840276718,0.03204726800322533,0.14404481649398804,0.09825176000595093,0.10555031895637512,-0.05276520177721977
5.75,-0.15590664744377136,0.06804942339658737,0.19217367470264435,0.11887997388839722,0.09757690876722336,-0.004110340960323811
5.8,-0.1258179247379303,-0.05867863446474075,0.2669052183628082,0.109098881483078,0.06358592212200165,0.03711642324924469
5.85,0.026481647044420242,-0.06182575598359108,0.17030228674411774,0.11392960697412491,-0.017922334372997284,0.05247507244348526
5.9,0.1908939778804779,-0.01158142276108265,0.15031951665878296,0.09012219309806824,-0.07454116642475128,0.060061294585466385
5.95,0.11484744399785995,-0.19764232635498047,0.05239146947860718,0.0846298485994339,-0.030430953949689865,0.03122495859861374
6.0,-0.46776020526885986,-0.8670949935913086,-0.08558709919452667,0.14356079697608948,0.0090640252456069,0.02758120745420456
6.05,-0.5317052602767944,-1.1582365036010742,0.13021305203437805,0.43618443608283997,-0.18191884458065033,0.10899829864501953
6.1,-0.46364086866378784,-1.1824712753295898,0.1913958638906479,0.9033045768737793,-0.3985177278518677,0.09632550179958344
6.15,-0.46094566583633423,-1.8481030464172363,-0.5030419230461121,1.3875401020050049,-0.5618983507156372,-0.05915369093418121
6.2,-0.2001805305480957,0.6095705032348633,-0.2928924262523651,1.928521990776062,-0.6644809246063232,-0.16079147160053253
6.25,0.2780311703681946,0.6023721694946289,-0.7210615873336792,1.7050222158432007,-0.6710126399993896,-0.09932800382375717
6.3,0.298387348651886,0.9875717163085938,-0.04193618893623352,1.3378864526748657,-0.5105024576187134,-0.06928463280200958
6.35,0.42189526557922363,0.6488885879516602,-0.033693578094244,0.9041625261306763,-0.326930969953537,-0.09460804611444473
6.4,0.34874460101127625,0.9753255844116211,0.08451664447784424,0.703769326210022,-0.1810426563024521,-0.09604731947183609
6.45,0.5444302558898926,1.186905860900879,0.2733016610145569,0.34835126996040344,-0.0782914012670517,-0.04181857034564018
6.5,0.6190922260284424,1.4168920516967773,0.46268102526664734,-0.14089441299438477,0.09271182119846344,0.012401494197547436
6.55,0.4962671995162964,0.5729541778564453,0.020906241610646248,-0.76413893699646,0.25334876775741577,0.01695737987756729
6.6,0.3197958767414093,-0.09833811223506927,-0.43011474609375,-1.2434524297714233,0.3840753138065338,-0.03798355534672737
6.65,0.04161316901445389,-1.0094490051269531,-0.32831844687461853,-1.427597165107727,0.421125203371048,-0.02086608298122883
6.7,-0.23013994097709656,-1.3352766036987305,-0.06318218261003494,-1.2797813415527344,0.3830907940864563,-0.02560906484723091
6.75,-0.3318605422973633,-0.6431808471679688,0.24459077417850494,-0.8691192865371704,0.25248947739601135,0.03194252401590347
6.8,-0.18425768613815308,0.3472023010253906,0.15969567000865936,-0.598529040813446,0.1452704668045044,0.08338401466608047
6.85,-0.12734182178974152,0.3951377868652344,0.09150852262973785,-0.46974050998687744,0.010105364955961704,0.1652655005455017
6.9,0.162340447306633,0.2594575881958008,0.16776196658611298,-0.42361128330230713,-0.05741924047470093,0.16567564010620117
6.95,-0.24139750003814697,-0.18767549097537994,0.20262345671653748,-0.45205602049827576,0.04713158309459686,0.11801207065582275
7.0,-0.17528825998306274,-0.2978649139404297,0.3430020809173584,-0.45284631848335266,0.05573296546936035,0.057908281683921814
7.05,-0.23155628144741058,-0.1763782650232315,0.34877049922943115,-0.43007442355155945,0.08994164317846298,0.08329597115516663
7.1,-0.2909396290779114,-0.34041500091552734,0.15766240656375885,-0.39285627007484436,0.10522198677062988,0.09348857402801514
7.15,-0.08594080805778503,-0.4763374328613281,0.1279810518026352,-0.3390468955039978,0.08327023684978485,0.10811253637075424
7.2,0.07366001605987549,-0.3655405044555664,-0.04673933982849121,-0.2940900921821594,0.09953700751066208,0.09571052342653275
7.25,-0.1625305861234665,-0.21035289764404297,-0.28736168146133423,-0.2538219094276428,0.12935006618499756,0.0437394417822361
7.3,-0.08048234134912491,-0.10363959521055222,-0.3379661440849304,-0.2532494068145752,0.11204615235328674,0.05096355453133583
7.35,-0.3982747197151184,0.172761932015419,-0.5465633869171143,-0.1965196430683136,0.1494298130273819,0.11950714141130447
7.4,-0.07366436719894409,0.3267049789428711,-0.5653021335601807,-0.16058975458145142,0.10278218239545822,0.16445918381214142
7.45,0.21700751781463623,0.1517191082239151,-0.6448778510093689,-0.16876082122325897,0.09298164397478104,0.16630257666110992
7.5,0.12714271247386932,0.1036844477057457,-0.6502603888511658,-0.14561322331428528,0.0776875838637352,0.15379492938518524
7.55,0.17532885074615479,0.1376028209924698,-0.6790564060211182,-0.13699552416801453,0.06197643280029297,0.10936734080314636
7.6,0.4209737777709961,0.41124728322029114,-0.5793980956077576,-0.1226707398891449,0.0525134801864624,0.10851430892944336
7.65,0.2589666247367859,0.366458922624588,-0.5551413893699646,-0.08150340616703033,0.1132403016090393,0.035817768424749374
7.7,0.09550660848617554,0.6182765960693359,-0.604410707950592,-0.0024308254942297935,0.13405193388462067,-0.012479105964303017
7.75,0.010316774249076843,0.3686075508594513,-0.5898782014846802,0.06689709424972534,0.08546867221593857,-0.08398295938968658
7.8,0.14428125321865082,0.6420860290527344,-0.33843734860420227,0.09429322183132172,0.03918728232383728,-0.10241656005382538
7.85,0.031420230865478516,0.2688322067260742,-0.06784476339817047,0.028368260711431503,0.06468414515256882,-0.11947404593229294
7.9,-0.001448407769203186,0.3894186019897461,-0.011399260722100735,0.01829903945326805,0.0931447371840477,-0.10050711035728455
7.95,0.13730290532112122,0.10621929168701172,0.1694205105304718,-0.0442802831530571,0.11316001415252686,-0.1003619059920311
8.0,-0.4506044387817383,-0.10908032208681107,0.03476094827055931,-0.012343250215053558,0.11343617737293243,-0.12095493078231812
8.05,-0.305649071931839,0.20233154296875,-0.2679913640022278,0.0820581242442131,0.02400655299425125,-0.05733109265565872
8.1,0.3466874957084656,0.5626840591430664,-0.252419650554657,0.06534121930599213,0.019244516268372536,0.05278172716498375
8.15,-0.09291805326938629,0.4583597183227539,-0.20851419866085052,-0.06075755134224892,0.12419017404317856,0.06314834952354431
8.2,-0.09215303510427475,0.028779981657862663,0.0029432671144604683,-0.1396302580833435,0.10444363206624985,0.03974383696913719
8.25,-0.07863157987594604,0.024791717529296875,-0.03205585479736328,-0.09069739282131195,0.042024366557598114,-0.02305757813155651
8.3,-0.09064813703298569,0.08455753326416016,-0.13947270810604095,-0.03754790127277374,0.034538254141807556,-0.0279278252273798
8.35,-0.2623506784439087,0.20574092864990234,-0.22403471171855927,-0.019069980829954147,0.045679330825805664,0.04869066923856735
8.4,0.25034669041633606,0.17416667938232422,-0.045451391488313675,-0.06498163938522339,0.022301707416772842,0.07145386934280396
8.45,0.21119681000709534,0.09461022168397903,-0.06794474273920059,-0.09165070205926895,0.006061042658984661,0.01144881546497345
8.5,-0.12119478732347488,0.08803081512451172,-0.1478557288646698,-0.07640093564987183,-0.012095107696950436,7.390194514300674e-05
8.55,0.3330744504928589,0.21349525451660156,-0.0181302297860384,-0.025255877524614334,-0.09266777336597443,-0.04008924216032028
8.6,-0.39139068126678467,0.1637125015258789,-0.24519817531108856,0.02686915546655655,-0.06618636846542358,-0.05338313803076744
8.65,-0.17290912568569183,0.1995258331298828,-0.23030178248882294,-0.01630919799208641,-0.17748545110225677,-0.012604845687747002
8.7,0.20700377225875854,0.1418132781982422,-0.12072353810071945,-0.04375071078538895,-0.24259862303733826,0.0028836915735155344
8.75,-0.1185850128531456,0.15257835388183594,-0.129097580909729,-0.03963478282094002,-0.19336535036563873,0.005399249494075775
8.8,-0.546875,0.23994922637939453,-0.23641473054885864,-0.04155528172850609,-0.2359970062971115,-0.03484577313065529
8.85,-0.04498831927776337,0.3193483352661133,-0.35302257537841797,0.005773546174168587,-0.42970338463783264,-0.04817483201622963
8.9,0.17167548835277557,0.24285699427127838,-0.35951605439186096,0.005977408029139042,-0.43739575147628784,-0.040346257388591766
8.95,0.7082152962684631,0.2753419876098633,-0.09554929286241531,-0.004462629556655884,-0.3516293466091156,0.049758490175008774
9.0,0.28254052996635437,-0.09671115130186081,-0.11498067528009415,-0.040106695145368576,-0.13713622093200684,0.0852489173412323
9.05,0.17554400861263275,0.1184997633099556,-0.12803176045417786,0.022942159324884415,-0.07446597516536713,0.14305618405342102
9.1,0.4310840964317322,-0.07883929461240768,-0.10118113458156586,0.02693609520792961,-0.07542943954467773,0.06703635305166245
9.15,0.3735251724720001,0.07669544965028763,-0.10254655033349991,0.07538405060768127,0.0007554508047178388,0.0803106352686882
9.2,0.1699930876493454,-0.010870931670069695,6.120619218563661e-05,0.05707152187824249,0.07388047128915787,0.016942596063017845
9.25,-0.32766470313072205,0.0718545913696289,-0.282238245010376,0.04337941110134125,0.08192422986030579,-0.023480502888560295
9.3,0.04977455735206604,-0.2558441162109375,0.20251689851284027,-0.054337985813617706,0.0035205974709242582,-0.11487992852926254
9.35,0.44038325548171997,-0.15254783630371094,0.3125385344028473,-0.09841600060462952,-0.016050303354859352,0.04831341281533241
9.4,0.029347512871026993,-0.14676952362060547,0.1715121567249298,-0.14918188750743866,0.10463174432516098,0.048520345240831375
9.45,0.22168117761611938,-0.29616260528564453,0.43526703119277954,-0.15017151832580566,0.0872732624411583,0.01850699819624424
9.5,0.3542553186416626,-0.14468955993652344,0.3767974376678467,-0.07736997306346893,0.09554298967123032,0.10893953591585159
9.55,0.03604597970843315,-0.07040977478027344,0.017350882291793823,0.01281307265162468,0.12517096102237701,0.06447876244783401
9.6,-0.08025284856557846,-0.08782100677490234,-0.13685022294521332,0.07067815959453583,0.054915815591812134,-0.0073517076671123505
9.65,-0.10123452544212341,-0.30272769927978516,-0.26183876395225525,0.07825234532356262,-0.006839078385382891,-0.05460935831069946
9.7,-0.1059376448392868,-0.0022726012393832207,-0.21747025847434998,0.10971789062023163,-0.02800147421658039,-0.01689629629254341
9.75,-0.13857793807983398,-0.0869455337524414,-0.16644403338432312,0.12644383311271667,-0.016122285276651382,-0.06009821593761444
9.8,-0.23087956011295319,0.21319198608398438,-0.10965146869421005,0.16153010725975037,-0.008349302224814892,-0.025190580636262894
9.85,-0.202951118350029,0.25934791564941406,-0.1349605917930603,0.18054869771003723,-0.030505970120429993,-0.013823063112795353
9.9,-0.2142346203327179,0.3644266128540039,-0.12776221334934235,0.19455955922603607,-0.05218644067645073,0.01825718767940998
9.95,-0.08646363765001297,0.10817813873291016,-0.092302106320858,0.15371227264404297,-0.10019449889659882,0.05452819541096687
10.0,0.11345861852169037,0.05117226019501686,-0.0721101462841034,0.17024151980876923,-0.09857916831970215,0.07088444381952286
10.05,0.03537546098232269,0.0663309171795845,-0.13511979579925537,0.15211142599582672,-0.0598524808883667,0.07737550884485245
10.1,0.21332857012748718,0.02817440591752529,-0.08987828344106674,0.13326440751552582,-0.07751490920782089,0.024332186207175255
10.15,0.19089896976947784,-0.12300777435302734,0.0005750917480327189,0.12906453013420105,-0.05871470645070076,-0.001638116198591888
10.2,0.1643061637878418,-0.022284502163529396,-0.12937599420547485,0.16413336992263794,-0.017078733071684837,-0.018504634499549866
10.25,0.40248531103134155,-0.3236398696899414,0.15486399829387665,0.18321169912815094,-0.0006399077246896923,0.0020179972052574158
10.3,0.23670127987861633,-0.27942466735839844,0.2035895735025406,0.2756527066230774,0.0778086856007576,0.044447142630815506
10.35,0.13620969653129578,0.2557992935180664,0.03810501843690872,0.2891583740711212,0.10124322772026062,0.022004399448633194
10.4,0.14133138954639435,-0.07110977172851562,-0.011472286656498909,0.17332077026367188,0.07129815220832825,-0.07058015465736389
10.45,0.05490425229072571,0.02061653323471546,-0.013972683809697628,0.15582171082496643,0.054541777819395065,-0.07657956331968307
10.5,-0.01072352472692728,-0.20551586151123047,0.051097381860017776,0.09285147488117218,0.06333418935537338,-0.0866386666893959
10.55,-0.026023924350738525,-0.18465423583984375,0.14560353755950928,0.10984769463539124,0.05751347914338112,-0.060720689594745636
10.6,-0.008158822543919086,-0.17436885833740234,0.010023483075201511,0.12204306572675705,0.042779963463544846,-0.04821951314806938
10.65,0.03016505390405655,-0.03236675262451172,0.023834338411688805,0.1585703194141388,0.02869393862783909,-0.05975519120693207
10.7,-0.03724081814289093,0.15523529052734375,-0.009270484559237957,0.14823150634765625,0.016673486679792404,-0.03750767186284065
10.75,-0.2116251438856125,0.13710880279541016,-0.1315440535545349,0.08748339861631393,0.024194257333874702,-0.022634875029325485
10.8,-0.202095165848732,0.08652782440185547,-0.0710650086402893,0.07923442870378494,0.004997280426323414,-0.03982748091220856
10.85,-0.10338576138019562,-0.0912313461303711,-0.11659900844097137,0.027124274522066116,-0.0013356638373807073,-0.017309604212641716
10.9,-0.019382262602448463,-0.06372737884521484,0.002206881996244192,0.03407924249768257,0.01646912284195423,0.057238779962062836
10.95,0.06673453748226166,0.13041019439697266,-0.07631317526102066,0.04165554419159889,0.04856036975979805,0.11799255758523941
11.0,0.051389411091804504,0.18044757843017578,-0.13581137359142303,0.012321334332227707,0.07747048884630203,0.14326313138008118
11.05,0.06774120777845383,0.17545509338378906,-0.17554879188537598,0.00709199532866478,0.04378358647227287,0.15322215855121613
11.1,0.22941923141479492,0.04425240308046341,-0.201401948928833,0.01815127581357956,-0.004355595912784338,0.13017015159130096
11.15,0.25441327691078186,0.07500744611024857,-0.2129208743572235,0.05516600236296654,0.001019735587760806,0.06913387775421143
11.2,0.21178939938545227,0.1551056057214737,-0.28549739718437195,0.08155800402164459,0.008615381084382534,0.0014904981944710016
11.25,0.1715666949748993,0.15781116485595703,-0.11848802119493484,0.059567563235759735,0.031277235597372055,-0.049104444682598114
11.3,-0.02616705372929573,-0.023706432431936264,-0.16452139616012573,0.027180373668670654,0.0940784215927124,-0.049976181238889694
11.35,-0.04936633259057999,0.02037525549530983,-0.1695321947336197,0.043490178883075714,0.11156830936670303,-0.0288145262748003
11.4,-0.043285030871629715,0.10827350616455078,-0.09686677157878876,0.066335029900074,0.10124941170215607,0.009252057410776615
11.45,0.012461036443710327,0.27855682373046875,-0.11898694187402725,0.07540705800056458,0.07971031218767166,0.020776722580194473
11.5,0.08490253984928131,0.10645771026611328,-0.08062581717967987,0.01762005127966404,0.0573020800948143,0.006873247213661671
11.55,0.004878740757703781,0.012449266389012337,-0.057298023253679276,-0.013698045164346695,0.052383147180080414,-0.011638714000582695
11.6,-0.05378062278032303,0.03673935309052467,-0.09773014485836029,-0.006460907403379679,0.04904651641845703,-0.02261652611196041
11.65,-0.02030293270945549,0.1371774673461914,-0.14479245245456696,0.013122284784913063,0.014741706661880016,-0.023342100903391838
11.7,0.010727521032094955,0.10655880719423294,-0.1654306948184967,-0.0011847550049424171,-0.016443472355604172,-0.024703210219740868
11.75,0.026937033981084824,0.0914917066693306,-0.16102945804595947,-0.012563826516270638,-0.04991178959608078,-0.0061338841915130615
11.8,-0.12077023833990097,0.11990929394960403,-0.20053279399871826,-0.0304214209318161,-0.08907239884138107,-0.014447912573814392
11.85,-0.09716515243053436,0.1700725555419922,-0.06269872188568115,-0.09422896802425385,-0.17001816630363464,-0.036270905286073685
11.9,-0.23140683770179749,-0.14695167541503906,-0.042677659541368484,-0.19411660730838776,-0.14989976584911346,-0.08856626600027084
11.95,-0.3671322166919708,-0.0009727479773573577,-0.15644165873527527,-0.13399392366409302,-0.11246807128190994,-0.10199613869190216
12.0,-0.22773924469947815,0.2250957489013672,-0.36334067583084106,-0.04215959459543228,-0.12302281707525253,-0.06579624861478806
12.05,-0.10744886845350266,0.5104961395263672,-0.22225885093212128,-0.02411068230867386,-0.15399304032325745,0.000623461848590523
12.1,0.13805146515369415,0.23850345611572266,-0.0922045186161995,-0.13688094913959503,-0.2015480399131775,0.06567903608083725
12.15,0.22185304760932922,0.06682586669921875,0.025069354102015495,-0.23177969455718994,-0.19511674344539642,0.09379606693983078
12.2,-0.1042170599102974,-0.23009300231933594,0.005249608773738146,-0.2945796549320221,-0.1771181970834732,0.045421358197927475
12.25,-0.22548973560333252,-0.1368417739868164,-0.12872003018856049,-0.25560712814331055,-0.29593169689178467,0.0446244478225708
12.3,-0.8379674553871155,0.04641151800751686,-0.4990626871585846,-0.22641737759113312,-0.5110018849372864,-0.01523669809103012
12.35,-0.9752408862113953,0.26379966735839844,-0.7317858934402466,-0.29158255457878113,-1.0158048868179321,-0.15587972104549408
12.4,0.42193740606307983,-0.3803415298461914,-0.23794572055339813,-0.3707958459854126,-1.5922166109085083,-0.3357200026512146
12.45,1.5946203470230103,-0.6902704238891602,0.551855206489563,-0.22407373785972595,-1.5605413913726807,-0.2506377696990967
12.5,1.407471776008606,-0.41391944885253906,0.5514276623725891,-0.04770493507385254,-0.9205870628356934,0.039184268563985825
12.55,0.5387232303619385,0.03172016888856888,0.009139851666986942,0.027571402490139008,-0.3405649960041046,0.19517749547958374
12.6,0.002550452947616577,0.130401611328125,-0.24707724153995514,0.13891591131687164,-0.18907669186592102,0.1351069211959839
12.65,0.2319081723690033,0.09919261932373047,-0.024839457124471664,0.221654012799263,-0.21103090047836304,0.05600965768098831
12.7,0.3874090313911438,0.12491703778505325,-0.1603420078754425,0.2524925470352173,-0.0969167947769165,0.02912444993853569
12.75,0.8564918637275696,0.6361932754516602,-0.1133979931473732,0.24087536334991455,0.1309354454278946,0.09112261980772018
12.8,0.8072757720947266,0.6174144744873047,-0.22072680294513702,0.08291539549827576,0.5150893330574036,0.1586809903383255
12.85,0.13092494010925293,0.08936597406864166,-0.5419119000434875,0.019004538655281067,0.830893337726593,0.17713291943073273
12.9,-0.37333106994628906,0.2800321578979492,-0.5002111792564392,0.03652749955654144,0.7843212485313416,0.20171436667442322
12.95,0.055518463253974915,0.1961527019739151,-0.2951292395591736,0.019194621592760086,0.5802654027938843,0.13695114850997925
13.0,-0.07143783569335938,0.11122512817382812,-0.14237773418426514,-0.07893620431423187,0.5041719079017639,0.05428890883922577
13.05,-0.0697263553738594,-0.2915496826171875,0.25117233395576477,-0.18404731154441833,0.4340905249118805,0.0017536113737151027
13.1,-0.12916278839111328,-0.32898712158203125,0.3354405164718628,-0.1645822525024414,0.41776135563850403,0.006494396831840277
13.15,-0.09433741867542267,-0.255584716796875,0.32879966497421265,-0.08703212440013885,0.39991164207458496,0.009024330414831638
13.2,-0.13741636276245117,-0.1192016676068306,0.12330026924610138,0.007783770561218262,0.40653789043426514,-0.004781375639140606
13.25,-0.1745920032262802,-0.17714786529541016,-0.022636311128735542,0.05131613835692406,0.4302678406238556,-0.012169783934950829
13.3,-0.3848491311073303,-0.13071060180664062,-0.06679714471101761,0.08274730294942856,0.4376622438430786,-0.01577671989798546
13.35,-0.28927725553512573,-0.07024478912353516,-0.0668039619922638,0.10546690225601196,0.3610427975654602,-0.013027321547269821
13.4,-0.2406688630580902,-0.01774120330810547,-0.09671187400817871,0.10509195923805237,0.2889518737792969,-0.0018664475064724684
13.45,-0.1171269565820694,-0.082000732421875,-0.04165664315223694,0.10623732209205627,0.24530714750289917,0.020503543317317963
13.5,-0.02798575721681118,0.1047048568725586,-0.08405938744544983,0.1414928138256073,0.24754278361797333,0.03977709263563156
13.55,0.01976098120212555,0.14890575408935547,-0.12153913080692291,0.11519891023635864,0.24853752553462982,0.046335525810718536
13.6,-0.0021069012582302094,0.15488243103027344,-0.10966707020998001,0.08760420233011246,0.2524609863758087,0.023203736171126366
13.65,-0.06736138463020325,0.18107223510742188,-0.17300067842006683,0.07278259098529816,0.240147665143013,-0.008584655821323395
13.7,-0.09498622268438339,0.03140545263886452,-0.13287247717380524,0.06024856120347977,0.22458961606025696,-0.031952448189258575
13.75,-0.06791092455387115,0.04582405462861061,-0.13197246193885803,0.08419021219015121,0.2063673436641693,-0.015500311739742756
13.8,-0.09058818221092224,0.10946369916200638,-0.18173116445541382,0.12450964748859406,0.18294380605220795,-0.005462845787405968
13.85,-0.09755578637123108,0.21561050415039062,-0.23213152587413788,0.18259771168231964,0.12311071157455444,-0.007744703441858292
13.9,-0.1864491105079651,0.2233428955078125,-0.3195239305496216,0.13971076905727386,0.09459816664457321,-0.03034825623035431
13.95,-0.04850456118583679,0.4547586441040039,-0.3016349971294403,0.13355453312397003,0.04742561653256416,-0.021442098543047905
14.0,0.17352932691574097,0.42537593841552734,-0.15877419710159302,0.10151364654302597,0.012962441891431808,-0.015725597739219666
14.05,0.0306645929813385,0.18733787536621094,-0.16322118043899536,0.034876156598329544,0.043937891721725464,-0.0007404942298308015
14.1,0.055002372711896896,0.22924232482910156,-0.13692937791347504,0.036502428352832794,0.010791303589940071,0.014498491771519184
14.15,0.014059177599847317,0.14417362213134766,-0.03519480675458908,-0.0024513322860002518,-0.02274196222424507,-0.018854469060897827
14.2,0.23412416875362396,-0.11499214172363281,-0.030265096575021744,-0.07328153401613235,-0.06096333637833595,-0.033987365663051605
14.25,0.09905745089054108,-0.2060995101928711,0.010543023236095905,-0.07110605388879776,-0.028279244899749756,-0.030517185106873512
14.3,0.043215714395046234,-0.041092872619628906,0.028595754876732826,-0.04702938720583916,-0.032271720468997955,0.008425396867096424
14.35,-0.06469610333442688,0.28896236419677734,-0.10471685230731964,-0.010572890751063824,-0.08067221194505692,0.04111038148403168
14.4,0.10309664905071259,0.4685945510864258,-0.11854856461286545,-0.0669533759355545,-0.2225014865398407,0.030794264748692513
14.45,0.2897939085960388,0.20980358123779297,-0.08675932884216309,-0.1918623447418213,-0.32482752203941345,-0.03950266167521477
14.5,0.5007926225662231,-0.2697162628173828,0.02608359605073929,-0.23367317020893097,-0.33226820826530457,-0.11688924580812454
14.55,0.580535888671875,-0.3442201614379883,0.03932679072022438,-0.13650891184806824,-0.20863282680511475,-0.12753137946128845
14.6,0.2848193645477295,-0.08763217180967331,-0.10256236046552658,-0.06503598392009735,-0.02696690708398819,-0.05947369337081909
14.65,-0.06593387573957443,-0.06906318664550781,-0.13263049721717834,-0.08005838096141815,0.0751095786690712,-0.01858103647828102
14.7,-0.15647995471954346,-0.061202049255371094,-0.12646952271461487,-0.0541323684155941,0.0662476122379303,-0.017026500776410103
14.75,-0.07443101704120636,-0.01815604791045189,-0.16557073593139648,0.012863019481301308,0.022129537537693977,-0.036842383444309235
14.8,0.07781846821308136,0.021503454074263573,-0.16926223039627075,0.050661709159612656,-0.004009107127785683,-0.007566280663013458
14.85,0.02060253731906414,0.1207427978515625,-0.12162663787603378,0.061251260340213776,0.021465960890054703,0.025924555957317352
14.9,0.04577626660466194,0.06350899487733841,-0.13496986031532288,0.0303591750562191,0.03724747151136398,0.04027548059821129
14.95,0.10521040856838226,0.08575154095888138,-0.09109089523553848,0.02394864149391651,0.019385987892746925,0.028411149978637695
15.0,0.15509963035583496,0.03433132544159889,-0.029027780517935753,0.03144369646906853,-0.003854697337374091,0.0029383590444922447
15.05,0.16536740958690643,-0.04969119653105736,-0.043373867869377136,0.024446604773402214,0.008190258406102657,-0.019245466217398643
15.1,0.0678066685795784,-0.037508007138967514,-0.06010112911462784,0.021174468100070953,0.04555271565914154,-0.01798304170370102
15.15,0.042037252336740494,-0.09446430206298828,-0.1045542061328888,0.02528848685324192,0.04996083304286003,-0.008646130561828613
15.2,0.02718288078904152,-0.11588286608457565,-0.14373363554477692,0.022894473746418953,0.0608067624270916,-0.01582527719438076
15.25,-0.04063930734992027,-0.02651214227080345,-0.13085350394248962,0.033678434789180756,0.07729941606521606,-0.0034496639855206013
15.3,-0.11235204339027405,0.09268569946289062,-0.1328885853290558,0.06435704976320267,0.08752287924289703,0.0007246144232340157
15.35,-0.04162785783410072,0.1561145782470703,-0.16480804979801178,0.062360163778066635,0.06791426986455917,0.009309891611337662
15.4,0.013956394046545029,0.09736252576112747,-0.14572599530220032,0.03806678205728531,0.05790502205491066,0.017724081873893738
15.45,-0.023747865110635757,0.06645870953798294,-0.15248219668865204,0.03694779425859451,0.06675131618976593,0.020663432776927948
15.5,-0.018897730857133865,0.019804958254098892,-0.16910970211029053,0.03105703555047512,0.04684906452894211,0.025078026577830315
15.55,0.07810741662979126,0.027184490114450455,-0.12597085535526276,0.04852208122611046,0.008672293275594711,0.03646308556199074
15.6,0.15439748764038086,0.05951309949159622,-0.14311236143112183,0.05564402416348457,-0.000305862893583253,0.05173925310373306
15.65,0.14317196607589722,0.0362405851483345,-0.14274221658706665,0.04863373935222626,0.005144553724676371,0.039662059396505356
15.7,0.07752744853496552,0.036108020693063736,-0.14274252951145172,0.05294746533036232,0.0059376060962677,0.0031321535352617502
15.75,0.0023507103323936462,0.19548894464969635,-0.3035798966884613,0.06881962716579437,-0.019579315558075905,-0.027691451832652092
15.8,0.016958825290203094,0.22419549524784088,-0.2701829671859741,0.043789297342300415,-0.05743176490068436,-0.037592194974422455
15.85,-0.03097888082265854,0.17046070098876953,-0.2607916295528412,0.014413096010684967,-0.07767590880393982,-0.048774804919958115
15.9,-0.07778411358594894,0.1528921127319336,-0.26354414224624634,-0.0020076222717761993,-0.09769043326377869,-0.053074050694704056
15.95,0.06218186020851135,0.11043072491884232,-0.17954809963703156,-0.01117047667503357,-0.12921670079231262,-0.04820543900132179
16.0,0.2334519773721695,0.10438061505556107,-0.15111221373081207,-0.031384989619255066,-0.12562313675880432,-0.029822200536727905
16.05,0.22488239407539368,0.04993820562958717,-0.03911125659942627,-0.06713218986988068,-0.0546371154487133,-0.015576196834445
16.1,0.06666074693202972,-0.09067153930664062,0.04063264653086662,-0.07814537733793259,0.01990097388625145,-0.015266395173966885
16.15,-0.014534168876707554,-0.1634969711303711,0.04580346494913101,-0.06493271887302399,0.028825117275118828,-0.021900009363889694
16.2,0.11196573078632355,-0.16277790069580078,0.03742638975381851,-0.050051379948854446,-0.012371489778161049,-0.013173477724194527
16.25,0.26771530508995056,-0.2281970977783203,0.012884371913969517,-0.04934214800596237,-0.028867078945040703,-0.007369478233158588
16.3,0.2997625172138214,-0.23923969268798828,0.055387869477272034,-0.04191514849662781,0.004826108925044537,-0.005834926851093769
16.35,0.16853097081184387,-0.24325084686279297,0.07860646396875381,-0.03677108883857727,0.08545148372650146,0.0030401188414543867
16.4,-0.07708694785833359,-0.20674800872802734,-0.022203082218766212,0.003382147289812565,0.18236620724201202,-0.004651271738111973
16.45,-0.2490915209054947,-0.07561016082763672,-0.07868883013725281,0.06407036632299423,0.20123666524887085,-0.015437707304954529
16.5,-0.21921882033348083,0.09671497344970703,-0.1397642344236374,0.09923574328422546,0.13545657694339752,-0.03257814794778824
16.55,-0.06578867137432098,0.047135356813669205,-0.12216982245445251,0.09407375752925873,0.06688383221626282,-0.03654441237449646
16.6,-0.030615607276558876,-0.12610340118408203,-0.06749200075864792,0.1004255935549736,0.051663484424352646,-0.026156609877943993
16.65,-0.2110205739736557,-0.32922935485839844,-0.1384839564561844,0.19819973409175873,0.02031681314110756,0.008716517128050327
16.7,-0.33322596549987793,-0.35175132751464844,-0.3401523232460022,0.4478551745414734,-0.1408017873764038,0.014963413588702679
16.75,-0.2190108746290207,-0.03140448033809662,-0.5966542959213257,0.7199534177780151,-0.35974061489105225,-0.0487544946372509
16.8,-0.022122442722320557,0.5163774490356445,-0.6301048994064331,0.8446120023727417,-0.4617103636264801,-0.11595182120800018
16.85,-0.026680290699005127,0.7154083251953125,-0.7487931847572327,0.8612723350524902,-0.4608408808708191,-0.1573147028684616
16.9,0.009185194969177246,0.5473909378051758,-0.6819255352020264,0.8587772846221924,-0.4300849437713623,-0.20662425458431244
16.95,-0.010529875755310059,0.7631349563598633,-0.41696250438690186,0.8720903992652893,-0.39724382758140564,-0.2108355611562729
17.0,-0.07535672187805176,0.5420255661010742,-0.4824957847595215,0.8362860083580017,-0.4074293375015259,-0.15992464125156403
17.05,0.17873115837574005,0.9249649047851562,0.09950864315032959,0.7800938487052917,-0.4696529507637024,-0.14113138616085052
17.1,0.2588164210319519,0.7227420806884766,0.0945715680718422,0.5112259984016418,-0.4296988546848297,-0.15271210670471191
17.15,0.20370091497898102,0.14244651794433594,0.035336095839738846,0.2733599841594696,-0.3785632252693176,-0.17286454141139984
17.2,0.18745949864387512,0.24623870849609375,0.26677703857421875,0.20066624879837036,-0.34489041566848755,-0.19869038462638855
17.25,0.3093598783016205,0.07282733172178268,0.3467092514038086,0.07935325801372528,-0.3114888668060303,-0.17938004434108734
17.3,0.2103888988494873,0.13154028356075287,0.5751397609710693,-0.03866012021899223,-0.21347728371620178,-0.12458697706460953
17.35,0.23295117914676666,-0.17271043360233307,0.5647658705711365,-0.16936703026294708,-0.1288156807422638,-0.08326385915279388
17.4,0.21331986784934998,-0.2453928142786026,0.6876210570335388,-0.2149285078048706,-0.04661804810166359,-0.04788494482636452
17.45,0.09828019142150879,-0.28830626606941223,0.7348439693450928,-0.2734137177467346,0.034133557230234146,0.008741439320147038
17.5,0.13812831044197083,-0.4277524948120117,0.5843743681907654,-0.31175369024276733,0.10706160217523575,0.07777796685695648
17.55,0.23406237363815308,-0.4561586380004883,0.44638919830322266,-0.27676209807395935,0.18023957312107086,0.15299659967422485
17.6,0.20172908902168274,-0.2206287533044815,0.3646145462989807,-0.22039422392845154,0.26693248748779297,0.2019813507795334
17.65,0.19518524408340454,-0.023116113618016243,0.1272108554840088,-0.22644051909446716,0.3122934103012085,0.23258517682552338
17.7,0.36994874477386475,0.2228384017944336,0.11133138090372086,-0.26903456449508667,0.27732235193252563,0.26250728964805603
17.75,0.504743218421936,0.29387378692626953,0.11457234621047974,-0.3264038562774658,0.25799259543418884,0.23215757310390472
17.8,0.4744558334350586,0.2778797149658203,0.08191246539354324,-0.3374178409576416,0.26966238021850586,0.15097881853580475
17.85,0.4003826677799225,0.20609569549560547,0.1131192296743393,-0.3461891710758209,0.2569054663181305,0.06421887874603271
17.9,0.35881730914115906,0.04703426733613014,-0.017097873613238335,-0.34734463691711426,0.28015419840812683,-0.02646806091070175
17.95,0.16442754864692688,0.030111318454146385,-0.13304403424263,-0.30853980779647827,0.3401554524898529,-0.0643550306558609
18.0,0.0037805400788784027,0.005344394128769636,-0.11811479181051254,-0.3007218837738037,0.36602309346199036,-0.06781674176454544
18.05,-0.027917668223381042,-0.19165515899658203,0.009521999396383762,-0.35073143243789673,0.37503066658973694,-0.06672818958759308
18.1,-0.03223276138305664,-0.3043231964111328,0.12946496903896332,-0.3971025049686432,0.3721603751182556,-0.05181204900145531
18.15,-0.0032970868051052094,-0.3903627395629883,0.13151097297668457,-0.4055890738964081,0.3396158516407013,-0.03652901574969292
18.2,0.02922651544213295,-0.3998298645019531,0.08181697130203247,-0.3649449944496155,0.29089248180389404,-0.01223235484212637
18.25,0.0828600600361824,-0.35566234588623047,0.09019900858402252,-0.3069424331188202,0.252354234457016,0.0007974058971740305
18.3,0.09179918467998505,-0.37523651123046875,0.17434971034526825,-0.29608792066574097,0.24977025389671326,-0.029835142195224762
18.35,0.0002491362392902374,-0.46538352966308594,0.14946921169757843,-0.3000582456588745,0.26349812746047974,-0.06975842267274857
18.4,-0.07690201699733734,-0.38803958892822266,0.04527561739087105,-0.24284039437770844,0.25508612394332886,-0.08905976265668869
18.45,-0.14575180411338806,-0.2389049530029297,-0.09512299299240112,-0.20583444833755493,0.22473981976509094,-0.08393409848213196
18.5,-0.15142780542373657,-0.2703514099121094,-0.1931144893169403,-0.23702144622802734,0.15317992866039276,-0.05402674153447151
18.55,-0.03920688480138779,-0.36956787109375,-0.29127001762390137,-0.2650372385978699,0.06329327076673508,-0.010895995423197746
18.6,-0.007885590195655823,-0.28404903411865234,-0.4773184061050415,-0.2515890598297119,0.02852218970656395,0.022580839693546295
18.65,-0.04418329894542694,-0.16072271764278412,-0.601539134979248,-0.23719413578510284,0.036647532135248184,0.03211624175310135
18.7,-0.05340856313705444,0.10839177668094635,-0.6822106242179871,-0.22025854885578156,0.05703084543347359,0.028092266991734505
18.75,-0.038578569889068604,0.2906170189380646,-0.7086039185523987,-0.21286413073539734,0.08070667833089828,0.05191681906580925
18.8,0.01782330870628357,0.24802686274051666,-0.6534664034843445,-0.22826562821865082,0.10398388653993607,0.08871032297611237
18.85,0.0029708147048950195,0.2659178078174591,-0.6299102306365967,-0.24760550260543823,0.1513756960630417,0.10763658583164215
18.9,-0.08138260245323181,0.24387361109256744,-0.5948733687400818,-0.26981160044670105,0.20195834338665009,0.0986858382821083
18.95,-0.17620806396007538,0.23811151087284088,-0.6372753977775574,-0.25719740986824036,0.22745949029922485,0.0812978744506836
19.0,-0.2967207133769989,0.3856106102466583,-0.7133651971817017,-0.20752818882465363,0.21951261162757874,0.06752374023199081
19.05,-0.29786065220832825,0.6262044906616211,-0.7066174149513245,-0.14423134922981262,0.16690964996814728,0.03768889605998993
19.1,-0.11594484746456146,0.7529516220092773,-0.6235604286193848,-0.1016666516661644,0.1277780383825302,0.018795195966959
19.15,-0.07575905323028564,0.4580984115600586,-0.4054068326950073,-0.1469273865222931,0.14540769159793854,0.03397032618522644
19.2,-0.19335973262786865,0.058045387268066406,-0.12636353075504303,-0.19808357954025269,0.15591108798980713,0.08586322516202927
19.25,-0.17857255041599274,-0.050360679626464844,-0.07509300857782364,-0.15382437407970428,0.11598850786685944,0.11844176054000854
19.3,-0.008314082399010658,-0.07340621948242188,-0.08708614856004715,-0.09203925728797913,0.045249540358781815,0.10313010960817337
19.35,0.12747788429260254,0.08061886578798294,-0.11051808297634125,-0.012575079686939716,0.012097973376512527,0.06918054074048996
19.4,0.08951599895954132,0.3551464080810547,-0.2834227383136749,0.09691634774208069,0.03137137368321419,0.0015718871727585793
19.45,0.018149621784687042,0.4398317337036133,-0.318497896194458,0.12309780716896057,0.046225592494010925,-0.0783664733171463
19.5,0.066264308989048,0.2978944778442383,-0.22324800491333008,0.07463286072015762,0.060684628784656525,-0.13937370479106903
19.55,-0.021553494036197662,0.06908131390810013,-0.2387843132019043,0.04042251408100128,0.0907498225569725,-0.178619384765625
19.6,0.04625549912452698,0.068055160343647,-0.21255946159362793,0.05565781891345978,0.07471786439418793,-0.17571067810058594
19.65,0.13823720812797546,0.1274394989013672,-0.12740759551525116,0.05853799358010292,0.05253032222390175,-0.13748982548713684
19.7,0.1677575260400772,0.05435085669159889,-0.06997539848089218,0.012611769139766693,0.020063959062099457,-0.11852463334798813
19.75,0.3335462212562561,-0.09072494506835938,0.05648386850953102,-0.005669791251420975,-0.0059504942037165165,-0.11891043931245804
19.8,0.3430415093898773,-0.08990192413330078,0.15976659953594208,0.012693464756011963,0.0377705879509449,-0.09516250342130661
